"trial_type","trial_index","time_elapsed","internal_node_id","subject_id","task","startTime","totalTime","labels","view_history","rt","event","trial","time","trialtype","success","stimulus","key_press","stimType","arraySize","arrayFaces","arrayOutcomes","matchType","corrResp","arrayDur","targFace","targCol","targOutcome","trialType","corr"
"pavlovia","0","7","0.0-0.0","63f7b890b9c9e7b19a2e9281","bdp_wmem","Sat Apr 08 2023 11:47:28 GMT-0400 (Eastern Daylight Time)","599531","Match,No Match","","","","","","","","","","","","","","","","","","","","",""
"instructions","1","2875","0.0-1.0","63f7b890b9c9e7b19a2e9281","bdp_wmem","Sat Apr 08 2023 11:47:28 GMT-0400 (Eastern Daylight Time)","599531","Match,No Match","[{""page_index"":0,""viewing_time"":2867}]","2867","","","","","","","","","","","","","","","","","","",""
"","","","","63f7b890b9c9e7b19a2e9281","bdp_wmem","Sat Apr 08 2023 11:47:28 GMT-0400 (Eastern Daylight Time)","599531","Match,No Match","","","fullscreenenter","2","4153","fullscreenenter","","","","","","","","","","","","","","",""
"fullscreen","2","5138","0.0-2.0","63f7b890b9c9e7b19a2e9281","bdp_wmem","Sat Apr 08 2023 11:47:28 GMT-0400 (Eastern Daylight Time)","599531","Match,No Match","","","","","","","true","","","","","","","","","","","","","",""
"instructions","3","113006","0.0-4.0","63f7b890b9c9e7b19a2e9281","bdp_wmem","Sat Apr 08 2023 11:47:28 GMT-0400 (Eastern Daylight Time)","599531","Match,No Match","[{""page_index"":0,""viewing_time"":24414},{""page_index"":1,""viewing_time"":37182},{""page_index"":2,""viewing_time"":25544},{""page_index"":3,""viewing_time"":7869},{""page_index"":4,""viewing_time"":12857}]","107866","","","","","","","","","","","","","","","","","","",""
"html-keyboard-response","4","113516","0.0-5.0-1.0","63f7b890b9c9e7b19a2e9281","bdp_wmem","Sat Apr 08 2023 11:47:28 GMT-0400 (Eastern Daylight Time)","599531","Match,No Match","","null","","","","","","<div class='trialBorder'><div class='vertical-center'><img src='img/fixation2_sml.jpg'</img></div></div>","null","FIX","","","","","","","","","","",""
"html-keyboard-response","5","116522","0.0-5.0-2.0","63f7b890b9c9e7b19a2e9281","bdp_wmem","Sat Apr 08 2023 11:47:28 GMT-0400 (Eastern Daylight Time)","599531","Match,No Match","","null","","","","","","<div class='trialBorder'><div class='vertical-center'><img style='vertical-align:center; align:center' src='img/fixation2_sml.jpg'></div><div class='arrayDiv2'><div class='tl'><img class='introPic' src='trustrating_stim/white_mw012.bmp'><br><font color='green'><strong>Share</strong></font></div><div class='tr'><img class='introPic' src='trustrating_stim/white_mw070.bmp'><br><font color='red'><strong>Keep</strong></font></div></div></div>","null","ARRAY","2","trustrating_stim/white_mw012.bmp,trustrating_stim/white_mw070.bmp","1,0","Match","e","3000","","","","",""
"html-keyboard-response","6","120530","0.0-5.0-3.0","63f7b890b9c9e7b19a2e9281","bdp_wmem","Sat Apr 08 2023 11:47:28 GMT-0400 (Eastern Daylight Time)","599531","Match,No Match","","null","","","","","","<div class='trialBorder'><div class='vertical-center'><img src='img/fixation2_sml.jpg'</img></div></div>","null","DELAY","","","","","","","","","","",""
"html-keyboard-response","7","122263","0.0-5.0-4.0","63f7b890b9c9e7b19a2e9281","bdp_wmem","Sat Apr 08 2023 11:47:28 GMT-0400 (Eastern Daylight Time)","599531","Match,No Match","","1729","","","","","","<div class='trialBorder'><div class='targDiv'><div class='tc'><img class='introPic' src='trustrating_stim/white_mw070.bmp'><br><font color='red'><strong>Keep</strong></font></div></div><div class='respDiv'><div class='respDivL'>Match<br>(e)</div><div class='respDivR'>No Match<br>(i)</div></div></div>","e","TARGET","2","trustrating_stim/white_mw012.bmp,trustrating_stim/white_mw070.bmp","1,0","Match","e","3000","trustrating_stim/white_mw070.bmp","red","Keep","PRACTICE","1"
"html-keyboard-response","8","122770","0.0-5.0-5.0","63f7b890b9c9e7b19a2e9281","bdp_wmem","Sat Apr 08 2023 11:47:28 GMT-0400 (Eastern Daylight Time)","599531","Match,No Match","","null","","","","","","<div class='trialBorder'><div class='vertical-center'><img src='img/correct.jpg'></div><div class='respDiv'><div class='respDivL'><font style='color:orange'>Match<br>(e)</font></div><div class='respDivR'>No Match<br>(i)</div></div></div>","null","FEEDBACK","","","","","","","","","","",""
"html-keyboard-response","9","123274","0.0-5.0-1.1","63f7b890b9c9e7b19a2e9281","bdp_wmem","Sat Apr 08 2023 11:47:28 GMT-0400 (Eastern Daylight Time)","599531","Match,No Match","","null","","","","","","<div class='trialBorder'><div class='vertical-center'><img src='img/fixation2_sml.jpg'</img></div></div>","null","FIX","","","","","","","","","","",""
"html-keyboard-response","10","124778","0.0-5.0-2.1","63f7b890b9c9e7b19a2e9281","bdp_wmem","Sat Apr 08 2023 11:47:28 GMT-0400 (Eastern Daylight Time)","599531","Match,No Match","","null","","","","","","<div class='trialBorder'><div class='vertical-center'><img style='vertical-align:center; align:center' src='img/fixation2_sml.jpg'></div><div class='arrayDiv1'><div class='tc'><img class='introPic' src='trustrating_stim/white_mw070.bmp'><br><font color='green'><strong>Share</strong></font></div></div></div>","null","ARRAY","1","trustrating_stim/white_mw070.bmp","1","Match","e","1500","","","","",""
"html-keyboard-response","11","128786","0.0-5.0-3.1","63f7b890b9c9e7b19a2e9281","bdp_wmem","Sat Apr 08 2023 11:47:28 GMT-0400 (Eastern Daylight Time)","599531","Match,No Match","","null","","","","","","<div class='trialBorder'><div class='vertical-center'><img src='img/fixation2_sml.jpg'</img></div></div>","null","DELAY","","","","","","","","","","",""
"html-keyboard-response","12","130156","0.0-5.0-4.1","63f7b890b9c9e7b19a2e9281","bdp_wmem","Sat Apr 08 2023 11:47:28 GMT-0400 (Eastern Daylight Time)","599531","Match,No Match","","1368","","","","","","<div class='trialBorder'><div class='targDiv'><div class='tc'><img class='introPic' src='trustrating_stim/white_mw070.bmp'><br><font color='green'><strong>Share</strong></font></div></div><div class='respDiv'><div class='respDivL'>Match<br>(e)</div><div class='respDivR'>No Match<br>(i)</div></div></div>","e","TARGET","1","trustrating_stim/white_mw070.bmp","1","Match","e","1500","trustrating_stim/white_mw070.bmp","green","Share","PRACTICE","1"
"html-keyboard-response","13","130658","0.0-5.0-5.1","63f7b890b9c9e7b19a2e9281","bdp_wmem","Sat Apr 08 2023 11:47:28 GMT-0400 (Eastern Daylight Time)","599531","Match,No Match","","null","","","","","","<div class='trialBorder'><div class='vertical-center'><img src='img/correct.jpg'></div><div class='respDiv'><div class='respDivL'><font style='color:orange'>Match<br>(e)</font></div><div class='respDivR'>No Match<br>(i)</div></div></div>","null","FEEDBACK","","","","","","","","","","",""
"html-keyboard-response","14","131162","0.0-5.0-1.2","63f7b890b9c9e7b19a2e9281","bdp_wmem","Sat Apr 08 2023 11:47:28 GMT-0400 (Eastern Daylight Time)","599531","Match,No Match","","null","","","","","","<div class='trialBorder'><div class='vertical-center'><img src='img/fixation2_sml.jpg'</img></div></div>","null","FIX","","","","","","","","","","",""
"html-keyboard-response","15","134170","0.0-5.0-2.2","63f7b890b9c9e7b19a2e9281","bdp_wmem","Sat Apr 08 2023 11:47:28 GMT-0400 (Eastern Daylight Time)","599531","Match,No Match","","null","","","","","","<div class='trialBorder'><div class='vertical-center'><img style='vertical-align:center; align:center' src='img/fixation2_sml.jpg'></div><div class='arrayDiv2'><div class='tl'><img class='introPic' src='trustrating_stim/white_mw038.bmp'><br><font color='red'><strong>Keep</strong></font></div><div class='tr'><img class='introPic' src='trustrating_stim/white_mw070.bmp'><br><font color='green'><strong>Share</strong></font></div></div></div>","null","ARRAY","2","trustrating_stim/white_mw038.bmp,trustrating_stim/white_mw070.bmp","0,1","noMatchOutcome","i","3000","","","","",""
"html-keyboard-response","16","138178","0.0-5.0-3.2","63f7b890b9c9e7b19a2e9281","bdp_wmem","Sat Apr 08 2023 11:47:28 GMT-0400 (Eastern Daylight Time)","599531","Match,No Match","","null","","","","","","<div class='trialBorder'><div class='vertical-center'><img src='img/fixation2_sml.jpg'</img></div></div>","null","DELAY","","","","","","","","","","",""
"html-keyboard-response","17","139703","0.0-5.0-4.2","63f7b890b9c9e7b19a2e9281","bdp_wmem","Sat Apr 08 2023 11:47:28 GMT-0400 (Eastern Daylight Time)","599531","Match,No Match","","1522","","","","","","<div class='trialBorder'><div class='targDiv'><div class='tc'><img class='introPic' src='trustrating_stim/white_mw070.bmp'><br><font color='red'><strong>Keep</strong></font></div></div><div class='respDiv'><div class='respDivL'>Match<br>(e)</div><div class='respDivR'>No Match<br>(i)</div></div></div>","i","TARGET","2","trustrating_stim/white_mw038.bmp,trustrating_stim/white_mw070.bmp","0,1","noMatchOutcome","i","3000","trustrating_stim/white_mw070.bmp","red","Keep","PRACTICE","1"
"html-keyboard-response","18","140210","0.0-5.0-5.2","63f7b890b9c9e7b19a2e9281","bdp_wmem","Sat Apr 08 2023 11:47:28 GMT-0400 (Eastern Daylight Time)","599531","Match,No Match","","null","","","","","","<div class='trialBorder'><div class='vertical-center'><img src='img/correct.jpg'></div><div class='respDiv'><div class='respDivL'>Match<br>(e)</div><div class='respDivR'><font style='color:orange'>No Match<br>(i)</font></div></div></div>","null","FEEDBACK","","","","","","","","","","",""
"html-keyboard-response","19","140714","0.0-5.0-1.3","63f7b890b9c9e7b19a2e9281","bdp_wmem","Sat Apr 08 2023 11:47:28 GMT-0400 (Eastern Daylight Time)","599531","Match,No Match","","null","","","","","","<div class='trialBorder'><div class='vertical-center'><img src='img/fixation2_sml.jpg'</img></div></div>","null","FIX","","","","","","","","","","",""
"html-keyboard-response","20","142220","0.0-5.0-2.3","63f7b890b9c9e7b19a2e9281","bdp_wmem","Sat Apr 08 2023 11:47:28 GMT-0400 (Eastern Daylight Time)","599531","Match,No Match","","null","","","","","","<div class='trialBorder'><div class='vertical-center'><img style='vertical-align:center; align:center' src='img/fixation2_sml.jpg'></div><div class='arrayDiv1'><div class='tc'><img class='introPic' src='trustrating_stim/white_mw092.bmp'><br><font color='green'><strong>Share</strong></font></div></div></div>","null","ARRAY","1","trustrating_stim/white_mw092.bmp","1","noMatchFace","i","1500","","","","",""
"html-keyboard-response","21","146226","0.0-5.0-3.3","63f7b890b9c9e7b19a2e9281","bdp_wmem","Sat Apr 08 2023 11:47:28 GMT-0400 (Eastern Daylight Time)","599531","Match,No Match","","null","","","","","","<div class='trialBorder'><div class='vertical-center'><img src='img/fixation2_sml.jpg'</img></div></div>","null","DELAY","","","","","","","","","","",""
"html-keyboard-response","22","147169","0.0-5.0-4.3","63f7b890b9c9e7b19a2e9281","bdp_wmem","Sat Apr 08 2023 11:47:28 GMT-0400 (Eastern Daylight Time)","599531","Match,No Match","","940","","","","","","<div class='trialBorder'><div class='targDiv'><div class='tc'><img class='introPic' src='trustrating_stim/white_mw013.bmp'><br><font color='green'><strong>Share</strong></font></div></div><div class='respDiv'><div class='respDivL'>Match<br>(e)</div><div class='respDivR'>No Match<br>(i)</div></div></div>","i","TARGET","1","trustrating_stim/white_mw092.bmp","1","noMatchFace","i","1500","trustrating_stim/white_mw013.bmp","green","Share","PRACTICE","1"
"html-keyboard-response","23","147674","0.0-5.0-5.3","63f7b890b9c9e7b19a2e9281","bdp_wmem","Sat Apr 08 2023 11:47:28 GMT-0400 (Eastern Daylight Time)","599531","Match,No Match","","null","","","","","","<div class='trialBorder'><div class='vertical-center'><img src='img/correct.jpg'></div><div class='respDiv'><div class='respDivL'>Match<br>(e)</div><div class='respDivR'><font style='color:orange'>No Match<br>(i)</font></div></div></div>","null","FEEDBACK","","","","","","","","","","",""
"html-keyboard-response","24","148178","0.0-5.0-1.4","63f7b890b9c9e7b19a2e9281","bdp_wmem","Sat Apr 08 2023 11:47:28 GMT-0400 (Eastern Daylight Time)","599531","Match,No Match","","null","","","","","","<div class='trialBorder'><div class='vertical-center'><img src='img/fixation2_sml.jpg'</img></div></div>","null","FIX","","","","","","","","","","",""
"html-keyboard-response","25","152682","0.0-5.0-2.4","63f7b890b9c9e7b19a2e9281","bdp_wmem","Sat Apr 08 2023 11:47:28 GMT-0400 (Eastern Daylight Time)","599531","Match,No Match","","null","","","","","","<div class='trialBorder'><div class='vertical-center'><img style='vertical-align:center; align:center' src='img/fixation2_sml.jpg'></div><div class='arrayDiv3'><div class='tl'><img class='introPic' src='trustrating_stim/white_mw092.bmp'><br><font color='green'><strong>Share</strong></font></div><div class='tc'><img class='introPic' src='trustrating_stim/white_mw012.bmp'><br><font color='green'><strong>Share</strong></font></div><div class='tr'><img class='introPic' src='trustrating_stim/white_mw040.bmp'><br><font color='red'><strong>Keep</strong></font></div></div></div>","null","ARRAY","3","trustrating_stim/white_mw092.bmp,trustrating_stim/white_mw012.bmp,trustrating_stim/white_mw040.bmp","1,1,0","noMatchOutcome","i","4500","","","","",""
"html-keyboard-response","26","156690","0.0-5.0-3.4","63f7b890b9c9e7b19a2e9281","bdp_wmem","Sat Apr 08 2023 11:47:28 GMT-0400 (Eastern Daylight Time)","599531","Match,No Match","","null","","","","","","<div class='trialBorder'><div class='vertical-center'><img src='img/fixation2_sml.jpg'</img></div></div>","null","DELAY","","","","","","","","","","",""
"html-keyboard-response","27","157718","0.0-5.0-4.4","63f7b890b9c9e7b19a2e9281","bdp_wmem","Sat Apr 08 2023 11:47:28 GMT-0400 (Eastern Daylight Time)","599531","Match,No Match","","1025","","","","","","<div class='trialBorder'><div class='targDiv'><div class='tc'><img class='introPic' src='trustrating_stim/white_mw012.bmp'><br><font color='red'><strong>Keep</strong></font></div></div><div class='respDiv'><div class='respDivL'>Match<br>(e)</div><div class='respDivR'>No Match<br>(i)</div></div></div>","i","TARGET","3","trustrating_stim/white_mw092.bmp,trustrating_stim/white_mw012.bmp,trustrating_stim/white_mw040.bmp","1,1,0","noMatchOutcome","i","4500","trustrating_stim/white_mw012.bmp","red","Keep","PRACTICE","1"
"html-keyboard-response","28","158226","0.0-5.0-5.4","63f7b890b9c9e7b19a2e9281","bdp_wmem","Sat Apr 08 2023 11:47:28 GMT-0400 (Eastern Daylight Time)","599531","Match,No Match","","null","","","","","","<div class='trialBorder'><div class='vertical-center'><img src='img/correct.jpg'></div><div class='respDiv'><div class='respDivL'>Match<br>(e)</div><div class='respDivR'><font style='color:orange'>No Match<br>(i)</font></div></div></div>","null","FEEDBACK","","","","","","","","","","",""
"html-keyboard-response","29","158730","0.0-5.0-1.5","63f7b890b9c9e7b19a2e9281","bdp_wmem","Sat Apr 08 2023 11:47:28 GMT-0400 (Eastern Daylight Time)","599531","Match,No Match","","null","","","","","","<div class='trialBorder'><div class='vertical-center'><img src='img/fixation2_sml.jpg'</img></div></div>","null","FIX","","","","","","","","","","",""
"html-keyboard-response","30","163235","0.0-5.0-2.5","63f7b890b9c9e7b19a2e9281","bdp_wmem","Sat Apr 08 2023 11:47:28 GMT-0400 (Eastern Daylight Time)","599531","Match,No Match","","null","","","","","","<div class='trialBorder'><div class='vertical-center'><img style='vertical-align:center; align:center' src='img/fixation2_sml.jpg'></div><div class='arrayDiv3'><div class='tl'><img class='introPic' src='trustrating_stim/white_mw040.bmp'><br><font color='red'><strong>Keep</strong></font></div><div class='tc'><img class='introPic' src='trustrating_stim/white_mw078.bmp'><br><font color='green'><strong>Share</strong></font></div><div class='tr'><img class='introPic' src='trustrating_stim/white_mw013.bmp'><br><font color='green'><strong>Share</strong></font></div></div></div>","null","ARRAY","3","trustrating_stim/white_mw040.bmp,trustrating_stim/white_mw078.bmp,trustrating_stim/white_mw013.bmp","0,1,1","Match","e","4500","","","","",""
"html-keyboard-response","31","167242","0.0-5.0-3.5","63f7b890b9c9e7b19a2e9281","bdp_wmem","Sat Apr 08 2023 11:47:28 GMT-0400 (Eastern Daylight Time)","599531","Match,No Match","","null","","","","","","<div class='trialBorder'><div class='vertical-center'><img src='img/fixation2_sml.jpg'</img></div></div>","null","DELAY","","","","","","","","","","",""
"html-keyboard-response","32","167956","0.0-5.0-4.5","63f7b890b9c9e7b19a2e9281","bdp_wmem","Sat Apr 08 2023 11:47:28 GMT-0400 (Eastern Daylight Time)","599531","Match,No Match","","710","","","","","","<div class='trialBorder'><div class='targDiv'><div class='tc'><img class='introPic' src='trustrating_stim/white_mw040.bmp'><br><font color='red'><strong>Keep</strong></font></div></div><div class='respDiv'><div class='respDivL'>Match<br>(e)</div><div class='respDivR'>No Match<br>(i)</div></div></div>","e","TARGET","3","trustrating_stim/white_mw040.bmp,trustrating_stim/white_mw078.bmp,trustrating_stim/white_mw013.bmp","0,1,1","Match","e","4500","trustrating_stim/white_mw040.bmp","red","Keep","PRACTICE","1"
"html-keyboard-response","33","168458","0.0-5.0-5.5","63f7b890b9c9e7b19a2e9281","bdp_wmem","Sat Apr 08 2023 11:47:28 GMT-0400 (Eastern Daylight Time)","599531","Match,No Match","","null","","","","","","<div class='trialBorder'><div class='vertical-center'><img src='img/correct.jpg'></div><div class='respDiv'><div class='respDivL'><font style='color:orange'>Match<br>(e)</font></div><div class='respDivR'>No Match<br>(i)</div></div></div>","null","FEEDBACK","","","","","","","","","","",""
"instructions","34","173751","0.0-6.0","63f7b890b9c9e7b19a2e9281","bdp_wmem","Sat Apr 08 2023 11:47:28 GMT-0400 (Eastern Daylight Time)","599531","Match,No Match","[{""page_index"":0,""viewing_time"":5291}]","5292","","","","","","","","","","","","","","","","","","",""
"html-keyboard-response","35","174258","0.0-7.0-1.0","63f7b890b9c9e7b19a2e9281","bdp_wmem","Sat Apr 08 2023 11:47:28 GMT-0400 (Eastern Daylight Time)","599531","Match,No Match","","null","","","","","","<div class='trialBorder'><div class='vertical-center'><img src='img/fixation2_sml.jpg'</img></div></div>","null","FIX","","","","","","","","","","",""
"html-keyboard-response","36","175762","0.0-7.0-2.0","63f7b890b9c9e7b19a2e9281","bdp_wmem","Sat Apr 08 2023 11:47:28 GMT-0400 (Eastern Daylight Time)","599531","Match,No Match","","null","","","","","","<div class='trialBorder'><div class='vertical-center'><img style='vertical-align:center; align:center' src='img/fixation2_sml.jpg'></div><div class='arrayDiv1'><div class='tc'><img class='introPic' src='trustrating_stim/white_mw042.bmp'><br><font color='green'><strong>Share</strong></font></div></div></div>","null","ARRAY","1","trustrating_stim/white_mw042.bmp","1","noMatchOutcome","i","1500","","","","",""
"html-keyboard-response","37","179770","0.0-7.0-3.0","63f7b890b9c9e7b19a2e9281","bdp_wmem","Sat Apr 08 2023 11:47:28 GMT-0400 (Eastern Daylight Time)","599531","Match,No Match","","null","","","","","","<div class='trialBorder'><div class='vertical-center'><img src='img/fixation2_sml.jpg'</img></div></div>","null","DELAY","","","","","","","","","","",""
"html-keyboard-response","38","180547","0.0-7.0-4.0","63f7b890b9c9e7b19a2e9281","bdp_wmem","Sat Apr 08 2023 11:47:28 GMT-0400 (Eastern Daylight Time)","599531","Match,No Match","","774","","","","","","<div class='trialBorder'><div class='targDiv'><div class='tc'><img class='introPic' src='trustrating_stim/white_mw042.bmp'><br><font color='red'><strong>Keep</strong></font></div></div><div class='respDiv'><div class='respDivL'>Match<br>(e)</div><div class='respDivR'>No Match<br>(i)</div></div></div>","i","TARGET","1","trustrating_stim/white_mw042.bmp","1","noMatchOutcome","i","1500","trustrating_stim/white_mw042.bmp","red","Keep","REAL","1"
"html-keyboard-response","39","181050","0.0-7.0-5.0","63f7b890b9c9e7b19a2e9281","bdp_wmem","Sat Apr 08 2023 11:47:28 GMT-0400 (Eastern Daylight Time)","599531","Match,No Match","","null","","","","","","<div class='trialBorder'><div class='vertical-center'><img src='img/correct.jpg'></div><div class='respDiv'><div class='respDivL'>Match<br>(e)</div><div class='respDivR'><font style='color:orange'>No Match<br>(i)</font></div></div></div>","null","FEEDBACK","","","","","","","","","","",""
"html-keyboard-response","40","181554","0.0-7.0-1.1","63f7b890b9c9e7b19a2e9281","bdp_wmem","Sat Apr 08 2023 11:47:28 GMT-0400 (Eastern Daylight Time)","599531","Match,No Match","","null","","","","","","<div class='trialBorder'><div class='vertical-center'><img src='img/fixation2_sml.jpg'</img></div></div>","null","FIX","","","","","","","","","","",""
"html-keyboard-response","41","186058","0.0-7.0-2.1","63f7b890b9c9e7b19a2e9281","bdp_wmem","Sat Apr 08 2023 11:47:28 GMT-0400 (Eastern Daylight Time)","599531","Match,No Match","","null","","","","","","<div class='trialBorder'><div class='vertical-center'><img style='vertical-align:center; align:center' src='img/fixation2_sml.jpg'></div><div class='arrayDiv3'><div class='tl'><img class='introPic' src='trustrating_stim/white_mw040.bmp'><br><font color='green'><strong>Share</strong></font></div><div class='tc'><img class='introPic' src='trustrating_stim/white_mw010.bmp'><br><font color='green'><strong>Share</strong></font></div><div class='tr'><img class='introPic' src='trustrating_stim/white_mw012.bmp'><br><font color='red'><strong>Keep</strong></font></div></div></div>","null","ARRAY","3","trustrating_stim/white_mw040.bmp,trustrating_stim/white_mw010.bmp,trustrating_stim/white_mw012.bmp","1,1,0","noMatchFace","i","4500","","","","",""
"html-keyboard-response","42","190066","0.0-7.0-3.1","63f7b890b9c9e7b19a2e9281","bdp_wmem","Sat Apr 08 2023 11:47:28 GMT-0400 (Eastern Daylight Time)","599531","Match,No Match","","null","","","","","","<div class='trialBorder'><div class='vertical-center'><img src='img/fixation2_sml.jpg'</img></div></div>","null","DELAY","","","","","","","","","","",""
"html-keyboard-response","43","190923","0.0-7.0-4.1","63f7b890b9c9e7b19a2e9281","bdp_wmem","Sat Apr 08 2023 11:47:28 GMT-0400 (Eastern Daylight Time)","599531","Match,No Match","","855","","","","","","<div class='trialBorder'><div class='targDiv'><div class='tc'><img class='introPic' src='trustrating_stim/white_mw091.bmp'><br><font color='red'><strong>Keep</strong></font></div></div><div class='respDiv'><div class='respDivL'>Match<br>(e)</div><div class='respDivR'>No Match<br>(i)</div></div></div>","i","TARGET","3","trustrating_stim/white_mw040.bmp,trustrating_stim/white_mw010.bmp,trustrating_stim/white_mw012.bmp","1,1,0","noMatchFace","i","4500","trustrating_stim/white_mw091.bmp","red","Keep","REAL","1"
"html-keyboard-response","44","191426","0.0-7.0-5.1","63f7b890b9c9e7b19a2e9281","bdp_wmem","Sat Apr 08 2023 11:47:28 GMT-0400 (Eastern Daylight Time)","599531","Match,No Match","","null","","","","","","<div class='trialBorder'><div class='vertical-center'><img src='img/correct.jpg'></div><div class='respDiv'><div class='respDivL'>Match<br>(e)</div><div class='respDivR'><font style='color:orange'>No Match<br>(i)</font></div></div></div>","null","FEEDBACK","","","","","","","","","","",""
"html-keyboard-response","45","191930","0.0-7.0-1.2","63f7b890b9c9e7b19a2e9281","bdp_wmem","Sat Apr 08 2023 11:47:28 GMT-0400 (Eastern Daylight Time)","599531","Match,No Match","","null","","","","","","<div class='trialBorder'><div class='vertical-center'><img src='img/fixation2_sml.jpg'</img></div></div>","null","FIX","","","","","","","","","","",""
"html-keyboard-response","46","194941","0.0-7.0-2.2","63f7b890b9c9e7b19a2e9281","bdp_wmem","Sat Apr 08 2023 11:47:28 GMT-0400 (Eastern Daylight Time)","599531","Match,No Match","","null","","","","","","<div class='trialBorder'><div class='vertical-center'><img style='vertical-align:center; align:center' src='img/fixation2_sml.jpg'></div><div class='arrayDiv2'><div class='tl'><img class='introPic' src='trustrating_stim/white_mw013.bmp'><br><font color='green'><strong>Share</strong></font></div><div class='tr'><img class='introPic' src='trustrating_stim/white_mw070.bmp'><br><font color='red'><strong>Keep</strong></font></div></div></div>","null","ARRAY","2","trustrating_stim/white_mw013.bmp,trustrating_stim/white_mw070.bmp","1,0","Match","e","3000","","","","",""
"html-keyboard-response","47","198946","0.0-7.0-3.2","63f7b890b9c9e7b19a2e9281","bdp_wmem","Sat Apr 08 2023 11:47:28 GMT-0400 (Eastern Daylight Time)","599531","Match,No Match","","null","","","","","","<div class='trialBorder'><div class='vertical-center'><img src='img/fixation2_sml.jpg'</img></div></div>","null","DELAY","","","","","","","","","","",""
"html-keyboard-response","48","199575","0.0-7.0-4.2","63f7b890b9c9e7b19a2e9281","bdp_wmem","Sat Apr 08 2023 11:47:28 GMT-0400 (Eastern Daylight Time)","599531","Match,No Match","","626","","","","","","<div class='trialBorder'><div class='targDiv'><div class='tc'><img class='introPic' src='trustrating_stim/white_mw013.bmp'><br><font color='green'><strong>Share</strong></font></div></div><div class='respDiv'><div class='respDivL'>Match<br>(e)</div><div class='respDivR'>No Match<br>(i)</div></div></div>","e","TARGET","2","trustrating_stim/white_mw013.bmp,trustrating_stim/white_mw070.bmp","1,0","Match","e","3000","trustrating_stim/white_mw013.bmp","green","Share","REAL","1"
"html-keyboard-response","49","200082","0.0-7.0-5.2","63f7b890b9c9e7b19a2e9281","bdp_wmem","Sat Apr 08 2023 11:47:28 GMT-0400 (Eastern Daylight Time)","599531","Match,No Match","","null","","","","","","<div class='trialBorder'><div class='vertical-center'><img src='img/correct.jpg'></div><div class='respDiv'><div class='respDivL'><font style='color:orange'>Match<br>(e)</font></div><div class='respDivR'>No Match<br>(i)</div></div></div>","null","FEEDBACK","","","","","","","","","","",""
"html-keyboard-response","50","200586","0.0-7.0-1.3","63f7b890b9c9e7b19a2e9281","bdp_wmem","Sat Apr 08 2023 11:47:28 GMT-0400 (Eastern Daylight Time)","599531","Match,No Match","","null","","","","","","<div class='trialBorder'><div class='vertical-center'><img src='img/fixation2_sml.jpg'</img></div></div>","null","FIX","","","","","","","","","","",""
"html-keyboard-response","51","205090","0.0-7.0-2.3","63f7b890b9c9e7b19a2e9281","bdp_wmem","Sat Apr 08 2023 11:47:28 GMT-0400 (Eastern Daylight Time)","599531","Match,No Match","","null","","","","","","<div class='trialBorder'><div class='vertical-center'><img style='vertical-align:center; align:center' src='img/fixation2_sml.jpg'></div><div class='arrayDiv3'><div class='tl'><img class='introPic' src='trustrating_stim/white_mw013.bmp'><br><font color='red'><strong>Keep</strong></font></div><div class='tc'><img class='introPic' src='trustrating_stim/white_mw091.bmp'><br><font color='green'><strong>Share</strong></font></div><div class='tr'><img class='introPic' src='trustrating_stim/white_mw040.bmp'><br><font color='green'><strong>Share</strong></font></div></div></div>","null","ARRAY","3","trustrating_stim/white_mw013.bmp,trustrating_stim/white_mw091.bmp,trustrating_stim/white_mw040.bmp","0,1,1","Match","e","4500","","","","",""
"html-keyboard-response","52","209098","0.0-7.0-3.3","63f7b890b9c9e7b19a2e9281","bdp_wmem","Sat Apr 08 2023 11:47:28 GMT-0400 (Eastern Daylight Time)","599531","Match,No Match","","null","","","","","","<div class='trialBorder'><div class='vertical-center'><img src='img/fixation2_sml.jpg'</img></div></div>","null","DELAY","","","","","","","","","","",""
"html-keyboard-response","53","210368","0.0-7.0-4.3","63f7b890b9c9e7b19a2e9281","bdp_wmem","Sat Apr 08 2023 11:47:28 GMT-0400 (Eastern Daylight Time)","599531","Match,No Match","","1267","","","","","","<div class='trialBorder'><div class='targDiv'><div class='tc'><img class='introPic' src='trustrating_stim/white_mw013.bmp'><br><font color='red'><strong>Keep</strong></font></div></div><div class='respDiv'><div class='respDivL'>Match<br>(e)</div><div class='respDivR'>No Match<br>(i)</div></div></div>","e","TARGET","3","trustrating_stim/white_mw013.bmp,trustrating_stim/white_mw091.bmp,trustrating_stim/white_mw040.bmp","0,1,1","Match","e","4500","trustrating_stim/white_mw013.bmp","red","Keep","REAL","1"
"html-keyboard-response","54","210874","0.0-7.0-5.3","63f7b890b9c9e7b19a2e9281","bdp_wmem","Sat Apr 08 2023 11:47:28 GMT-0400 (Eastern Daylight Time)","599531","Match,No Match","","null","","","","","","<div class='trialBorder'><div class='vertical-center'><img src='img/correct.jpg'></div><div class='respDiv'><div class='respDivL'><font style='color:orange'>Match<br>(e)</font></div><div class='respDivR'>No Match<br>(i)</div></div></div>","null","FEEDBACK","","","","","","","","","","",""
"html-keyboard-response","55","211378","0.0-7.0-1.4","63f7b890b9c9e7b19a2e9281","bdp_wmem","Sat Apr 08 2023 11:47:28 GMT-0400 (Eastern Daylight Time)","599531","Match,No Match","","null","","","","","","<div class='trialBorder'><div class='vertical-center'><img src='img/fixation2_sml.jpg'</img></div></div>","null","FIX","","","","","","","","","","",""
"html-keyboard-response","56","212898","0.0-7.0-2.4","63f7b890b9c9e7b19a2e9281","bdp_wmem","Sat Apr 08 2023 11:47:28 GMT-0400 (Eastern Daylight Time)","599531","Match,No Match","","null","","","","","","<div class='trialBorder'><div class='vertical-center'><img style='vertical-align:center; align:center' src='img/fixation2_sml.jpg'></div><div class='arrayDiv1'><div class='tc'><img class='introPic' src='trustrating_stim/white_mw091.bmp'><br><font color='green'><strong>Share</strong></font></div></div></div>","null","ARRAY","1","trustrating_stim/white_mw091.bmp","1","noMatchFace","i","1500","","","","",""
"html-keyboard-response","57","216906","0.0-7.0-3.4","63f7b890b9c9e7b19a2e9281","bdp_wmem","Sat Apr 08 2023 11:47:28 GMT-0400 (Eastern Daylight Time)","599531","Match,No Match","","null","","","","","","<div class='trialBorder'><div class='vertical-center'><img src='img/fixation2_sml.jpg'</img></div></div>","null","DELAY","","","","","","","","","","",""
"html-keyboard-response","58","217618","0.0-7.0-4.4","63f7b890b9c9e7b19a2e9281","bdp_wmem","Sat Apr 08 2023 11:47:28 GMT-0400 (Eastern Daylight Time)","599531","Match,No Match","","709","","","","","","<div class='trialBorder'><div class='targDiv'><div class='tc'><img class='introPic' src='trustrating_stim/white_mw013.bmp'><br><font color='green'><strong>Share</strong></font></div></div><div class='respDiv'><div class='respDivL'>Match<br>(e)</div><div class='respDivR'>No Match<br>(i)</div></div></div>","i","TARGET","1","trustrating_stim/white_mw091.bmp","1","noMatchFace","i","1500","trustrating_stim/white_mw013.bmp","green","Share","REAL","1"
"html-keyboard-response","59","218122","0.0-7.0-5.4","63f7b890b9c9e7b19a2e9281","bdp_wmem","Sat Apr 08 2023 11:47:28 GMT-0400 (Eastern Daylight Time)","599531","Match,No Match","","null","","","","","","<div class='trialBorder'><div class='vertical-center'><img src='img/correct.jpg'></div><div class='respDiv'><div class='respDivL'>Match<br>(e)</div><div class='respDivR'><font style='color:orange'>No Match<br>(i)</font></div></div></div>","null","FEEDBACK","","","","","","","","","","",""
"html-keyboard-response","60","218626","0.0-7.0-1.5","63f7b890b9c9e7b19a2e9281","bdp_wmem","Sat Apr 08 2023 11:47:28 GMT-0400 (Eastern Daylight Time)","599531","Match,No Match","","null","","","","","","<div class='trialBorder'><div class='vertical-center'><img src='img/fixation2_sml.jpg'</img></div></div>","null","FIX","","","","","","","","","","",""
"html-keyboard-response","61","223130","0.0-7.0-2.5","63f7b890b9c9e7b19a2e9281","bdp_wmem","Sat Apr 08 2023 11:47:28 GMT-0400 (Eastern Daylight Time)","599531","Match,No Match","","null","","","","","","<div class='trialBorder'><div class='vertical-center'><img style='vertical-align:center; align:center' src='img/fixation2_sml.jpg'></div><div class='arrayDiv3'><div class='tl'><img class='introPic' src='trustrating_stim/white_mw003.bmp'><br><font color='red'><strong>Keep</strong></font></div><div class='tc'><img class='introPic' src='trustrating_stim/white_mw042.bmp'><br><font color='red'><strong>Keep</strong></font></div><div class='tr'><img class='introPic' src='trustrating_stim/white_mw040.bmp'><br><font color='green'><strong>Share</strong></font></div></div></div>","null","ARRAY","3","trustrating_stim/white_mw003.bmp,trustrating_stim/white_mw042.bmp,trustrating_stim/white_mw040.bmp","0,0,1","Match","e","4500","","","","",""
"html-keyboard-response","62","227138","0.0-7.0-3.5","63f7b890b9c9e7b19a2e9281","bdp_wmem","Sat Apr 08 2023 11:47:28 GMT-0400 (Eastern Daylight Time)","599531","Match,No Match","","null","","","","","","<div class='trialBorder'><div class='vertical-center'><img src='img/fixation2_sml.jpg'</img></div></div>","null","DELAY","","","","","","","","","","",""
"html-keyboard-response","63","227999","0.0-7.0-4.5","63f7b890b9c9e7b19a2e9281","bdp_wmem","Sat Apr 08 2023 11:47:28 GMT-0400 (Eastern Daylight Time)","599531","Match,No Match","","858","","","","","","<div class='trialBorder'><div class='targDiv'><div class='tc'><img class='introPic' src='trustrating_stim/white_mw003.bmp'><br><font color='red'><strong>Keep</strong></font></div></div><div class='respDiv'><div class='respDivL'>Match<br>(e)</div><div class='respDivR'>No Match<br>(i)</div></div></div>","e","TARGET","3","trustrating_stim/white_mw003.bmp,trustrating_stim/white_mw042.bmp,trustrating_stim/white_mw040.bmp","0,0,1","Match","e","4500","trustrating_stim/white_mw003.bmp","red","Keep","REAL","1"
"html-keyboard-response","64","228506","0.0-7.0-5.5","63f7b890b9c9e7b19a2e9281","bdp_wmem","Sat Apr 08 2023 11:47:28 GMT-0400 (Eastern Daylight Time)","599531","Match,No Match","","null","","","","","","<div class='trialBorder'><div class='vertical-center'><img src='img/correct.jpg'></div><div class='respDiv'><div class='respDivL'><font style='color:orange'>Match<br>(e)</font></div><div class='respDivR'>No Match<br>(i)</div></div></div>","null","FEEDBACK","","","","","","","","","","",""
"html-keyboard-response","65","229010","0.0-7.0-1.6","63f7b890b9c9e7b19a2e9281","bdp_wmem","Sat Apr 08 2023 11:47:28 GMT-0400 (Eastern Daylight Time)","599531","Match,No Match","","null","","","","","","<div class='trialBorder'><div class='vertical-center'><img src='img/fixation2_sml.jpg'</img></div></div>","null","FIX","","","","","","","","","","",""
"html-keyboard-response","66","230514","0.0-7.0-2.6","63f7b890b9c9e7b19a2e9281","bdp_wmem","Sat Apr 08 2023 11:47:28 GMT-0400 (Eastern Daylight Time)","599531","Match,No Match","","null","","","","","","<div class='trialBorder'><div class='vertical-center'><img style='vertical-align:center; align:center' src='img/fixation2_sml.jpg'></div><div class='arrayDiv1'><div class='tc'><img class='introPic' src='trustrating_stim/white_mw070.bmp'><br><font color='green'><strong>Share</strong></font></div></div></div>","null","ARRAY","1","trustrating_stim/white_mw070.bmp","1","noMatchFace","i","1500","","","","",""
"html-keyboard-response","67","234523","0.0-7.0-3.6","63f7b890b9c9e7b19a2e9281","bdp_wmem","Sat Apr 08 2023 11:47:28 GMT-0400 (Eastern Daylight Time)","599531","Match,No Match","","null","","","","","","<div class='trialBorder'><div class='vertical-center'><img src='img/fixation2_sml.jpg'</img></div></div>","null","DELAY","","","","","","","","","","",""
"html-keyboard-response","68","235368","0.0-7.0-4.6","63f7b890b9c9e7b19a2e9281","bdp_wmem","Sat Apr 08 2023 11:47:28 GMT-0400 (Eastern Daylight Time)","599531","Match,No Match","","842","","","","","","<div class='trialBorder'><div class='targDiv'><div class='tc'><img class='introPic' src='trustrating_stim/white_mw078.bmp'><br><font color='green'><strong>Share</strong></font></div></div><div class='respDiv'><div class='respDivL'>Match<br>(e)</div><div class='respDivR'>No Match<br>(i)</div></div></div>","i","TARGET","1","trustrating_stim/white_mw070.bmp","1","noMatchFace","i","1500","trustrating_stim/white_mw078.bmp","green","Share","REAL","1"
"html-keyboard-response","69","235874","0.0-7.0-5.6","63f7b890b9c9e7b19a2e9281","bdp_wmem","Sat Apr 08 2023 11:47:28 GMT-0400 (Eastern Daylight Time)","599531","Match,No Match","","null","","","","","","<div class='trialBorder'><div class='vertical-center'><img src='img/correct.jpg'></div><div class='respDiv'><div class='respDivL'>Match<br>(e)</div><div class='respDivR'><font style='color:orange'>No Match<br>(i)</font></div></div></div>","null","FEEDBACK","","","","","","","","","","",""
"html-keyboard-response","70","236378","0.0-7.0-1.7","63f7b890b9c9e7b19a2e9281","bdp_wmem","Sat Apr 08 2023 11:47:28 GMT-0400 (Eastern Daylight Time)","599531","Match,No Match","","null","","","","","","<div class='trialBorder'><div class='vertical-center'><img src='img/fixation2_sml.jpg'</img></div></div>","null","FIX","","","","","","","","","","",""
"html-keyboard-response","71","239386","0.0-7.0-2.7","63f7b890b9c9e7b19a2e9281","bdp_wmem","Sat Apr 08 2023 11:47:28 GMT-0400 (Eastern Daylight Time)","599531","Match,No Match","","null","","","","","","<div class='trialBorder'><div class='vertical-center'><img style='vertical-align:center; align:center' src='img/fixation2_sml.jpg'></div><div class='arrayDiv2'><div class='tl'><img class='introPic' src='trustrating_stim/white_mw092.bmp'><br><font color='red'><strong>Keep</strong></font></div><div class='tr'><img class='introPic' src='trustrating_stim/white_mw040.bmp'><br><font color='green'><strong>Share</strong></font></div></div></div>","null","ARRAY","2","trustrating_stim/white_mw092.bmp,trustrating_stim/white_mw040.bmp","0,1","Match","e","3000","","","","",""
"html-keyboard-response","72","243394","0.0-7.0-3.7","63f7b890b9c9e7b19a2e9281","bdp_wmem","Sat Apr 08 2023 11:47:28 GMT-0400 (Eastern Daylight Time)","599531","Match,No Match","","null","","","","","","<div class='trialBorder'><div class='vertical-center'><img src='img/fixation2_sml.jpg'</img></div></div>","null","DELAY","","","","","","","","","","",""
"html-keyboard-response","73","244092","0.0-7.0-4.7","63f7b890b9c9e7b19a2e9281","bdp_wmem","Sat Apr 08 2023 11:47:28 GMT-0400 (Eastern Daylight Time)","599531","Match,No Match","","696","","","","","","<div class='trialBorder'><div class='targDiv'><div class='tc'><img class='introPic' src='trustrating_stim/white_mw040.bmp'><br><font color='green'><strong>Share</strong></font></div></div><div class='respDiv'><div class='respDivL'>Match<br>(e)</div><div class='respDivR'>No Match<br>(i)</div></div></div>","e","TARGET","2","trustrating_stim/white_mw092.bmp,trustrating_stim/white_mw040.bmp","0,1","Match","e","3000","trustrating_stim/white_mw040.bmp","green","Share","REAL","1"
"html-keyboard-response","74","244594","0.0-7.0-5.7","63f7b890b9c9e7b19a2e9281","bdp_wmem","Sat Apr 08 2023 11:47:28 GMT-0400 (Eastern Daylight Time)","599531","Match,No Match","","null","","","","","","<div class='trialBorder'><div class='vertical-center'><img src='img/correct.jpg'></div><div class='respDiv'><div class='respDivL'><font style='color:orange'>Match<br>(e)</font></div><div class='respDivR'>No Match<br>(i)</div></div></div>","null","FEEDBACK","","","","","","","","","","",""
"html-keyboard-response","75","245098","0.0-7.0-1.8","63f7b890b9c9e7b19a2e9281","bdp_wmem","Sat Apr 08 2023 11:47:28 GMT-0400 (Eastern Daylight Time)","599531","Match,No Match","","null","","","","","","<div class='trialBorder'><div class='vertical-center'><img src='img/fixation2_sml.jpg'</img></div></div>","null","FIX","","","","","","","","","","",""
"html-keyboard-response","76","246602","0.0-7.0-2.8","63f7b890b9c9e7b19a2e9281","bdp_wmem","Sat Apr 08 2023 11:47:28 GMT-0400 (Eastern Daylight Time)","599531","Match,No Match","","null","","","","","","<div class='trialBorder'><div class='vertical-center'><img style='vertical-align:center; align:center' src='img/fixation2_sml.jpg'></div><div class='arrayDiv1'><div class='tc'><img class='introPic' src='trustrating_stim/white_mw003.bmp'><br><font color='green'><strong>Share</strong></font></div></div></div>","null","ARRAY","1","trustrating_stim/white_mw003.bmp","1","noMatchOutcome","i","1500","","","","",""
"html-keyboard-response","77","250610","0.0-7.0-3.8","63f7b890b9c9e7b19a2e9281","bdp_wmem","Sat Apr 08 2023 11:47:28 GMT-0400 (Eastern Daylight Time)","599531","Match,No Match","","null","","","","","","<div class='trialBorder'><div class='vertical-center'><img src='img/fixation2_sml.jpg'</img></div></div>","null","DELAY","","","","","","","","","","",""
"html-keyboard-response","78","251267","0.0-7.0-4.8","63f7b890b9c9e7b19a2e9281","bdp_wmem","Sat Apr 08 2023 11:47:28 GMT-0400 (Eastern Daylight Time)","599531","Match,No Match","","655","","","","","","<div class='trialBorder'><div class='targDiv'><div class='tc'><img class='introPic' src='trustrating_stim/white_mw003.bmp'><br><font color='red'><strong>Keep</strong></font></div></div><div class='respDiv'><div class='respDivL'>Match<br>(e)</div><div class='respDivR'>No Match<br>(i)</div></div></div>","i","TARGET","1","trustrating_stim/white_mw003.bmp","1","noMatchOutcome","i","1500","trustrating_stim/white_mw003.bmp","red","Keep","REAL","1"
"html-keyboard-response","79","251770","0.0-7.0-5.8","63f7b890b9c9e7b19a2e9281","bdp_wmem","Sat Apr 08 2023 11:47:28 GMT-0400 (Eastern Daylight Time)","599531","Match,No Match","","null","","","","","","<div class='trialBorder'><div class='vertical-center'><img src='img/correct.jpg'></div><div class='respDiv'><div class='respDivL'>Match<br>(e)</div><div class='respDivR'><font style='color:orange'>No Match<br>(i)</font></div></div></div>","null","FEEDBACK","","","","","","","","","","",""
"html-keyboard-response","80","252274","0.0-7.0-1.9","63f7b890b9c9e7b19a2e9281","bdp_wmem","Sat Apr 08 2023 11:47:28 GMT-0400 (Eastern Daylight Time)","599531","Match,No Match","","null","","","","","","<div class='trialBorder'><div class='vertical-center'><img src='img/fixation2_sml.jpg'</img></div></div>","null","FIX","","","","","","","","","","",""
"html-keyboard-response","81","255282","0.0-7.0-2.9","63f7b890b9c9e7b19a2e9281","bdp_wmem","Sat Apr 08 2023 11:47:28 GMT-0400 (Eastern Daylight Time)","599531","Match,No Match","","null","","","","","","<div class='trialBorder'><div class='vertical-center'><img style='vertical-align:center; align:center' src='img/fixation2_sml.jpg'></div><div class='arrayDiv2'><div class='tl'><img class='introPic' src='trustrating_stim/white_mw091.bmp'><br><font color='red'><strong>Keep</strong></font></div><div class='tr'><img class='introPic' src='trustrating_stim/white_mw012.bmp'><br><font color='green'><strong>Share</strong></font></div></div></div>","null","ARRAY","2","trustrating_stim/white_mw091.bmp,trustrating_stim/white_mw012.bmp","0,1","noMatchFace","i","3000","","","","",""
"html-keyboard-response","82","259290","0.0-7.0-3.9","63f7b890b9c9e7b19a2e9281","bdp_wmem","Sat Apr 08 2023 11:47:28 GMT-0400 (Eastern Daylight Time)","599531","Match,No Match","","null","","","","","","<div class='trialBorder'><div class='vertical-center'><img src='img/fixation2_sml.jpg'</img></div></div>","null","DELAY","","","","","","","","","","",""
"html-keyboard-response","83","260052","0.0-7.0-4.9","63f7b890b9c9e7b19a2e9281","bdp_wmem","Sat Apr 08 2023 11:47:28 GMT-0400 (Eastern Daylight Time)","599531","Match,No Match","","760","","","","","","<div class='trialBorder'><div class='targDiv'><div class='tc'><img class='introPic' src='trustrating_stim/white_mw013.bmp'><br><font color='red'><strong>Keep</strong></font></div></div><div class='respDiv'><div class='respDivL'>Match<br>(e)</div><div class='respDivR'>No Match<br>(i)</div></div></div>","i","TARGET","2","trustrating_stim/white_mw091.bmp,trustrating_stim/white_mw012.bmp","0,1","noMatchFace","i","3000","trustrating_stim/white_mw013.bmp","red","Keep","REAL","1"
"html-keyboard-response","84","260554","0.0-7.0-5.9","63f7b890b9c9e7b19a2e9281","bdp_wmem","Sat Apr 08 2023 11:47:28 GMT-0400 (Eastern Daylight Time)","599531","Match,No Match","","null","","","","","","<div class='trialBorder'><div class='vertical-center'><img src='img/correct.jpg'></div><div class='respDiv'><div class='respDivL'>Match<br>(e)</div><div class='respDivR'><font style='color:orange'>No Match<br>(i)</font></div></div></div>","null","FEEDBACK","","","","","","","","","","",""
"html-keyboard-response","85","261058","0.0-7.0-1.10","63f7b890b9c9e7b19a2e9281","bdp_wmem","Sat Apr 08 2023 11:47:28 GMT-0400 (Eastern Daylight Time)","599531","Match,No Match","","null","","","","","","<div class='trialBorder'><div class='vertical-center'><img src='img/fixation2_sml.jpg'</img></div></div>","null","FIX","","","","","","","","","","",""
"html-keyboard-response","86","264067","0.0-7.0-2.10","63f7b890b9c9e7b19a2e9281","bdp_wmem","Sat Apr 08 2023 11:47:28 GMT-0400 (Eastern Daylight Time)","599531","Match,No Match","","null","","","","","","<div class='trialBorder'><div class='vertical-center'><img style='vertical-align:center; align:center' src='img/fixation2_sml.jpg'></div><div class='arrayDiv2'><div class='tl'><img class='introPic' src='trustrating_stim/white_mw092.bmp'><br><font color='green'><strong>Share</strong></font></div><div class='tr'><img class='introPic' src='trustrating_stim/white_mw010.bmp'><br><font color='red'><strong>Keep</strong></font></div></div></div>","null","ARRAY","2","trustrating_stim/white_mw092.bmp,trustrating_stim/white_mw010.bmp","1,0","noMatchFace","i","3000","","","","",""
"html-keyboard-response","87","268074","0.0-7.0-3.10","63f7b890b9c9e7b19a2e9281","bdp_wmem","Sat Apr 08 2023 11:47:28 GMT-0400 (Eastern Daylight Time)","599531","Match,No Match","","null","","","","","","<div class='trialBorder'><div class='vertical-center'><img src='img/fixation2_sml.jpg'</img></div></div>","null","DELAY","","","","","","","","","","",""
"html-keyboard-response","88","268854","0.0-7.0-4.10","63f7b890b9c9e7b19a2e9281","bdp_wmem","Sat Apr 08 2023 11:47:28 GMT-0400 (Eastern Daylight Time)","599531","Match,No Match","","777","","","","","","<div class='trialBorder'><div class='targDiv'><div class='tc'><img class='introPic' src='trustrating_stim/white_mw091.bmp'><br><font color='red'><strong>Keep</strong></font></div></div><div class='respDiv'><div class='respDivL'>Match<br>(e)</div><div class='respDivR'>No Match<br>(i)</div></div></div>","i","TARGET","2","trustrating_stim/white_mw092.bmp,trustrating_stim/white_mw010.bmp","1,0","noMatchFace","i","3000","trustrating_stim/white_mw091.bmp","red","Keep","REAL","1"
"html-keyboard-response","89","269362","0.0-7.0-5.10","63f7b890b9c9e7b19a2e9281","bdp_wmem","Sat Apr 08 2023 11:47:28 GMT-0400 (Eastern Daylight Time)","599531","Match,No Match","","null","","","","","","<div class='trialBorder'><div class='vertical-center'><img src='img/correct.jpg'></div><div class='respDiv'><div class='respDivL'>Match<br>(e)</div><div class='respDivR'><font style='color:orange'>No Match<br>(i)</font></div></div></div>","null","FEEDBACK","","","","","","","","","","",""
"html-keyboard-response","90","269866","0.0-7.0-1.11","63f7b890b9c9e7b19a2e9281","bdp_wmem","Sat Apr 08 2023 11:47:28 GMT-0400 (Eastern Daylight Time)","599531","Match,No Match","","null","","","","","","<div class='trialBorder'><div class='vertical-center'><img src='img/fixation2_sml.jpg'</img></div></div>","null","FIX","","","","","","","","","","",""
"html-keyboard-response","91","274370","0.0-7.0-2.11","63f7b890b9c9e7b19a2e9281","bdp_wmem","Sat Apr 08 2023 11:47:28 GMT-0400 (Eastern Daylight Time)","599531","Match,No Match","","null","","","","","","<div class='trialBorder'><div class='vertical-center'><img style='vertical-align:center; align:center' src='img/fixation2_sml.jpg'></div><div class='arrayDiv3'><div class='tl'><img class='introPic' src='trustrating_stim/white_mw013.bmp'><br><font color='red'><strong>Keep</strong></font></div><div class='tc'><img class='introPic' src='trustrating_stim/white_mw040.bmp'><br><font color='green'><strong>Share</strong></font></div><div class='tr'><img class='introPic' src='trustrating_stim/white_mw042.bmp'><br><font color='green'><strong>Share</strong></font></div></div></div>","null","ARRAY","3","trustrating_stim/white_mw013.bmp,trustrating_stim/white_mw040.bmp,trustrating_stim/white_mw042.bmp","0,1,1","Match","e","4500","","","","",""
"html-keyboard-response","92","278378","0.0-7.0-3.11","63f7b890b9c9e7b19a2e9281","bdp_wmem","Sat Apr 08 2023 11:47:28 GMT-0400 (Eastern Daylight Time)","599531","Match,No Match","","null","","","","","","<div class='trialBorder'><div class='vertical-center'><img src='img/fixation2_sml.jpg'</img></div></div>","null","DELAY","","","","","","","","","","",""
"html-keyboard-response","93","279405","0.0-7.0-4.11","63f7b890b9c9e7b19a2e9281","bdp_wmem","Sat Apr 08 2023 11:47:28 GMT-0400 (Eastern Daylight Time)","599531","Match,No Match","","1024","","","","","","<div class='trialBorder'><div class='targDiv'><div class='tc'><img class='introPic' src='trustrating_stim/white_mw040.bmp'><br><font color='green'><strong>Share</strong></font></div></div><div class='respDiv'><div class='respDivL'>Match<br>(e)</div><div class='respDivR'>No Match<br>(i)</div></div></div>","e","TARGET","3","trustrating_stim/white_mw013.bmp,trustrating_stim/white_mw040.bmp,trustrating_stim/white_mw042.bmp","0,1,1","Match","e","4500","trustrating_stim/white_mw040.bmp","green","Share","REAL","1"
"html-keyboard-response","94","279906","0.0-7.0-5.11","63f7b890b9c9e7b19a2e9281","bdp_wmem","Sat Apr 08 2023 11:47:28 GMT-0400 (Eastern Daylight Time)","599531","Match,No Match","","null","","","","","","<div class='trialBorder'><div class='vertical-center'><img src='img/correct.jpg'></div><div class='respDiv'><div class='respDivL'><font style='color:orange'>Match<br>(e)</font></div><div class='respDivR'>No Match<br>(i)</div></div></div>","null","FEEDBACK","","","","","","","","","","",""
"html-keyboard-response","95","280410","0.0-7.0-1.12","63f7b890b9c9e7b19a2e9281","bdp_wmem","Sat Apr 08 2023 11:47:28 GMT-0400 (Eastern Daylight Time)","599531","Match,No Match","","null","","","","","","<div class='trialBorder'><div class='vertical-center'><img src='img/fixation2_sml.jpg'</img></div></div>","null","FIX","","","","","","","","","","",""
"html-keyboard-response","96","283418","0.0-7.0-2.12","63f7b890b9c9e7b19a2e9281","bdp_wmem","Sat Apr 08 2023 11:47:28 GMT-0400 (Eastern Daylight Time)","599531","Match,No Match","","null","","","","","","<div class='trialBorder'><div class='vertical-center'><img style='vertical-align:center; align:center' src='img/fixation2_sml.jpg'></div><div class='arrayDiv2'><div class='tl'><img class='introPic' src='trustrating_stim/white_mw013.bmp'><br><font color='green'><strong>Share</strong></font></div><div class='tr'><img class='introPic' src='trustrating_stim/white_mw040.bmp'><br><font color='red'><strong>Keep</strong></font></div></div></div>","null","ARRAY","2","trustrating_stim/white_mw013.bmp,trustrating_stim/white_mw040.bmp","1,0","noMatchFace","i","3000","","","","",""
"html-keyboard-response","97","287426","0.0-7.0-3.12","63f7b890b9c9e7b19a2e9281","bdp_wmem","Sat Apr 08 2023 11:47:28 GMT-0400 (Eastern Daylight Time)","599531","Match,No Match","","null","","","","","","<div class='trialBorder'><div class='vertical-center'><img src='img/fixation2_sml.jpg'</img></div></div>","null","DELAY","","","","","","","","","","",""
"html-keyboard-response","98","288343","0.0-7.0-4.12","63f7b890b9c9e7b19a2e9281","bdp_wmem","Sat Apr 08 2023 11:47:28 GMT-0400 (Eastern Daylight Time)","599531","Match,No Match","","915","","","","","","<div class='trialBorder'><div class='targDiv'><div class='tc'><img class='introPic' src='trustrating_stim/white_mw078.bmp'><br><font color='red'><strong>Keep</strong></font></div></div><div class='respDiv'><div class='respDivL'>Match<br>(e)</div><div class='respDivR'>No Match<br>(i)</div></div></div>","e","TARGET","2","trustrating_stim/white_mw013.bmp,trustrating_stim/white_mw040.bmp","1,0","noMatchFace","i","3000","trustrating_stim/white_mw078.bmp","red","Keep","REAL","0"
"html-keyboard-response","99","288850","0.0-7.0-5.12","63f7b890b9c9e7b19a2e9281","bdp_wmem","Sat Apr 08 2023 11:47:28 GMT-0400 (Eastern Daylight Time)","599531","Match,No Match","","null","","","","","","<div class='trialBorder'><div class='vertical-center'><img src='img/error.jpg'></div><div class='respDiv'><div class='respDivL'><font style='color:orange'>Match<br>(e)</font></div><div class='respDivR'>No Match<br>(i)</div></div></div>","null","FEEDBACK","","","","","","","","","","",""
"html-keyboard-response","100","289354","0.0-7.0-1.13","63f7b890b9c9e7b19a2e9281","bdp_wmem","Sat Apr 08 2023 11:47:28 GMT-0400 (Eastern Daylight Time)","599531","Match,No Match","","null","","","","","","<div class='trialBorder'><div class='vertical-center'><img src='img/fixation2_sml.jpg'</img></div></div>","null","FIX","","","","","","","","","","",""
"html-keyboard-response","101","292362","0.0-7.0-2.13","63f7b890b9c9e7b19a2e9281","bdp_wmem","Sat Apr 08 2023 11:47:28 GMT-0400 (Eastern Daylight Time)","599531","Match,No Match","","null","","","","","","<div class='trialBorder'><div class='vertical-center'><img style='vertical-align:center; align:center' src='img/fixation2_sml.jpg'></div><div class='arrayDiv2'><div class='tl'><img class='introPic' src='trustrating_stim/white_mw078.bmp'><br><font color='red'><strong>Keep</strong></font></div><div class='tr'><img class='introPic' src='trustrating_stim/white_mw012.bmp'><br><font color='green'><strong>Share</strong></font></div></div></div>","null","ARRAY","2","trustrating_stim/white_mw078.bmp,trustrating_stim/white_mw012.bmp","0,1","Match","e","3000","","","","",""
"html-keyboard-response","102","296370","0.0-7.0-3.13","63f7b890b9c9e7b19a2e9281","bdp_wmem","Sat Apr 08 2023 11:47:28 GMT-0400 (Eastern Daylight Time)","599531","Match,No Match","","null","","","","","","<div class='trialBorder'><div class='vertical-center'><img src='img/fixation2_sml.jpg'</img></div></div>","null","DELAY","","","","","","","","","","",""
"html-keyboard-response","103","297408","0.0-7.0-4.13","63f7b890b9c9e7b19a2e9281","bdp_wmem","Sat Apr 08 2023 11:47:28 GMT-0400 (Eastern Daylight Time)","599531","Match,No Match","","1034","","","","","","<div class='trialBorder'><div class='targDiv'><div class='tc'><img class='introPic' src='trustrating_stim/white_mw012.bmp'><br><font color='green'><strong>Share</strong></font></div></div><div class='respDiv'><div class='respDivL'>Match<br>(e)</div><div class='respDivR'>No Match<br>(i)</div></div></div>","e","TARGET","2","trustrating_stim/white_mw078.bmp,trustrating_stim/white_mw012.bmp","0,1","Match","e","3000","trustrating_stim/white_mw012.bmp","green","Share","REAL","1"
"html-keyboard-response","104","297914","0.0-7.0-5.13","63f7b890b9c9e7b19a2e9281","bdp_wmem","Sat Apr 08 2023 11:47:28 GMT-0400 (Eastern Daylight Time)","599531","Match,No Match","","null","","","","","","<div class='trialBorder'><div class='vertical-center'><img src='img/correct.jpg'></div><div class='respDiv'><div class='respDivL'><font style='color:orange'>Match<br>(e)</font></div><div class='respDivR'>No Match<br>(i)</div></div></div>","null","FEEDBACK","","","","","","","","","","",""
"html-keyboard-response","105","298418","0.0-7.0-1.14","63f7b890b9c9e7b19a2e9281","bdp_wmem","Sat Apr 08 2023 11:47:28 GMT-0400 (Eastern Daylight Time)","599531","Match,No Match","","null","","","","","","<div class='trialBorder'><div class='vertical-center'><img src='img/fixation2_sml.jpg'</img></div></div>","null","FIX","","","","","","","","","","",""
"html-keyboard-response","106","302922","0.0-7.0-2.14","63f7b890b9c9e7b19a2e9281","bdp_wmem","Sat Apr 08 2023 11:47:28 GMT-0400 (Eastern Daylight Time)","599531","Match,No Match","","null","","","","","","<div class='trialBorder'><div class='vertical-center'><img style='vertical-align:center; align:center' src='img/fixation2_sml.jpg'></div><div class='arrayDiv3'><div class='tl'><img class='introPic' src='trustrating_stim/white_mw003.bmp'><br><font color='green'><strong>Share</strong></font></div><div class='tc'><img class='introPic' src='trustrating_stim/white_mw040.bmp'><br><font color='red'><strong>Keep</strong></font></div><div class='tr'><img class='introPic' src='trustrating_stim/white_mw013.bmp'><br><font color='green'><strong>Share</strong></font></div></div></div>","null","ARRAY","3","trustrating_stim/white_mw003.bmp,trustrating_stim/white_mw040.bmp,trustrating_stim/white_mw013.bmp","1,0,1","noMatchFace","i","4500","","","","",""
"html-keyboard-response","107","306931","0.0-7.0-3.14","63f7b890b9c9e7b19a2e9281","bdp_wmem","Sat Apr 08 2023 11:47:28 GMT-0400 (Eastern Daylight Time)","599531","Match,No Match","","null","","","","","","<div class='trialBorder'><div class='vertical-center'><img src='img/fixation2_sml.jpg'</img></div></div>","null","DELAY","","","","","","","","","","",""
"html-keyboard-response","108","307549","0.0-7.0-4.14","63f7b890b9c9e7b19a2e9281","bdp_wmem","Sat Apr 08 2023 11:47:28 GMT-0400 (Eastern Daylight Time)","599531","Match,No Match","","615","","","","","","<div class='trialBorder'><div class='targDiv'><div class='tc'><img class='introPic' src='trustrating_stim/white_mw085.bmp'><br><font color='green'><strong>Share</strong></font></div></div><div class='respDiv'><div class='respDivL'>Match<br>(e)</div><div class='respDivR'>No Match<br>(i)</div></div></div>","e","TARGET","3","trustrating_stim/white_mw003.bmp,trustrating_stim/white_mw040.bmp,trustrating_stim/white_mw013.bmp","1,0,1","noMatchFace","i","4500","trustrating_stim/white_mw085.bmp","green","Share","REAL","0"
"html-keyboard-response","109","308051","0.0-7.0-5.14","63f7b890b9c9e7b19a2e9281","bdp_wmem","Sat Apr 08 2023 11:47:28 GMT-0400 (Eastern Daylight Time)","599531","Match,No Match","","null","","","","","","<div class='trialBorder'><div class='vertical-center'><img src='img/error.jpg'></div><div class='respDiv'><div class='respDivL'><font style='color:orange'>Match<br>(e)</font></div><div class='respDivR'>No Match<br>(i)</div></div></div>","null","FEEDBACK","","","","","","","","","","",""
"html-keyboard-response","110","308554","0.0-7.0-1.15","63f7b890b9c9e7b19a2e9281","bdp_wmem","Sat Apr 08 2023 11:47:28 GMT-0400 (Eastern Daylight Time)","599531","Match,No Match","","null","","","","","","<div class='trialBorder'><div class='vertical-center'><img src='img/fixation2_sml.jpg'</img></div></div>","null","FIX","","","","","","","","","","",""
"html-keyboard-response","111","311562","0.0-7.0-2.15","63f7b890b9c9e7b19a2e9281","bdp_wmem","Sat Apr 08 2023 11:47:28 GMT-0400 (Eastern Daylight Time)","599531","Match,No Match","","null","","","","","","<div class='trialBorder'><div class='vertical-center'><img style='vertical-align:center; align:center' src='img/fixation2_sml.jpg'></div><div class='arrayDiv2'><div class='tl'><img class='introPic' src='trustrating_stim/white_mw092.bmp'><br><font color='green'><strong>Share</strong></font></div><div class='tr'><img class='introPic' src='trustrating_stim/white_mw042.bmp'><br><font color='red'><strong>Keep</strong></font></div></div></div>","null","ARRAY","2","trustrating_stim/white_mw092.bmp,trustrating_stim/white_mw042.bmp","1,0","Match","e","3000","","","","",""
"html-keyboard-response","112","315570","0.0-7.0-3.15","63f7b890b9c9e7b19a2e9281","bdp_wmem","Sat Apr 08 2023 11:47:28 GMT-0400 (Eastern Daylight Time)","599531","Match,No Match","","null","","","","","","<div class='trialBorder'><div class='vertical-center'><img src='img/fixation2_sml.jpg'</img></div></div>","null","DELAY","","","","","","","","","","",""
"html-keyboard-response","113","316446","0.0-7.0-4.15","63f7b890b9c9e7b19a2e9281","bdp_wmem","Sat Apr 08 2023 11:47:28 GMT-0400 (Eastern Daylight Time)","599531","Match,No Match","","873","","","","","","<div class='trialBorder'><div class='targDiv'><div class='tc'><img class='introPic' src='trustrating_stim/white_mw042.bmp'><br><font color='red'><strong>Keep</strong></font></div></div><div class='respDiv'><div class='respDivL'>Match<br>(e)</div><div class='respDivR'>No Match<br>(i)</div></div></div>","e","TARGET","2","trustrating_stim/white_mw092.bmp,trustrating_stim/white_mw042.bmp","1,0","Match","e","3000","trustrating_stim/white_mw042.bmp","red","Keep","REAL","1"
"html-keyboard-response","114","316954","0.0-7.0-5.15","63f7b890b9c9e7b19a2e9281","bdp_wmem","Sat Apr 08 2023 11:47:28 GMT-0400 (Eastern Daylight Time)","599531","Match,No Match","","null","","","","","","<div class='trialBorder'><div class='vertical-center'><img src='img/correct.jpg'></div><div class='respDiv'><div class='respDivL'><font style='color:orange'>Match<br>(e)</font></div><div class='respDivR'>No Match<br>(i)</div></div></div>","null","FEEDBACK","","","","","","","","","","",""
"html-keyboard-response","115","317458","0.0-7.0-1.16","63f7b890b9c9e7b19a2e9281","bdp_wmem","Sat Apr 08 2023 11:47:28 GMT-0400 (Eastern Daylight Time)","599531","Match,No Match","","null","","","","","","<div class='trialBorder'><div class='vertical-center'><img src='img/fixation2_sml.jpg'</img></div></div>","null","FIX","","","","","","","","","","",""
"html-keyboard-response","116","321962","0.0-7.0-2.16","63f7b890b9c9e7b19a2e9281","bdp_wmem","Sat Apr 08 2023 11:47:28 GMT-0400 (Eastern Daylight Time)","599531","Match,No Match","","null","","","","","","<div class='trialBorder'><div class='vertical-center'><img style='vertical-align:center; align:center' src='img/fixation2_sml.jpg'></div><div class='arrayDiv3'><div class='tl'><img class='introPic' src='trustrating_stim/white_mw078.bmp'><br><font color='red'><strong>Keep</strong></font></div><div class='tc'><img class='introPic' src='trustrating_stim/white_mw070.bmp'><br><font color='red'><strong>Keep</strong></font></div><div class='tr'><img class='introPic' src='trustrating_stim/white_mw042.bmp'><br><font color='green'><strong>Share</strong></font></div></div></div>","null","ARRAY","3","trustrating_stim/white_mw078.bmp,trustrating_stim/white_mw070.bmp,trustrating_stim/white_mw042.bmp","0,0,1","Match","e","4500","","","","",""
"html-keyboard-response","117","325970","0.0-7.0-3.16","63f7b890b9c9e7b19a2e9281","bdp_wmem","Sat Apr 08 2023 11:47:28 GMT-0400 (Eastern Daylight Time)","599531","Match,No Match","","null","","","","","","<div class='trialBorder'><div class='vertical-center'><img src='img/fixation2_sml.jpg'</img></div></div>","null","DELAY","","","","","","","","","","",""
"html-keyboard-response","118","327017","0.0-7.0-4.16","63f7b890b9c9e7b19a2e9281","bdp_wmem","Sat Apr 08 2023 11:47:28 GMT-0400 (Eastern Daylight Time)","599531","Match,No Match","","1044","","","","","","<div class='trialBorder'><div class='targDiv'><div class='tc'><img class='introPic' src='trustrating_stim/white_mw078.bmp'><br><font color='red'><strong>Keep</strong></font></div></div><div class='respDiv'><div class='respDivL'>Match<br>(e)</div><div class='respDivR'>No Match<br>(i)</div></div></div>","e","TARGET","3","trustrating_stim/white_mw078.bmp,trustrating_stim/white_mw070.bmp,trustrating_stim/white_mw042.bmp","0,0,1","Match","e","4500","trustrating_stim/white_mw078.bmp","red","Keep","REAL","1"
"html-keyboard-response","119","327522","0.0-7.0-5.16","63f7b890b9c9e7b19a2e9281","bdp_wmem","Sat Apr 08 2023 11:47:28 GMT-0400 (Eastern Daylight Time)","599531","Match,No Match","","null","","","","","","<div class='trialBorder'><div class='vertical-center'><img src='img/correct.jpg'></div><div class='respDiv'><div class='respDivL'><font style='color:orange'>Match<br>(e)</font></div><div class='respDivR'>No Match<br>(i)</div></div></div>","null","FEEDBACK","","","","","","","","","","",""
"html-keyboard-response","120","328026","0.0-7.0-1.17","63f7b890b9c9e7b19a2e9281","bdp_wmem","Sat Apr 08 2023 11:47:28 GMT-0400 (Eastern Daylight Time)","599531","Match,No Match","","null","","","","","","<div class='trialBorder'><div class='vertical-center'><img src='img/fixation2_sml.jpg'</img></div></div>","null","FIX","","","","","","","","","","",""
"html-keyboard-response","121","332530","0.0-7.0-2.17","63f7b890b9c9e7b19a2e9281","bdp_wmem","Sat Apr 08 2023 11:47:28 GMT-0400 (Eastern Daylight Time)","599531","Match,No Match","","null","","","","","","<div class='trialBorder'><div class='vertical-center'><img style='vertical-align:center; align:center' src='img/fixation2_sml.jpg'></div><div class='arrayDiv3'><div class='tl'><img class='introPic' src='trustrating_stim/white_mw085.bmp'><br><font color='red'><strong>Keep</strong></font></div><div class='tc'><img class='introPic' src='trustrating_stim/white_mw091.bmp'><br><font color='red'><strong>Keep</strong></font></div><div class='tr'><img class='introPic' src='trustrating_stim/white_mw038.bmp'><br><font color='green'><strong>Share</strong></font></div></div></div>","null","ARRAY","3","trustrating_stim/white_mw085.bmp,trustrating_stim/white_mw091.bmp,trustrating_stim/white_mw038.bmp","0,0,1","Match","e","4500","","","","",""
"html-keyboard-response","122","336539","0.0-7.0-3.17","63f7b890b9c9e7b19a2e9281","bdp_wmem","Sat Apr 08 2023 11:47:28 GMT-0400 (Eastern Daylight Time)","599531","Match,No Match","","null","","","","","","<div class='trialBorder'><div class='vertical-center'><img src='img/fixation2_sml.jpg'</img></div></div>","null","DELAY","","","","","","","","","","",""
"html-keyboard-response","123","337363","0.0-7.0-4.17","63f7b890b9c9e7b19a2e9281","bdp_wmem","Sat Apr 08 2023 11:47:28 GMT-0400 (Eastern Daylight Time)","599531","Match,No Match","","821","","","","","","<div class='trialBorder'><div class='targDiv'><div class='tc'><img class='introPic' src='trustrating_stim/white_mw091.bmp'><br><font color='red'><strong>Keep</strong></font></div></div><div class='respDiv'><div class='respDivL'>Match<br>(e)</div><div class='respDivR'>No Match<br>(i)</div></div></div>","e","TARGET","3","trustrating_stim/white_mw085.bmp,trustrating_stim/white_mw091.bmp,trustrating_stim/white_mw038.bmp","0,0,1","Match","e","4500","trustrating_stim/white_mw091.bmp","red","Keep","REAL","1"
"html-keyboard-response","124","337866","0.0-7.0-5.17","63f7b890b9c9e7b19a2e9281","bdp_wmem","Sat Apr 08 2023 11:47:28 GMT-0400 (Eastern Daylight Time)","599531","Match,No Match","","null","","","","","","<div class='trialBorder'><div class='vertical-center'><img src='img/correct.jpg'></div><div class='respDiv'><div class='respDivL'><font style='color:orange'>Match<br>(e)</font></div><div class='respDivR'>No Match<br>(i)</div></div></div>","null","FEEDBACK","","","","","","","","","","",""
"html-keyboard-response","125","338370","0.0-7.0-1.18","63f7b890b9c9e7b19a2e9281","bdp_wmem","Sat Apr 08 2023 11:47:28 GMT-0400 (Eastern Daylight Time)","599531","Match,No Match","","null","","","","","","<div class='trialBorder'><div class='vertical-center'><img src='img/fixation2_sml.jpg'</img></div></div>","null","FIX","","","","","","","","","","",""
"html-keyboard-response","126","339874","0.0-7.0-2.18","63f7b890b9c9e7b19a2e9281","bdp_wmem","Sat Apr 08 2023 11:47:28 GMT-0400 (Eastern Daylight Time)","599531","Match,No Match","","null","","","","","","<div class='trialBorder'><div class='vertical-center'><img style='vertical-align:center; align:center' src='img/fixation2_sml.jpg'></div><div class='arrayDiv1'><div class='tc'><img class='introPic' src='trustrating_stim/white_mw040.bmp'><br><font color='green'><strong>Share</strong></font></div></div></div>","null","ARRAY","1","trustrating_stim/white_mw040.bmp","1","Match","e","1500","","","","",""
"html-keyboard-response","127","343882","0.0-7.0-3.18","63f7b890b9c9e7b19a2e9281","bdp_wmem","Sat Apr 08 2023 11:47:28 GMT-0400 (Eastern Daylight Time)","599531","Match,No Match","","null","","","","","","<div class='trialBorder'><div class='vertical-center'><img src='img/fixation2_sml.jpg'</img></div></div>","null","DELAY","","","","","","","","","","",""
"html-keyboard-response","128","344595","0.0-7.0-4.18","63f7b890b9c9e7b19a2e9281","bdp_wmem","Sat Apr 08 2023 11:47:28 GMT-0400 (Eastern Daylight Time)","599531","Match,No Match","","709","","","","","","<div class='trialBorder'><div class='targDiv'><div class='tc'><img class='introPic' src='trustrating_stim/white_mw040.bmp'><br><font color='green'><strong>Share</strong></font></div></div><div class='respDiv'><div class='respDivL'>Match<br>(e)</div><div class='respDivR'>No Match<br>(i)</div></div></div>","e","TARGET","1","trustrating_stim/white_mw040.bmp","1","Match","e","1500","trustrating_stim/white_mw040.bmp","green","Share","REAL","1"
"html-keyboard-response","129","345098","0.0-7.0-5.18","63f7b890b9c9e7b19a2e9281","bdp_wmem","Sat Apr 08 2023 11:47:28 GMT-0400 (Eastern Daylight Time)","599531","Match,No Match","","null","","","","","","<div class='trialBorder'><div class='vertical-center'><img src='img/correct.jpg'></div><div class='respDiv'><div class='respDivL'><font style='color:orange'>Match<br>(e)</font></div><div class='respDivR'>No Match<br>(i)</div></div></div>","null","FEEDBACK","","","","","","","","","","",""
"html-keyboard-response","130","345602","0.0-7.0-1.19","63f7b890b9c9e7b19a2e9281","bdp_wmem","Sat Apr 08 2023 11:47:28 GMT-0400 (Eastern Daylight Time)","599531","Match,No Match","","null","","","","","","<div class='trialBorder'><div class='vertical-center'><img src='img/fixation2_sml.jpg'</img></div></div>","null","FIX","","","","","","","","","","",""
"html-keyboard-response","131","347106","0.0-7.0-2.19","63f7b890b9c9e7b19a2e9281","bdp_wmem","Sat Apr 08 2023 11:47:28 GMT-0400 (Eastern Daylight Time)","599531","Match,No Match","","null","","","","","","<div class='trialBorder'><div class='vertical-center'><img style='vertical-align:center; align:center' src='img/fixation2_sml.jpg'></div><div class='arrayDiv1'><div class='tc'><img class='introPic' src='trustrating_stim/white_mw091.bmp'><br><font color='green'><strong>Share</strong></font></div></div></div>","null","ARRAY","1","trustrating_stim/white_mw091.bmp","1","noMatchFace","i","1500","","","","",""
"html-keyboard-response","132","351114","0.0-7.0-3.19","63f7b890b9c9e7b19a2e9281","bdp_wmem","Sat Apr 08 2023 11:47:28 GMT-0400 (Eastern Daylight Time)","599531","Match,No Match","","null","","","","","","<div class='trialBorder'><div class='vertical-center'><img src='img/fixation2_sml.jpg'</img></div></div>","null","DELAY","","","","","","","","","","",""
"html-keyboard-response","133","351851","0.0-7.0-4.19","63f7b890b9c9e7b19a2e9281","bdp_wmem","Sat Apr 08 2023 11:47:28 GMT-0400 (Eastern Daylight Time)","599531","Match,No Match","","734","","","","","","<div class='trialBorder'><div class='targDiv'><div class='tc'><img class='introPic' src='trustrating_stim/white_mw040.bmp'><br><font color='green'><strong>Share</strong></font></div></div><div class='respDiv'><div class='respDivL'>Match<br>(e)</div><div class='respDivR'>No Match<br>(i)</div></div></div>","i","TARGET","1","trustrating_stim/white_mw091.bmp","1","noMatchFace","i","1500","trustrating_stim/white_mw040.bmp","green","Share","REAL","1"
"html-keyboard-response","134","352354","0.0-7.0-5.19","63f7b890b9c9e7b19a2e9281","bdp_wmem","Sat Apr 08 2023 11:47:28 GMT-0400 (Eastern Daylight Time)","599531","Match,No Match","","null","","","","","","<div class='trialBorder'><div class='vertical-center'><img src='img/correct.jpg'></div><div class='respDiv'><div class='respDivL'>Match<br>(e)</div><div class='respDivR'><font style='color:orange'>No Match<br>(i)</font></div></div></div>","null","FEEDBACK","","","","","","","","","","",""
"html-keyboard-response","135","352858","0.0-7.0-1.20","63f7b890b9c9e7b19a2e9281","bdp_wmem","Sat Apr 08 2023 11:47:28 GMT-0400 (Eastern Daylight Time)","599531","Match,No Match","","null","","","","","","<div class='trialBorder'><div class='vertical-center'><img src='img/fixation2_sml.jpg'</img></div></div>","null","FIX","","","","","","","","","","",""
"html-keyboard-response","136","355896","0.0-7.0-2.20","63f7b890b9c9e7b19a2e9281","bdp_wmem","Sat Apr 08 2023 11:47:28 GMT-0400 (Eastern Daylight Time)","599531","Match,No Match","","null","","","","","","<div class='trialBorder'><div class='vertical-center'><img style='vertical-align:center; align:center' src='img/fixation2_sml.jpg'></div><div class='arrayDiv2'><div class='tl'><img class='introPic' src='trustrating_stim/white_mw091.bmp'><br><font color='red'><strong>Keep</strong></font></div><div class='tr'><img class='introPic' src='trustrating_stim/white_mw038.bmp'><br><font color='green'><strong>Share</strong></font></div></div></div>","null","ARRAY","2","trustrating_stim/white_mw091.bmp,trustrating_stim/white_mw038.bmp","0,1","noMatchOutcome","i","3000","","","","",""
"html-keyboard-response","137","359898","0.0-7.0-3.20","63f7b890b9c9e7b19a2e9281","bdp_wmem","Sat Apr 08 2023 11:47:28 GMT-0400 (Eastern Daylight Time)","599531","Match,No Match","","null","","","","","","<div class='trialBorder'><div class='vertical-center'><img src='img/fixation2_sml.jpg'</img></div></div>","null","DELAY","","","","","","","","","","",""
"html-keyboard-response","138","360697","0.0-7.0-4.20","63f7b890b9c9e7b19a2e9281","bdp_wmem","Sat Apr 08 2023 11:47:28 GMT-0400 (Eastern Daylight Time)","599531","Match,No Match","","795","","","","","","<div class='trialBorder'><div class='targDiv'><div class='tc'><img class='introPic' src='trustrating_stim/white_mw038.bmp'><br><font color='red'><strong>Keep</strong></font></div></div><div class='respDiv'><div class='respDivL'>Match<br>(e)</div><div class='respDivR'>No Match<br>(i)</div></div></div>","e","TARGET","2","trustrating_stim/white_mw091.bmp,trustrating_stim/white_mw038.bmp","0,1","noMatchOutcome","i","3000","trustrating_stim/white_mw038.bmp","red","Keep","REAL","0"
"html-keyboard-response","139","361202","0.0-7.0-5.20","63f7b890b9c9e7b19a2e9281","bdp_wmem","Sat Apr 08 2023 11:47:28 GMT-0400 (Eastern Daylight Time)","599531","Match,No Match","","null","","","","","","<div class='trialBorder'><div class='vertical-center'><img src='img/error.jpg'></div><div class='respDiv'><div class='respDivL'><font style='color:orange'>Match<br>(e)</font></div><div class='respDivR'>No Match<br>(i)</div></div></div>","null","FEEDBACK","","","","","","","","","","",""
"html-keyboard-response","140","361708","0.0-7.0-1.21","63f7b890b9c9e7b19a2e9281","bdp_wmem","Sat Apr 08 2023 11:47:28 GMT-0400 (Eastern Daylight Time)","599531","Match,No Match","","null","","","","","","<div class='trialBorder'><div class='vertical-center'><img src='img/fixation2_sml.jpg'</img></div></div>","null","FIX","","","","","","","","","","",""
"html-keyboard-response","141","363210","0.0-7.0-2.21","63f7b890b9c9e7b19a2e9281","bdp_wmem","Sat Apr 08 2023 11:47:28 GMT-0400 (Eastern Daylight Time)","599531","Match,No Match","","null","","","","","","<div class='trialBorder'><div class='vertical-center'><img style='vertical-align:center; align:center' src='img/fixation2_sml.jpg'></div><div class='arrayDiv1'><div class='tc'><img class='introPic' src='trustrating_stim/white_mw078.bmp'><br><font color='green'><strong>Share</strong></font></div></div></div>","null","ARRAY","1","trustrating_stim/white_mw078.bmp","1","Match","e","1500","","","","",""
"html-keyboard-response","142","367218","0.0-7.0-3.21","63f7b890b9c9e7b19a2e9281","bdp_wmem","Sat Apr 08 2023 11:47:28 GMT-0400 (Eastern Daylight Time)","599531","Match,No Match","","null","","","","","","<div class='trialBorder'><div class='vertical-center'><img src='img/fixation2_sml.jpg'</img></div></div>","null","DELAY","","","","","","","","","","",""
"html-keyboard-response","143","367813","0.0-7.0-4.21","63f7b890b9c9e7b19a2e9281","bdp_wmem","Sat Apr 08 2023 11:47:28 GMT-0400 (Eastern Daylight Time)","599531","Match,No Match","","591","","","","","","<div class='trialBorder'><div class='targDiv'><div class='tc'><img class='introPic' src='trustrating_stim/white_mw078.bmp'><br><font color='green'><strong>Share</strong></font></div></div><div class='respDiv'><div class='respDivL'>Match<br>(e)</div><div class='respDivR'>No Match<br>(i)</div></div></div>","e","TARGET","1","trustrating_stim/white_mw078.bmp","1","Match","e","1500","trustrating_stim/white_mw078.bmp","green","Share","REAL","1"
"html-keyboard-response","144","368314","0.0-7.0-5.21","63f7b890b9c9e7b19a2e9281","bdp_wmem","Sat Apr 08 2023 11:47:28 GMT-0400 (Eastern Daylight Time)","599531","Match,No Match","","null","","","","","","<div class='trialBorder'><div class='vertical-center'><img src='img/correct.jpg'></div><div class='respDiv'><div class='respDivL'><font style='color:orange'>Match<br>(e)</font></div><div class='respDivR'>No Match<br>(i)</div></div></div>","null","FEEDBACK","","","","","","","","","","",""
"html-keyboard-response","145","368818","0.0-7.0-1.22","63f7b890b9c9e7b19a2e9281","bdp_wmem","Sat Apr 08 2023 11:47:28 GMT-0400 (Eastern Daylight Time)","599531","Match,No Match","","null","","","","","","<div class='trialBorder'><div class='vertical-center'><img src='img/fixation2_sml.jpg'</img></div></div>","null","FIX","","","","","","","","","","",""
"html-keyboard-response","146","370322","0.0-7.0-2.22","63f7b890b9c9e7b19a2e9281","bdp_wmem","Sat Apr 08 2023 11:47:28 GMT-0400 (Eastern Daylight Time)","599531","Match,No Match","","null","","","","","","<div class='trialBorder'><div class='vertical-center'><img style='vertical-align:center; align:center' src='img/fixation2_sml.jpg'></div><div class='arrayDiv1'><div class='tc'><img class='introPic' src='trustrating_stim/white_mw013.bmp'><br><font color='green'><strong>Share</strong></font></div></div></div>","null","ARRAY","1","trustrating_stim/white_mw013.bmp","1","Match","e","1500","","","","",""
"html-keyboard-response","147","374330","0.0-7.0-3.22","63f7b890b9c9e7b19a2e9281","bdp_wmem","Sat Apr 08 2023 11:47:28 GMT-0400 (Eastern Daylight Time)","599531","Match,No Match","","null","","","","","","<div class='trialBorder'><div class='vertical-center'><img src='img/fixation2_sml.jpg'</img></div></div>","null","DELAY","","","","","","","","","","",""
"html-keyboard-response","148","375004","0.0-7.0-4.22","63f7b890b9c9e7b19a2e9281","bdp_wmem","Sat Apr 08 2023 11:47:28 GMT-0400 (Eastern Daylight Time)","599531","Match,No Match","","670","","","","","","<div class='trialBorder'><div class='targDiv'><div class='tc'><img class='introPic' src='trustrating_stim/white_mw013.bmp'><br><font color='green'><strong>Share</strong></font></div></div><div class='respDiv'><div class='respDivL'>Match<br>(e)</div><div class='respDivR'>No Match<br>(i)</div></div></div>","e","TARGET","1","trustrating_stim/white_mw013.bmp","1","Match","e","1500","trustrating_stim/white_mw013.bmp","green","Share","REAL","1"
"html-keyboard-response","149","375506","0.0-7.0-5.22","63f7b890b9c9e7b19a2e9281","bdp_wmem","Sat Apr 08 2023 11:47:28 GMT-0400 (Eastern Daylight Time)","599531","Match,No Match","","null","","","","","","<div class='trialBorder'><div class='vertical-center'><img src='img/correct.jpg'></div><div class='respDiv'><div class='respDivL'><font style='color:orange'>Match<br>(e)</font></div><div class='respDivR'>No Match<br>(i)</div></div></div>","null","FEEDBACK","","","","","","","","","","",""
"html-keyboard-response","150","376010","0.0-7.0-1.23","63f7b890b9c9e7b19a2e9281","bdp_wmem","Sat Apr 08 2023 11:47:28 GMT-0400 (Eastern Daylight Time)","599531","Match,No Match","","null","","","","","","<div class='trialBorder'><div class='vertical-center'><img src='img/fixation2_sml.jpg'</img></div></div>","null","FIX","","","","","","","","","","",""
"html-keyboard-response","151","379018","0.0-7.0-2.23","63f7b890b9c9e7b19a2e9281","bdp_wmem","Sat Apr 08 2023 11:47:28 GMT-0400 (Eastern Daylight Time)","599531","Match,No Match","","null","","","","","","<div class='trialBorder'><div class='vertical-center'><img style='vertical-align:center; align:center' src='img/fixation2_sml.jpg'></div><div class='arrayDiv2'><div class='tl'><img class='introPic' src='trustrating_stim/white_mw038.bmp'><br><font color='red'><strong>Keep</strong></font></div><div class='tr'><img class='introPic' src='trustrating_stim/white_mw078.bmp'><br><font color='green'><strong>Share</strong></font></div></div></div>","null","ARRAY","2","trustrating_stim/white_mw038.bmp,trustrating_stim/white_mw078.bmp","0,1","Match","e","3000","","","","",""
"html-keyboard-response","152","383026","0.0-7.0-3.23","63f7b890b9c9e7b19a2e9281","bdp_wmem","Sat Apr 08 2023 11:47:28 GMT-0400 (Eastern Daylight Time)","599531","Match,No Match","","null","","","","","","<div class='trialBorder'><div class='vertical-center'><img src='img/fixation2_sml.jpg'</img></div></div>","null","DELAY","","","","","","","","","","",""
"html-keyboard-response","153","384444","0.0-7.0-4.23","63f7b890b9c9e7b19a2e9281","bdp_wmem","Sat Apr 08 2023 11:47:28 GMT-0400 (Eastern Daylight Time)","599531","Match,No Match","","1414","","","","","","<div class='trialBorder'><div class='targDiv'><div class='tc'><img class='introPic' src='trustrating_stim/white_mw078.bmp'><br><font color='green'><strong>Share</strong></font></div></div><div class='respDiv'><div class='respDivL'>Match<br>(e)</div><div class='respDivR'>No Match<br>(i)</div></div></div>","i","TARGET","2","trustrating_stim/white_mw038.bmp,trustrating_stim/white_mw078.bmp","0,1","Match","e","3000","trustrating_stim/white_mw078.bmp","green","Share","REAL","0"
"html-keyboard-response","154","384946","0.0-7.0-5.23","63f7b890b9c9e7b19a2e9281","bdp_wmem","Sat Apr 08 2023 11:47:28 GMT-0400 (Eastern Daylight Time)","599531","Match,No Match","","null","","","","","","<div class='trialBorder'><div class='vertical-center'><img src='img/error.jpg'></div><div class='respDiv'><div class='respDivL'>Match<br>(e)</div><div class='respDivR'><font style='color:orange'>No Match<br>(i)</font></div></div></div>","null","FEEDBACK","","","","","","","","","","",""
"html-keyboard-response","155","385450","0.0-7.0-1.24","63f7b890b9c9e7b19a2e9281","bdp_wmem","Sat Apr 08 2023 11:47:28 GMT-0400 (Eastern Daylight Time)","599531","Match,No Match","","null","","","","","","<div class='trialBorder'><div class='vertical-center'><img src='img/fixation2_sml.jpg'</img></div></div>","null","FIX","","","","","","","","","","",""
"html-keyboard-response","156","388458","0.0-7.0-2.24","63f7b890b9c9e7b19a2e9281","bdp_wmem","Sat Apr 08 2023 11:47:28 GMT-0400 (Eastern Daylight Time)","599531","Match,No Match","","null","","","","","","<div class='trialBorder'><div class='vertical-center'><img style='vertical-align:center; align:center' src='img/fixation2_sml.jpg'></div><div class='arrayDiv2'><div class='tl'><img class='introPic' src='trustrating_stim/white_mw078.bmp'><br><font color='red'><strong>Keep</strong></font></div><div class='tr'><img class='introPic' src='trustrating_stim/white_mw085.bmp'><br><font color='green'><strong>Share</strong></font></div></div></div>","null","ARRAY","2","trustrating_stim/white_mw078.bmp,trustrating_stim/white_mw085.bmp","0,1","Match","e","3000","","","","",""
"html-keyboard-response","157","392466","0.0-7.0-3.24","63f7b890b9c9e7b19a2e9281","bdp_wmem","Sat Apr 08 2023 11:47:28 GMT-0400 (Eastern Daylight Time)","599531","Match,No Match","","null","","","","","","<div class='trialBorder'><div class='vertical-center'><img src='img/fixation2_sml.jpg'</img></div></div>","null","DELAY","","","","","","","","","","",""
"html-keyboard-response","158","393383","0.0-7.0-4.24","63f7b890b9c9e7b19a2e9281","bdp_wmem","Sat Apr 08 2023 11:47:28 GMT-0400 (Eastern Daylight Time)","599531","Match,No Match","","914","","","","","","<div class='trialBorder'><div class='targDiv'><div class='tc'><img class='introPic' src='trustrating_stim/white_mw078.bmp'><br><font color='red'><strong>Keep</strong></font></div></div><div class='respDiv'><div class='respDivL'>Match<br>(e)</div><div class='respDivR'>No Match<br>(i)</div></div></div>","e","TARGET","2","trustrating_stim/white_mw078.bmp,trustrating_stim/white_mw085.bmp","0,1","Match","e","3000","trustrating_stim/white_mw078.bmp","red","Keep","REAL","1"
"html-keyboard-response","159","393890","0.0-7.0-5.24","63f7b890b9c9e7b19a2e9281","bdp_wmem","Sat Apr 08 2023 11:47:28 GMT-0400 (Eastern Daylight Time)","599531","Match,No Match","","null","","","","","","<div class='trialBorder'><div class='vertical-center'><img src='img/correct.jpg'></div><div class='respDiv'><div class='respDivL'><font style='color:orange'>Match<br>(e)</font></div><div class='respDivR'>No Match<br>(i)</div></div></div>","null","FEEDBACK","","","","","","","","","","",""
"html-keyboard-response","160","394394","0.0-7.0-1.25","63f7b890b9c9e7b19a2e9281","bdp_wmem","Sat Apr 08 2023 11:47:28 GMT-0400 (Eastern Daylight Time)","599531","Match,No Match","","null","","","","","","<div class='trialBorder'><div class='vertical-center'><img src='img/fixation2_sml.jpg'</img></div></div>","null","FIX","","","","","","","","","","",""
"html-keyboard-response","161","398898","0.0-7.0-2.25","63f7b890b9c9e7b19a2e9281","bdp_wmem","Sat Apr 08 2023 11:47:28 GMT-0400 (Eastern Daylight Time)","599531","Match,No Match","","null","","","","","","<div class='trialBorder'><div class='vertical-center'><img style='vertical-align:center; align:center' src='img/fixation2_sml.jpg'></div><div class='arrayDiv3'><div class='tl'><img class='introPic' src='trustrating_stim/white_mw003.bmp'><br><font color='red'><strong>Keep</strong></font></div><div class='tc'><img class='introPic' src='trustrating_stim/white_mw038.bmp'><br><font color='red'><strong>Keep</strong></font></div><div class='tr'><img class='introPic' src='trustrating_stim/white_mw012.bmp'><br><font color='green'><strong>Share</strong></font></div></div></div>","null","ARRAY","3","trustrating_stim/white_mw003.bmp,trustrating_stim/white_mw038.bmp,trustrating_stim/white_mw012.bmp","0,0,1","noMatchOutcome","i","4500","","","","",""
"html-keyboard-response","162","402906","0.0-7.0-3.25","63f7b890b9c9e7b19a2e9281","bdp_wmem","Sat Apr 08 2023 11:47:28 GMT-0400 (Eastern Daylight Time)","599531","Match,No Match","","null","","","","","","<div class='trialBorder'><div class='vertical-center'><img src='img/fixation2_sml.jpg'</img></div></div>","null","DELAY","","","","","","","","","","",""
"html-keyboard-response","163","403881","0.0-7.0-4.25","63f7b890b9c9e7b19a2e9281","bdp_wmem","Sat Apr 08 2023 11:47:28 GMT-0400 (Eastern Daylight Time)","599531","Match,No Match","","971","","","","","","<div class='trialBorder'><div class='targDiv'><div class='tc'><img class='introPic' src='trustrating_stim/white_mw003.bmp'><br><font color='green'><strong>Share</strong></font></div></div><div class='respDiv'><div class='respDivL'>Match<br>(e)</div><div class='respDivR'>No Match<br>(i)</div></div></div>","i","TARGET","3","trustrating_stim/white_mw003.bmp,trustrating_stim/white_mw038.bmp,trustrating_stim/white_mw012.bmp","0,0,1","noMatchOutcome","i","4500","trustrating_stim/white_mw003.bmp","green","Share","REAL","1"
"html-keyboard-response","164","404386","0.0-7.0-5.25","63f7b890b9c9e7b19a2e9281","bdp_wmem","Sat Apr 08 2023 11:47:28 GMT-0400 (Eastern Daylight Time)","599531","Match,No Match","","null","","","","","","<div class='trialBorder'><div class='vertical-center'><img src='img/correct.jpg'></div><div class='respDiv'><div class='respDivL'>Match<br>(e)</div><div class='respDivR'><font style='color:orange'>No Match<br>(i)</font></div></div></div>","null","FEEDBACK","","","","","","","","","","",""
"html-keyboard-response","165","404890","0.0-7.0-1.26","63f7b890b9c9e7b19a2e9281","bdp_wmem","Sat Apr 08 2023 11:47:28 GMT-0400 (Eastern Daylight Time)","599531","Match,No Match","","null","","","","","","<div class='trialBorder'><div class='vertical-center'><img src='img/fixation2_sml.jpg'</img></div></div>","null","FIX","","","","","","","","","","",""
"html-keyboard-response","166","406394","0.0-7.0-2.26","63f7b890b9c9e7b19a2e9281","bdp_wmem","Sat Apr 08 2023 11:47:28 GMT-0400 (Eastern Daylight Time)","599531","Match,No Match","","null","","","","","","<div class='trialBorder'><div class='vertical-center'><img style='vertical-align:center; align:center' src='img/fixation2_sml.jpg'></div><div class='arrayDiv1'><div class='tc'><img class='introPic' src='trustrating_stim/white_mw085.bmp'><br><font color='red'><strong>Keep</strong></font></div></div></div>","null","ARRAY","1","trustrating_stim/white_mw085.bmp","0","Match","e","1500","","","","",""
"html-keyboard-response","167","410402","0.0-7.0-3.26","63f7b890b9c9e7b19a2e9281","bdp_wmem","Sat Apr 08 2023 11:47:28 GMT-0400 (Eastern Daylight Time)","599531","Match,No Match","","null","","","","","","<div class='trialBorder'><div class='vertical-center'><img src='img/fixation2_sml.jpg'</img></div></div>","null","DELAY","","","","","","","","","","",""
"html-keyboard-response","168","411319","0.0-7.0-4.26","63f7b890b9c9e7b19a2e9281","bdp_wmem","Sat Apr 08 2023 11:47:28 GMT-0400 (Eastern Daylight Time)","599531","Match,No Match","","914","","","","","","<div class='trialBorder'><div class='targDiv'><div class='tc'><img class='introPic' src='trustrating_stim/white_mw085.bmp'><br><font color='red'><strong>Keep</strong></font></div></div><div class='respDiv'><div class='respDivL'>Match<br>(e)</div><div class='respDivR'>No Match<br>(i)</div></div></div>","e","TARGET","1","trustrating_stim/white_mw085.bmp","0","Match","e","1500","trustrating_stim/white_mw085.bmp","red","Keep","REAL","1"
"html-keyboard-response","169","411826","0.0-7.0-5.26","63f7b890b9c9e7b19a2e9281","bdp_wmem","Sat Apr 08 2023 11:47:28 GMT-0400 (Eastern Daylight Time)","599531","Match,No Match","","null","","","","","","<div class='trialBorder'><div class='vertical-center'><img src='img/correct.jpg'></div><div class='respDiv'><div class='respDivL'><font style='color:orange'>Match<br>(e)</font></div><div class='respDivR'>No Match<br>(i)</div></div></div>","null","FEEDBACK","","","","","","","","","","",""
"html-keyboard-response","170","412330","0.0-7.0-1.27","63f7b890b9c9e7b19a2e9281","bdp_wmem","Sat Apr 08 2023 11:47:28 GMT-0400 (Eastern Daylight Time)","599531","Match,No Match","","null","","","","","","<div class='trialBorder'><div class='vertical-center'><img src='img/fixation2_sml.jpg'</img></div></div>","null","FIX","","","","","","","","","","",""
"html-keyboard-response","171","416834","0.0-7.0-2.27","63f7b890b9c9e7b19a2e9281","bdp_wmem","Sat Apr 08 2023 11:47:28 GMT-0400 (Eastern Daylight Time)","599531","Match,No Match","","null","","","","","","<div class='trialBorder'><div class='vertical-center'><img style='vertical-align:center; align:center' src='img/fixation2_sml.jpg'></div><div class='arrayDiv3'><div class='tl'><img class='introPic' src='trustrating_stim/white_mw042.bmp'><br><font color='red'><strong>Keep</strong></font></div><div class='tc'><img class='introPic' src='trustrating_stim/white_mw091.bmp'><br><font color='green'><strong>Share</strong></font></div><div class='tr'><img class='introPic' src='trustrating_stim/white_mw010.bmp'><br><font color='green'><strong>Share</strong></font></div></div></div>","null","ARRAY","3","trustrating_stim/white_mw042.bmp,trustrating_stim/white_mw091.bmp,trustrating_stim/white_mw010.bmp","0,1,1","noMatchFace","i","4500","","","","",""
"html-keyboard-response","172","420842","0.0-7.0-3.27","63f7b890b9c9e7b19a2e9281","bdp_wmem","Sat Apr 08 2023 11:47:28 GMT-0400 (Eastern Daylight Time)","599531","Match,No Match","","null","","","","","","<div class='trialBorder'><div class='vertical-center'><img src='img/fixation2_sml.jpg'</img></div></div>","null","DELAY","","","","","","","","","","",""
"html-keyboard-response","173","421483","0.0-7.0-4.27","63f7b890b9c9e7b19a2e9281","bdp_wmem","Sat Apr 08 2023 11:47:28 GMT-0400 (Eastern Daylight Time)","599531","Match,No Match","","638","","","","","","<div class='trialBorder'><div class='targDiv'><div class='tc'><img class='introPic' src='trustrating_stim/white_mw078.bmp'><br><font color='green'><strong>Share</strong></font></div></div><div class='respDiv'><div class='respDivL'>Match<br>(e)</div><div class='respDivR'>No Match<br>(i)</div></div></div>","e","TARGET","3","trustrating_stim/white_mw042.bmp,trustrating_stim/white_mw091.bmp,trustrating_stim/white_mw010.bmp","0,1,1","noMatchFace","i","4500","trustrating_stim/white_mw078.bmp","green","Share","REAL","0"
"html-keyboard-response","174","421986","0.0-7.0-5.27","63f7b890b9c9e7b19a2e9281","bdp_wmem","Sat Apr 08 2023 11:47:28 GMT-0400 (Eastern Daylight Time)","599531","Match,No Match","","null","","","","","","<div class='trialBorder'><div class='vertical-center'><img src='img/error.jpg'></div><div class='respDiv'><div class='respDivL'><font style='color:orange'>Match<br>(e)</font></div><div class='respDivR'>No Match<br>(i)</div></div></div>","null","FEEDBACK","","","","","","","","","","",""
"html-keyboard-response","175","422490","0.0-7.0-1.28","63f7b890b9c9e7b19a2e9281","bdp_wmem","Sat Apr 08 2023 11:47:28 GMT-0400 (Eastern Daylight Time)","599531","Match,No Match","","null","","","","","","<div class='trialBorder'><div class='vertical-center'><img src='img/fixation2_sml.jpg'</img></div></div>","null","FIX","","","","","","","","","","",""
"html-keyboard-response","176","426994","0.0-7.0-2.28","63f7b890b9c9e7b19a2e9281","bdp_wmem","Sat Apr 08 2023 11:47:28 GMT-0400 (Eastern Daylight Time)","599531","Match,No Match","","null","","","","","","<div class='trialBorder'><div class='vertical-center'><img style='vertical-align:center; align:center' src='img/fixation2_sml.jpg'></div><div class='arrayDiv3'><div class='tl'><img class='introPic' src='trustrating_stim/white_mw042.bmp'><br><font color='red'><strong>Keep</strong></font></div><div class='tc'><img class='introPic' src='trustrating_stim/white_mw010.bmp'><br><font color='green'><strong>Share</strong></font></div><div class='tr'><img class='introPic' src='trustrating_stim/white_mw003.bmp'><br><font color='red'><strong>Keep</strong></font></div></div></div>","null","ARRAY","3","trustrating_stim/white_mw042.bmp,trustrating_stim/white_mw010.bmp,trustrating_stim/white_mw003.bmp","0,1,0","noMatchOutcome","i","4500","","","","",""
"html-keyboard-response","177","431002","0.0-7.0-3.28","63f7b890b9c9e7b19a2e9281","bdp_wmem","Sat Apr 08 2023 11:47:28 GMT-0400 (Eastern Daylight Time)","599531","Match,No Match","","null","","","","","","<div class='trialBorder'><div class='vertical-center'><img src='img/fixation2_sml.jpg'</img></div></div>","null","DELAY","","","","","","","","","","",""
"html-keyboard-response","178","431902","0.0-7.0-4.28","63f7b890b9c9e7b19a2e9281","bdp_wmem","Sat Apr 08 2023 11:47:28 GMT-0400 (Eastern Daylight Time)","599531","Match,No Match","","897","","","","","","<div class='trialBorder'><div class='targDiv'><div class='tc'><img class='introPic' src='trustrating_stim/white_mw010.bmp'><br><font color='red'><strong>Keep</strong></font></div></div><div class='respDiv'><div class='respDivL'>Match<br>(e)</div><div class='respDivR'>No Match<br>(i)</div></div></div>","e","TARGET","3","trustrating_stim/white_mw042.bmp,trustrating_stim/white_mw010.bmp,trustrating_stim/white_mw003.bmp","0,1,0","noMatchOutcome","i","4500","trustrating_stim/white_mw010.bmp","red","Keep","REAL","0"
"html-keyboard-response","179","432410","0.0-7.0-5.28","63f7b890b9c9e7b19a2e9281","bdp_wmem","Sat Apr 08 2023 11:47:28 GMT-0400 (Eastern Daylight Time)","599531","Match,No Match","","null","","","","","","<div class='trialBorder'><div class='vertical-center'><img src='img/error.jpg'></div><div class='respDiv'><div class='respDivL'><font style='color:orange'>Match<br>(e)</font></div><div class='respDivR'>No Match<br>(i)</div></div></div>","null","FEEDBACK","","","","","","","","","","",""
"html-keyboard-response","180","432914","0.0-7.0-1.29","63f7b890b9c9e7b19a2e9281","bdp_wmem","Sat Apr 08 2023 11:47:28 GMT-0400 (Eastern Daylight Time)","599531","Match,No Match","","null","","","","","","<div class='trialBorder'><div class='vertical-center'><img src='img/fixation2_sml.jpg'</img></div></div>","null","FIX","","","","","","","","","","",""
"html-keyboard-response","181","435922","0.0-7.0-2.29","63f7b890b9c9e7b19a2e9281","bdp_wmem","Sat Apr 08 2023 11:47:28 GMT-0400 (Eastern Daylight Time)","599531","Match,No Match","","null","","","","","","<div class='trialBorder'><div class='vertical-center'><img style='vertical-align:center; align:center' src='img/fixation2_sml.jpg'></div><div class='arrayDiv2'><div class='tl'><img class='introPic' src='trustrating_stim/white_mw085.bmp'><br><font color='green'><strong>Share</strong></font></div><div class='tr'><img class='introPic' src='trustrating_stim/white_mw042.bmp'><br><font color='red'><strong>Keep</strong></font></div></div></div>","null","ARRAY","2","trustrating_stim/white_mw085.bmp,trustrating_stim/white_mw042.bmp","1,0","noMatchOutcome","i","3000","","","","",""
"html-keyboard-response","182","439930","0.0-7.0-3.29","63f7b890b9c9e7b19a2e9281","bdp_wmem","Sat Apr 08 2023 11:47:28 GMT-0400 (Eastern Daylight Time)","599531","Match,No Match","","null","","","","","","<div class='trialBorder'><div class='vertical-center'><img src='img/fixation2_sml.jpg'</img></div></div>","null","DELAY","","","","","","","","","","",""
"html-keyboard-response","183","440629","0.0-7.0-4.29","63f7b890b9c9e7b19a2e9281","bdp_wmem","Sat Apr 08 2023 11:47:28 GMT-0400 (Eastern Daylight Time)","599531","Match,No Match","","696","","","","","","<div class='trialBorder'><div class='targDiv'><div class='tc'><img class='introPic' src='trustrating_stim/white_mw085.bmp'><br><font color='red'><strong>Keep</strong></font></div></div><div class='respDiv'><div class='respDivL'>Match<br>(e)</div><div class='respDivR'>No Match<br>(i)</div></div></div>","e","TARGET","2","trustrating_stim/white_mw085.bmp,trustrating_stim/white_mw042.bmp","1,0","noMatchOutcome","i","3000","trustrating_stim/white_mw085.bmp","red","Keep","REAL","0"
"html-keyboard-response","184","441130","0.0-7.0-5.29","63f7b890b9c9e7b19a2e9281","bdp_wmem","Sat Apr 08 2023 11:47:28 GMT-0400 (Eastern Daylight Time)","599531","Match,No Match","","null","","","","","","<div class='trialBorder'><div class='vertical-center'><img src='img/error.jpg'></div><div class='respDiv'><div class='respDivL'><font style='color:orange'>Match<br>(e)</font></div><div class='respDivR'>No Match<br>(i)</div></div></div>","null","FEEDBACK","","","","","","","","","","",""
"html-keyboard-response","185","441634","0.0-7.0-1.30","63f7b890b9c9e7b19a2e9281","bdp_wmem","Sat Apr 08 2023 11:47:28 GMT-0400 (Eastern Daylight Time)","599531","Match,No Match","","null","","","","","","<div class='trialBorder'><div class='vertical-center'><img src='img/fixation2_sml.jpg'</img></div></div>","null","FIX","","","","","","","","","","",""
"html-keyboard-response","186","444642","0.0-7.0-2.30","63f7b890b9c9e7b19a2e9281","bdp_wmem","Sat Apr 08 2023 11:47:28 GMT-0400 (Eastern Daylight Time)","599531","Match,No Match","","null","","","","","","<div class='trialBorder'><div class='vertical-center'><img style='vertical-align:center; align:center' src='img/fixation2_sml.jpg'></div><div class='arrayDiv2'><div class='tl'><img class='introPic' src='trustrating_stim/white_mw070.bmp'><br><font color='red'><strong>Keep</strong></font></div><div class='tr'><img class='introPic' src='trustrating_stim/white_mw003.bmp'><br><font color='green'><strong>Share</strong></font></div></div></div>","null","ARRAY","2","trustrating_stim/white_mw070.bmp,trustrating_stim/white_mw003.bmp","0,1","noMatchOutcome","i","3000","","","","",""
"html-keyboard-response","187","448650","0.0-7.0-3.30","63f7b890b9c9e7b19a2e9281","bdp_wmem","Sat Apr 08 2023 11:47:28 GMT-0400 (Eastern Daylight Time)","599531","Match,No Match","","null","","","","","","<div class='trialBorder'><div class='vertical-center'><img src='img/fixation2_sml.jpg'</img></div></div>","null","DELAY","","","","","","","","","","",""
