"event","trial","time","trialtype","subject_id","task","startTime","totalTime","labels","trial_type","trial_index","time_elapsed","internal_node_id","view_history","rt","success","stimulus","key_press","stimType","arraySize","arrayFaces","arrayOutcomes","matchType","corrResp","arrayDur","targFace","targCol","targOutcome","trialType","corr"
"focus","0","0","focusevent","63f78c9346da47f7f8f3aef9","bdp_wmem","Sat Apr 08 2023 09:44:59 GMT-0600 (Mountain Daylight Time)","544828","Match,No Match","","","","","","","","","","","","","","","","","","","","",""
"","","","","63f78c9346da47f7f8f3aef9","bdp_wmem","Sat Apr 08 2023 09:44:59 GMT-0600 (Mountain Daylight Time)","544828","Match,No Match","pavlovia","0","6","0.0-0.0","","","","","","","","","","","","","","","","",""
"","","","","63f78c9346da47f7f8f3aef9","bdp_wmem","Sat Apr 08 2023 09:44:59 GMT-0600 (Mountain Daylight Time)","544828","Match,No Match","instructions","1","1872","0.0-1.0","[{""page_index"":0,""viewing_time"":1866}]","1866","","","","","","","","","","","","","","",""
"fullscreenexit","2","4587","fullscreenexit","63f78c9346da47f7f8f3aef9","bdp_wmem","Sat Apr 08 2023 09:44:59 GMT-0600 (Mountain Daylight Time)","544828","Match,No Match","","","","","","","","","","","","","","","","","","","","",""
"","","","","63f78c9346da47f7f8f3aef9","bdp_wmem","Sat Apr 08 2023 09:44:59 GMT-0600 (Mountain Daylight Time)","544828","Match,No Match","fullscreen","2","5405","0.0-2.0","","","true","","","","","","","","","","","","","",""
"","","","fullscreenfail","63f78c9346da47f7f8f3aef9","bdp_wmem","Sat Apr 08 2023 09:44:59 GMT-0600 (Mountain Daylight Time)","544828","Match,No Match","image-keyboard-response","3","6642","0.0-3.0-0.0","","1231","","","32","","","","","","","","","","","",""
"","","","","63f78c9346da47f7f8f3aef9","bdp_wmem","Sat Apr 08 2023 09:44:59 GMT-0600 (Mountain Daylight Time)","544828","Match,No Match","instructions","4","44505","0.0-4.0","[{""page_index"":0,""viewing_time"":11065},{""page_index"":1,""viewing_time"":18408},{""page_index"":2,""viewing_time"":4255},{""page_index"":3,""viewing_time"":1711},{""page_index"":4,""viewing_time"":2169}]","37609","","","","","","","","","","","","","","",""
"","","","","63f78c9346da47f7f8f3aef9","bdp_wmem","Sat Apr 08 2023 09:44:59 GMT-0600 (Mountain Daylight Time)","544828","Match,No Match","html-keyboard-response","5","45012","0.0-5.0-1.0","","null","","<div class='trialBorder'><div class='vertical-center'><img src='img/fixation2_sml.jpg'</img></div></div>","null","FIX","","","","","","","","","","",""
"","","","","63f78c9346da47f7f8f3aef9","bdp_wmem","Sat Apr 08 2023 09:44:59 GMT-0600 (Mountain Daylight Time)","544828","Match,No Match","html-keyboard-response","6","48028","0.0-5.0-2.0","","null","","<div class='trialBorder'><div class='vertical-center'><img style='vertical-align:center; align:center' src='img/fixation2_sml.jpg'></div><div class='arrayDiv2'><div class='tl'><img class='introPic' src='trustrating_stim/white_mw013.bmp'><br><font color='green'><strong>Share</strong></font></div><div class='tr'><img class='introPic' src='trustrating_stim/white_mw092.bmp'><br><font color='red'><strong>Keep</strong></font></div></div></div>","null","ARRAY","2","trustrating_stim/white_mw013.bmp,trustrating_stim/white_mw092.bmp","1,0","Match","e","3000","","","","",""
"","","","","63f78c9346da47f7f8f3aef9","bdp_wmem","Sat Apr 08 2023 09:44:59 GMT-0600 (Mountain Daylight Time)","544828","Match,No Match","html-keyboard-response","7","52039","0.0-5.0-3.0","","null","","<div class='trialBorder'><div class='vertical-center'><img src='img/fixation2_sml.jpg'</img></div></div>","null","DELAY","","","","","","","","","","",""
"","","","","63f78c9346da47f7f8f3aef9","bdp_wmem","Sat Apr 08 2023 09:44:59 GMT-0600 (Mountain Daylight Time)","544828","Match,No Match","html-keyboard-response","8","54609","0.0-5.0-4.0","","2568","","<div class='trialBorder'><div class='targDiv'><div class='tc'><img class='introPic' src='trustrating_stim/white_mw013.bmp'><br><font color='green'><strong>Share</strong></font></div></div><div class='respDiv'><div class='respDivL'>Match<br>(e)</div><div class='respDivR'>No Match<br>(i)</div></div></div>","e","TARGET","2","trustrating_stim/white_mw013.bmp,trustrating_stim/white_mw092.bmp","1,0","Match","e","3000","trustrating_stim/white_mw013.bmp","green","Share","PRACTICE","1"
"","","","","63f78c9346da47f7f8f3aef9","bdp_wmem","Sat Apr 08 2023 09:44:59 GMT-0600 (Mountain Daylight Time)","544828","Match,No Match","html-keyboard-response","9","55113","0.0-5.0-5.0","","null","","<div class='trialBorder'><div class='vertical-center'><img src='img/correct.jpg'></div><div class='respDiv'><div class='respDivL'><font style='color:orange'>Match<br>(e)</font></div><div class='respDivR'>No Match<br>(i)</div></div></div>","null","FEEDBACK","","","","","","","","","","",""
"","","","","63f78c9346da47f7f8f3aef9","bdp_wmem","Sat Apr 08 2023 09:44:59 GMT-0600 (Mountain Daylight Time)","544828","Match,No Match","html-keyboard-response","10","55628","0.0-5.0-1.1","","null","","<div class='trialBorder'><div class='vertical-center'><img src='img/fixation2_sml.jpg'</img></div></div>","null","FIX","","","","","","","","","","",""
"","","","","63f78c9346da47f7f8f3aef9","bdp_wmem","Sat Apr 08 2023 09:44:59 GMT-0600 (Mountain Daylight Time)","544828","Match,No Match","html-keyboard-response","11","58643","0.0-5.0-2.1","","null","","<div class='trialBorder'><div class='vertical-center'><img style='vertical-align:center; align:center' src='img/fixation2_sml.jpg'></div><div class='arrayDiv2'><div class='tl'><img class='introPic' src='trustrating_stim/white_mw010.bmp'><br><font color='red'><strong>Keep</strong></font></div><div class='tr'><img class='introPic' src='trustrating_stim/white_mw070.bmp'><br><font color='green'><strong>Share</strong></font></div></div></div>","null","ARRAY","2","trustrating_stim/white_mw010.bmp,trustrating_stim/white_mw070.bmp","0,1","noMatchOutcome","i","3000","","","","",""
"","","","","63f78c9346da47f7f8f3aef9","bdp_wmem","Sat Apr 08 2023 09:44:59 GMT-0600 (Mountain Daylight Time)","544828","Match,No Match","html-keyboard-response","12","62647","0.0-5.0-3.1","","null","","<div class='trialBorder'><div class='vertical-center'><img src='img/fixation2_sml.jpg'</img></div></div>","null","DELAY","","","","","","","","","","",""
"","","","","63f78c9346da47f7f8f3aef9","bdp_wmem","Sat Apr 08 2023 09:44:59 GMT-0600 (Mountain Daylight Time)","544828","Match,No Match","html-keyboard-response","13","63809","0.0-5.0-4.1","","1158","","<div class='trialBorder'><div class='targDiv'><div class='tc'><img class='introPic' src='trustrating_stim/white_mw010.bmp'><br><font color='green'><strong>Share</strong></font></div></div><div class='respDiv'><div class='respDivL'>Match<br>(e)</div><div class='respDivR'>No Match<br>(i)</div></div></div>","i","TARGET","2","trustrating_stim/white_mw010.bmp,trustrating_stim/white_mw070.bmp","0,1","noMatchOutcome","i","3000","trustrating_stim/white_mw010.bmp","green","Share","PRACTICE","1"
"","","","","63f78c9346da47f7f8f3aef9","bdp_wmem","Sat Apr 08 2023 09:44:59 GMT-0600 (Mountain Daylight Time)","544828","Match,No Match","html-keyboard-response","14","64321","0.0-5.0-5.1","","null","","<div class='trialBorder'><div class='vertical-center'><img src='img/correct.jpg'></div><div class='respDiv'><div class='respDivL'>Match<br>(e)</div><div class='respDivR'><font style='color:orange'>No Match<br>(i)</font></div></div></div>","null","FEEDBACK","","","","","","","","","","",""
"","","","","63f78c9346da47f7f8f3aef9","bdp_wmem","Sat Apr 08 2023 09:44:59 GMT-0600 (Mountain Daylight Time)","544828","Match,No Match","html-keyboard-response","15","64835","0.0-5.0-1.2","","null","","<div class='trialBorder'><div class='vertical-center'><img src='img/fixation2_sml.jpg'</img></div></div>","null","FIX","","","","","","","","","","",""
"","","","","63f78c9346da47f7f8f3aef9","bdp_wmem","Sat Apr 08 2023 09:44:59 GMT-0600 (Mountain Daylight Time)","544828","Match,No Match","html-keyboard-response","16","69352","0.0-5.0-2.2","","null","","<div class='trialBorder'><div class='vertical-center'><img style='vertical-align:center; align:center' src='img/fixation2_sml.jpg'></div><div class='arrayDiv3'><div class='tl'><img class='introPic' src='trustrating_stim/white_mw070.bmp'><br><font color='green'><strong>Share</strong></font></div><div class='tc'><img class='introPic' src='trustrating_stim/white_mw085.bmp'><br><font color='green'><strong>Share</strong></font></div><div class='tr'><img class='introPic' src='trustrating_stim/white_mw003.bmp'><br><font color='red'><strong>Keep</strong></font></div></div></div>","null","ARRAY","3","trustrating_stim/white_mw070.bmp,trustrating_stim/white_mw085.bmp,trustrating_stim/white_mw003.bmp","1,1,0","Match","e","4500","","","","",""
"","","","","63f78c9346da47f7f8f3aef9","bdp_wmem","Sat Apr 08 2023 09:44:59 GMT-0600 (Mountain Daylight Time)","544828","Match,No Match","html-keyboard-response","17","73363","0.0-5.0-3.2","","null","","<div class='trialBorder'><div class='vertical-center'><img src='img/fixation2_sml.jpg'</img></div></div>","null","DELAY","","","","","","","","","","",""
"","","","","63f78c9346da47f7f8f3aef9","bdp_wmem","Sat Apr 08 2023 09:44:59 GMT-0600 (Mountain Daylight Time)","544828","Match,No Match","html-keyboard-response","18","74337","0.0-5.0-4.2","","969","","<div class='trialBorder'><div class='targDiv'><div class='tc'><img class='introPic' src='trustrating_stim/white_mw070.bmp'><br><font color='green'><strong>Share</strong></font></div></div><div class='respDiv'><div class='respDivL'>Match<br>(e)</div><div class='respDivR'>No Match<br>(i)</div></div></div>","e","TARGET","3","trustrating_stim/white_mw070.bmp,trustrating_stim/white_mw085.bmp,trustrating_stim/white_mw003.bmp","1,1,0","Match","e","4500","trustrating_stim/white_mw070.bmp","green","Share","PRACTICE","1"
"","","","","63f78c9346da47f7f8f3aef9","bdp_wmem","Sat Apr 08 2023 09:44:59 GMT-0600 (Mountain Daylight Time)","544828","Match,No Match","html-keyboard-response","19","74840","0.0-5.0-5.2","","null","","<div class='trialBorder'><div class='vertical-center'><img src='img/correct.jpg'></div><div class='respDiv'><div class='respDivL'><font style='color:orange'>Match<br>(e)</font></div><div class='respDivR'>No Match<br>(i)</div></div></div>","null","FEEDBACK","","","","","","","","","","",""
"","","","","63f78c9346da47f7f8f3aef9","bdp_wmem","Sat Apr 08 2023 09:44:59 GMT-0600 (Mountain Daylight Time)","544828","Match,No Match","html-keyboard-response","20","75353","0.0-5.0-1.3","","null","","<div class='trialBorder'><div class='vertical-center'><img src='img/fixation2_sml.jpg'</img></div></div>","null","FIX","","","","","","","","","","",""
"","","","","63f78c9346da47f7f8f3aef9","bdp_wmem","Sat Apr 08 2023 09:44:59 GMT-0600 (Mountain Daylight Time)","544828","Match,No Match","html-keyboard-response","21","79855","0.0-5.0-2.3","","null","","<div class='trialBorder'><div class='vertical-center'><img style='vertical-align:center; align:center' src='img/fixation2_sml.jpg'></div><div class='arrayDiv3'><div class='tl'><img class='introPic' src='trustrating_stim/white_mw012.bmp'><br><font color='red'><strong>Keep</strong></font></div><div class='tc'><img class='introPic' src='trustrating_stim/white_mw091.bmp'><br><font color='green'><strong>Share</strong></font></div><div class='tr'><img class='introPic' src='trustrating_stim/white_mw092.bmp'><br><font color='green'><strong>Share</strong></font></div></div></div>","null","ARRAY","3","trustrating_stim/white_mw012.bmp,trustrating_stim/white_mw091.bmp,trustrating_stim/white_mw092.bmp","0,1,1","noMatchOutcome","i","4500","","","","",""
"","","","","63f78c9346da47f7f8f3aef9","bdp_wmem","Sat Apr 08 2023 09:44:59 GMT-0600 (Mountain Daylight Time)","544828","Match,No Match","html-keyboard-response","22","83862","0.0-5.0-3.3","","null","","<div class='trialBorder'><div class='vertical-center'><img src='img/fixation2_sml.jpg'</img></div></div>","null","DELAY","","","","","","","","","","",""
"","","","","63f78c9346da47f7f8f3aef9","bdp_wmem","Sat Apr 08 2023 09:44:59 GMT-0600 (Mountain Daylight Time)","544828","Match,No Match","html-keyboard-response","23","85009","0.0-5.0-4.3","","1144","","<div class='trialBorder'><div class='targDiv'><div class='tc'><img class='introPic' src='trustrating_stim/white_mw091.bmp'><br><font color='red'><strong>Keep</strong></font></div></div><div class='respDiv'><div class='respDivL'>Match<br>(e)</div><div class='respDivR'>No Match<br>(i)</div></div></div>","i","TARGET","3","trustrating_stim/white_mw012.bmp,trustrating_stim/white_mw091.bmp,trustrating_stim/white_mw092.bmp","0,1,1","noMatchOutcome","i","4500","trustrating_stim/white_mw091.bmp","red","Keep","PRACTICE","1"
"","","","","63f78c9346da47f7f8f3aef9","bdp_wmem","Sat Apr 08 2023 09:44:59 GMT-0600 (Mountain Daylight Time)","544828","Match,No Match","html-keyboard-response","24","85518","0.0-5.0-5.3","","null","","<div class='trialBorder'><div class='vertical-center'><img src='img/correct.jpg'></div><div class='respDiv'><div class='respDivL'>Match<br>(e)</div><div class='respDivR'><font style='color:orange'>No Match<br>(i)</font></div></div></div>","null","FEEDBACK","","","","","","","","","","",""
"","","","","63f78c9346da47f7f8f3aef9","bdp_wmem","Sat Apr 08 2023 09:44:59 GMT-0600 (Mountain Daylight Time)","544828","Match,No Match","html-keyboard-response","25","86029","0.0-5.0-1.4","","null","","<div class='trialBorder'><div class='vertical-center'><img src='img/fixation2_sml.jpg'</img></div></div>","null","FIX","","","","","","","","","","",""
"","","","","63f78c9346da47f7f8f3aef9","bdp_wmem","Sat Apr 08 2023 09:44:59 GMT-0600 (Mountain Daylight Time)","544828","Match,No Match","html-keyboard-response","26","87538","0.0-5.0-2.4","","null","","<div class='trialBorder'><div class='vertical-center'><img style='vertical-align:center; align:center' src='img/fixation2_sml.jpg'></div><div class='arrayDiv1'><div class='tc'><img class='introPic' src='trustrating_stim/white_mw070.bmp'><br><font color='red'><strong>Keep</strong></font></div></div></div>","null","ARRAY","1","trustrating_stim/white_mw070.bmp","0","Match","e","1500","","","","",""
"","","","","63f78c9346da47f7f8f3aef9","bdp_wmem","Sat Apr 08 2023 09:44:59 GMT-0600 (Mountain Daylight Time)","544828","Match,No Match","html-keyboard-response","27","91548","0.0-5.0-3.4","","null","","<div class='trialBorder'><div class='vertical-center'><img src='img/fixation2_sml.jpg'</img></div></div>","null","DELAY","","","","","","","","","","",""
"","","","","63f78c9346da47f7f8f3aef9","bdp_wmem","Sat Apr 08 2023 09:44:59 GMT-0600 (Mountain Daylight Time)","544828","Match,No Match","html-keyboard-response","28","92856","0.0-5.0-4.4","","1306","","<div class='trialBorder'><div class='targDiv'><div class='tc'><img class='introPic' src='trustrating_stim/white_mw070.bmp'><br><font color='red'><strong>Keep</strong></font></div></div><div class='respDiv'><div class='respDivL'>Match<br>(e)</div><div class='respDivR'>No Match<br>(i)</div></div></div>","e","TARGET","1","trustrating_stim/white_mw070.bmp","0","Match","e","1500","trustrating_stim/white_mw070.bmp","red","Keep","PRACTICE","1"
"","","","","63f78c9346da47f7f8f3aef9","bdp_wmem","Sat Apr 08 2023 09:44:59 GMT-0600 (Mountain Daylight Time)","544828","Match,No Match","html-keyboard-response","29","93363","0.0-5.0-5.4","","null","","<div class='trialBorder'><div class='vertical-center'><img src='img/correct.jpg'></div><div class='respDiv'><div class='respDivL'><font style='color:orange'>Match<br>(e)</font></div><div class='respDivR'>No Match<br>(i)</div></div></div>","null","FEEDBACK","","","","","","","","","","",""
"","","","","63f78c9346da47f7f8f3aef9","bdp_wmem","Sat Apr 08 2023 09:44:59 GMT-0600 (Mountain Daylight Time)","544828","Match,No Match","html-keyboard-response","30","93874","0.0-5.0-1.5","","null","","<div class='trialBorder'><div class='vertical-center'><img src='img/fixation2_sml.jpg'</img></div></div>","null","FIX","","","","","","","","","","",""
"","","","","63f78c9346da47f7f8f3aef9","bdp_wmem","Sat Apr 08 2023 09:44:59 GMT-0600 (Mountain Daylight Time)","544828","Match,No Match","html-keyboard-response","31","95383","0.0-5.0-2.5","","null","","<div class='trialBorder'><div class='vertical-center'><img style='vertical-align:center; align:center' src='img/fixation2_sml.jpg'></div><div class='arrayDiv1'><div class='tc'><img class='introPic' src='trustrating_stim/white_mw040.bmp'><br><font color='red'><strong>Keep</strong></font></div></div></div>","null","ARRAY","1","trustrating_stim/white_mw040.bmp","0","noMatchFace","i","1500","","","","",""
"","","","","63f78c9346da47f7f8f3aef9","bdp_wmem","Sat Apr 08 2023 09:44:59 GMT-0600 (Mountain Daylight Time)","544828","Match,No Match","html-keyboard-response","32","99398","0.0-5.0-3.5","","null","","<div class='trialBorder'><div class='vertical-center'><img src='img/fixation2_sml.jpg'</img></div></div>","null","DELAY","","","","","","","","","","",""
"","","","","63f78c9346da47f7f8f3aef9","bdp_wmem","Sat Apr 08 2023 09:44:59 GMT-0600 (Mountain Daylight Time)","544828","Match,No Match","html-keyboard-response","33","100626","0.0-5.0-4.5","","1226","","<div class='trialBorder'><div class='targDiv'><div class='tc'><img class='introPic' src='trustrating_stim/white_mw085.bmp'><br><font color='red'><strong>Keep</strong></font></div></div><div class='respDiv'><div class='respDivL'>Match<br>(e)</div><div class='respDivR'>No Match<br>(i)</div></div></div>","i","TARGET","1","trustrating_stim/white_mw040.bmp","0","noMatchFace","i","1500","trustrating_stim/white_mw085.bmp","red","Keep","PRACTICE","1"
"","","","","63f78c9346da47f7f8f3aef9","bdp_wmem","Sat Apr 08 2023 09:44:59 GMT-0600 (Mountain Daylight Time)","544828","Match,No Match","html-keyboard-response","34","101134","0.0-5.0-5.5","","null","","<div class='trialBorder'><div class='vertical-center'><img src='img/correct.jpg'></div><div class='respDiv'><div class='respDivL'>Match<br>(e)</div><div class='respDivR'><font style='color:orange'>No Match<br>(i)</font></div></div></div>","null","FEEDBACK","","","","","","","","","","",""
"","","","","63f78c9346da47f7f8f3aef9","bdp_wmem","Sat Apr 08 2023 09:44:59 GMT-0600 (Mountain Daylight Time)","544828","Match,No Match","instructions","35","102752","0.0-6.0","[{""page_index"":0,""viewing_time"":1616}]","1616","","","","","","","","","","","","","","",""
"","","","","63f78c9346da47f7f8f3aef9","bdp_wmem","Sat Apr 08 2023 09:44:59 GMT-0600 (Mountain Daylight Time)","544828","Match,No Match","html-keyboard-response","36","103261","0.0-7.0-1.0","","null","","<div class='trialBorder'><div class='vertical-center'><img src='img/fixation2_sml.jpg'</img></div></div>","null","FIX","","","","","","","","","","",""
"","","","","63f78c9346da47f7f8f3aef9","bdp_wmem","Sat Apr 08 2023 09:44:59 GMT-0600 (Mountain Daylight Time)","544828","Match,No Match","html-keyboard-response","37","106278","0.0-7.0-2.0","","null","","<div class='trialBorder'><div class='vertical-center'><img style='vertical-align:center; align:center' src='img/fixation2_sml.jpg'></div><div class='arrayDiv2'><div class='tl'><img class='introPic' src='trustrating_stim/white_mw012.bmp'><br><font color='green'><strong>Share</strong></font></div><div class='tr'><img class='introPic' src='trustrating_stim/white_mw042.bmp'><br><font color='red'><strong>Keep</strong></font></div></div></div>","null","ARRAY","2","trustrating_stim/white_mw012.bmp,trustrating_stim/white_mw042.bmp","1,0","Match","e","3000","","","","",""
"","","","","63f78c9346da47f7f8f3aef9","bdp_wmem","Sat Apr 08 2023 09:44:59 GMT-0600 (Mountain Daylight Time)","544828","Match,No Match","html-keyboard-response","38","110291","0.0-7.0-3.0","","null","","<div class='trialBorder'><div class='vertical-center'><img src='img/fixation2_sml.jpg'</img></div></div>","null","DELAY","","","","","","","","","","",""
"","","","","63f78c9346da47f7f8f3aef9","bdp_wmem","Sat Apr 08 2023 09:44:59 GMT-0600 (Mountain Daylight Time)","544828","Match,No Match","html-keyboard-response","39","111570","0.0-7.0-4.0","","1278","","<div class='trialBorder'><div class='targDiv'><div class='tc'><img class='introPic' src='trustrating_stim/white_mw012.bmp'><br><font color='green'><strong>Share</strong></font></div></div><div class='respDiv'><div class='respDivL'>Match<br>(e)</div><div class='respDivR'>No Match<br>(i)</div></div></div>","e","TARGET","2","trustrating_stim/white_mw012.bmp,trustrating_stim/white_mw042.bmp","1,0","Match","e","3000","trustrating_stim/white_mw012.bmp","green","Share","REAL","1"
"","","","","63f78c9346da47f7f8f3aef9","bdp_wmem","Sat Apr 08 2023 09:44:59 GMT-0600 (Mountain Daylight Time)","544828","Match,No Match","html-keyboard-response","40","112081","0.0-7.0-5.0","","null","","<div class='trialBorder'><div class='vertical-center'><img src='img/correct.jpg'></div><div class='respDiv'><div class='respDivL'><font style='color:orange'>Match<br>(e)</font></div><div class='respDivR'>No Match<br>(i)</div></div></div>","null","FEEDBACK","","","","","","","","","","",""
"","","","","63f78c9346da47f7f8f3aef9","bdp_wmem","Sat Apr 08 2023 09:44:59 GMT-0600 (Mountain Daylight Time)","544828","Match,No Match","html-keyboard-response","41","112595","0.0-7.0-1.1","","null","","<div class='trialBorder'><div class='vertical-center'><img src='img/fixation2_sml.jpg'</img></div></div>","null","FIX","","","","","","","","","","",""
"","","","","63f78c9346da47f7f8f3aef9","bdp_wmem","Sat Apr 08 2023 09:44:59 GMT-0600 (Mountain Daylight Time)","544828","Match,No Match","html-keyboard-response","42","117103","0.0-7.0-2.1","","null","","<div class='trialBorder'><div class='vertical-center'><img style='vertical-align:center; align:center' src='img/fixation2_sml.jpg'></div><div class='arrayDiv3'><div class='tl'><img class='introPic' src='trustrating_stim/white_mw040.bmp'><br><font color='green'><strong>Share</strong></font></div><div class='tc'><img class='introPic' src='trustrating_stim/white_mw091.bmp'><br><font color='red'><strong>Keep</strong></font></div><div class='tr'><img class='introPic' src='trustrating_stim/white_mw092.bmp'><br><font color='red'><strong>Keep</strong></font></div></div></div>","null","ARRAY","3","trustrating_stim/white_mw040.bmp,trustrating_stim/white_mw091.bmp,trustrating_stim/white_mw092.bmp","1,0,0","Match","e","4500","","","","",""
"","","","","63f78c9346da47f7f8f3aef9","bdp_wmem","Sat Apr 08 2023 09:44:59 GMT-0600 (Mountain Daylight Time)","544828","Match,No Match","html-keyboard-response","43","121117","0.0-7.0-3.1","","null","","<div class='trialBorder'><div class='vertical-center'><img src='img/fixation2_sml.jpg'</img></div></div>","null","DELAY","","","","","","","","","","",""
"","","","","63f78c9346da47f7f8f3aef9","bdp_wmem","Sat Apr 08 2023 09:44:59 GMT-0600 (Mountain Daylight Time)","544828","Match,No Match","html-keyboard-response","44","122322","0.0-7.0-4.1","","1203","","<div class='trialBorder'><div class='targDiv'><div class='tc'><img class='introPic' src='trustrating_stim/white_mw092.bmp'><br><font color='red'><strong>Keep</strong></font></div></div><div class='respDiv'><div class='respDivL'>Match<br>(e)</div><div class='respDivR'>No Match<br>(i)</div></div></div>","e","TARGET","3","trustrating_stim/white_mw040.bmp,trustrating_stim/white_mw091.bmp,trustrating_stim/white_mw092.bmp","1,0,0","Match","e","4500","trustrating_stim/white_mw092.bmp","red","Keep","REAL","1"
"","","","","63f78c9346da47f7f8f3aef9","bdp_wmem","Sat Apr 08 2023 09:44:59 GMT-0600 (Mountain Daylight Time)","544828","Match,No Match","html-keyboard-response","45","122827","0.0-7.0-5.1","","null","","<div class='trialBorder'><div class='vertical-center'><img src='img/correct.jpg'></div><div class='respDiv'><div class='respDivL'><font style='color:orange'>Match<br>(e)</font></div><div class='respDivR'>No Match<br>(i)</div></div></div>","null","FEEDBACK","","","","","","","","","","",""
"","","","","63f78c9346da47f7f8f3aef9","bdp_wmem","Sat Apr 08 2023 09:44:59 GMT-0600 (Mountain Daylight Time)","544828","Match,No Match","html-keyboard-response","46","123343","0.0-7.0-1.2","","null","","<div class='trialBorder'><div class='vertical-center'><img src='img/fixation2_sml.jpg'</img></div></div>","null","FIX","","","","","","","","","","",""
"","","","","63f78c9346da47f7f8f3aef9","bdp_wmem","Sat Apr 08 2023 09:44:59 GMT-0600 (Mountain Daylight Time)","544828","Match,No Match","html-keyboard-response","47","127857","0.0-7.0-2.2","","null","","<div class='trialBorder'><div class='vertical-center'><img style='vertical-align:center; align:center' src='img/fixation2_sml.jpg'></div><div class='arrayDiv3'><div class='tl'><img class='introPic' src='trustrating_stim/white_mw085.bmp'><br><font color='green'><strong>Share</strong></font></div><div class='tc'><img class='introPic' src='trustrating_stim/white_mw042.bmp'><br><font color='red'><strong>Keep</strong></font></div><div class='tr'><img class='introPic' src='trustrating_stim/white_mw013.bmp'><br><font color='red'><strong>Keep</strong></font></div></div></div>","null","ARRAY","3","trustrating_stim/white_mw085.bmp,trustrating_stim/white_mw042.bmp,trustrating_stim/white_mw013.bmp","1,0,0","noMatchFace","i","4500","","","","",""
"","","","","63f78c9346da47f7f8f3aef9","bdp_wmem","Sat Apr 08 2023 09:44:59 GMT-0600 (Mountain Daylight Time)","544828","Match,No Match","html-keyboard-response","48","131868","0.0-7.0-3.2","","null","","<div class='trialBorder'><div class='vertical-center'><img src='img/fixation2_sml.jpg'</img></div></div>","null","DELAY","","","","","","","","","","",""
"","","","","63f78c9346da47f7f8f3aef9","bdp_wmem","Sat Apr 08 2023 09:44:59 GMT-0600 (Mountain Daylight Time)","544828","Match,No Match","html-keyboard-response","49","133017","0.0-7.0-4.2","","1147","","<div class='trialBorder'><div class='targDiv'><div class='tc'><img class='introPic' src='trustrating_stim/white_mw091.bmp'><br><font color='red'><strong>Keep</strong></font></div></div><div class='respDiv'><div class='respDivL'>Match<br>(e)</div><div class='respDivR'>No Match<br>(i)</div></div></div>","e","TARGET","3","trustrating_stim/white_mw085.bmp,trustrating_stim/white_mw042.bmp,trustrating_stim/white_mw013.bmp","1,0,0","noMatchFace","i","4500","trustrating_stim/white_mw091.bmp","red","Keep","REAL","0"
"","","","","63f78c9346da47f7f8f3aef9","bdp_wmem","Sat Apr 08 2023 09:44:59 GMT-0600 (Mountain Daylight Time)","544828","Match,No Match","html-keyboard-response","50","133530","0.0-7.0-5.2","","null","","<div class='trialBorder'><div class='vertical-center'><img src='img/error.jpg'></div><div class='respDiv'><div class='respDivL'><font style='color:orange'>Match<br>(e)</font></div><div class='respDivR'>No Match<br>(i)</div></div></div>","null","FEEDBACK","","","","","","","","","","",""
"","","","","63f78c9346da47f7f8f3aef9","bdp_wmem","Sat Apr 08 2023 09:44:59 GMT-0600 (Mountain Daylight Time)","544828","Match,No Match","html-keyboard-response","51","134042","0.0-7.0-1.3","","null","","<div class='trialBorder'><div class='vertical-center'><img src='img/fixation2_sml.jpg'</img></div></div>","null","FIX","","","","","","","","","","",""
"","","","","63f78c9346da47f7f8f3aef9","bdp_wmem","Sat Apr 08 2023 09:44:59 GMT-0600 (Mountain Daylight Time)","544828","Match,No Match","html-keyboard-response","52","135547","0.0-7.0-2.3","","null","","<div class='trialBorder'><div class='vertical-center'><img style='vertical-align:center; align:center' src='img/fixation2_sml.jpg'></div><div class='arrayDiv1'><div class='tc'><img class='introPic' src='trustrating_stim/white_mw085.bmp'><br><font color='green'><strong>Share</strong></font></div></div></div>","null","ARRAY","1","trustrating_stim/white_mw085.bmp","1","noMatchFace","i","1500","","","","",""
"","","","","63f78c9346da47f7f8f3aef9","bdp_wmem","Sat Apr 08 2023 09:44:59 GMT-0600 (Mountain Daylight Time)","544828","Match,No Match","html-keyboard-response","53","139555","0.0-7.0-3.3","","null","","<div class='trialBorder'><div class='vertical-center'><img src='img/fixation2_sml.jpg'</img></div></div>","null","DELAY","","","","","","","","","","",""
"","","","","63f78c9346da47f7f8f3aef9","bdp_wmem","Sat Apr 08 2023 09:44:59 GMT-0600 (Mountain Daylight Time)","544828","Match,No Match","html-keyboard-response","54","140353","0.0-7.0-4.3","","796","","<div class='trialBorder'><div class='targDiv'><div class='tc'><img class='introPic' src='trustrating_stim/white_mw010.bmp'><br><font color='green'><strong>Share</strong></font></div></div><div class='respDiv'><div class='respDivL'>Match<br>(e)</div><div class='respDivR'>No Match<br>(i)</div></div></div>","i","TARGET","1","trustrating_stim/white_mw085.bmp","1","noMatchFace","i","1500","trustrating_stim/white_mw010.bmp","green","Share","REAL","1"
"","","","","63f78c9346da47f7f8f3aef9","bdp_wmem","Sat Apr 08 2023 09:44:59 GMT-0600 (Mountain Daylight Time)","544828","Match,No Match","html-keyboard-response","55","140865","0.0-7.0-5.3","","null","","<div class='trialBorder'><div class='vertical-center'><img src='img/correct.jpg'></div><div class='respDiv'><div class='respDivL'>Match<br>(e)</div><div class='respDivR'><font style='color:orange'>No Match<br>(i)</font></div></div></div>","null","FEEDBACK","","","","","","","","","","",""
"","","","","63f78c9346da47f7f8f3aef9","bdp_wmem","Sat Apr 08 2023 09:44:59 GMT-0600 (Mountain Daylight Time)","544828","Match,No Match","html-keyboard-response","56","141377","0.0-7.0-1.4","","null","","<div class='trialBorder'><div class='vertical-center'><img src='img/fixation2_sml.jpg'</img></div></div>","null","FIX","","","","","","","","","","",""
"","","","","63f78c9346da47f7f8f3aef9","bdp_wmem","Sat Apr 08 2023 09:44:59 GMT-0600 (Mountain Daylight Time)","544828","Match,No Match","html-keyboard-response","57","144389","0.0-7.0-2.4","","null","","<div class='trialBorder'><div class='vertical-center'><img style='vertical-align:center; align:center' src='img/fixation2_sml.jpg'></div><div class='arrayDiv2'><div class='tl'><img class='introPic' src='trustrating_stim/white_mw013.bmp'><br><font color='red'><strong>Keep</strong></font></div><div class='tr'><img class='introPic' src='trustrating_stim/white_mw010.bmp'><br><font color='green'><strong>Share</strong></font></div></div></div>","null","ARRAY","2","trustrating_stim/white_mw013.bmp,trustrating_stim/white_mw010.bmp","0,1","noMatchOutcome","i","3000","","","","",""
"","","","","63f78c9346da47f7f8f3aef9","bdp_wmem","Sat Apr 08 2023 09:44:59 GMT-0600 (Mountain Daylight Time)","544828","Match,No Match","html-keyboard-response","58","148401","0.0-7.0-3.4","","null","","<div class='trialBorder'><div class='vertical-center'><img src='img/fixation2_sml.jpg'</img></div></div>","null","DELAY","","","","","","","","","","",""
"","","","","63f78c9346da47f7f8f3aef9","bdp_wmem","Sat Apr 08 2023 09:44:59 GMT-0600 (Mountain Daylight Time)","544828","Match,No Match","html-keyboard-response","59","149313","0.0-7.0-4.4","","910","","<div class='trialBorder'><div class='targDiv'><div class='tc'><img class='introPic' src='trustrating_stim/white_mw010.bmp'><br><font color='red'><strong>Keep</strong></font></div></div><div class='respDiv'><div class='respDivL'>Match<br>(e)</div><div class='respDivR'>No Match<br>(i)</div></div></div>","i","TARGET","2","trustrating_stim/white_mw013.bmp,trustrating_stim/white_mw010.bmp","0,1","noMatchOutcome","i","3000","trustrating_stim/white_mw010.bmp","red","Keep","REAL","1"
"","","","","63f78c9346da47f7f8f3aef9","bdp_wmem","Sat Apr 08 2023 09:44:59 GMT-0600 (Mountain Daylight Time)","544828","Match,No Match","html-keyboard-response","60","149817","0.0-7.0-5.4","","null","","<div class='trialBorder'><div class='vertical-center'><img src='img/correct.jpg'></div><div class='respDiv'><div class='respDivL'>Match<br>(e)</div><div class='respDivR'><font style='color:orange'>No Match<br>(i)</font></div></div></div>","null","FEEDBACK","","","","","","","","","","",""
"","","","","63f78c9346da47f7f8f3aef9","bdp_wmem","Sat Apr 08 2023 09:44:59 GMT-0600 (Mountain Daylight Time)","544828","Match,No Match","html-keyboard-response","61","150329","0.0-7.0-1.5","","null","","<div class='trialBorder'><div class='vertical-center'><img src='img/fixation2_sml.jpg'</img></div></div>","null","FIX","","","","","","","","","","",""
"","","","","63f78c9346da47f7f8f3aef9","bdp_wmem","Sat Apr 08 2023 09:44:59 GMT-0600 (Mountain Daylight Time)","544828","Match,No Match","html-keyboard-response","62","154839","0.0-7.0-2.5","","null","","<div class='trialBorder'><div class='vertical-center'><img style='vertical-align:center; align:center' src='img/fixation2_sml.jpg'></div><div class='arrayDiv3'><div class='tl'><img class='introPic' src='trustrating_stim/white_mw078.bmp'><br><font color='red'><strong>Keep</strong></font></div><div class='tc'><img class='introPic' src='trustrating_stim/white_mw040.bmp'><br><font color='green'><strong>Share</strong></font></div><div class='tr'><img class='introPic' src='trustrating_stim/white_mw010.bmp'><br><font color='red'><strong>Keep</strong></font></div></div></div>","null","ARRAY","3","trustrating_stim/white_mw078.bmp,trustrating_stim/white_mw040.bmp,trustrating_stim/white_mw010.bmp","0,1,0","noMatchOutcome","i","4500","","","","",""
"","","","","63f78c9346da47f7f8f3aef9","bdp_wmem","Sat Apr 08 2023 09:44:59 GMT-0600 (Mountain Daylight Time)","544828","Match,No Match","html-keyboard-response","63","158847","0.0-7.0-3.5","","null","","<div class='trialBorder'><div class='vertical-center'><img src='img/fixation2_sml.jpg'</img></div></div>","null","DELAY","","","","","","","","","","",""
"","","","","63f78c9346da47f7f8f3aef9","bdp_wmem","Sat Apr 08 2023 09:44:59 GMT-0600 (Mountain Daylight Time)","544828","Match,No Match","html-keyboard-response","64","160113","0.0-7.0-4.5","","1264","","<div class='trialBorder'><div class='targDiv'><div class='tc'><img class='introPic' src='trustrating_stim/white_mw040.bmp'><br><font color='red'><strong>Keep</strong></font></div></div><div class='respDiv'><div class='respDivL'>Match<br>(e)</div><div class='respDivR'>No Match<br>(i)</div></div></div>","i","TARGET","3","trustrating_stim/white_mw078.bmp,trustrating_stim/white_mw040.bmp,trustrating_stim/white_mw010.bmp","0,1,0","noMatchOutcome","i","4500","trustrating_stim/white_mw040.bmp","red","Keep","REAL","1"
"","","","","63f78c9346da47f7f8f3aef9","bdp_wmem","Sat Apr 08 2023 09:44:59 GMT-0600 (Mountain Daylight Time)","544828","Match,No Match","html-keyboard-response","65","160616","0.0-7.0-5.5","","null","","<div class='trialBorder'><div class='vertical-center'><img src='img/correct.jpg'></div><div class='respDiv'><div class='respDivL'>Match<br>(e)</div><div class='respDivR'><font style='color:orange'>No Match<br>(i)</font></div></div></div>","null","FEEDBACK","","","","","","","","","","",""
"","","","","63f78c9346da47f7f8f3aef9","bdp_wmem","Sat Apr 08 2023 09:44:59 GMT-0600 (Mountain Daylight Time)","544828","Match,No Match","html-keyboard-response","66","161130","0.0-7.0-1.6","","null","","<div class='trialBorder'><div class='vertical-center'><img src='img/fixation2_sml.jpg'</img></div></div>","null","FIX","","","","","","","","","","",""
"","","","","63f78c9346da47f7f8f3aef9","bdp_wmem","Sat Apr 08 2023 09:44:59 GMT-0600 (Mountain Daylight Time)","544828","Match,No Match","html-keyboard-response","67","164133","0.0-7.0-2.6","","null","","<div class='trialBorder'><div class='vertical-center'><img style='vertical-align:center; align:center' src='img/fixation2_sml.jpg'></div><div class='arrayDiv2'><div class='tl'><img class='introPic' src='trustrating_stim/white_mw092.bmp'><br><font color='red'><strong>Keep</strong></font></div><div class='tr'><img class='introPic' src='trustrating_stim/white_mw038.bmp'><br><font color='green'><strong>Share</strong></font></div></div></div>","null","ARRAY","2","trustrating_stim/white_mw092.bmp,trustrating_stim/white_mw038.bmp","0,1","Match","e","3000","","","","",""
"","","","","63f78c9346da47f7f8f3aef9","bdp_wmem","Sat Apr 08 2023 09:44:59 GMT-0600 (Mountain Daylight Time)","544828","Match,No Match","html-keyboard-response","68","168142","0.0-7.0-3.6","","null","","<div class='trialBorder'><div class='vertical-center'><img src='img/fixation2_sml.jpg'</img></div></div>","null","DELAY","","","","","","","","","","",""
"","","","","63f78c9346da47f7f8f3aef9","bdp_wmem","Sat Apr 08 2023 09:44:59 GMT-0600 (Mountain Daylight Time)","544828","Match,No Match","html-keyboard-response","69","169608","0.0-7.0-4.6","","1464","","<div class='trialBorder'><div class='targDiv'><div class='tc'><img class='introPic' src='trustrating_stim/white_mw092.bmp'><br><font color='red'><strong>Keep</strong></font></div></div><div class='respDiv'><div class='respDivL'>Match<br>(e)</div><div class='respDivR'>No Match<br>(i)</div></div></div>","e","TARGET","2","trustrating_stim/white_mw092.bmp,trustrating_stim/white_mw038.bmp","0,1","Match","e","3000","trustrating_stim/white_mw092.bmp","red","Keep","REAL","1"
"","","","","63f78c9346da47f7f8f3aef9","bdp_wmem","Sat Apr 08 2023 09:44:59 GMT-0600 (Mountain Daylight Time)","544828","Match,No Match","html-keyboard-response","70","170109","0.0-7.0-5.6","","null","","<div class='trialBorder'><div class='vertical-center'><img src='img/correct.jpg'></div><div class='respDiv'><div class='respDivL'><font style='color:orange'>Match<br>(e)</font></div><div class='respDivR'>No Match<br>(i)</div></div></div>","null","FEEDBACK","","","","","","","","","","",""
"","","","","63f78c9346da47f7f8f3aef9","bdp_wmem","Sat Apr 08 2023 09:44:59 GMT-0600 (Mountain Daylight Time)","544828","Match,No Match","html-keyboard-response","71","170621","0.0-7.0-1.7","","null","","<div class='trialBorder'><div class='vertical-center'><img src='img/fixation2_sml.jpg'</img></div></div>","null","FIX","","","","","","","","","","",""
"","","","","63f78c9346da47f7f8f3aef9","bdp_wmem","Sat Apr 08 2023 09:44:59 GMT-0600 (Mountain Daylight Time)","544828","Match,No Match","html-keyboard-response","72","172130","0.0-7.0-2.7","","null","","<div class='trialBorder'><div class='vertical-center'><img style='vertical-align:center; align:center' src='img/fixation2_sml.jpg'></div><div class='arrayDiv1'><div class='tc'><img class='introPic' src='trustrating_stim/white_mw078.bmp'><br><font color='red'><strong>Keep</strong></font></div></div></div>","null","ARRAY","1","trustrating_stim/white_mw078.bmp","0","Match","e","1500","","","","",""
"","","","","63f78c9346da47f7f8f3aef9","bdp_wmem","Sat Apr 08 2023 09:44:59 GMT-0600 (Mountain Daylight Time)","544828","Match,No Match","html-keyboard-response","73","176135","0.0-7.0-3.7","","null","","<div class='trialBorder'><div class='vertical-center'><img src='img/fixation2_sml.jpg'</img></div></div>","null","DELAY","","","","","","","","","","",""
"","","","","63f78c9346da47f7f8f3aef9","bdp_wmem","Sat Apr 08 2023 09:44:59 GMT-0600 (Mountain Daylight Time)","544828","Match,No Match","html-keyboard-response","74","177394","0.0-7.0-4.7","","1257","","<div class='trialBorder'><div class='targDiv'><div class='tc'><img class='introPic' src='trustrating_stim/white_mw078.bmp'><br><font color='red'><strong>Keep</strong></font></div></div><div class='respDiv'><div class='respDivL'>Match<br>(e)</div><div class='respDivR'>No Match<br>(i)</div></div></div>","e","TARGET","1","trustrating_stim/white_mw078.bmp","0","Match","e","1500","trustrating_stim/white_mw078.bmp","red","Keep","REAL","1"
"","","","","63f78c9346da47f7f8f3aef9","bdp_wmem","Sat Apr 08 2023 09:44:59 GMT-0600 (Mountain Daylight Time)","544828","Match,No Match","html-keyboard-response","75","177905","0.0-7.0-5.7","","null","","<div class='trialBorder'><div class='vertical-center'><img src='img/correct.jpg'></div><div class='respDiv'><div class='respDivL'><font style='color:orange'>Match<br>(e)</font></div><div class='respDivR'>No Match<br>(i)</div></div></div>","null","FEEDBACK","","","","","","","","","","",""
"","","","","63f78c9346da47f7f8f3aef9","bdp_wmem","Sat Apr 08 2023 09:44:59 GMT-0600 (Mountain Daylight Time)","544828","Match,No Match","html-keyboard-response","76","178418","0.0-7.0-1.8","","null","","<div class='trialBorder'><div class='vertical-center'><img src='img/fixation2_sml.jpg'</img></div></div>","null","FIX","","","","","","","","","","",""
"","","","","63f78c9346da47f7f8f3aef9","bdp_wmem","Sat Apr 08 2023 09:44:59 GMT-0600 (Mountain Daylight Time)","544828","Match,No Match","html-keyboard-response","77","179927","0.0-7.0-2.8","","null","","<div class='trialBorder'><div class='vertical-center'><img style='vertical-align:center; align:center' src='img/fixation2_sml.jpg'></div><div class='arrayDiv1'><div class='tc'><img class='introPic' src='trustrating_stim/white_mw003.bmp'><br><font color='green'><strong>Share</strong></font></div></div></div>","null","ARRAY","1","trustrating_stim/white_mw003.bmp","1","noMatchOutcome","i","1500","","","","",""
"","","","","63f78c9346da47f7f8f3aef9","bdp_wmem","Sat Apr 08 2023 09:44:59 GMT-0600 (Mountain Daylight Time)","544828","Match,No Match","html-keyboard-response","78","183934","0.0-7.0-3.8","","null","","<div class='trialBorder'><div class='vertical-center'><img src='img/fixation2_sml.jpg'</img></div></div>","null","DELAY","","","","","","","","","","",""
"","","","","63f78c9346da47f7f8f3aef9","bdp_wmem","Sat Apr 08 2023 09:44:59 GMT-0600 (Mountain Daylight Time)","544828","Match,No Match","html-keyboard-response","79","184752","0.0-7.0-4.8","","818","","<div class='trialBorder'><div class='targDiv'><div class='tc'><img class='introPic' src='trustrating_stim/white_mw003.bmp'><br><font color='red'><strong>Keep</strong></font></div></div><div class='respDiv'><div class='respDivL'>Match<br>(e)</div><div class='respDivR'>No Match<br>(i)</div></div></div>","i","TARGET","1","trustrating_stim/white_mw003.bmp","1","noMatchOutcome","i","1500","trustrating_stim/white_mw003.bmp","red","Keep","REAL","1"
"","","","","63f78c9346da47f7f8f3aef9","bdp_wmem","Sat Apr 08 2023 09:44:59 GMT-0600 (Mountain Daylight Time)","544828","Match,No Match","html-keyboard-response","80","185256","0.0-7.0-5.8","","null","","<div class='trialBorder'><div class='vertical-center'><img src='img/correct.jpg'></div><div class='respDiv'><div class='respDivL'>Match<br>(e)</div><div class='respDivR'><font style='color:orange'>No Match<br>(i)</font></div></div></div>","null","FEEDBACK","","","","","","","","","","",""
"","","","","63f78c9346da47f7f8f3aef9","bdp_wmem","Sat Apr 08 2023 09:44:59 GMT-0600 (Mountain Daylight Time)","544828","Match,No Match","html-keyboard-response","81","185765","0.0-7.0-1.9","","null","","<div class='trialBorder'><div class='vertical-center'><img src='img/fixation2_sml.jpg'</img></div></div>","null","FIX","","","","","","","","","","",""
"","","","","63f78c9346da47f7f8f3aef9","bdp_wmem","Sat Apr 08 2023 09:44:59 GMT-0600 (Mountain Daylight Time)","544828","Match,No Match","html-keyboard-response","82","190269","0.0-7.0-2.9","","null","","<div class='trialBorder'><div class='vertical-center'><img style='vertical-align:center; align:center' src='img/fixation2_sml.jpg'></div><div class='arrayDiv3'><div class='tl'><img class='introPic' src='trustrating_stim/white_mw013.bmp'><br><font color='red'><strong>Keep</strong></font></div><div class='tc'><img class='introPic' src='trustrating_stim/white_mw040.bmp'><br><font color='green'><strong>Share</strong></font></div><div class='tr'><img class='introPic' src='trustrating_stim/white_mw085.bmp'><br><font color='red'><strong>Keep</strong></font></div></div></div>","null","ARRAY","3","trustrating_stim/white_mw013.bmp,trustrating_stim/white_mw040.bmp,trustrating_stim/white_mw085.bmp","0,1,0","Match","e","4500","","","","",""
"","","","","63f78c9346da47f7f8f3aef9","bdp_wmem","Sat Apr 08 2023 09:44:59 GMT-0600 (Mountain Daylight Time)","544828","Match,No Match","html-keyboard-response","83","194274","0.0-7.0-3.9","","null","","<div class='trialBorder'><div class='vertical-center'><img src='img/fixation2_sml.jpg'</img></div></div>","null","DELAY","","","","","","","","","","",""
"","","","","63f78c9346da47f7f8f3aef9","bdp_wmem","Sat Apr 08 2023 09:44:59 GMT-0600 (Mountain Daylight Time)","544828","Match,No Match","html-keyboard-response","84","195576","0.0-7.0-4.9","","1300","","<div class='trialBorder'><div class='targDiv'><div class='tc'><img class='introPic' src='trustrating_stim/white_mw013.bmp'><br><font color='red'><strong>Keep</strong></font></div></div><div class='respDiv'><div class='respDivL'>Match<br>(e)</div><div class='respDivR'>No Match<br>(i)</div></div></div>","e","TARGET","3","trustrating_stim/white_mw013.bmp,trustrating_stim/white_mw040.bmp,trustrating_stim/white_mw085.bmp","0,1,0","Match","e","4500","trustrating_stim/white_mw013.bmp","red","Keep","REAL","1"
"","","","","63f78c9346da47f7f8f3aef9","bdp_wmem","Sat Apr 08 2023 09:44:59 GMT-0600 (Mountain Daylight Time)","544828","Match,No Match","html-keyboard-response","85","196090","0.0-7.0-5.9","","null","","<div class='trialBorder'><div class='vertical-center'><img src='img/correct.jpg'></div><div class='respDiv'><div class='respDivL'><font style='color:orange'>Match<br>(e)</font></div><div class='respDivR'>No Match<br>(i)</div></div></div>","null","FEEDBACK","","","","","","","","","","",""
"","","","","63f78c9346da47f7f8f3aef9","bdp_wmem","Sat Apr 08 2023 09:44:59 GMT-0600 (Mountain Daylight Time)","544828","Match,No Match","html-keyboard-response","86","196602","0.0-7.0-1.10","","null","","<div class='trialBorder'><div class='vertical-center'><img src='img/fixation2_sml.jpg'</img></div></div>","null","FIX","","","","","","","","","","",""
"","","","","63f78c9346da47f7f8f3aef9","bdp_wmem","Sat Apr 08 2023 09:44:59 GMT-0600 (Mountain Daylight Time)","544828","Match,No Match","html-keyboard-response","87","201110","0.0-7.0-2.10","","null","","<div class='trialBorder'><div class='vertical-center'><img style='vertical-align:center; align:center' src='img/fixation2_sml.jpg'></div><div class='arrayDiv3'><div class='tl'><img class='introPic' src='trustrating_stim/white_mw003.bmp'><br><font color='green'><strong>Share</strong></font></div><div class='tc'><img class='introPic' src='trustrating_stim/white_mw085.bmp'><br><font color='red'><strong>Keep</strong></font></div><div class='tr'><img class='introPic' src='trustrating_stim/white_mw070.bmp'><br><font color='red'><strong>Keep</strong></font></div></div></div>","null","ARRAY","3","trustrating_stim/white_mw003.bmp,trustrating_stim/white_mw085.bmp,trustrating_stim/white_mw070.bmp","1,0,0","Match","e","4500","","","","",""
"","","","","63f78c9346da47f7f8f3aef9","bdp_wmem","Sat Apr 08 2023 09:44:59 GMT-0600 (Mountain Daylight Time)","544828","Match,No Match","html-keyboard-response","88","205123","0.0-7.0-3.10","","null","","<div class='trialBorder'><div class='vertical-center'><img src='img/fixation2_sml.jpg'</img></div></div>","null","DELAY","","","","","","","","","","",""
"","","","","63f78c9346da47f7f8f3aef9","bdp_wmem","Sat Apr 08 2023 09:44:59 GMT-0600 (Mountain Daylight Time)","544828","Match,No Match","html-keyboard-response","89","206185","0.0-7.0-4.10","","1060","","<div class='trialBorder'><div class='targDiv'><div class='tc'><img class='introPic' src='trustrating_stim/white_mw085.bmp'><br><font color='red'><strong>Keep</strong></font></div></div><div class='respDiv'><div class='respDivL'>Match<br>(e)</div><div class='respDivR'>No Match<br>(i)</div></div></div>","e","TARGET","3","trustrating_stim/white_mw003.bmp,trustrating_stim/white_mw085.bmp,trustrating_stim/white_mw070.bmp","1,0,0","Match","e","4500","trustrating_stim/white_mw085.bmp","red","Keep","REAL","1"
"","","","","63f78c9346da47f7f8f3aef9","bdp_wmem","Sat Apr 08 2023 09:44:59 GMT-0600 (Mountain Daylight Time)","544828","Match,No Match","html-keyboard-response","90","206696","0.0-7.0-5.10","","null","","<div class='trialBorder'><div class='vertical-center'><img src='img/correct.jpg'></div><div class='respDiv'><div class='respDivL'><font style='color:orange'>Match<br>(e)</font></div><div class='respDivR'>No Match<br>(i)</div></div></div>","null","FEEDBACK","","","","","","","","","","",""
"","","","","63f78c9346da47f7f8f3aef9","bdp_wmem","Sat Apr 08 2023 09:44:59 GMT-0600 (Mountain Daylight Time)","544828","Match,No Match","html-keyboard-response","91","207211","0.0-7.0-1.11","","null","","<div class='trialBorder'><div class='vertical-center'><img src='img/fixation2_sml.jpg'</img></div></div>","null","FIX","","","","","","","","","","",""
"","","","","63f78c9346da47f7f8f3aef9","bdp_wmem","Sat Apr 08 2023 09:44:59 GMT-0600 (Mountain Daylight Time)","544828","Match,No Match","html-keyboard-response","92","208719","0.0-7.0-2.11","","null","","<div class='trialBorder'><div class='vertical-center'><img style='vertical-align:center; align:center' src='img/fixation2_sml.jpg'></div><div class='arrayDiv1'><div class='tc'><img class='introPic' src='trustrating_stim/white_mw013.bmp'><br><font color='red'><strong>Keep</strong></font></div></div></div>","null","ARRAY","1","trustrating_stim/white_mw013.bmp","0","Match","e","1500","","","","",""
"","","","","63f78c9346da47f7f8f3aef9","bdp_wmem","Sat Apr 08 2023 09:44:59 GMT-0600 (Mountain Daylight Time)","544828","Match,No Match","html-keyboard-response","93","212730","0.0-7.0-3.11","","null","","<div class='trialBorder'><div class='vertical-center'><img src='img/fixation2_sml.jpg'</img></div></div>","null","DELAY","","","","","","","","","","",""
"","","","","63f78c9346da47f7f8f3aef9","bdp_wmem","Sat Apr 08 2023 09:44:59 GMT-0600 (Mountain Daylight Time)","544828","Match,No Match","html-keyboard-response","94","213640","0.0-7.0-4.11","","909","","<div class='trialBorder'><div class='targDiv'><div class='tc'><img class='introPic' src='trustrating_stim/white_mw013.bmp'><br><font color='red'><strong>Keep</strong></font></div></div><div class='respDiv'><div class='respDivL'>Match<br>(e)</div><div class='respDivR'>No Match<br>(i)</div></div></div>","e","TARGET","1","trustrating_stim/white_mw013.bmp","0","Match","e","1500","trustrating_stim/white_mw013.bmp","red","Keep","REAL","1"
"","","","","63f78c9346da47f7f8f3aef9","bdp_wmem","Sat Apr 08 2023 09:44:59 GMT-0600 (Mountain Daylight Time)","544828","Match,No Match","html-keyboard-response","95","214145","0.0-7.0-5.11","","null","","<div class='trialBorder'><div class='vertical-center'><img src='img/correct.jpg'></div><div class='respDiv'><div class='respDivL'><font style='color:orange'>Match<br>(e)</font></div><div class='respDivR'>No Match<br>(i)</div></div></div>","null","FEEDBACK","","","","","","","","","","",""
"","","","","63f78c9346da47f7f8f3aef9","bdp_wmem","Sat Apr 08 2023 09:44:59 GMT-0600 (Mountain Daylight Time)","544828","Match,No Match","html-keyboard-response","96","214658","0.0-7.0-1.12","","null","","<div class='trialBorder'><div class='vertical-center'><img src='img/fixation2_sml.jpg'</img></div></div>","null","FIX","","","","","","","","","","",""
"","","","","63f78c9346da47f7f8f3aef9","bdp_wmem","Sat Apr 08 2023 09:44:59 GMT-0600 (Mountain Daylight Time)","544828","Match,No Match","html-keyboard-response","97","216166","0.0-7.0-2.12","","null","","<div class='trialBorder'><div class='vertical-center'><img style='vertical-align:center; align:center' src='img/fixation2_sml.jpg'></div><div class='arrayDiv1'><div class='tc'><img class='introPic' src='trustrating_stim/white_mw085.bmp'><br><font color='red'><strong>Keep</strong></font></div></div></div>","null","ARRAY","1","trustrating_stim/white_mw085.bmp","0","Match","e","1500","","","","",""
"","","","","63f78c9346da47f7f8f3aef9","bdp_wmem","Sat Apr 08 2023 09:44:59 GMT-0600 (Mountain Daylight Time)","544828","Match,No Match","html-keyboard-response","98","220168","0.0-7.0-3.12","","null","","<div class='trialBorder'><div class='vertical-center'><img src='img/fixation2_sml.jpg'</img></div></div>","null","DELAY","","","","","","","","","","",""
"","","","","63f78c9346da47f7f8f3aef9","bdp_wmem","Sat Apr 08 2023 09:44:59 GMT-0600 (Mountain Daylight Time)","544828","Match,No Match","html-keyboard-response","99","221032","0.0-7.0-4.12","","863","","<div class='trialBorder'><div class='targDiv'><div class='tc'><img class='introPic' src='trustrating_stim/white_mw085.bmp'><br><font color='red'><strong>Keep</strong></font></div></div><div class='respDiv'><div class='respDivL'>Match<br>(e)</div><div class='respDivR'>No Match<br>(i)</div></div></div>","e","TARGET","1","trustrating_stim/white_mw085.bmp","0","Match","e","1500","trustrating_stim/white_mw085.bmp","red","Keep","REAL","1"
"","","","","63f78c9346da47f7f8f3aef9","bdp_wmem","Sat Apr 08 2023 09:44:59 GMT-0600 (Mountain Daylight Time)","544828","Match,No Match","html-keyboard-response","100","221543","0.0-7.0-5.12","","null","","<div class='trialBorder'><div class='vertical-center'><img src='img/correct.jpg'></div><div class='respDiv'><div class='respDivL'><font style='color:orange'>Match<br>(e)</font></div><div class='respDivR'>No Match<br>(i)</div></div></div>","null","FEEDBACK","","","","","","","","","","",""
"","","","","63f78c9346da47f7f8f3aef9","bdp_wmem","Sat Apr 08 2023 09:44:59 GMT-0600 (Mountain Daylight Time)","544828","Match,No Match","html-keyboard-response","101","222055","0.0-7.0-1.13","","null","","<div class='trialBorder'><div class='vertical-center'><img src='img/fixation2_sml.jpg'</img></div></div>","null","FIX","","","","","","","","","","",""
"","","","","63f78c9346da47f7f8f3aef9","bdp_wmem","Sat Apr 08 2023 09:44:59 GMT-0600 (Mountain Daylight Time)","544828","Match,No Match","html-keyboard-response","102","225058","0.0-7.0-2.13","","null","","<div class='trialBorder'><div class='vertical-center'><img style='vertical-align:center; align:center' src='img/fixation2_sml.jpg'></div><div class='arrayDiv2'><div class='tl'><img class='introPic' src='trustrating_stim/white_mw013.bmp'><br><font color='green'><strong>Share</strong></font></div><div class='tr'><img class='introPic' src='trustrating_stim/white_mw092.bmp'><br><font color='red'><strong>Keep</strong></font></div></div></div>","null","ARRAY","2","trustrating_stim/white_mw013.bmp,trustrating_stim/white_mw092.bmp","1,0","Match","e","3000","","","","",""
"","","","","63f78c9346da47f7f8f3aef9","bdp_wmem","Sat Apr 08 2023 09:44:59 GMT-0600 (Mountain Daylight Time)","544828","Match,No Match","html-keyboard-response","103","229063","0.0-7.0-3.13","","null","","<div class='trialBorder'><div class='vertical-center'><img src='img/fixation2_sml.jpg'</img></div></div>","null","DELAY","","","","","","","","","","",""
"","","","","63f78c9346da47f7f8f3aef9","bdp_wmem","Sat Apr 08 2023 09:44:59 GMT-0600 (Mountain Daylight Time)","544828","Match,No Match","html-keyboard-response","104","229888","0.0-7.0-4.13","","823","","<div class='trialBorder'><div class='targDiv'><div class='tc'><img class='introPic' src='trustrating_stim/white_mw013.bmp'><br><font color='green'><strong>Share</strong></font></div></div><div class='respDiv'><div class='respDivL'>Match<br>(e)</div><div class='respDivR'>No Match<br>(i)</div></div></div>","e","TARGET","2","trustrating_stim/white_mw013.bmp,trustrating_stim/white_mw092.bmp","1,0","Match","e","3000","trustrating_stim/white_mw013.bmp","green","Share","REAL","1"
"","","","","63f78c9346da47f7f8f3aef9","bdp_wmem","Sat Apr 08 2023 09:44:59 GMT-0600 (Mountain Daylight Time)","544828","Match,No Match","html-keyboard-response","105","230400","0.0-7.0-5.13","","null","","<div class='trialBorder'><div class='vertical-center'><img src='img/correct.jpg'></div><div class='respDiv'><div class='respDivL'><font style='color:orange'>Match<br>(e)</font></div><div class='respDivR'>No Match<br>(i)</div></div></div>","null","FEEDBACK","","","","","","","","","","",""
"","","","","63f78c9346da47f7f8f3aef9","bdp_wmem","Sat Apr 08 2023 09:44:59 GMT-0600 (Mountain Daylight Time)","544828","Match,No Match","html-keyboard-response","106","230913","0.0-7.0-1.14","","null","","<div class='trialBorder'><div class='vertical-center'><img src='img/fixation2_sml.jpg'</img></div></div>","null","FIX","","","","","","","","","","",""
"","","","","63f78c9346da47f7f8f3aef9","bdp_wmem","Sat Apr 08 2023 09:44:59 GMT-0600 (Mountain Daylight Time)","544828","Match,No Match","html-keyboard-response","107","235423","0.0-7.0-2.14","","null","","<div class='trialBorder'><div class='vertical-center'><img style='vertical-align:center; align:center' src='img/fixation2_sml.jpg'></div><div class='arrayDiv3'><div class='tl'><img class='introPic' src='trustrating_stim/white_mw070.bmp'><br><font color='green'><strong>Share</strong></font></div><div class='tc'><img class='introPic' src='trustrating_stim/white_mw091.bmp'><br><font color='red'><strong>Keep</strong></font></div><div class='tr'><img class='introPic' src='trustrating_stim/white_mw040.bmp'><br><font color='green'><strong>Share</strong></font></div></div></div>","null","ARRAY","3","trustrating_stim/white_mw070.bmp,trustrating_stim/white_mw091.bmp,trustrating_stim/white_mw040.bmp","1,0,1","noMatchOutcome","i","4500","","","","",""
"","","","","63f78c9346da47f7f8f3aef9","bdp_wmem","Sat Apr 08 2023 09:44:59 GMT-0600 (Mountain Daylight Time)","544828","Match,No Match","html-keyboard-response","108","239428","0.0-7.0-3.14","","null","","<div class='trialBorder'><div class='vertical-center'><img src='img/fixation2_sml.jpg'</img></div></div>","null","DELAY","","","","","","","","","","",""
"","","","","63f78c9346da47f7f8f3aef9","bdp_wmem","Sat Apr 08 2023 09:44:59 GMT-0600 (Mountain Daylight Time)","544828","Match,No Match","html-keyboard-response","109","240448","0.0-7.0-4.14","","1019","","<div class='trialBorder'><div class='targDiv'><div class='tc'><img class='introPic' src='trustrating_stim/white_mw040.bmp'><br><font color='red'><strong>Keep</strong></font></div></div><div class='respDiv'><div class='respDivL'>Match<br>(e)</div><div class='respDivR'>No Match<br>(i)</div></div></div>","i","TARGET","3","trustrating_stim/white_mw070.bmp,trustrating_stim/white_mw091.bmp,trustrating_stim/white_mw040.bmp","1,0,1","noMatchOutcome","i","4500","trustrating_stim/white_mw040.bmp","red","Keep","REAL","1"
"","","","","63f78c9346da47f7f8f3aef9","bdp_wmem","Sat Apr 08 2023 09:44:59 GMT-0600 (Mountain Daylight Time)","544828","Match,No Match","html-keyboard-response","110","240949","0.0-7.0-5.14","","null","","<div class='trialBorder'><div class='vertical-center'><img src='img/correct.jpg'></div><div class='respDiv'><div class='respDivL'>Match<br>(e)</div><div class='respDivR'><font style='color:orange'>No Match<br>(i)</font></div></div></div>","null","FEEDBACK","","","","","","","","","","",""
"","","","","63f78c9346da47f7f8f3aef9","bdp_wmem","Sat Apr 08 2023 09:44:59 GMT-0600 (Mountain Daylight Time)","544828","Match,No Match","html-keyboard-response","111","241464","0.0-7.0-1.15","","null","","<div class='trialBorder'><div class='vertical-center'><img src='img/fixation2_sml.jpg'</img></div></div>","null","FIX","","","","","","","","","","",""
"","","","","63f78c9346da47f7f8f3aef9","bdp_wmem","Sat Apr 08 2023 09:44:59 GMT-0600 (Mountain Daylight Time)","544828","Match,No Match","html-keyboard-response","112","242972","0.0-7.0-2.15","","null","","<div class='trialBorder'><div class='vertical-center'><img style='vertical-align:center; align:center' src='img/fixation2_sml.jpg'></div><div class='arrayDiv1'><div class='tc'><img class='introPic' src='trustrating_stim/white_mw091.bmp'><br><font color='red'><strong>Keep</strong></font></div></div></div>","null","ARRAY","1","trustrating_stim/white_mw091.bmp","0","Match","e","1500","","","","",""
"","","","","63f78c9346da47f7f8f3aef9","bdp_wmem","Sat Apr 08 2023 09:44:59 GMT-0600 (Mountain Daylight Time)","544828","Match,No Match","html-keyboard-response","113","246977","0.0-7.0-3.15","","null","","<div class='trialBorder'><div class='vertical-center'><img src='img/fixation2_sml.jpg'</img></div></div>","null","DELAY","","","","","","","","","","",""
"","","","","63f78c9346da47f7f8f3aef9","bdp_wmem","Sat Apr 08 2023 09:44:59 GMT-0600 (Mountain Daylight Time)","544828","Match,No Match","html-keyboard-response","114","247832","0.0-7.0-4.15","","855","","<div class='trialBorder'><div class='targDiv'><div class='tc'><img class='introPic' src='trustrating_stim/white_mw091.bmp'><br><font color='red'><strong>Keep</strong></font></div></div><div class='respDiv'><div class='respDivL'>Match<br>(e)</div><div class='respDivR'>No Match<br>(i)</div></div></div>","e","TARGET","1","trustrating_stim/white_mw091.bmp","0","Match","e","1500","trustrating_stim/white_mw091.bmp","red","Keep","REAL","1"
"","","","","63f78c9346da47f7f8f3aef9","bdp_wmem","Sat Apr 08 2023 09:44:59 GMT-0600 (Mountain Daylight Time)","544828","Match,No Match","html-keyboard-response","115","248342","0.0-7.0-5.15","","null","","<div class='trialBorder'><div class='vertical-center'><img src='img/correct.jpg'></div><div class='respDiv'><div class='respDivL'><font style='color:orange'>Match<br>(e)</font></div><div class='respDivR'>No Match<br>(i)</div></div></div>","null","FEEDBACK","","","","","","","","","","",""
"","","","","63f78c9346da47f7f8f3aef9","bdp_wmem","Sat Apr 08 2023 09:44:59 GMT-0600 (Mountain Daylight Time)","544828","Match,No Match","html-keyboard-response","116","248854","0.0-7.0-1.16","","null","","<div class='trialBorder'><div class='vertical-center'><img src='img/fixation2_sml.jpg'</img></div></div>","null","FIX","","","","","","","","","","",""
"","","","","63f78c9346da47f7f8f3aef9","bdp_wmem","Sat Apr 08 2023 09:44:59 GMT-0600 (Mountain Daylight Time)","544828","Match,No Match","html-keyboard-response","117","250361","0.0-7.0-2.16","","null","","<div class='trialBorder'><div class='vertical-center'><img style='vertical-align:center; align:center' src='img/fixation2_sml.jpg'></div><div class='arrayDiv1'><div class='tc'><img class='introPic' src='trustrating_stim/white_mw040.bmp'><br><font color='green'><strong>Share</strong></font></div></div></div>","null","ARRAY","1","trustrating_stim/white_mw040.bmp","1","Match","e","1500","","","","",""
"","","","","63f78c9346da47f7f8f3aef9","bdp_wmem","Sat Apr 08 2023 09:44:59 GMT-0600 (Mountain Daylight Time)","544828","Match,No Match","html-keyboard-response","118","254373","0.0-7.0-3.16","","null","","<div class='trialBorder'><div class='vertical-center'><img src='img/fixation2_sml.jpg'</img></div></div>","null","DELAY","","","","","","","","","","",""
"","","","","63f78c9346da47f7f8f3aef9","bdp_wmem","Sat Apr 08 2023 09:44:59 GMT-0600 (Mountain Daylight Time)","544828","Match,No Match","html-keyboard-response","119","255128","0.0-7.0-4.16","","754","","<div class='trialBorder'><div class='targDiv'><div class='tc'><img class='introPic' src='trustrating_stim/white_mw040.bmp'><br><font color='green'><strong>Share</strong></font></div></div><div class='respDiv'><div class='respDivL'>Match<br>(e)</div><div class='respDivR'>No Match<br>(i)</div></div></div>","e","TARGET","1","trustrating_stim/white_mw040.bmp","1","Match","e","1500","trustrating_stim/white_mw040.bmp","green","Share","REAL","1"
"","","","","63f78c9346da47f7f8f3aef9","bdp_wmem","Sat Apr 08 2023 09:44:59 GMT-0600 (Mountain Daylight Time)","544828","Match,No Match","html-keyboard-response","120","255645","0.0-7.0-5.16","","null","","<div class='trialBorder'><div class='vertical-center'><img src='img/correct.jpg'></div><div class='respDiv'><div class='respDivL'><font style='color:orange'>Match<br>(e)</font></div><div class='respDivR'>No Match<br>(i)</div></div></div>","null","FEEDBACK","","","","","","","","","","",""
"","","","","63f78c9346da47f7f8f3aef9","bdp_wmem","Sat Apr 08 2023 09:44:59 GMT-0600 (Mountain Daylight Time)","544828","Match,No Match","html-keyboard-response","121","256158","0.0-7.0-1.17","","null","","<div class='trialBorder'><div class='vertical-center'><img src='img/fixation2_sml.jpg'</img></div></div>","null","FIX","","","","","","","","","","",""
"","","","","63f78c9346da47f7f8f3aef9","bdp_wmem","Sat Apr 08 2023 09:44:59 GMT-0600 (Mountain Daylight Time)","544828","Match,No Match","html-keyboard-response","122","259174","0.0-7.0-2.17","","null","","<div class='trialBorder'><div class='vertical-center'><img style='vertical-align:center; align:center' src='img/fixation2_sml.jpg'></div><div class='arrayDiv2'><div class='tl'><img class='introPic' src='trustrating_stim/white_mw012.bmp'><br><font color='red'><strong>Keep</strong></font></div><div class='tr'><img class='introPic' src='trustrating_stim/white_mw092.bmp'><br><font color='green'><strong>Share</strong></font></div></div></div>","null","ARRAY","2","trustrating_stim/white_mw012.bmp,trustrating_stim/white_mw092.bmp","0,1","noMatchOutcome","i","3000","","","","",""
"","","","","63f78c9346da47f7f8f3aef9","bdp_wmem","Sat Apr 08 2023 09:44:59 GMT-0600 (Mountain Daylight Time)","544828","Match,No Match","html-keyboard-response","123","263187","0.0-7.0-3.17","","null","","<div class='trialBorder'><div class='vertical-center'><img src='img/fixation2_sml.jpg'</img></div></div>","null","DELAY","","","","","","","","","","",""
"","","","","63f78c9346da47f7f8f3aef9","bdp_wmem","Sat Apr 08 2023 09:44:59 GMT-0600 (Mountain Daylight Time)","544828","Match,No Match","html-keyboard-response","124","264080","0.0-7.0-4.17","","893","","<div class='trialBorder'><div class='targDiv'><div class='tc'><img class='introPic' src='trustrating_stim/white_mw012.bmp'><br><font color='green'><strong>Share</strong></font></div></div><div class='respDiv'><div class='respDivL'>Match<br>(e)</div><div class='respDivR'>No Match<br>(i)</div></div></div>","i","TARGET","2","trustrating_stim/white_mw012.bmp,trustrating_stim/white_mw092.bmp","0,1","noMatchOutcome","i","3000","trustrating_stim/white_mw012.bmp","green","Share","REAL","1"
"","","","","63f78c9346da47f7f8f3aef9","bdp_wmem","Sat Apr 08 2023 09:44:59 GMT-0600 (Mountain Daylight Time)","544828","Match,No Match","html-keyboard-response","125","264585","0.0-7.0-5.17","","null","","<div class='trialBorder'><div class='vertical-center'><img src='img/correct.jpg'></div><div class='respDiv'><div class='respDivL'>Match<br>(e)</div><div class='respDivR'><font style='color:orange'>No Match<br>(i)</font></div></div></div>","null","FEEDBACK","","","","","","","","","","",""
"","","","","63f78c9346da47f7f8f3aef9","bdp_wmem","Sat Apr 08 2023 09:44:59 GMT-0600 (Mountain Daylight Time)","544828","Match,No Match","html-keyboard-response","126","265099","0.0-7.0-1.18","","null","","<div class='trialBorder'><div class='vertical-center'><img src='img/fixation2_sml.jpg'</img></div></div>","null","FIX","","","","","","","","","","",""
"","","","","63f78c9346da47f7f8f3aef9","bdp_wmem","Sat Apr 08 2023 09:44:59 GMT-0600 (Mountain Daylight Time)","544828","Match,No Match","html-keyboard-response","127","269603","0.0-7.0-2.18","","null","","<div class='trialBorder'><div class='vertical-center'><img style='vertical-align:center; align:center' src='img/fixation2_sml.jpg'></div><div class='arrayDiv3'><div class='tl'><img class='introPic' src='trustrating_stim/white_mw078.bmp'><br><font color='red'><strong>Keep</strong></font></div><div class='tc'><img class='introPic' src='trustrating_stim/white_mw042.bmp'><br><font color='green'><strong>Share</strong></font></div><div class='tr'><img class='introPic' src='trustrating_stim/white_mw040.bmp'><br><font color='red'><strong>Keep</strong></font></div></div></div>","null","ARRAY","3","trustrating_stim/white_mw078.bmp,trustrating_stim/white_mw042.bmp,trustrating_stim/white_mw040.bmp","0,1,0","noMatchFace","i","4500","","","","",""
"","","","","63f78c9346da47f7f8f3aef9","bdp_wmem","Sat Apr 08 2023 09:44:59 GMT-0600 (Mountain Daylight Time)","544828","Match,No Match","html-keyboard-response","128","273611","0.0-7.0-3.18","","null","","<div class='trialBorder'><div class='vertical-center'><img src='img/fixation2_sml.jpg'</img></div></div>","null","DELAY","","","","","","","","","","",""
"","","","","63f78c9346da47f7f8f3aef9","bdp_wmem","Sat Apr 08 2023 09:44:59 GMT-0600 (Mountain Daylight Time)","544828","Match,No Match","html-keyboard-response","129","274618","0.0-7.0-4.18","","1007","","<div class='trialBorder'><div class='targDiv'><div class='tc'><img class='introPic' src='trustrating_stim/white_mw012.bmp'><br><font color='green'><strong>Share</strong></font></div></div><div class='respDiv'><div class='respDivL'>Match<br>(e)</div><div class='respDivR'>No Match<br>(i)</div></div></div>","i","TARGET","3","trustrating_stim/white_mw078.bmp,trustrating_stim/white_mw042.bmp,trustrating_stim/white_mw040.bmp","0,1,0","noMatchFace","i","4500","trustrating_stim/white_mw012.bmp","green","Share","REAL","1"
"","","","","63f78c9346da47f7f8f3aef9","bdp_wmem","Sat Apr 08 2023 09:44:59 GMT-0600 (Mountain Daylight Time)","544828","Match,No Match","html-keyboard-response","130","275134","0.0-7.0-5.18","","null","","<div class='trialBorder'><div class='vertical-center'><img src='img/correct.jpg'></div><div class='respDiv'><div class='respDivL'>Match<br>(e)</div><div class='respDivR'><font style='color:orange'>No Match<br>(i)</font></div></div></div>","null","FEEDBACK","","","","","","","","","","",""
"","","","","63f78c9346da47f7f8f3aef9","bdp_wmem","Sat Apr 08 2023 09:44:59 GMT-0600 (Mountain Daylight Time)","544828","Match,No Match","html-keyboard-response","131","275649","0.0-7.0-1.19","","null","","<div class='trialBorder'><div class='vertical-center'><img src='img/fixation2_sml.jpg'</img></div></div>","null","FIX","","","","","","","","","","",""
"","","","","63f78c9346da47f7f8f3aef9","bdp_wmem","Sat Apr 08 2023 09:44:59 GMT-0600 (Mountain Daylight Time)","544828","Match,No Match","html-keyboard-response","132","280153","0.0-7.0-2.19","","null","","<div class='trialBorder'><div class='vertical-center'><img style='vertical-align:center; align:center' src='img/fixation2_sml.jpg'></div><div class='arrayDiv3'><div class='tl'><img class='introPic' src='trustrating_stim/white_mw012.bmp'><br><font color='green'><strong>Share</strong></font></div><div class='tc'><img class='introPic' src='trustrating_stim/white_mw042.bmp'><br><font color='red'><strong>Keep</strong></font></div><div class='tr'><img class='introPic' src='trustrating_stim/white_mw010.bmp'><br><font color='red'><strong>Keep</strong></font></div></div></div>","null","ARRAY","3","trustrating_stim/white_mw012.bmp,trustrating_stim/white_mw042.bmp,trustrating_stim/white_mw010.bmp","1,0,0","noMatchOutcome","i","4500","","","","",""
"","","","","63f78c9346da47f7f8f3aef9","bdp_wmem","Sat Apr 08 2023 09:44:59 GMT-0600 (Mountain Daylight Time)","544828","Match,No Match","html-keyboard-response","133","284159","0.0-7.0-3.19","","null","","<div class='trialBorder'><div class='vertical-center'><img src='img/fixation2_sml.jpg'</img></div></div>","null","DELAY","","","","","","","","","","",""
"","","","","63f78c9346da47f7f8f3aef9","bdp_wmem","Sat Apr 08 2023 09:44:59 GMT-0600 (Mountain Daylight Time)","544828","Match,No Match","html-keyboard-response","134","284849","0.0-7.0-4.19","","687","","<div class='trialBorder'><div class='targDiv'><div class='tc'><img class='introPic' src='trustrating_stim/white_mw010.bmp'><br><font color='green'><strong>Share</strong></font></div></div><div class='respDiv'><div class='respDivL'>Match<br>(e)</div><div class='respDivR'>No Match<br>(i)</div></div></div>","i","TARGET","3","trustrating_stim/white_mw012.bmp,trustrating_stim/white_mw042.bmp,trustrating_stim/white_mw010.bmp","1,0,0","noMatchOutcome","i","4500","trustrating_stim/white_mw010.bmp","green","Share","REAL","1"
"","","","","63f78c9346da47f7f8f3aef9","bdp_wmem","Sat Apr 08 2023 09:44:59 GMT-0600 (Mountain Daylight Time)","544828","Match,No Match","html-keyboard-response","135","285350","0.0-7.0-5.19","","null","","<div class='trialBorder'><div class='vertical-center'><img src='img/correct.jpg'></div><div class='respDiv'><div class='respDivL'>Match<br>(e)</div><div class='respDivR'><font style='color:orange'>No Match<br>(i)</font></div></div></div>","null","FEEDBACK","","","","","","","","","","",""
"","","","","63f78c9346da47f7f8f3aef9","bdp_wmem","Sat Apr 08 2023 09:44:59 GMT-0600 (Mountain Daylight Time)","544828","Match,No Match","html-keyboard-response","136","285863","0.0-7.0-1.20","","null","","<div class='trialBorder'><div class='vertical-center'><img src='img/fixation2_sml.jpg'</img></div></div>","null","FIX","","","","","","","","","","",""
"","","","","63f78c9346da47f7f8f3aef9","bdp_wmem","Sat Apr 08 2023 09:44:59 GMT-0600 (Mountain Daylight Time)","544828","Match,No Match","html-keyboard-response","137","287370","0.0-7.0-2.20","","null","","<div class='trialBorder'><div class='vertical-center'><img style='vertical-align:center; align:center' src='img/fixation2_sml.jpg'></div><div class='arrayDiv1'><div class='tc'><img class='introPic' src='trustrating_stim/white_mw010.bmp'><br><font color='red'><strong>Keep</strong></font></div></div></div>","null","ARRAY","1","trustrating_stim/white_mw010.bmp","0","Match","e","1500","","","","",""
"","","","","63f78c9346da47f7f8f3aef9","bdp_wmem","Sat Apr 08 2023 09:44:59 GMT-0600 (Mountain Daylight Time)","544828","Match,No Match","html-keyboard-response","138","291373","0.0-7.0-3.20","","null","","<div class='trialBorder'><div class='vertical-center'><img src='img/fixation2_sml.jpg'</img></div></div>","null","DELAY","","","","","","","","","","",""
"","","","","63f78c9346da47f7f8f3aef9","bdp_wmem","Sat Apr 08 2023 09:44:59 GMT-0600 (Mountain Daylight Time)","544828","Match,No Match","html-keyboard-response","139","292176","0.0-7.0-4.20","","802","","<div class='trialBorder'><div class='targDiv'><div class='tc'><img class='introPic' src='trustrating_stim/white_mw010.bmp'><br><font color='red'><strong>Keep</strong></font></div></div><div class='respDiv'><div class='respDivL'>Match<br>(e)</div><div class='respDivR'>No Match<br>(i)</div></div></div>","e","TARGET","1","trustrating_stim/white_mw010.bmp","0","Match","e","1500","trustrating_stim/white_mw010.bmp","red","Keep","REAL","1"
"","","","","63f78c9346da47f7f8f3aef9","bdp_wmem","Sat Apr 08 2023 09:44:59 GMT-0600 (Mountain Daylight Time)","544828","Match,No Match","html-keyboard-response","140","292692","0.0-7.0-5.20","","null","","<div class='trialBorder'><div class='vertical-center'><img src='img/correct.jpg'></div><div class='respDiv'><div class='respDivL'><font style='color:orange'>Match<br>(e)</font></div><div class='respDivR'>No Match<br>(i)</div></div></div>","null","FEEDBACK","","","","","","","","","","",""
"","","","","63f78c9346da47f7f8f3aef9","bdp_wmem","Sat Apr 08 2023 09:44:59 GMT-0600 (Mountain Daylight Time)","544828","Match,No Match","html-keyboard-response","141","293206","0.0-7.0-1.21","","null","","<div class='trialBorder'><div class='vertical-center'><img src='img/fixation2_sml.jpg'</img></div></div>","null","FIX","","","","","","","","","","",""
"","","","","63f78c9346da47f7f8f3aef9","bdp_wmem","Sat Apr 08 2023 09:44:59 GMT-0600 (Mountain Daylight Time)","544828","Match,No Match","html-keyboard-response","142","297725","0.0-7.0-2.21","","null","","<div class='trialBorder'><div class='vertical-center'><img style='vertical-align:center; align:center' src='img/fixation2_sml.jpg'></div><div class='arrayDiv3'><div class='tl'><img class='introPic' src='trustrating_stim/white_mw091.bmp'><br><font color='red'><strong>Keep</strong></font></div><div class='tc'><img class='introPic' src='trustrating_stim/white_mw003.bmp'><br><font color='red'><strong>Keep</strong></font></div><div class='tr'><img class='introPic' src='trustrating_stim/white_mw010.bmp'><br><font color='green'><strong>Share</strong></font></div></div></div>","null","ARRAY","3","trustrating_stim/white_mw091.bmp,trustrating_stim/white_mw003.bmp,trustrating_stim/white_mw010.bmp","0,0,1","noMatchFace","i","4500","","","","",""
"","","","","63f78c9346da47f7f8f3aef9","bdp_wmem","Sat Apr 08 2023 09:44:59 GMT-0600 (Mountain Daylight Time)","544828","Match,No Match","html-keyboard-response","143","301734","0.0-7.0-3.21","","null","","<div class='trialBorder'><div class='vertical-center'><img src='img/fixation2_sml.jpg'</img></div></div>","null","DELAY","","","","","","","","","","",""
"","","","","63f78c9346da47f7f8f3aef9","bdp_wmem","Sat Apr 08 2023 09:44:59 GMT-0600 (Mountain Daylight Time)","544828","Match,No Match","html-keyboard-response","144","303744","0.0-7.0-4.21","","2009","","<div class='trialBorder'><div class='targDiv'><div class='tc'><img class='introPic' src='trustrating_stim/white_mw040.bmp'><br><font color='red'><strong>Keep</strong></font></div></div><div class='respDiv'><div class='respDivL'>Match<br>(e)</div><div class='respDivR'>No Match<br>(i)</div></div></div>","i","TARGET","3","trustrating_stim/white_mw091.bmp,trustrating_stim/white_mw003.bmp,trustrating_stim/white_mw010.bmp","0,0,1","noMatchFace","i","4500","trustrating_stim/white_mw040.bmp","red","Keep","REAL","1"
"","","","","63f78c9346da47f7f8f3aef9","bdp_wmem","Sat Apr 08 2023 09:44:59 GMT-0600 (Mountain Daylight Time)","544828","Match,No Match","html-keyboard-response","145","304247","0.0-7.0-5.21","","null","","<div class='trialBorder'><div class='vertical-center'><img src='img/correct.jpg'></div><div class='respDiv'><div class='respDivL'>Match<br>(e)</div><div class='respDivR'><font style='color:orange'>No Match<br>(i)</font></div></div></div>","null","FEEDBACK","","","","","","","","","","",""
"","","","","63f78c9346da47f7f8f3aef9","bdp_wmem","Sat Apr 08 2023 09:44:59 GMT-0600 (Mountain Daylight Time)","544828","Match,No Match","html-keyboard-response","146","304760","0.0-7.0-1.22","","null","","<div class='trialBorder'><div class='vertical-center'><img src='img/fixation2_sml.jpg'</img></div></div>","null","FIX","","","","","","","","","","",""
"","","","","63f78c9346da47f7f8f3aef9","bdp_wmem","Sat Apr 08 2023 09:44:59 GMT-0600 (Mountain Daylight Time)","544828","Match,No Match","html-keyboard-response","147","309269","0.0-7.0-2.22","","null","","<div class='trialBorder'><div class='vertical-center'><img style='vertical-align:center; align:center' src='img/fixation2_sml.jpg'></div><div class='arrayDiv3'><div class='tl'><img class='introPic' src='trustrating_stim/white_mw012.bmp'><br><font color='red'><strong>Keep</strong></font></div><div class='tc'><img class='introPic' src='trustrating_stim/white_mw042.bmp'><br><font color='green'><strong>Share</strong></font></div><div class='tr'><img class='introPic' src='trustrating_stim/white_mw085.bmp'><br><font color='green'><strong>Share</strong></font></div></div></div>","null","ARRAY","3","trustrating_stim/white_mw012.bmp,trustrating_stim/white_mw042.bmp,trustrating_stim/white_mw085.bmp","0,1,1","Match","e","4500","","","","",""
"","","","","63f78c9346da47f7f8f3aef9","bdp_wmem","Sat Apr 08 2023 09:44:59 GMT-0600 (Mountain Daylight Time)","544828","Match,No Match","html-keyboard-response","148","313281","0.0-7.0-3.22","","null","","<div class='trialBorder'><div class='vertical-center'><img src='img/fixation2_sml.jpg'</img></div></div>","null","DELAY","","","","","","","","","","",""
"","","","","63f78c9346da47f7f8f3aef9","bdp_wmem","Sat Apr 08 2023 09:44:59 GMT-0600 (Mountain Daylight Time)","544828","Match,No Match","html-keyboard-response","149","314776","0.0-7.0-4.22","","1494","","<div class='trialBorder'><div class='targDiv'><div class='tc'><img class='introPic' src='trustrating_stim/white_mw085.bmp'><br><font color='green'><strong>Share</strong></font></div></div><div class='respDiv'><div class='respDivL'>Match<br>(e)</div><div class='respDivR'>No Match<br>(i)</div></div></div>","e","TARGET","3","trustrating_stim/white_mw012.bmp,trustrating_stim/white_mw042.bmp,trustrating_stim/white_mw085.bmp","0,1,1","Match","e","4500","trustrating_stim/white_mw085.bmp","green","Share","REAL","1"
"","","","","63f78c9346da47f7f8f3aef9","bdp_wmem","Sat Apr 08 2023 09:44:59 GMT-0600 (Mountain Daylight Time)","544828","Match,No Match","html-keyboard-response","150","315282","0.0-7.0-5.22","","null","","<div class='trialBorder'><div class='vertical-center'><img src='img/correct.jpg'></div><div class='respDiv'><div class='respDivL'><font style='color:orange'>Match<br>(e)</font></div><div class='respDivR'>No Match<br>(i)</div></div></div>","null","FEEDBACK","","","","","","","","","","",""
"","","","","63f78c9346da47f7f8f3aef9","bdp_wmem","Sat Apr 08 2023 09:44:59 GMT-0600 (Mountain Daylight Time)","544828","Match,No Match","html-keyboard-response","151","315794","0.0-7.0-1.23","","null","","<div class='trialBorder'><div class='vertical-center'><img src='img/fixation2_sml.jpg'</img></div></div>","null","FIX","","","","","","","","","","",""
"","","","","63f78c9346da47f7f8f3aef9","bdp_wmem","Sat Apr 08 2023 09:44:59 GMT-0600 (Mountain Daylight Time)","544828","Match,No Match","html-keyboard-response","152","317303","0.0-7.0-2.23","","null","","<div class='trialBorder'><div class='vertical-center'><img style='vertical-align:center; align:center' src='img/fixation2_sml.jpg'></div><div class='arrayDiv1'><div class='tc'><img class='introPic' src='trustrating_stim/white_mw003.bmp'><br><font color='green'><strong>Share</strong></font></div></div></div>","null","ARRAY","1","trustrating_stim/white_mw003.bmp","1","noMatchOutcome","i","1500","","","","",""
"","","","","63f78c9346da47f7f8f3aef9","bdp_wmem","Sat Apr 08 2023 09:44:59 GMT-0600 (Mountain Daylight Time)","544828","Match,No Match","html-keyboard-response","153","321307","0.0-7.0-3.23","","null","","<div class='trialBorder'><div class='vertical-center'><img src='img/fixation2_sml.jpg'</img></div></div>","null","DELAY","","","","","","","","","","",""
"","","","","63f78c9346da47f7f8f3aef9","bdp_wmem","Sat Apr 08 2023 09:44:59 GMT-0600 (Mountain Daylight Time)","544828","Match,No Match","html-keyboard-response","154","322056","0.0-7.0-4.23","","748","","<div class='trialBorder'><div class='targDiv'><div class='tc'><img class='introPic' src='trustrating_stim/white_mw003.bmp'><br><font color='red'><strong>Keep</strong></font></div></div><div class='respDiv'><div class='respDivL'>Match<br>(e)</div><div class='respDivR'>No Match<br>(i)</div></div></div>","i","TARGET","1","trustrating_stim/white_mw003.bmp","1","noMatchOutcome","i","1500","trustrating_stim/white_mw003.bmp","red","Keep","REAL","1"
"","","","","63f78c9346da47f7f8f3aef9","bdp_wmem","Sat Apr 08 2023 09:44:59 GMT-0600 (Mountain Daylight Time)","544828","Match,No Match","html-keyboard-response","155","322562","0.0-7.0-5.23","","null","","<div class='trialBorder'><div class='vertical-center'><img src='img/correct.jpg'></div><div class='respDiv'><div class='respDivL'>Match<br>(e)</div><div class='respDivR'><font style='color:orange'>No Match<br>(i)</font></div></div></div>","null","FEEDBACK","","","","","","","","","","",""
"","","","","63f78c9346da47f7f8f3aef9","bdp_wmem","Sat Apr 08 2023 09:44:59 GMT-0600 (Mountain Daylight Time)","544828","Match,No Match","html-keyboard-response","156","323075","0.0-7.0-1.24","","null","","<div class='trialBorder'><div class='vertical-center'><img src='img/fixation2_sml.jpg'</img></div></div>","null","FIX","","","","","","","","","","",""
"","","","","63f78c9346da47f7f8f3aef9","bdp_wmem","Sat Apr 08 2023 09:44:59 GMT-0600 (Mountain Daylight Time)","544828","Match,No Match","html-keyboard-response","157","326080","0.0-7.0-2.24","","null","","<div class='trialBorder'><div class='vertical-center'><img style='vertical-align:center; align:center' src='img/fixation2_sml.jpg'></div><div class='arrayDiv2'><div class='tl'><img class='introPic' src='trustrating_stim/white_mw013.bmp'><br><font color='red'><strong>Keep</strong></font></div><div class='tr'><img class='introPic' src='trustrating_stim/white_mw038.bmp'><br><font color='green'><strong>Share</strong></font></div></div></div>","null","ARRAY","2","trustrating_stim/white_mw013.bmp,trustrating_stim/white_mw038.bmp","0,1","noMatchOutcome","i","3000","","","","",""
"","","","","63f78c9346da47f7f8f3aef9","bdp_wmem","Sat Apr 08 2023 09:44:59 GMT-0600 (Mountain Daylight Time)","544828","Match,No Match","html-keyboard-response","158","330087","0.0-7.0-3.24","","null","","<div class='trialBorder'><div class='vertical-center'><img src='img/fixation2_sml.jpg'</img></div></div>","null","DELAY","","","","","","","","","","",""
"","","","","63f78c9346da47f7f8f3aef9","bdp_wmem","Sat Apr 08 2023 09:44:59 GMT-0600 (Mountain Daylight Time)","544828","Match,No Match","html-keyboard-response","159","331288","0.0-7.0-4.24","","1201","","<div class='trialBorder'><div class='targDiv'><div class='tc'><img class='introPic' src='trustrating_stim/white_mw038.bmp'><br><font color='red'><strong>Keep</strong></font></div></div><div class='respDiv'><div class='respDivL'>Match<br>(e)</div><div class='respDivR'>No Match<br>(i)</div></div></div>","i","TARGET","2","trustrating_stim/white_mw013.bmp,trustrating_stim/white_mw038.bmp","0,1","noMatchOutcome","i","3000","trustrating_stim/white_mw038.bmp","red","Keep","REAL","1"
"","","","","63f78c9346da47f7f8f3aef9","bdp_wmem","Sat Apr 08 2023 09:44:59 GMT-0600 (Mountain Daylight Time)","544828","Match,No Match","html-keyboard-response","160","331792","0.0-7.0-5.24","","null","","<div class='trialBorder'><div class='vertical-center'><img src='img/correct.jpg'></div><div class='respDiv'><div class='respDivL'>Match<br>(e)</div><div class='respDivR'><font style='color:orange'>No Match<br>(i)</font></div></div></div>","null","FEEDBACK","","","","","","","","","","",""
"","","","","63f78c9346da47f7f8f3aef9","bdp_wmem","Sat Apr 08 2023 09:44:59 GMT-0600 (Mountain Daylight Time)","544828","Match,No Match","html-keyboard-response","161","332302","0.0-7.0-1.25","","null","","<div class='trialBorder'><div class='vertical-center'><img src='img/fixation2_sml.jpg'</img></div></div>","null","FIX","","","","","","","","","","",""
"","","","","63f78c9346da47f7f8f3aef9","bdp_wmem","Sat Apr 08 2023 09:44:59 GMT-0600 (Mountain Daylight Time)","544828","Match,No Match","html-keyboard-response","162","336807","0.0-7.0-2.25","","null","","<div class='trialBorder'><div class='vertical-center'><img style='vertical-align:center; align:center' src='img/fixation2_sml.jpg'></div><div class='arrayDiv3'><div class='tl'><img class='introPic' src='trustrating_stim/white_mw012.bmp'><br><font color='red'><strong>Keep</strong></font></div><div class='tc'><img class='introPic' src='trustrating_stim/white_mw070.bmp'><br><font color='green'><strong>Share</strong></font></div><div class='tr'><img class='introPic' src='trustrating_stim/white_mw042.bmp'><br><font color='green'><strong>Share</strong></font></div></div></div>","null","ARRAY","3","trustrating_stim/white_mw012.bmp,trustrating_stim/white_mw070.bmp,trustrating_stim/white_mw042.bmp","0,1,1","noMatchOutcome","i","4500","","","","",""
"","","","","63f78c9346da47f7f8f3aef9","bdp_wmem","Sat Apr 08 2023 09:44:59 GMT-0600 (Mountain Daylight Time)","544828","Match,No Match","html-keyboard-response","163","340816","0.0-7.0-3.25","","null","","<div class='trialBorder'><div class='vertical-center'><img src='img/fixation2_sml.jpg'</img></div></div>","null","DELAY","","","","","","","","","","",""
"","","","","63f78c9346da47f7f8f3aef9","bdp_wmem","Sat Apr 08 2023 09:44:59 GMT-0600 (Mountain Daylight Time)","544828","Match,No Match","html-keyboard-response","164","342544","0.0-7.0-4.25","","1726","","<div class='trialBorder'><div class='targDiv'><div class='tc'><img class='introPic' src='trustrating_stim/white_mw070.bmp'><br><font color='red'><strong>Keep</strong></font></div></div><div class='respDiv'><div class='respDivL'>Match<br>(e)</div><div class='respDivR'>No Match<br>(i)</div></div></div>","i","TARGET","3","trustrating_stim/white_mw012.bmp,trustrating_stim/white_mw070.bmp,trustrating_stim/white_mw042.bmp","0,1,1","noMatchOutcome","i","4500","trustrating_stim/white_mw070.bmp","red","Keep","REAL","1"
"","","","","63f78c9346da47f7f8f3aef9","bdp_wmem","Sat Apr 08 2023 09:44:59 GMT-0600 (Mountain Daylight Time)","544828","Match,No Match","html-keyboard-response","165","343054","0.0-7.0-5.25","","null","","<div class='trialBorder'><div class='vertical-center'><img src='img/correct.jpg'></div><div class='respDiv'><div class='respDivL'>Match<br>(e)</div><div class='respDivR'><font style='color:orange'>No Match<br>(i)</font></div></div></div>","null","FEEDBACK","","","","","","","","","","",""
"","","","","63f78c9346da47f7f8f3aef9","bdp_wmem","Sat Apr 08 2023 09:44:59 GMT-0600 (Mountain Daylight Time)","544828","Match,No Match","html-keyboard-response","166","343569","0.0-7.0-1.26","","null","","<div class='trialBorder'><div class='vertical-center'><img src='img/fixation2_sml.jpg'</img></div></div>","null","FIX","","","","","","","","","","",""
"","","","","63f78c9346da47f7f8f3aef9","bdp_wmem","Sat Apr 08 2023 09:44:59 GMT-0600 (Mountain Daylight Time)","544828","Match,No Match","html-keyboard-response","167","345079","0.0-7.0-2.26","","null","","<div class='trialBorder'><div class='vertical-center'><img style='vertical-align:center; align:center' src='img/fixation2_sml.jpg'></div><div class='arrayDiv1'><div class='tc'><img class='introPic' src='trustrating_stim/white_mw085.bmp'><br><font color='red'><strong>Keep</strong></font></div></div></div>","null","ARRAY","1","trustrating_stim/white_mw085.bmp","0","Match","e","1500","","","","",""
"","","","","63f78c9346da47f7f8f3aef9","bdp_wmem","Sat Apr 08 2023 09:44:59 GMT-0600 (Mountain Daylight Time)","544828","Match,No Match","html-keyboard-response","168","349090","0.0-7.0-3.26","","null","","<div class='trialBorder'><div class='vertical-center'><img src='img/fixation2_sml.jpg'</img></div></div>","null","DELAY","","","","","","","","","","",""
"","","","","63f78c9346da47f7f8f3aef9","bdp_wmem","Sat Apr 08 2023 09:44:59 GMT-0600 (Mountain Daylight Time)","544828","Match,No Match","html-keyboard-response","169","350200","0.0-7.0-4.26","","1108","","<div class='trialBorder'><div class='targDiv'><div class='tc'><img class='introPic' src='trustrating_stim/white_mw085.bmp'><br><font color='red'><strong>Keep</strong></font></div></div><div class='respDiv'><div class='respDivL'>Match<br>(e)</div><div class='respDivR'>No Match<br>(i)</div></div></div>","e","TARGET","1","trustrating_stim/white_mw085.bmp","0","Match","e","1500","trustrating_stim/white_mw085.bmp","red","Keep","REAL","1"
"","","","","63f78c9346da47f7f8f3aef9","bdp_wmem","Sat Apr 08 2023 09:44:59 GMT-0600 (Mountain Daylight Time)","544828","Match,No Match","html-keyboard-response","170","350710","0.0-7.0-5.26","","null","","<div class='trialBorder'><div class='vertical-center'><img src='img/correct.jpg'></div><div class='respDiv'><div class='respDivL'><font style='color:orange'>Match<br>(e)</font></div><div class='respDivR'>No Match<br>(i)</div></div></div>","null","FEEDBACK","","","","","","","","","","",""
"","","","","63f78c9346da47f7f8f3aef9","bdp_wmem","Sat Apr 08 2023 09:44:59 GMT-0600 (Mountain Daylight Time)","544828","Match,No Match","html-keyboard-response","171","351223","0.0-7.0-1.27","","null","","<div class='trialBorder'><div class='vertical-center'><img src='img/fixation2_sml.jpg'</img></div></div>","null","FIX","","","","","","","","","","",""
"","","","","63f78c9346da47f7f8f3aef9","bdp_wmem","Sat Apr 08 2023 09:44:59 GMT-0600 (Mountain Daylight Time)","544828","Match,No Match","html-keyboard-response","172","355727","0.0-7.0-2.27","","null","","<div class='trialBorder'><div class='vertical-center'><img style='vertical-align:center; align:center' src='img/fixation2_sml.jpg'></div><div class='arrayDiv3'><div class='tl'><img class='introPic' src='trustrating_stim/white_mw092.bmp'><br><font color='red'><strong>Keep</strong></font></div><div class='tc'><img class='introPic' src='trustrating_stim/white_mw085.bmp'><br><font color='red'><strong>Keep</strong></font></div><div class='tr'><img class='introPic' src='trustrating_stim/white_mw038.bmp'><br><font color='green'><strong>Share</strong></font></div></div></div>","null","ARRAY","3","trustrating_stim/white_mw092.bmp,trustrating_stim/white_mw085.bmp,trustrating_stim/white_mw038.bmp","0,0,1","Match","e","4500","","","","",""
"","","","","63f78c9346da47f7f8f3aef9","bdp_wmem","Sat Apr 08 2023 09:44:59 GMT-0600 (Mountain Daylight Time)","544828","Match,No Match","html-keyboard-response","173","359738","0.0-7.0-3.27","","null","","<div class='trialBorder'><div class='vertical-center'><img src='img/fixation2_sml.jpg'</img></div></div>","null","DELAY","","","","","","","","","","",""
"","","","","63f78c9346da47f7f8f3aef9","bdp_wmem","Sat Apr 08 2023 09:44:59 GMT-0600 (Mountain Daylight Time)","544828","Match,No Match","html-keyboard-response","174","361280","0.0-7.0-4.27","","1540","","<div class='trialBorder'><div class='targDiv'><div class='tc'><img class='introPic' src='trustrating_stim/white_mw085.bmp'><br><font color='red'><strong>Keep</strong></font></div></div><div class='respDiv'><div class='respDivL'>Match<br>(e)</div><div class='respDivR'>No Match<br>(i)</div></div></div>","e","TARGET","3","trustrating_stim/white_mw092.bmp,trustrating_stim/white_mw085.bmp,trustrating_stim/white_mw038.bmp","0,0,1","Match","e","4500","trustrating_stim/white_mw085.bmp","red","Keep","REAL","1"
"","","","","63f78c9346da47f7f8f3aef9","bdp_wmem","Sat Apr 08 2023 09:44:59 GMT-0600 (Mountain Daylight Time)","544828","Match,No Match","html-keyboard-response","175","361791","0.0-7.0-5.27","","null","","<div class='trialBorder'><div class='vertical-center'><img src='img/correct.jpg'></div><div class='respDiv'><div class='respDivL'><font style='color:orange'>Match<br>(e)</font></div><div class='respDivR'>No Match<br>(i)</div></div></div>","null","FEEDBACK","","","","","","","","","","",""
"","","","","63f78c9346da47f7f8f3aef9","bdp_wmem","Sat Apr 08 2023 09:44:59 GMT-0600 (Mountain Daylight Time)","544828","Match,No Match","html-keyboard-response","176","362304","0.0-7.0-1.28","","null","","<div class='trialBorder'><div class='vertical-center'><img src='img/fixation2_sml.jpg'</img></div></div>","null","FIX","","","","","","","","","","",""
"","","","","63f78c9346da47f7f8f3aef9","bdp_wmem","Sat Apr 08 2023 09:44:59 GMT-0600 (Mountain Daylight Time)","544828","Match,No Match","html-keyboard-response","177","363812","0.0-7.0-2.28","","null","","<div class='trialBorder'><div class='vertical-center'><img style='vertical-align:center; align:center' src='img/fixation2_sml.jpg'></div><div class='arrayDiv1'><div class='tc'><img class='introPic' src='trustrating_stim/white_mw012.bmp'><br><font color='red'><strong>Keep</strong></font></div></div></div>","null","ARRAY","1","trustrating_stim/white_mw012.bmp","0","noMatchFace","i","1500","","","","",""
"","","","","63f78c9346da47f7f8f3aef9","bdp_wmem","Sat Apr 08 2023 09:44:59 GMT-0600 (Mountain Daylight Time)","544828","Match,No Match","html-keyboard-response","178","367822","0.0-7.0-3.28","","null","","<div class='trialBorder'><div class='vertical-center'><img src='img/fixation2_sml.jpg'</img></div></div>","null","DELAY","","","","","","","","","","",""
"","","","","63f78c9346da47f7f8f3aef9","bdp_wmem","Sat Apr 08 2023 09:44:59 GMT-0600 (Mountain Daylight Time)","544828","Match,No Match","html-keyboard-response","179","368608","0.0-7.0-4.28","","785","","<div class='trialBorder'><div class='targDiv'><div class='tc'><img class='introPic' src='trustrating_stim/white_mw038.bmp'><br><font color='red'><strong>Keep</strong></font></div></div><div class='respDiv'><div class='respDivL'>Match<br>(e)</div><div class='respDivR'>No Match<br>(i)</div></div></div>","i","TARGET","1","trustrating_stim/white_mw012.bmp","0","noMatchFace","i","1500","trustrating_stim/white_mw038.bmp","red","Keep","REAL","1"
"","","","","63f78c9346da47f7f8f3aef9","bdp_wmem","Sat Apr 08 2023 09:44:59 GMT-0600 (Mountain Daylight Time)","544828","Match,No Match","html-keyboard-response","180","369112","0.0-7.0-5.28","","null","","<div class='trialBorder'><div class='vertical-center'><img src='img/correct.jpg'></div><div class='respDiv'><div class='respDivL'>Match<br>(e)</div><div class='respDivR'><font style='color:orange'>No Match<br>(i)</font></div></div></div>","null","FEEDBACK","","","","","","","","","","",""
"","","","","63f78c9346da47f7f8f3aef9","bdp_wmem","Sat Apr 08 2023 09:44:59 GMT-0600 (Mountain Daylight Time)","544828","Match,No Match","html-keyboard-response","181","369624","0.0-7.0-1.29","","null","","<div class='trialBorder'><div class='vertical-center'><img src='img/fixation2_sml.jpg'</img></div></div>","null","FIX","","","","","","","","","","",""
"","","","","63f78c9346da47f7f8f3aef9","bdp_wmem","Sat Apr 08 2023 09:44:59 GMT-0600 (Mountain Daylight Time)","544828","Match,No Match","html-keyboard-response","182","374141","0.0-7.0-2.29","","null","","<div class='trialBorder'><div class='vertical-center'><img style='vertical-align:center; align:center' src='img/fixation2_sml.jpg'></div><div class='arrayDiv3'><div class='tl'><img class='introPic' src='trustrating_stim/white_mw040.bmp'><br><font color='green'><strong>Share</strong></font></div><div class='tc'><img class='introPic' src='trustrating_stim/white_mw013.bmp'><br><font color='red'><strong>Keep</strong></font></div><div class='tr'><img class='introPic' src='trustrating_stim/white_mw038.bmp'><br><font color='red'><strong>Keep</strong></font></div></div></div>","null","ARRAY","3","trustrating_stim/white_mw040.bmp,trustrating_stim/white_mw013.bmp,trustrating_stim/white_mw038.bmp","1,0,0","Match","e","4500","","","","",""
"","","","","63f78c9346da47f7f8f3aef9","bdp_wmem","Sat Apr 08 2023 09:44:59 GMT-0600 (Mountain Daylight Time)","544828","Match,No Match","html-keyboard-response","183","378147","0.0-7.0-3.29","","null","","<div class='trialBorder'><div class='vertical-center'><img src='img/fixation2_sml.jpg'</img></div></div>","null","DELAY","","","","","","","","","","",""
"","","","","63f78c9346da47f7f8f3aef9","bdp_wmem","Sat Apr 08 2023 09:44:59 GMT-0600 (Mountain Daylight Time)","544828","Match,No Match","html-keyboard-response","184","379726","0.0-7.0-4.29","","1577","","<div class='trialBorder'><div class='targDiv'><div class='tc'><img class='introPic' src='trustrating_stim/white_mw013.bmp'><br><font color='red'><strong>Keep</strong></font></div></div><div class='respDiv'><div class='respDivL'>Match<br>(e)</div><div class='respDivR'>No Match<br>(i)</div></div></div>","e","TARGET","3","trustrating_stim/white_mw040.bmp,trustrating_stim/white_mw013.bmp,trustrating_stim/white_mw038.bmp","1,0,0","Match","e","4500","trustrating_stim/white_mw013.bmp","red","Keep","REAL","1"
"","","","","63f78c9346da47f7f8f3aef9","bdp_wmem","Sat Apr 08 2023 09:44:59 GMT-0600 (Mountain Daylight Time)","544828","Match,No Match","html-keyboard-response","185","380230","0.0-7.0-5.29","","null","","<div class='trialBorder'><div class='vertical-center'><img src='img/correct.jpg'></div><div class='respDiv'><div class='respDivL'><font style='color:orange'>Match<br>(e)</font></div><div class='respDivR'>No Match<br>(i)</div></div></div>","null","FEEDBACK","","","","","","","","","","",""
"","","","","63f78c9346da47f7f8f3aef9","bdp_wmem","Sat Apr 08 2023 09:44:59 GMT-0600 (Mountain Daylight Time)","544828","Match,No Match","html-keyboard-response","186","380744","0.0-7.0-1.30","","null","","<div class='trialBorder'><div class='vertical-center'><img src='img/fixation2_sml.jpg'</img></div></div>","null","FIX","","","","","","","","","","",""
