"event","trial","time","trialtype","subject_id","task","startTime","totalTime","labels","trial_type","trial_index","time_elapsed","internal_node_id","view_history","rt","success","stimulus","key_press","stimType","arraySize","arrayFaces","arrayOutcomes","matchType","corrResp","arrayDur","targFace","targCol","targOutcome","trialType","corr"
"focus","0","0","focusevent","63d43dc4b4b7a0e426a381cd","bdp_wmem","Fri Mar 10 2023 12:40:50 GMT-0800 (Pacific Standard Time)","613000","Match,No Match","","","","","","","","","","","","","","","","","","","","",""
"","","","","63d43dc4b4b7a0e426a381cd","bdp_wmem","Fri Mar 10 2023 12:40:50 GMT-0800 (Pacific Standard Time)","613000","Match,No Match","pavlovia","0","1","0.0-0.0","","","","","","","","","","","","","","","","",""
"","","","","63d43dc4b4b7a0e426a381cd","bdp_wmem","Fri Mar 10 2023 12:40:50 GMT-0800 (Pacific Standard Time)","613000","Match,No Match","instructions","1","4285","0.0-1.0","[{""page_index"":0,""viewing_time"":4282}]","4282","","","","","","","","","","","","","","",""
"fullscreenexit","2","5684","fullscreenexit","63d43dc4b4b7a0e426a381cd","bdp_wmem","Fri Mar 10 2023 12:40:50 GMT-0800 (Pacific Standard Time)","613000","Match,No Match","","","","","","","","","","","","","","","","","","","","",""
"","","","","63d43dc4b4b7a0e426a381cd","bdp_wmem","Fri Mar 10 2023 12:40:50 GMT-0800 (Pacific Standard Time)","613000","Match,No Match","fullscreen","2","6677","0.0-2.0","","","true","","","","","","","","","","","","","",""
"","","","fullscreenfail","63d43dc4b4b7a0e426a381cd","bdp_wmem","Fri Mar 10 2023 12:40:50 GMT-0800 (Pacific Standard Time)","613000","Match,No Match","image-keyboard-response","3","8714","0.0-3.0-0.0","","2031","","","32","","","","","","","","","","","",""
"","","","","63d43dc4b4b7a0e426a381cd","bdp_wmem","Fri Mar 10 2023 12:40:50 GMT-0800 (Pacific Standard Time)","613000","Match,No Match","instructions","4","88965","0.0-4.0","[{""page_index"":0,""viewing_time"":27190},{""page_index"":1,""viewing_time"":30456},{""page_index"":2,""viewing_time"":11206},{""page_index"":3,""viewing_time"":3004},{""page_index"":4,""viewing_time"":8142}]","79999","","","","","","","","","","","","","","",""
"","","","","63d43dc4b4b7a0e426a381cd","bdp_wmem","Fri Mar 10 2023 12:40:50 GMT-0800 (Pacific Standard Time)","613000","Match,No Match","html-keyboard-response","5","89470","0.0-5.0-1.0","","null","","<div class='trialBorder'><div class='vertical-center'><img src='img/fixation2_sml.jpg'</img></div></div>","null","FIX","","","","","","","","","","",""
"","","","","63d43dc4b4b7a0e426a381cd","bdp_wmem","Fri Mar 10 2023 12:40:50 GMT-0800 (Pacific Standard Time)","613000","Match,No Match","html-keyboard-response","6","90975","0.0-5.0-2.0","","null","","<div class='trialBorder'><div class='vertical-center'><img style='vertical-align:center; align:center' src='img/fixation2_sml.jpg'></div><div class='arrayDiv1'><div class='tc'><img class='introPic' src='trustrating_stim/white_mw042.bmp'><br><font color='green'><strong>Share</strong></font></div></div></div>","null","ARRAY","1","trustrating_stim/white_mw042.bmp","1","Match","e","1500","","","","",""
"","","","","63d43dc4b4b7a0e426a381cd","bdp_wmem","Fri Mar 10 2023 12:40:50 GMT-0800 (Pacific Standard Time)","613000","Match,No Match","html-keyboard-response","7","94976","0.0-5.0-3.0","","null","","<div class='trialBorder'><div class='vertical-center'><img src='img/fixation2_sml.jpg'</img></div></div>","null","DELAY","","","","","","","","","","",""
"","","","","63d43dc4b4b7a0e426a381cd","bdp_wmem","Fri Mar 10 2023 12:40:50 GMT-0800 (Pacific Standard Time)","613000","Match,No Match","html-keyboard-response","8","96586","0.0-5.0-4.0","","1607","","<div class='trialBorder'><div class='targDiv'><div class='tc'><img class='introPic' src='trustrating_stim/white_mw042.bmp'><br><font color='green'><strong>Share</strong></font></div></div><div class='respDiv'><div class='respDivL'>Match<br>(e)</div><div class='respDivR'>No Match<br>(i)</div></div></div>","e","TARGET","1","trustrating_stim/white_mw042.bmp","1","Match","e","1500","trustrating_stim/white_mw042.bmp","green","Share","PRACTICE","1"
"","","","","63d43dc4b4b7a0e426a381cd","bdp_wmem","Fri Mar 10 2023 12:40:50 GMT-0800 (Pacific Standard Time)","613000","Match,No Match","html-keyboard-response","9","97088","0.0-5.0-5.0","","null","","<div class='trialBorder'><div class='vertical-center'><img src='img/correct.jpg'></div><div class='respDiv'><div class='respDivL'><font style='color:orange'>Match<br>(e)</font></div><div class='respDivR'>No Match<br>(i)</div></div></div>","null","FEEDBACK","","","","","","","","","","",""
"","","","","63d43dc4b4b7a0e426a381cd","bdp_wmem","Fri Mar 10 2023 12:40:50 GMT-0800 (Pacific Standard Time)","613000","Match,No Match","html-keyboard-response","10","97591","0.0-5.0-1.1","","null","","<div class='trialBorder'><div class='vertical-center'><img src='img/fixation2_sml.jpg'</img></div></div>","null","FIX","","","","","","","","","","",""
"","","","","63d43dc4b4b7a0e426a381cd","bdp_wmem","Fri Mar 10 2023 12:40:50 GMT-0800 (Pacific Standard Time)","613000","Match,No Match","html-keyboard-response","11","102092","0.0-5.0-2.1","","null","","<div class='trialBorder'><div class='vertical-center'><img style='vertical-align:center; align:center' src='img/fixation2_sml.jpg'></div><div class='arrayDiv3'><div class='tl'><img class='introPic' src='trustrating_stim/white_mw012.bmp'><br><font color='red'><strong>Keep</strong></font></div><div class='tc'><img class='introPic' src='trustrating_stim/white_mw040.bmp'><br><font color='green'><strong>Share</strong></font></div><div class='tr'><img class='introPic' src='trustrating_stim/white_mw070.bmp'><br><font color='red'><strong>Keep</strong></font></div></div></div>","null","ARRAY","3","trustrating_stim/white_mw012.bmp,trustrating_stim/white_mw040.bmp,trustrating_stim/white_mw070.bmp","0,1,0","Match","e","4500","","","","",""
"","","","","63d43dc4b4b7a0e426a381cd","bdp_wmem","Fri Mar 10 2023 12:40:50 GMT-0800 (Pacific Standard Time)","613000","Match,No Match","html-keyboard-response","12","106095","0.0-5.0-3.1","","null","","<div class='trialBorder'><div class='vertical-center'><img src='img/fixation2_sml.jpg'</img></div></div>","null","DELAY","","","","","","","","","","",""
"","","","","63d43dc4b4b7a0e426a381cd","bdp_wmem","Fri Mar 10 2023 12:40:50 GMT-0800 (Pacific Standard Time)","613000","Match,No Match","html-keyboard-response","13","109177","0.0-5.0-4.1","","3079","","<div class='trialBorder'><div class='targDiv'><div class='tc'><img class='introPic' src='trustrating_stim/white_mw070.bmp'><br><font color='red'><strong>Keep</strong></font></div></div><div class='respDiv'><div class='respDivL'>Match<br>(e)</div><div class='respDivR'>No Match<br>(i)</div></div></div>","e","TARGET","3","trustrating_stim/white_mw012.bmp,trustrating_stim/white_mw040.bmp,trustrating_stim/white_mw070.bmp","0,1,0","Match","e","4500","trustrating_stim/white_mw070.bmp","red","Keep","PRACTICE","1"
"","","","","63d43dc4b4b7a0e426a381cd","bdp_wmem","Fri Mar 10 2023 12:40:50 GMT-0800 (Pacific Standard Time)","613000","Match,No Match","html-keyboard-response","14","109678","0.0-5.0-5.1","","null","","<div class='trialBorder'><div class='vertical-center'><img src='img/correct.jpg'></div><div class='respDiv'><div class='respDivL'><font style='color:orange'>Match<br>(e)</font></div><div class='respDivR'>No Match<br>(i)</div></div></div>","null","FEEDBACK","","","","","","","","","","",""
"","","","","63d43dc4b4b7a0e426a381cd","bdp_wmem","Fri Mar 10 2023 12:40:50 GMT-0800 (Pacific Standard Time)","613000","Match,No Match","html-keyboard-response","15","110181","0.0-5.0-1.2","","null","","<div class='trialBorder'><div class='vertical-center'><img src='img/fixation2_sml.jpg'</img></div></div>","null","FIX","","","","","","","","","","",""
"","","","","63d43dc4b4b7a0e426a381cd","bdp_wmem","Fri Mar 10 2023 12:40:50 GMT-0800 (Pacific Standard Time)","613000","Match,No Match","html-keyboard-response","16","113184","0.0-5.0-2.2","","null","","<div class='trialBorder'><div class='vertical-center'><img style='vertical-align:center; align:center' src='img/fixation2_sml.jpg'></div><div class='arrayDiv2'><div class='tl'><img class='introPic' src='trustrating_stim/white_mw070.bmp'><br><font color='green'><strong>Share</strong></font></div><div class='tr'><img class='introPic' src='trustrating_stim/white_mw013.bmp'><br><font color='red'><strong>Keep</strong></font></div></div></div>","null","ARRAY","2","trustrating_stim/white_mw070.bmp,trustrating_stim/white_mw013.bmp","1,0","Match","e","3000","","","","",""
"","","","","63d43dc4b4b7a0e426a381cd","bdp_wmem","Fri Mar 10 2023 12:40:50 GMT-0800 (Pacific Standard Time)","613000","Match,No Match","html-keyboard-response","17","117186","0.0-5.0-3.2","","null","","<div class='trialBorder'><div class='vertical-center'><img src='img/fixation2_sml.jpg'</img></div></div>","null","DELAY","","","","","","","","","","",""
"","","","","63d43dc4b4b7a0e426a381cd","bdp_wmem","Fri Mar 10 2023 12:40:50 GMT-0800 (Pacific Standard Time)","613000","Match,No Match","html-keyboard-response","18","118605","0.0-5.0-4.2","","1415","","<div class='trialBorder'><div class='targDiv'><div class='tc'><img class='introPic' src='trustrating_stim/white_mw013.bmp'><br><font color='red'><strong>Keep</strong></font></div></div><div class='respDiv'><div class='respDivL'>Match<br>(e)</div><div class='respDivR'>No Match<br>(i)</div></div></div>","i","TARGET","2","trustrating_stim/white_mw070.bmp,trustrating_stim/white_mw013.bmp","1,0","Match","e","3000","trustrating_stim/white_mw013.bmp","red","Keep","PRACTICE","0"
"","","","","63d43dc4b4b7a0e426a381cd","bdp_wmem","Fri Mar 10 2023 12:40:50 GMT-0800 (Pacific Standard Time)","613000","Match,No Match","html-keyboard-response","19","119107","0.0-5.0-5.2","","null","","<div class='trialBorder'><div class='vertical-center'><img src='img/error.jpg'></div><div class='respDiv'><div class='respDivL'>Match<br>(e)</div><div class='respDivR'><font style='color:orange'>No Match<br>(i)</font></div></div></div>","null","FEEDBACK","","","","","","","","","","",""
"","","","","63d43dc4b4b7a0e426a381cd","bdp_wmem","Fri Mar 10 2023 12:40:50 GMT-0800 (Pacific Standard Time)","613000","Match,No Match","html-keyboard-response","20","119609","0.0-5.0-1.3","","null","","<div class='trialBorder'><div class='vertical-center'><img src='img/fixation2_sml.jpg'</img></div></div>","null","FIX","","","","","","","","","","",""
"","","","","63d43dc4b4b7a0e426a381cd","bdp_wmem","Fri Mar 10 2023 12:40:50 GMT-0800 (Pacific Standard Time)","613000","Match,No Match","html-keyboard-response","21","122611","0.0-5.0-2.3","","null","","<div class='trialBorder'><div class='vertical-center'><img style='vertical-align:center; align:center' src='img/fixation2_sml.jpg'></div><div class='arrayDiv2'><div class='tl'><img class='introPic' src='trustrating_stim/white_mw003.bmp'><br><font color='green'><strong>Share</strong></font></div><div class='tr'><img class='introPic' src='trustrating_stim/white_mw010.bmp'><br><font color='red'><strong>Keep</strong></font></div></div></div>","null","ARRAY","2","trustrating_stim/white_mw003.bmp,trustrating_stim/white_mw010.bmp","1,0","noMatchFace","i","3000","","","","",""
"","","","","63d43dc4b4b7a0e426a381cd","bdp_wmem","Fri Mar 10 2023 12:40:50 GMT-0800 (Pacific Standard Time)","613000","Match,No Match","html-keyboard-response","22","126613","0.0-5.0-3.3","","null","","<div class='trialBorder'><div class='vertical-center'><img src='img/fixation2_sml.jpg'</img></div></div>","null","DELAY","","","","","","","","","","",""
"","","","","63d43dc4b4b7a0e426a381cd","bdp_wmem","Fri Mar 10 2023 12:40:50 GMT-0800 (Pacific Standard Time)","613000","Match,No Match","html-keyboard-response","23","128105","0.0-5.0-4.3","","1489","","<div class='trialBorder'><div class='targDiv'><div class='tc'><img class='introPic' src='trustrating_stim/white_mw042.bmp'><br><font color='red'><strong>Keep</strong></font></div></div><div class='respDiv'><div class='respDivL'>Match<br>(e)</div><div class='respDivR'>No Match<br>(i)</div></div></div>","i","TARGET","2","trustrating_stim/white_mw003.bmp,trustrating_stim/white_mw010.bmp","1,0","noMatchFace","i","3000","trustrating_stim/white_mw042.bmp","red","Keep","PRACTICE","1"
"","","","","63d43dc4b4b7a0e426a381cd","bdp_wmem","Fri Mar 10 2023 12:40:50 GMT-0800 (Pacific Standard Time)","613000","Match,No Match","html-keyboard-response","24","128607","0.0-5.0-5.3","","null","","<div class='trialBorder'><div class='vertical-center'><img src='img/correct.jpg'></div><div class='respDiv'><div class='respDivL'>Match<br>(e)</div><div class='respDivR'><font style='color:orange'>No Match<br>(i)</font></div></div></div>","null","FEEDBACK","","","","","","","","","","",""
"","","","","63d43dc4b4b7a0e426a381cd","bdp_wmem","Fri Mar 10 2023 12:40:50 GMT-0800 (Pacific Standard Time)","613000","Match,No Match","html-keyboard-response","25","129110","0.0-5.0-1.4","","null","","<div class='trialBorder'><div class='vertical-center'><img src='img/fixation2_sml.jpg'</img></div></div>","null","FIX","","","","","","","","","","",""
"","","","","63d43dc4b4b7a0e426a381cd","bdp_wmem","Fri Mar 10 2023 12:40:50 GMT-0800 (Pacific Standard Time)","613000","Match,No Match","html-keyboard-response","26","133612","0.0-5.0-2.4","","null","","<div class='trialBorder'><div class='vertical-center'><img style='vertical-align:center; align:center' src='img/fixation2_sml.jpg'></div><div class='arrayDiv3'><div class='tl'><img class='introPic' src='trustrating_stim/white_mw040.bmp'><br><font color='green'><strong>Share</strong></font></div><div class='tc'><img class='introPic' src='trustrating_stim/white_mw070.bmp'><br><font color='green'><strong>Share</strong></font></div><div class='tr'><img class='introPic' src='trustrating_stim/white_mw012.bmp'><br><font color='red'><strong>Keep</strong></font></div></div></div>","null","ARRAY","3","trustrating_stim/white_mw040.bmp,trustrating_stim/white_mw070.bmp,trustrating_stim/white_mw012.bmp","1,1,0","noMatchOutcome","i","4500","","","","",""
"","","","","63d43dc4b4b7a0e426a381cd","bdp_wmem","Fri Mar 10 2023 12:40:50 GMT-0800 (Pacific Standard Time)","613000","Match,No Match","html-keyboard-response","27","137613","0.0-5.0-3.4","","null","","<div class='trialBorder'><div class='vertical-center'><img src='img/fixation2_sml.jpg'</img></div></div>","null","DELAY","","","","","","","","","","",""
"","","","","63d43dc4b4b7a0e426a381cd","bdp_wmem","Fri Mar 10 2023 12:40:50 GMT-0800 (Pacific Standard Time)","613000","Match,No Match","html-keyboard-response","28","140868","0.0-5.0-4.4","","3251","","<div class='trialBorder'><div class='targDiv'><div class='tc'><img class='introPic' src='trustrating_stim/white_mw040.bmp'><br><font color='red'><strong>Keep</strong></font></div></div><div class='respDiv'><div class='respDivL'>Match<br>(e)</div><div class='respDivR'>No Match<br>(i)</div></div></div>","e","TARGET","3","trustrating_stim/white_mw040.bmp,trustrating_stim/white_mw070.bmp,trustrating_stim/white_mw012.bmp","1,1,0","noMatchOutcome","i","4500","trustrating_stim/white_mw040.bmp","red","Keep","PRACTICE","0"
"","","","","63d43dc4b4b7a0e426a381cd","bdp_wmem","Fri Mar 10 2023 12:40:50 GMT-0800 (Pacific Standard Time)","613000","Match,No Match","html-keyboard-response","29","141369","0.0-5.0-5.4","","null","","<div class='trialBorder'><div class='vertical-center'><img src='img/error.jpg'></div><div class='respDiv'><div class='respDivL'><font style='color:orange'>Match<br>(e)</font></div><div class='respDivR'>No Match<br>(i)</div></div></div>","null","FEEDBACK","","","","","","","","","","",""
"","","","","63d43dc4b4b7a0e426a381cd","bdp_wmem","Fri Mar 10 2023 12:40:50 GMT-0800 (Pacific Standard Time)","613000","Match,No Match","html-keyboard-response","30","141872","0.0-5.0-1.5","","null","","<div class='trialBorder'><div class='vertical-center'><img src='img/fixation2_sml.jpg'</img></div></div>","null","FIX","","","","","","","","","","",""
"","","","","63d43dc4b4b7a0e426a381cd","bdp_wmem","Fri Mar 10 2023 12:40:50 GMT-0800 (Pacific Standard Time)","613000","Match,No Match","html-keyboard-response","31","143376","0.0-5.0-2.5","","null","","<div class='trialBorder'><div class='vertical-center'><img style='vertical-align:center; align:center' src='img/fixation2_sml.jpg'></div><div class='arrayDiv1'><div class='tc'><img class='introPic' src='trustrating_stim/white_mw070.bmp'><br><font color='green'><strong>Share</strong></font></div></div></div>","null","ARRAY","1","trustrating_stim/white_mw070.bmp","1","noMatchFace","i","1500","","","","",""
"","","","","63d43dc4b4b7a0e426a381cd","bdp_wmem","Fri Mar 10 2023 12:40:50 GMT-0800 (Pacific Standard Time)","613000","Match,No Match","html-keyboard-response","32","147378","0.0-5.0-3.5","","null","","<div class='trialBorder'><div class='vertical-center'><img src='img/fixation2_sml.jpg'</img></div></div>","null","DELAY","","","","","","","","","","",""
"","","","","63d43dc4b4b7a0e426a381cd","bdp_wmem","Fri Mar 10 2023 12:40:50 GMT-0800 (Pacific Standard Time)","613000","Match,No Match","html-keyboard-response","33","148715","0.0-5.0-4.5","","1335","","<div class='trialBorder'><div class='targDiv'><div class='tc'><img class='introPic' src='trustrating_stim/white_mw013.bmp'><br><font color='green'><strong>Share</strong></font></div></div><div class='respDiv'><div class='respDivL'>Match<br>(e)</div><div class='respDivR'>No Match<br>(i)</div></div></div>","i","TARGET","1","trustrating_stim/white_mw070.bmp","1","noMatchFace","i","1500","trustrating_stim/white_mw013.bmp","green","Share","PRACTICE","1"
"","","","","63d43dc4b4b7a0e426a381cd","bdp_wmem","Fri Mar 10 2023 12:40:50 GMT-0800 (Pacific Standard Time)","613000","Match,No Match","html-keyboard-response","34","149218","0.0-5.0-5.5","","null","","<div class='trialBorder'><div class='vertical-center'><img src='img/correct.jpg'></div><div class='respDiv'><div class='respDivL'>Match<br>(e)</div><div class='respDivR'><font style='color:orange'>No Match<br>(i)</font></div></div></div>","null","FEEDBACK","","","","","","","","","","",""
"","","","","63d43dc4b4b7a0e426a381cd","bdp_wmem","Fri Mar 10 2023 12:40:50 GMT-0800 (Pacific Standard Time)","613000","Match,No Match","instructions","35","151711","0.0-6.0","[{""page_index"":0,""viewing_time"":2492}]","2493","","","","","","","","","","","","","","",""
"","","","","63d43dc4b4b7a0e426a381cd","bdp_wmem","Fri Mar 10 2023 12:40:50 GMT-0800 (Pacific Standard Time)","613000","Match,No Match","html-keyboard-response","36","152213","0.0-7.0-1.0","","null","","<div class='trialBorder'><div class='vertical-center'><img src='img/fixation2_sml.jpg'</img></div></div>","null","FIX","","","","","","","","","","",""
"","","","","63d43dc4b4b7a0e426a381cd","bdp_wmem","Fri Mar 10 2023 12:40:50 GMT-0800 (Pacific Standard Time)","613000","Match,No Match","html-keyboard-response","37","153715","0.0-7.0-2.0","","null","","<div class='trialBorder'><div class='vertical-center'><img style='vertical-align:center; align:center' src='img/fixation2_sml.jpg'></div><div class='arrayDiv1'><div class='tc'><img class='introPic' src='trustrating_stim/white_mw040.bmp'><br><font color='green'><strong>Share</strong></font></div></div></div>","null","ARRAY","1","trustrating_stim/white_mw040.bmp","1","noMatchOutcome","i","1500","","","","",""
"","","","","63d43dc4b4b7a0e426a381cd","bdp_wmem","Fri Mar 10 2023 12:40:50 GMT-0800 (Pacific Standard Time)","613000","Match,No Match","html-keyboard-response","38","157715","0.0-7.0-3.0","","null","","<div class='trialBorder'><div class='vertical-center'><img src='img/fixation2_sml.jpg'</img></div></div>","null","DELAY","","","","","","","","","","",""
"","","","","63d43dc4b4b7a0e426a381cd","bdp_wmem","Fri Mar 10 2023 12:40:50 GMT-0800 (Pacific Standard Time)","613000","Match,No Match","html-keyboard-response","39","158944","0.0-7.0-4.0","","1227","","<div class='trialBorder'><div class='targDiv'><div class='tc'><img class='introPic' src='trustrating_stim/white_mw040.bmp'><br><font color='red'><strong>Keep</strong></font></div></div><div class='respDiv'><div class='respDivL'>Match<br>(e)</div><div class='respDivR'>No Match<br>(i)</div></div></div>","i","TARGET","1","trustrating_stim/white_mw040.bmp","1","noMatchOutcome","i","1500","trustrating_stim/white_mw040.bmp","red","Keep","REAL","1"
"","","","","63d43dc4b4b7a0e426a381cd","bdp_wmem","Fri Mar 10 2023 12:40:50 GMT-0800 (Pacific Standard Time)","613000","Match,No Match","html-keyboard-response","40","159447","0.0-7.0-5.0","","null","","<div class='trialBorder'><div class='vertical-center'><img src='img/correct.jpg'></div><div class='respDiv'><div class='respDivL'>Match<br>(e)</div><div class='respDivR'><font style='color:orange'>No Match<br>(i)</font></div></div></div>","null","FEEDBACK","","","","","","","","","","",""
"","","","","63d43dc4b4b7a0e426a381cd","bdp_wmem","Fri Mar 10 2023 12:40:50 GMT-0800 (Pacific Standard Time)","613000","Match,No Match","html-keyboard-response","41","159948","0.0-7.0-1.1","","null","","<div class='trialBorder'><div class='vertical-center'><img src='img/fixation2_sml.jpg'</img></div></div>","null","FIX","","","","","","","","","","",""
"","","","","63d43dc4b4b7a0e426a381cd","bdp_wmem","Fri Mar 10 2023 12:40:50 GMT-0800 (Pacific Standard Time)","613000","Match,No Match","html-keyboard-response","42","161450","0.0-7.0-2.1","","null","","<div class='trialBorder'><div class='vertical-center'><img style='vertical-align:center; align:center' src='img/fixation2_sml.jpg'></div><div class='arrayDiv1'><div class='tc'><img class='introPic' src='trustrating_stim/white_mw085.bmp'><br><font color='green'><strong>Share</strong></font></div></div></div>","null","ARRAY","1","trustrating_stim/white_mw085.bmp","1","noMatchOutcome","i","1500","","","","",""
"","","","","63d43dc4b4b7a0e426a381cd","bdp_wmem","Fri Mar 10 2023 12:40:50 GMT-0800 (Pacific Standard Time)","613000","Match,No Match","html-keyboard-response","43","165451","0.0-7.0-3.1","","null","","<div class='trialBorder'><div class='vertical-center'><img src='img/fixation2_sml.jpg'</img></div></div>","null","DELAY","","","","","","","","","","",""
"","","","","63d43dc4b4b7a0e426a381cd","bdp_wmem","Fri Mar 10 2023 12:40:50 GMT-0800 (Pacific Standard Time)","613000","Match,No Match","html-keyboard-response","44","166356","0.0-7.0-4.1","","904","","<div class='trialBorder'><div class='targDiv'><div class='tc'><img class='introPic' src='trustrating_stim/white_mw085.bmp'><br><font color='red'><strong>Keep</strong></font></div></div><div class='respDiv'><div class='respDivL'>Match<br>(e)</div><div class='respDivR'>No Match<br>(i)</div></div></div>","i","TARGET","1","trustrating_stim/white_mw085.bmp","1","noMatchOutcome","i","1500","trustrating_stim/white_mw085.bmp","red","Keep","REAL","1"
"","","","","63d43dc4b4b7a0e426a381cd","bdp_wmem","Fri Mar 10 2023 12:40:50 GMT-0800 (Pacific Standard Time)","613000","Match,No Match","html-keyboard-response","45","166856","0.0-7.0-5.1","","null","","<div class='trialBorder'><div class='vertical-center'><img src='img/correct.jpg'></div><div class='respDiv'><div class='respDivL'>Match<br>(e)</div><div class='respDivR'><font style='color:orange'>No Match<br>(i)</font></div></div></div>","null","FEEDBACK","","","","","","","","","","",""
"","","","","63d43dc4b4b7a0e426a381cd","bdp_wmem","Fri Mar 10 2023 12:40:50 GMT-0800 (Pacific Standard Time)","613000","Match,No Match","html-keyboard-response","46","167359","0.0-7.0-1.2","","null","","<div class='trialBorder'><div class='vertical-center'><img src='img/fixation2_sml.jpg'</img></div></div>","null","FIX","","","","","","","","","","",""
"","","","","63d43dc4b4b7a0e426a381cd","bdp_wmem","Fri Mar 10 2023 12:40:50 GMT-0800 (Pacific Standard Time)","613000","Match,No Match","html-keyboard-response","47","171861","0.0-7.0-2.2","","null","","<div class='trialBorder'><div class='vertical-center'><img style='vertical-align:center; align:center' src='img/fixation2_sml.jpg'></div><div class='arrayDiv3'><div class='tl'><img class='introPic' src='trustrating_stim/white_mw013.bmp'><br><font color='red'><strong>Keep</strong></font></div><div class='tc'><img class='introPic' src='trustrating_stim/white_mw003.bmp'><br><font color='green'><strong>Share</strong></font></div><div class='tr'><img class='introPic' src='trustrating_stim/white_mw040.bmp'><br><font color='green'><strong>Share</strong></font></div></div></div>","null","ARRAY","3","trustrating_stim/white_mw013.bmp,trustrating_stim/white_mw003.bmp,trustrating_stim/white_mw040.bmp","0,1,1","noMatchFace","i","4500","","","","",""
"","","","","63d43dc4b4b7a0e426a381cd","bdp_wmem","Fri Mar 10 2023 12:40:50 GMT-0800 (Pacific Standard Time)","613000","Match,No Match","html-keyboard-response","48","175863","0.0-7.0-3.2","","null","","<div class='trialBorder'><div class='vertical-center'><img src='img/fixation2_sml.jpg'</img></div></div>","null","DELAY","","","","","","","","","","",""
"","","","","63d43dc4b4b7a0e426a381cd","bdp_wmem","Fri Mar 10 2023 12:40:50 GMT-0800 (Pacific Standard Time)","613000","Match,No Match","html-keyboard-response","49","176829","0.0-7.0-4.2","","965","","<div class='trialBorder'><div class='targDiv'><div class='tc'><img class='introPic' src='trustrating_stim/white_mw091.bmp'><br><font color='green'><strong>Share</strong></font></div></div><div class='respDiv'><div class='respDivL'>Match<br>(e)</div><div class='respDivR'>No Match<br>(i)</div></div></div>","i","TARGET","3","trustrating_stim/white_mw013.bmp,trustrating_stim/white_mw003.bmp,trustrating_stim/white_mw040.bmp","0,1,1","noMatchFace","i","4500","trustrating_stim/white_mw091.bmp","green","Share","REAL","1"
"","","","","63d43dc4b4b7a0e426a381cd","bdp_wmem","Fri Mar 10 2023 12:40:50 GMT-0800 (Pacific Standard Time)","613000","Match,No Match","html-keyboard-response","50","177332","0.0-7.0-5.2","","null","","<div class='trialBorder'><div class='vertical-center'><img src='img/correct.jpg'></div><div class='respDiv'><div class='respDivL'>Match<br>(e)</div><div class='respDivR'><font style='color:orange'>No Match<br>(i)</font></div></div></div>","null","FEEDBACK","","","","","","","","","","",""
"","","","","63d43dc4b4b7a0e426a381cd","bdp_wmem","Fri Mar 10 2023 12:40:50 GMT-0800 (Pacific Standard Time)","613000","Match,No Match","html-keyboard-response","51","177833","0.0-7.0-1.3","","null","","<div class='trialBorder'><div class='vertical-center'><img src='img/fixation2_sml.jpg'</img></div></div>","null","FIX","","","","","","","","","","",""
"","","","","63d43dc4b4b7a0e426a381cd","bdp_wmem","Fri Mar 10 2023 12:40:50 GMT-0800 (Pacific Standard Time)","613000","Match,No Match","html-keyboard-response","52","180836","0.0-7.0-2.3","","null","","<div class='trialBorder'><div class='vertical-center'><img style='vertical-align:center; align:center' src='img/fixation2_sml.jpg'></div><div class='arrayDiv2'><div class='tl'><img class='introPic' src='trustrating_stim/white_mw038.bmp'><br><font color='green'><strong>Share</strong></font></div><div class='tr'><img class='introPic' src='trustrating_stim/white_mw091.bmp'><br><font color='red'><strong>Keep</strong></font></div></div></div>","null","ARRAY","2","trustrating_stim/white_mw038.bmp,trustrating_stim/white_mw091.bmp","1,0","Match","e","3000","","","","",""
"","","","","63d43dc4b4b7a0e426a381cd","bdp_wmem","Fri Mar 10 2023 12:40:50 GMT-0800 (Pacific Standard Time)","613000","Match,No Match","html-keyboard-response","53","184838","0.0-7.0-3.3","","null","","<div class='trialBorder'><div class='vertical-center'><img src='img/fixation2_sml.jpg'</img></div></div>","null","DELAY","","","","","","","","","","",""
"","","","","63d43dc4b4b7a0e426a381cd","bdp_wmem","Fri Mar 10 2023 12:40:50 GMT-0800 (Pacific Standard Time)","613000","Match,No Match","html-keyboard-response","54","186000","0.0-7.0-4.3","","1161","","<div class='trialBorder'><div class='targDiv'><div class='tc'><img class='introPic' src='trustrating_stim/white_mw038.bmp'><br><font color='green'><strong>Share</strong></font></div></div><div class='respDiv'><div class='respDivL'>Match<br>(e)</div><div class='respDivR'>No Match<br>(i)</div></div></div>","e","TARGET","2","trustrating_stim/white_mw038.bmp,trustrating_stim/white_mw091.bmp","1,0","Match","e","3000","trustrating_stim/white_mw038.bmp","green","Share","REAL","1"
"","","","","63d43dc4b4b7a0e426a381cd","bdp_wmem","Fri Mar 10 2023 12:40:50 GMT-0800 (Pacific Standard Time)","613000","Match,No Match","html-keyboard-response","55","186502","0.0-7.0-5.3","","null","","<div class='trialBorder'><div class='vertical-center'><img src='img/correct.jpg'></div><div class='respDiv'><div class='respDivL'><font style='color:orange'>Match<br>(e)</font></div><div class='respDivR'>No Match<br>(i)</div></div></div>","null","FEEDBACK","","","","","","","","","","",""
"","","","","63d43dc4b4b7a0e426a381cd","bdp_wmem","Fri Mar 10 2023 12:40:50 GMT-0800 (Pacific Standard Time)","613000","Match,No Match","html-keyboard-response","56","187003","0.0-7.0-1.4","","null","","<div class='trialBorder'><div class='vertical-center'><img src='img/fixation2_sml.jpg'</img></div></div>","null","FIX","","","","","","","","","","",""
"","","","","63d43dc4b4b7a0e426a381cd","bdp_wmem","Fri Mar 10 2023 12:40:50 GMT-0800 (Pacific Standard Time)","613000","Match,No Match","html-keyboard-response","57","191504","0.0-7.0-2.4","","null","","<div class='trialBorder'><div class='vertical-center'><img style='vertical-align:center; align:center' src='img/fixation2_sml.jpg'></div><div class='arrayDiv3'><div class='tl'><img class='introPic' src='trustrating_stim/white_mw010.bmp'><br><font color='green'><strong>Share</strong></font></div><div class='tc'><img class='introPic' src='trustrating_stim/white_mw003.bmp'><br><font color='red'><strong>Keep</strong></font></div><div class='tr'><img class='introPic' src='trustrating_stim/white_mw078.bmp'><br><font color='red'><strong>Keep</strong></font></div></div></div>","null","ARRAY","3","trustrating_stim/white_mw010.bmp,trustrating_stim/white_mw003.bmp,trustrating_stim/white_mw078.bmp","1,0,0","Match","e","4500","","","","",""
"","","","","63d43dc4b4b7a0e426a381cd","bdp_wmem","Fri Mar 10 2023 12:40:50 GMT-0800 (Pacific Standard Time)","613000","Match,No Match","html-keyboard-response","58","195506","0.0-7.0-3.4","","null","","<div class='trialBorder'><div class='vertical-center'><img src='img/fixation2_sml.jpg'</img></div></div>","null","DELAY","","","","","","","","","","",""
"","","","","63d43dc4b4b7a0e426a381cd","bdp_wmem","Fri Mar 10 2023 12:40:50 GMT-0800 (Pacific Standard Time)","613000","Match,No Match","html-keyboard-response","59","196310","0.0-7.0-4.4","","802","","<div class='trialBorder'><div class='targDiv'><div class='tc'><img class='introPic' src='trustrating_stim/white_mw010.bmp'><br><font color='green'><strong>Share</strong></font></div></div><div class='respDiv'><div class='respDivL'>Match<br>(e)</div><div class='respDivR'>No Match<br>(i)</div></div></div>","e","TARGET","3","trustrating_stim/white_mw010.bmp,trustrating_stim/white_mw003.bmp,trustrating_stim/white_mw078.bmp","1,0,0","Match","e","4500","trustrating_stim/white_mw010.bmp","green","Share","REAL","1"
"","","","","63d43dc4b4b7a0e426a381cd","bdp_wmem","Fri Mar 10 2023 12:40:50 GMT-0800 (Pacific Standard Time)","613000","Match,No Match","html-keyboard-response","60","196813","0.0-7.0-5.4","","null","","<div class='trialBorder'><div class='vertical-center'><img src='img/correct.jpg'></div><div class='respDiv'><div class='respDivL'><font style='color:orange'>Match<br>(e)</font></div><div class='respDivR'>No Match<br>(i)</div></div></div>","null","FEEDBACK","","","","","","","","","","",""
"","","","","63d43dc4b4b7a0e426a381cd","bdp_wmem","Fri Mar 10 2023 12:40:50 GMT-0800 (Pacific Standard Time)","613000","Match,No Match","html-keyboard-response","61","197314","0.0-7.0-1.5","","null","","<div class='trialBorder'><div class='vertical-center'><img src='img/fixation2_sml.jpg'</img></div></div>","null","FIX","","","","","","","","","","",""
"","","","","63d43dc4b4b7a0e426a381cd","bdp_wmem","Fri Mar 10 2023 12:40:50 GMT-0800 (Pacific Standard Time)","613000","Match,No Match","html-keyboard-response","62","201817","0.0-7.0-2.5","","null","","<div class='trialBorder'><div class='vertical-center'><img style='vertical-align:center; align:center' src='img/fixation2_sml.jpg'></div><div class='arrayDiv3'><div class='tl'><img class='introPic' src='trustrating_stim/white_mw040.bmp'><br><font color='red'><strong>Keep</strong></font></div><div class='tc'><img class='introPic' src='trustrating_stim/white_mw078.bmp'><br><font color='green'><strong>Share</strong></font></div><div class='tr'><img class='introPic' src='trustrating_stim/white_mw085.bmp'><br><font color='green'><strong>Share</strong></font></div></div></div>","null","ARRAY","3","trustrating_stim/white_mw040.bmp,trustrating_stim/white_mw078.bmp,trustrating_stim/white_mw085.bmp","0,1,1","Match","e","4500","","","","",""
"","","","","63d43dc4b4b7a0e426a381cd","bdp_wmem","Fri Mar 10 2023 12:40:50 GMT-0800 (Pacific Standard Time)","613000","Match,No Match","html-keyboard-response","63","205818","0.0-7.0-3.5","","null","","<div class='trialBorder'><div class='vertical-center'><img src='img/fixation2_sml.jpg'</img></div></div>","null","DELAY","","","","","","","","","","",""
"","","","","63d43dc4b4b7a0e426a381cd","bdp_wmem","Fri Mar 10 2023 12:40:50 GMT-0800 (Pacific Standard Time)","613000","Match,No Match","html-keyboard-response","64","209560","0.0-7.0-4.5","","3741","","<div class='trialBorder'><div class='targDiv'><div class='tc'><img class='introPic' src='trustrating_stim/white_mw078.bmp'><br><font color='green'><strong>Share</strong></font></div></div><div class='respDiv'><div class='respDivL'>Match<br>(e)</div><div class='respDivR'>No Match<br>(i)</div></div></div>","e","TARGET","3","trustrating_stim/white_mw040.bmp,trustrating_stim/white_mw078.bmp,trustrating_stim/white_mw085.bmp","0,1,1","Match","e","4500","trustrating_stim/white_mw078.bmp","green","Share","REAL","1"
"","","","","63d43dc4b4b7a0e426a381cd","bdp_wmem","Fri Mar 10 2023 12:40:50 GMT-0800 (Pacific Standard Time)","613000","Match,No Match","html-keyboard-response","65","210062","0.0-7.0-5.5","","null","","<div class='trialBorder'><div class='vertical-center'><img src='img/correct.jpg'></div><div class='respDiv'><div class='respDivL'><font style='color:orange'>Match<br>(e)</font></div><div class='respDivR'>No Match<br>(i)</div></div></div>","null","FEEDBACK","","","","","","","","","","",""
"","","","","63d43dc4b4b7a0e426a381cd","bdp_wmem","Fri Mar 10 2023 12:40:50 GMT-0800 (Pacific Standard Time)","613000","Match,No Match","html-keyboard-response","66","210563","0.0-7.0-1.6","","null","","<div class='trialBorder'><div class='vertical-center'><img src='img/fixation2_sml.jpg'</img></div></div>","null","FIX","","","","","","","","","","",""
"","","","","63d43dc4b4b7a0e426a381cd","bdp_wmem","Fri Mar 10 2023 12:40:50 GMT-0800 (Pacific Standard Time)","613000","Match,No Match","html-keyboard-response","67","215066","0.0-7.0-2.6","","null","","<div class='trialBorder'><div class='vertical-center'><img style='vertical-align:center; align:center' src='img/fixation2_sml.jpg'></div><div class='arrayDiv3'><div class='tl'><img class='introPic' src='trustrating_stim/white_mw092.bmp'><br><font color='green'><strong>Share</strong></font></div><div class='tc'><img class='introPic' src='trustrating_stim/white_mw003.bmp'><br><font color='red'><strong>Keep</strong></font></div><div class='tr'><img class='introPic' src='trustrating_stim/white_mw091.bmp'><br><font color='red'><strong>Keep</strong></font></div></div></div>","null","ARRAY","3","trustrating_stim/white_mw092.bmp,trustrating_stim/white_mw003.bmp,trustrating_stim/white_mw091.bmp","1,0,0","noMatchOutcome","i","4500","","","","",""
"","","","","63d43dc4b4b7a0e426a381cd","bdp_wmem","Fri Mar 10 2023 12:40:50 GMT-0800 (Pacific Standard Time)","613000","Match,No Match","html-keyboard-response","68","219068","0.0-7.0-3.6","","null","","<div class='trialBorder'><div class='vertical-center'><img src='img/fixation2_sml.jpg'</img></div></div>","null","DELAY","","","","","","","","","","",""
"","","","","63d43dc4b4b7a0e426a381cd","bdp_wmem","Fri Mar 10 2023 12:40:50 GMT-0800 (Pacific Standard Time)","613000","Match,No Match","html-keyboard-response","69","220928","0.0-7.0-4.6","","1859","","<div class='trialBorder'><div class='targDiv'><div class='tc'><img class='introPic' src='trustrating_stim/white_mw091.bmp'><br><font color='green'><strong>Share</strong></font></div></div><div class='respDiv'><div class='respDivL'>Match<br>(e)</div><div class='respDivR'>No Match<br>(i)</div></div></div>","i","TARGET","3","trustrating_stim/white_mw092.bmp,trustrating_stim/white_mw003.bmp,trustrating_stim/white_mw091.bmp","1,0,0","noMatchOutcome","i","4500","trustrating_stim/white_mw091.bmp","green","Share","REAL","1"
"","","","","63d43dc4b4b7a0e426a381cd","bdp_wmem","Fri Mar 10 2023 12:40:50 GMT-0800 (Pacific Standard Time)","613000","Match,No Match","html-keyboard-response","70","221430","0.0-7.0-5.6","","null","","<div class='trialBorder'><div class='vertical-center'><img src='img/correct.jpg'></div><div class='respDiv'><div class='respDivL'>Match<br>(e)</div><div class='respDivR'><font style='color:orange'>No Match<br>(i)</font></div></div></div>","null","FEEDBACK","","","","","","","","","","",""
"","","","","63d43dc4b4b7a0e426a381cd","bdp_wmem","Fri Mar 10 2023 12:40:50 GMT-0800 (Pacific Standard Time)","613000","Match,No Match","html-keyboard-response","71","221931","0.0-7.0-1.7","","null","","<div class='trialBorder'><div class='vertical-center'><img src='img/fixation2_sml.jpg'</img></div></div>","null","FIX","","","","","","","","","","",""
"","","","","63d43dc4b4b7a0e426a381cd","bdp_wmem","Fri Mar 10 2023 12:40:50 GMT-0800 (Pacific Standard Time)","613000","Match,No Match","html-keyboard-response","72","223433","0.0-7.0-2.7","","null","","<div class='trialBorder'><div class='vertical-center'><img style='vertical-align:center; align:center' src='img/fixation2_sml.jpg'></div><div class='arrayDiv1'><div class='tc'><img class='introPic' src='trustrating_stim/white_mw038.bmp'><br><font color='red'><strong>Keep</strong></font></div></div></div>","null","ARRAY","1","trustrating_stim/white_mw038.bmp","0","noMatchOutcome","i","1500","","","","",""
"","","","","63d43dc4b4b7a0e426a381cd","bdp_wmem","Fri Mar 10 2023 12:40:50 GMT-0800 (Pacific Standard Time)","613000","Match,No Match","html-keyboard-response","73","227433","0.0-7.0-3.7","","null","","<div class='trialBorder'><div class='vertical-center'><img src='img/fixation2_sml.jpg'</img></div></div>","null","DELAY","","","","","","","","","","",""
"","","","","63d43dc4b4b7a0e426a381cd","bdp_wmem","Fri Mar 10 2023 12:40:50 GMT-0800 (Pacific Standard Time)","613000","Match,No Match","html-keyboard-response","74","229799","0.0-7.0-4.7","","2364","","<div class='trialBorder'><div class='targDiv'><div class='tc'><img class='introPic' src='trustrating_stim/white_mw038.bmp'><br><font color='green'><strong>Share</strong></font></div></div><div class='respDiv'><div class='respDivL'>Match<br>(e)</div><div class='respDivR'>No Match<br>(i)</div></div></div>","i","TARGET","1","trustrating_stim/white_mw038.bmp","0","noMatchOutcome","i","1500","trustrating_stim/white_mw038.bmp","green","Share","REAL","1"
"","","","","63d43dc4b4b7a0e426a381cd","bdp_wmem","Fri Mar 10 2023 12:40:50 GMT-0800 (Pacific Standard Time)","613000","Match,No Match","html-keyboard-response","75","230300","0.0-7.0-5.7","","null","","<div class='trialBorder'><div class='vertical-center'><img src='img/correct.jpg'></div><div class='respDiv'><div class='respDivL'>Match<br>(e)</div><div class='respDivR'><font style='color:orange'>No Match<br>(i)</font></div></div></div>","null","FEEDBACK","","","","","","","","","","",""
"","","","","63d43dc4b4b7a0e426a381cd","bdp_wmem","Fri Mar 10 2023 12:40:50 GMT-0800 (Pacific Standard Time)","613000","Match,No Match","html-keyboard-response","76","230804","0.0-7.0-1.8","","null","","<div class='trialBorder'><div class='vertical-center'><img src='img/fixation2_sml.jpg'</img></div></div>","null","FIX","","","","","","","","","","",""
"","","","","63d43dc4b4b7a0e426a381cd","bdp_wmem","Fri Mar 10 2023 12:40:50 GMT-0800 (Pacific Standard Time)","613000","Match,No Match","html-keyboard-response","77","233806","0.0-7.0-2.8","","null","","<div class='trialBorder'><div class='vertical-center'><img style='vertical-align:center; align:center' src='img/fixation2_sml.jpg'></div><div class='arrayDiv2'><div class='tl'><img class='introPic' src='trustrating_stim/white_mw010.bmp'><br><font color='red'><strong>Keep</strong></font></div><div class='tr'><img class='introPic' src='trustrating_stim/white_mw085.bmp'><br><font color='green'><strong>Share</strong></font></div></div></div>","null","ARRAY","2","trustrating_stim/white_mw010.bmp,trustrating_stim/white_mw085.bmp","0,1","Match","e","3000","","","","",""
"","","","","63d43dc4b4b7a0e426a381cd","bdp_wmem","Fri Mar 10 2023 12:40:50 GMT-0800 (Pacific Standard Time)","613000","Match,No Match","html-keyboard-response","78","237808","0.0-7.0-3.8","","null","","<div class='trialBorder'><div class='vertical-center'><img src='img/fixation2_sml.jpg'</img></div></div>","null","DELAY","","","","","","","","","","",""
"","","","","63d43dc4b4b7a0e426a381cd","bdp_wmem","Fri Mar 10 2023 12:40:50 GMT-0800 (Pacific Standard Time)","613000","Match,No Match","html-keyboard-response","79","242522","0.0-7.0-4.8","","4712","","<div class='trialBorder'><div class='targDiv'><div class='tc'><img class='introPic' src='trustrating_stim/white_mw010.bmp'><br><font color='red'><strong>Keep</strong></font></div></div><div class='respDiv'><div class='respDivL'>Match<br>(e)</div><div class='respDivR'>No Match<br>(i)</div></div></div>","i","TARGET","2","trustrating_stim/white_mw010.bmp,trustrating_stim/white_mw085.bmp","0,1","Match","e","3000","trustrating_stim/white_mw010.bmp","red","Keep","REAL","0"
"","","","","63d43dc4b4b7a0e426a381cd","bdp_wmem","Fri Mar 10 2023 12:40:50 GMT-0800 (Pacific Standard Time)","613000","Match,No Match","html-keyboard-response","80","243026","0.0-7.0-5.8","","null","","<div class='trialBorder'><div class='vertical-center'><img src='img/error.jpg'></div><div class='respDiv'><div class='respDivL'>Match<br>(e)</div><div class='respDivR'><font style='color:orange'>No Match<br>(i)</font></div></div></div>","null","FEEDBACK","","","","","","","","","","",""
"","","","","63d43dc4b4b7a0e426a381cd","bdp_wmem","Fri Mar 10 2023 12:40:50 GMT-0800 (Pacific Standard Time)","613000","Match,No Match","html-keyboard-response","81","243528","0.0-7.0-1.9","","null","","<div class='trialBorder'><div class='vertical-center'><img src='img/fixation2_sml.jpg'</img></div></div>","null","FIX","","","","","","","","","","",""
"","","","","63d43dc4b4b7a0e426a381cd","bdp_wmem","Fri Mar 10 2023 12:40:50 GMT-0800 (Pacific Standard Time)","613000","Match,No Match","html-keyboard-response","82","245030","0.0-7.0-2.9","","null","","<div class='trialBorder'><div class='vertical-center'><img style='vertical-align:center; align:center' src='img/fixation2_sml.jpg'></div><div class='arrayDiv1'><div class='tc'><img class='introPic' src='trustrating_stim/white_mw038.bmp'><br><font color='green'><strong>Share</strong></font></div></div></div>","null","ARRAY","1","trustrating_stim/white_mw038.bmp","1","Match","e","1500","","","","",""
"","","","","63d43dc4b4b7a0e426a381cd","bdp_wmem","Fri Mar 10 2023 12:40:50 GMT-0800 (Pacific Standard Time)","613000","Match,No Match","html-keyboard-response","83","249031","0.0-7.0-3.9","","null","","<div class='trialBorder'><div class='vertical-center'><img src='img/fixation2_sml.jpg'</img></div></div>","null","DELAY","","","","","","","","","","",""
"","","","","63d43dc4b4b7a0e426a381cd","bdp_wmem","Fri Mar 10 2023 12:40:50 GMT-0800 (Pacific Standard Time)","613000","Match,No Match","html-keyboard-response","84","249817","0.0-7.0-4.9","","785","","<div class='trialBorder'><div class='targDiv'><div class='tc'><img class='introPic' src='trustrating_stim/white_mw038.bmp'><br><font color='green'><strong>Share</strong></font></div></div><div class='respDiv'><div class='respDivL'>Match<br>(e)</div><div class='respDivR'>No Match<br>(i)</div></div></div>","e","TARGET","1","trustrating_stim/white_mw038.bmp","1","Match","e","1500","trustrating_stim/white_mw038.bmp","green","Share","REAL","1"
"","","","","63d43dc4b4b7a0e426a381cd","bdp_wmem","Fri Mar 10 2023 12:40:50 GMT-0800 (Pacific Standard Time)","613000","Match,No Match","html-keyboard-response","85","250317","0.0-7.0-5.9","","null","","<div class='trialBorder'><div class='vertical-center'><img src='img/correct.jpg'></div><div class='respDiv'><div class='respDivL'><font style='color:orange'>Match<br>(e)</font></div><div class='respDivR'>No Match<br>(i)</div></div></div>","null","FEEDBACK","","","","","","","","","","",""
"","","","","63d43dc4b4b7a0e426a381cd","bdp_wmem","Fri Mar 10 2023 12:40:50 GMT-0800 (Pacific Standard Time)","613000","Match,No Match","html-keyboard-response","86","250820","0.0-7.0-1.10","","null","","<div class='trialBorder'><div class='vertical-center'><img src='img/fixation2_sml.jpg'</img></div></div>","null","FIX","","","","","","","","","","",""
"","","","","63d43dc4b4b7a0e426a381cd","bdp_wmem","Fri Mar 10 2023 12:40:50 GMT-0800 (Pacific Standard Time)","613000","Match,No Match","html-keyboard-response","87","253822","0.0-7.0-2.10","","null","","<div class='trialBorder'><div class='vertical-center'><img style='vertical-align:center; align:center' src='img/fixation2_sml.jpg'></div><div class='arrayDiv2'><div class='tl'><img class='introPic' src='trustrating_stim/white_mw078.bmp'><br><font color='green'><strong>Share</strong></font></div><div class='tr'><img class='introPic' src='trustrating_stim/white_mw092.bmp'><br><font color='red'><strong>Keep</strong></font></div></div></div>","null","ARRAY","2","trustrating_stim/white_mw078.bmp,trustrating_stim/white_mw092.bmp","1,0","noMatchFace","i","3000","","","","",""
"","","","","63d43dc4b4b7a0e426a381cd","bdp_wmem","Fri Mar 10 2023 12:40:50 GMT-0800 (Pacific Standard Time)","613000","Match,No Match","html-keyboard-response","88","257823","0.0-7.0-3.10","","null","","<div class='trialBorder'><div class='vertical-center'><img src='img/fixation2_sml.jpg'</img></div></div>","null","DELAY","","","","","","","","","","",""
"","","","","63d43dc4b4b7a0e426a381cd","bdp_wmem","Fri Mar 10 2023 12:40:50 GMT-0800 (Pacific Standard Time)","613000","Match,No Match","html-keyboard-response","89","258682","0.0-7.0-4.10","","858","","<div class='trialBorder'><div class='targDiv'><div class='tc'><img class='introPic' src='trustrating_stim/white_mw091.bmp'><br><font color='green'><strong>Share</strong></font></div></div><div class='respDiv'><div class='respDivL'>Match<br>(e)</div><div class='respDivR'>No Match<br>(i)</div></div></div>","i","TARGET","2","trustrating_stim/white_mw078.bmp,trustrating_stim/white_mw092.bmp","1,0","noMatchFace","i","3000","trustrating_stim/white_mw091.bmp","green","Share","REAL","1"
"","","","","63d43dc4b4b7a0e426a381cd","bdp_wmem","Fri Mar 10 2023 12:40:50 GMT-0800 (Pacific Standard Time)","613000","Match,No Match","html-keyboard-response","90","259185","0.0-7.0-5.10","","null","","<div class='trialBorder'><div class='vertical-center'><img src='img/correct.jpg'></div><div class='respDiv'><div class='respDivL'>Match<br>(e)</div><div class='respDivR'><font style='color:orange'>No Match<br>(i)</font></div></div></div>","null","FEEDBACK","","","","","","","","","","",""
"","","","","63d43dc4b4b7a0e426a381cd","bdp_wmem","Fri Mar 10 2023 12:40:50 GMT-0800 (Pacific Standard Time)","613000","Match,No Match","html-keyboard-response","91","259686","0.0-7.0-1.11","","null","","<div class='trialBorder'><div class='vertical-center'><img src='img/fixation2_sml.jpg'</img></div></div>","null","FIX","","","","","","","","","","",""
"","","","","63d43dc4b4b7a0e426a381cd","bdp_wmem","Fri Mar 10 2023 12:40:50 GMT-0800 (Pacific Standard Time)","613000","Match,No Match","html-keyboard-response","92","262689","0.0-7.0-2.11","","null","","<div class='trialBorder'><div class='vertical-center'><img style='vertical-align:center; align:center' src='img/fixation2_sml.jpg'></div><div class='arrayDiv2'><div class='tl'><img class='introPic' src='trustrating_stim/white_mw013.bmp'><br><font color='green'><strong>Share</strong></font></div><div class='tr'><img class='introPic' src='trustrating_stim/white_mw012.bmp'><br><font color='red'><strong>Keep</strong></font></div></div></div>","null","ARRAY","2","trustrating_stim/white_mw013.bmp,trustrating_stim/white_mw012.bmp","1,0","noMatchOutcome","i","3000","","","","",""
"","","","","63d43dc4b4b7a0e426a381cd","bdp_wmem","Fri Mar 10 2023 12:40:50 GMT-0800 (Pacific Standard Time)","613000","Match,No Match","html-keyboard-response","93","266690","0.0-7.0-3.11","","null","","<div class='trialBorder'><div class='vertical-center'><img src='img/fixation2_sml.jpg'</img></div></div>","null","DELAY","","","","","","","","","","",""
"","","","","63d43dc4b4b7a0e426a381cd","bdp_wmem","Fri Mar 10 2023 12:40:50 GMT-0800 (Pacific Standard Time)","613000","Match,No Match","html-keyboard-response","94","269176","0.0-7.0-4.11","","2484","","<div class='trialBorder'><div class='targDiv'><div class='tc'><img class='introPic' src='trustrating_stim/white_mw012.bmp'><br><font color='green'><strong>Share</strong></font></div></div><div class='respDiv'><div class='respDivL'>Match<br>(e)</div><div class='respDivR'>No Match<br>(i)</div></div></div>","e","TARGET","2","trustrating_stim/white_mw013.bmp,trustrating_stim/white_mw012.bmp","1,0","noMatchOutcome","i","3000","trustrating_stim/white_mw012.bmp","green","Share","REAL","0"
"","","","","63d43dc4b4b7a0e426a381cd","bdp_wmem","Fri Mar 10 2023 12:40:50 GMT-0800 (Pacific Standard Time)","613000","Match,No Match","html-keyboard-response","95","269676","0.0-7.0-5.11","","null","","<div class='trialBorder'><div class='vertical-center'><img src='img/error.jpg'></div><div class='respDiv'><div class='respDivL'><font style='color:orange'>Match<br>(e)</font></div><div class='respDivR'>No Match<br>(i)</div></div></div>","null","FEEDBACK","","","","","","","","","","",""
"","","","","63d43dc4b4b7a0e426a381cd","bdp_wmem","Fri Mar 10 2023 12:40:50 GMT-0800 (Pacific Standard Time)","613000","Match,No Match","html-keyboard-response","96","270179","0.0-7.0-1.12","","null","","<div class='trialBorder'><div class='vertical-center'><img src='img/fixation2_sml.jpg'</img></div></div>","null","FIX","","","","","","","","","","",""
"","","","","63d43dc4b4b7a0e426a381cd","bdp_wmem","Fri Mar 10 2023 12:40:50 GMT-0800 (Pacific Standard Time)","613000","Match,No Match","html-keyboard-response","97","274681","0.0-7.0-2.12","","null","","<div class='trialBorder'><div class='vertical-center'><img style='vertical-align:center; align:center' src='img/fixation2_sml.jpg'></div><div class='arrayDiv3'><div class='tl'><img class='introPic' src='trustrating_stim/white_mw085.bmp'><br><font color='red'><strong>Keep</strong></font></div><div class='tc'><img class='introPic' src='trustrating_stim/white_mw003.bmp'><br><font color='red'><strong>Keep</strong></font></div><div class='tr'><img class='introPic' src='trustrating_stim/white_mw042.bmp'><br><font color='green'><strong>Share</strong></font></div></div></div>","null","ARRAY","3","trustrating_stim/white_mw085.bmp,trustrating_stim/white_mw003.bmp,trustrating_stim/white_mw042.bmp","0,0,1","noMatchFace","i","4500","","","","",""
"","","","","63d43dc4b4b7a0e426a381cd","bdp_wmem","Fri Mar 10 2023 12:40:50 GMT-0800 (Pacific Standard Time)","613000","Match,No Match","html-keyboard-response","98","278684","0.0-7.0-3.12","","null","","<div class='trialBorder'><div class='vertical-center'><img src='img/fixation2_sml.jpg'</img></div></div>","null","DELAY","","","","","","","","","","",""
"","","","","63d43dc4b4b7a0e426a381cd","bdp_wmem","Fri Mar 10 2023 12:40:50 GMT-0800 (Pacific Standard Time)","613000","Match,No Match","html-keyboard-response","99","279698","0.0-7.0-4.12","","1011","","<div class='trialBorder'><div class='targDiv'><div class='tc'><img class='introPic' src='trustrating_stim/white_mw092.bmp'><br><font color='green'><strong>Share</strong></font></div></div><div class='respDiv'><div class='respDivL'>Match<br>(e)</div><div class='respDivR'>No Match<br>(i)</div></div></div>","i","TARGET","3","trustrating_stim/white_mw085.bmp,trustrating_stim/white_mw003.bmp,trustrating_stim/white_mw042.bmp","0,0,1","noMatchFace","i","4500","trustrating_stim/white_mw092.bmp","green","Share","REAL","1"
"","","","","63d43dc4b4b7a0e426a381cd","bdp_wmem","Fri Mar 10 2023 12:40:50 GMT-0800 (Pacific Standard Time)","613000","Match,No Match","html-keyboard-response","100","280201","0.0-7.0-5.12","","null","","<div class='trialBorder'><div class='vertical-center'><img src='img/correct.jpg'></div><div class='respDiv'><div class='respDivL'>Match<br>(e)</div><div class='respDivR'><font style='color:orange'>No Match<br>(i)</font></div></div></div>","null","FEEDBACK","","","","","","","","","","",""
"","","","","63d43dc4b4b7a0e426a381cd","bdp_wmem","Fri Mar 10 2023 12:40:50 GMT-0800 (Pacific Standard Time)","613000","Match,No Match","html-keyboard-response","101","280703","0.0-7.0-1.13","","null","","<div class='trialBorder'><div class='vertical-center'><img src='img/fixation2_sml.jpg'</img></div></div>","null","FIX","","","","","","","","","","",""
"","","","","63d43dc4b4b7a0e426a381cd","bdp_wmem","Fri Mar 10 2023 12:40:50 GMT-0800 (Pacific Standard Time)","613000","Match,No Match","html-keyboard-response","102","285206","0.0-7.0-2.13","","null","","<div class='trialBorder'><div class='vertical-center'><img style='vertical-align:center; align:center' src='img/fixation2_sml.jpg'></div><div class='arrayDiv3'><div class='tl'><img class='introPic' src='trustrating_stim/white_mw091.bmp'><br><font color='red'><strong>Keep</strong></font></div><div class='tc'><img class='introPic' src='trustrating_stim/white_mw038.bmp'><br><font color='red'><strong>Keep</strong></font></div><div class='tr'><img class='introPic' src='trustrating_stim/white_mw042.bmp'><br><font color='green'><strong>Share</strong></font></div></div></div>","null","ARRAY","3","trustrating_stim/white_mw091.bmp,trustrating_stim/white_mw038.bmp,trustrating_stim/white_mw042.bmp","0,0,1","Match","e","4500","","","","",""
"","","","","63d43dc4b4b7a0e426a381cd","bdp_wmem","Fri Mar 10 2023 12:40:50 GMT-0800 (Pacific Standard Time)","613000","Match,No Match","html-keyboard-response","103","289207","0.0-7.0-3.13","","null","","<div class='trialBorder'><div class='vertical-center'><img src='img/fixation2_sml.jpg'</img></div></div>","null","DELAY","","","","","","","","","","",""
"","","","","63d43dc4b4b7a0e426a381cd","bdp_wmem","Fri Mar 10 2023 12:40:50 GMT-0800 (Pacific Standard Time)","613000","Match,No Match","html-keyboard-response","104","291480","0.0-7.0-4.13","","2271","","<div class='trialBorder'><div class='targDiv'><div class='tc'><img class='introPic' src='trustrating_stim/white_mw091.bmp'><br><font color='red'><strong>Keep</strong></font></div></div><div class='respDiv'><div class='respDivL'>Match<br>(e)</div><div class='respDivR'>No Match<br>(i)</div></div></div>","e","TARGET","3","trustrating_stim/white_mw091.bmp,trustrating_stim/white_mw038.bmp,trustrating_stim/white_mw042.bmp","0,0,1","Match","e","4500","trustrating_stim/white_mw091.bmp","red","Keep","REAL","1"
"","","","","63d43dc4b4b7a0e426a381cd","bdp_wmem","Fri Mar 10 2023 12:40:50 GMT-0800 (Pacific Standard Time)","613000","Match,No Match","html-keyboard-response","105","291982","0.0-7.0-5.13","","null","","<div class='trialBorder'><div class='vertical-center'><img src='img/correct.jpg'></div><div class='respDiv'><div class='respDivL'><font style='color:orange'>Match<br>(e)</font></div><div class='respDivR'>No Match<br>(i)</div></div></div>","null","FEEDBACK","","","","","","","","","","",""
"","","","","63d43dc4b4b7a0e426a381cd","bdp_wmem","Fri Mar 10 2023 12:40:50 GMT-0800 (Pacific Standard Time)","613000","Match,No Match","html-keyboard-response","106","292485","0.0-7.0-1.14","","null","","<div class='trialBorder'><div class='vertical-center'><img src='img/fixation2_sml.jpg'</img></div></div>","null","FIX","","","","","","","","","","",""
"","","","","63d43dc4b4b7a0e426a381cd","bdp_wmem","Fri Mar 10 2023 12:40:50 GMT-0800 (Pacific Standard Time)","613000","Match,No Match","html-keyboard-response","107","296986","0.0-7.0-2.14","","null","","<div class='trialBorder'><div class='vertical-center'><img style='vertical-align:center; align:center' src='img/fixation2_sml.jpg'></div><div class='arrayDiv3'><div class='tl'><img class='introPic' src='trustrating_stim/white_mw070.bmp'><br><font color='red'><strong>Keep</strong></font></div><div class='tc'><img class='introPic' src='trustrating_stim/white_mw040.bmp'><br><font color='green'><strong>Share</strong></font></div><div class='tr'><img class='introPic' src='trustrating_stim/white_mw012.bmp'><br><font color='green'><strong>Share</strong></font></div></div></div>","null","ARRAY","3","trustrating_stim/white_mw070.bmp,trustrating_stim/white_mw040.bmp,trustrating_stim/white_mw012.bmp","0,1,1","Match","e","4500","","","","",""
"","","","","63d43dc4b4b7a0e426a381cd","bdp_wmem","Fri Mar 10 2023 12:40:50 GMT-0800 (Pacific Standard Time)","613000","Match,No Match","html-keyboard-response","108","300989","0.0-7.0-3.14","","null","","<div class='trialBorder'><div class='vertical-center'><img src='img/fixation2_sml.jpg'</img></div></div>","null","DELAY","","","","","","","","","","",""
"","","","","63d43dc4b4b7a0e426a381cd","bdp_wmem","Fri Mar 10 2023 12:40:50 GMT-0800 (Pacific Standard Time)","613000","Match,No Match","html-keyboard-response","109","303069","0.0-7.0-4.14","","2079","","<div class='trialBorder'><div class='targDiv'><div class='tc'><img class='introPic' src='trustrating_stim/white_mw012.bmp'><br><font color='green'><strong>Share</strong></font></div></div><div class='respDiv'><div class='respDivL'>Match<br>(e)</div><div class='respDivR'>No Match<br>(i)</div></div></div>","e","TARGET","3","trustrating_stim/white_mw070.bmp,trustrating_stim/white_mw040.bmp,trustrating_stim/white_mw012.bmp","0,1,1","Match","e","4500","trustrating_stim/white_mw012.bmp","green","Share","REAL","1"
"","","","","63d43dc4b4b7a0e426a381cd","bdp_wmem","Fri Mar 10 2023 12:40:50 GMT-0800 (Pacific Standard Time)","613000","Match,No Match","html-keyboard-response","110","303572","0.0-7.0-5.14","","null","","<div class='trialBorder'><div class='vertical-center'><img src='img/correct.jpg'></div><div class='respDiv'><div class='respDivL'><font style='color:orange'>Match<br>(e)</font></div><div class='respDivR'>No Match<br>(i)</div></div></div>","null","FEEDBACK","","","","","","","","","","",""
"","","","","63d43dc4b4b7a0e426a381cd","bdp_wmem","Fri Mar 10 2023 12:40:50 GMT-0800 (Pacific Standard Time)","613000","Match,No Match","html-keyboard-response","111","304073","0.0-7.0-1.15","","null","","<div class='trialBorder'><div class='vertical-center'><img src='img/fixation2_sml.jpg'</img></div></div>","null","FIX","","","","","","","","","","",""
"","","","","63d43dc4b4b7a0e426a381cd","bdp_wmem","Fri Mar 10 2023 12:40:50 GMT-0800 (Pacific Standard Time)","613000","Match,No Match","html-keyboard-response","112","305575","0.0-7.0-2.15","","null","","<div class='trialBorder'><div class='vertical-center'><img style='vertical-align:center; align:center' src='img/fixation2_sml.jpg'></div><div class='arrayDiv1'><div class='tc'><img class='introPic' src='trustrating_stim/white_mw010.bmp'><br><font color='green'><strong>Share</strong></font></div></div></div>","null","ARRAY","1","trustrating_stim/white_mw010.bmp","1","Match","e","1500","","","","",""
"","","","","63d43dc4b4b7a0e426a381cd","bdp_wmem","Fri Mar 10 2023 12:40:50 GMT-0800 (Pacific Standard Time)","613000","Match,No Match","html-keyboard-response","113","309577","0.0-7.0-3.15","","null","","<div class='trialBorder'><div class='vertical-center'><img src='img/fixation2_sml.jpg'</img></div></div>","null","DELAY","","","","","","","","","","",""
"","","","","63d43dc4b4b7a0e426a381cd","bdp_wmem","Fri Mar 10 2023 12:40:50 GMT-0800 (Pacific Standard Time)","613000","Match,No Match","html-keyboard-response","114","310921","0.0-7.0-4.15","","1341","","<div class='trialBorder'><div class='targDiv'><div class='tc'><img class='introPic' src='trustrating_stim/white_mw010.bmp'><br><font color='green'><strong>Share</strong></font></div></div><div class='respDiv'><div class='respDivL'>Match<br>(e)</div><div class='respDivR'>No Match<br>(i)</div></div></div>","e","TARGET","1","trustrating_stim/white_mw010.bmp","1","Match","e","1500","trustrating_stim/white_mw010.bmp","green","Share","REAL","1"
"","","","","63d43dc4b4b7a0e426a381cd","bdp_wmem","Fri Mar 10 2023 12:40:50 GMT-0800 (Pacific Standard Time)","613000","Match,No Match","html-keyboard-response","115","311422","0.0-7.0-5.15","","null","","<div class='trialBorder'><div class='vertical-center'><img src='img/correct.jpg'></div><div class='respDiv'><div class='respDivL'><font style='color:orange'>Match<br>(e)</font></div><div class='respDivR'>No Match<br>(i)</div></div></div>","null","FEEDBACK","","","","","","","","","","",""
"","","","","63d43dc4b4b7a0e426a381cd","bdp_wmem","Fri Mar 10 2023 12:40:50 GMT-0800 (Pacific Standard Time)","613000","Match,No Match","html-keyboard-response","116","311923","0.0-7.0-1.16","","null","","<div class='trialBorder'><div class='vertical-center'><img src='img/fixation2_sml.jpg'</img></div></div>","null","FIX","","","","","","","","","","",""
"","","","","63d43dc4b4b7a0e426a381cd","bdp_wmem","Fri Mar 10 2023 12:40:50 GMT-0800 (Pacific Standard Time)","613000","Match,No Match","html-keyboard-response","117","314926","0.0-7.0-2.16","","null","","<div class='trialBorder'><div class='vertical-center'><img style='vertical-align:center; align:center' src='img/fixation2_sml.jpg'></div><div class='arrayDiv2'><div class='tl'><img class='introPic' src='trustrating_stim/white_mw010.bmp'><br><font color='red'><strong>Keep</strong></font></div><div class='tr'><img class='introPic' src='trustrating_stim/white_mw070.bmp'><br><font color='green'><strong>Share</strong></font></div></div></div>","null","ARRAY","2","trustrating_stim/white_mw010.bmp,trustrating_stim/white_mw070.bmp","0,1","Match","e","3000","","","","",""
"","","","","63d43dc4b4b7a0e426a381cd","bdp_wmem","Fri Mar 10 2023 12:40:50 GMT-0800 (Pacific Standard Time)","613000","Match,No Match","html-keyboard-response","118","318928","0.0-7.0-3.16","","null","","<div class='trialBorder'><div class='vertical-center'><img src='img/fixation2_sml.jpg'</img></div></div>","null","DELAY","","","","","","","","","","",""
"","","","","63d43dc4b4b7a0e426a381cd","bdp_wmem","Fri Mar 10 2023 12:40:50 GMT-0800 (Pacific Standard Time)","613000","Match,No Match","html-keyboard-response","119","320575","0.0-7.0-4.16","","1645","","<div class='trialBorder'><div class='targDiv'><div class='tc'><img class='introPic' src='trustrating_stim/white_mw070.bmp'><br><font color='green'><strong>Share</strong></font></div></div><div class='respDiv'><div class='respDivL'>Match<br>(e)</div><div class='respDivR'>No Match<br>(i)</div></div></div>","e","TARGET","2","trustrating_stim/white_mw010.bmp,trustrating_stim/white_mw070.bmp","0,1","Match","e","3000","trustrating_stim/white_mw070.bmp","green","Share","REAL","1"
"","","","","63d43dc4b4b7a0e426a381cd","bdp_wmem","Fri Mar 10 2023 12:40:50 GMT-0800 (Pacific Standard Time)","613000","Match,No Match","html-keyboard-response","120","321076","0.0-7.0-5.16","","null","","<div class='trialBorder'><div class='vertical-center'><img src='img/correct.jpg'></div><div class='respDiv'><div class='respDivL'><font style='color:orange'>Match<br>(e)</font></div><div class='respDivR'>No Match<br>(i)</div></div></div>","null","FEEDBACK","","","","","","","","","","",""
"","","","","63d43dc4b4b7a0e426a381cd","bdp_wmem","Fri Mar 10 2023 12:40:50 GMT-0800 (Pacific Standard Time)","613000","Match,No Match","html-keyboard-response","121","321577","0.0-7.0-1.17","","null","","<div class='trialBorder'><div class='vertical-center'><img src='img/fixation2_sml.jpg'</img></div></div>","null","FIX","","","","","","","","","","",""
"","","","","63d43dc4b4b7a0e426a381cd","bdp_wmem","Fri Mar 10 2023 12:40:50 GMT-0800 (Pacific Standard Time)","613000","Match,No Match","html-keyboard-response","122","324579","0.0-7.0-2.17","","null","","<div class='trialBorder'><div class='vertical-center'><img style='vertical-align:center; align:center' src='img/fixation2_sml.jpg'></div><div class='arrayDiv2'><div class='tl'><img class='introPic' src='trustrating_stim/white_mw040.bmp'><br><font color='green'><strong>Share</strong></font></div><div class='tr'><img class='introPic' src='trustrating_stim/white_mw092.bmp'><br><font color='red'><strong>Keep</strong></font></div></div></div>","null","ARRAY","2","trustrating_stim/white_mw040.bmp,trustrating_stim/white_mw092.bmp","1,0","Match","e","3000","","","","",""
"","","","","63d43dc4b4b7a0e426a381cd","bdp_wmem","Fri Mar 10 2023 12:40:50 GMT-0800 (Pacific Standard Time)","613000","Match,No Match","html-keyboard-response","123","328581","0.0-7.0-3.17","","null","","<div class='trialBorder'><div class='vertical-center'><img src='img/fixation2_sml.jpg'</img></div></div>","null","DELAY","","","","","","","","","","",""
"","","","","63d43dc4b4b7a0e426a381cd","bdp_wmem","Fri Mar 10 2023 12:40:50 GMT-0800 (Pacific Standard Time)","613000","Match,No Match","html-keyboard-response","124","329979","0.0-7.0-4.17","","1396","","<div class='trialBorder'><div class='targDiv'><div class='tc'><img class='introPic' src='trustrating_stim/white_mw040.bmp'><br><font color='green'><strong>Share</strong></font></div></div><div class='respDiv'><div class='respDivL'>Match<br>(e)</div><div class='respDivR'>No Match<br>(i)</div></div></div>","e","TARGET","2","trustrating_stim/white_mw040.bmp,trustrating_stim/white_mw092.bmp","1,0","Match","e","3000","trustrating_stim/white_mw040.bmp","green","Share","REAL","1"
"","","","","63d43dc4b4b7a0e426a381cd","bdp_wmem","Fri Mar 10 2023 12:40:50 GMT-0800 (Pacific Standard Time)","613000","Match,No Match","html-keyboard-response","125","330481","0.0-7.0-5.17","","null","","<div class='trialBorder'><div class='vertical-center'><img src='img/correct.jpg'></div><div class='respDiv'><div class='respDivL'><font style='color:orange'>Match<br>(e)</font></div><div class='respDivR'>No Match<br>(i)</div></div></div>","null","FEEDBACK","","","","","","","","","","",""
"","","","","63d43dc4b4b7a0e426a381cd","bdp_wmem","Fri Mar 10 2023 12:40:50 GMT-0800 (Pacific Standard Time)","613000","Match,No Match","html-keyboard-response","126","330983","0.0-7.0-1.18","","null","","<div class='trialBorder'><div class='vertical-center'><img src='img/fixation2_sml.jpg'</img></div></div>","null","FIX","","","","","","","","","","",""
"","","","","63d43dc4b4b7a0e426a381cd","bdp_wmem","Fri Mar 10 2023 12:40:50 GMT-0800 (Pacific Standard Time)","613000","Match,No Match","html-keyboard-response","127","332484","0.0-7.0-2.18","","null","","<div class='trialBorder'><div class='vertical-center'><img style='vertical-align:center; align:center' src='img/fixation2_sml.jpg'></div><div class='arrayDiv1'><div class='tc'><img class='introPic' src='trustrating_stim/white_mw091.bmp'><br><font color='red'><strong>Keep</strong></font></div></div></div>","null","ARRAY","1","trustrating_stim/white_mw091.bmp","0","noMatchOutcome","i","1500","","","","",""
"","","","","63d43dc4b4b7a0e426a381cd","bdp_wmem","Fri Mar 10 2023 12:40:50 GMT-0800 (Pacific Standard Time)","613000","Match,No Match","html-keyboard-response","128","336485","0.0-7.0-3.18","","null","","<div class='trialBorder'><div class='vertical-center'><img src='img/fixation2_sml.jpg'</img></div></div>","null","DELAY","","","","","","","","","","",""
"","","","","63d43dc4b4b7a0e426a381cd","bdp_wmem","Fri Mar 10 2023 12:40:50 GMT-0800 (Pacific Standard Time)","613000","Match,No Match","html-keyboard-response","129","338114","0.0-7.0-4.18","","1628","","<div class='trialBorder'><div class='targDiv'><div class='tc'><img class='introPic' src='trustrating_stim/white_mw091.bmp'><br><font color='green'><strong>Share</strong></font></div></div><div class='respDiv'><div class='respDivL'>Match<br>(e)</div><div class='respDivR'>No Match<br>(i)</div></div></div>","i","TARGET","1","trustrating_stim/white_mw091.bmp","0","noMatchOutcome","i","1500","trustrating_stim/white_mw091.bmp","green","Share","REAL","1"
"","","","","63d43dc4b4b7a0e426a381cd","bdp_wmem","Fri Mar 10 2023 12:40:50 GMT-0800 (Pacific Standard Time)","613000","Match,No Match","html-keyboard-response","130","338616","0.0-7.0-5.18","","null","","<div class='trialBorder'><div class='vertical-center'><img src='img/correct.jpg'></div><div class='respDiv'><div class='respDivL'>Match<br>(e)</div><div class='respDivR'><font style='color:orange'>No Match<br>(i)</font></div></div></div>","null","FEEDBACK","","","","","","","","","","",""
"","","","","63d43dc4b4b7a0e426a381cd","bdp_wmem","Fri Mar 10 2023 12:40:50 GMT-0800 (Pacific Standard Time)","613000","Match,No Match","html-keyboard-response","131","339119","0.0-7.0-1.19","","null","","<div class='trialBorder'><div class='vertical-center'><img src='img/fixation2_sml.jpg'</img></div></div>","null","FIX","","","","","","","","","","",""
"","","","","63d43dc4b4b7a0e426a381cd","bdp_wmem","Fri Mar 10 2023 12:40:50 GMT-0800 (Pacific Standard Time)","613000","Match,No Match","html-keyboard-response","132","340621","0.0-7.0-2.19","","null","","<div class='trialBorder'><div class='vertical-center'><img style='vertical-align:center; align:center' src='img/fixation2_sml.jpg'></div><div class='arrayDiv1'><div class='tc'><img class='introPic' src='trustrating_stim/white_mw091.bmp'><br><font color='green'><strong>Share</strong></font></div></div></div>","null","ARRAY","1","trustrating_stim/white_mw091.bmp","1","noMatchFace","i","1500","","","","",""
"","","","","63d43dc4b4b7a0e426a381cd","bdp_wmem","Fri Mar 10 2023 12:40:50 GMT-0800 (Pacific Standard Time)","613000","Match,No Match","html-keyboard-response","133","344623","0.0-7.0-3.19","","null","","<div class='trialBorder'><div class='vertical-center'><img src='img/fixation2_sml.jpg'</img></div></div>","null","DELAY","","","","","","","","","","",""
"","","","","63d43dc4b4b7a0e426a381cd","bdp_wmem","Fri Mar 10 2023 12:40:50 GMT-0800 (Pacific Standard Time)","613000","Match,No Match","html-keyboard-response","134","345241","0.0-7.0-4.19","","617","","<div class='trialBorder'><div class='targDiv'><div class='tc'><img class='introPic' src='trustrating_stim/white_mw012.bmp'><br><font color='green'><strong>Share</strong></font></div></div><div class='respDiv'><div class='respDivL'>Match<br>(e)</div><div class='respDivR'>No Match<br>(i)</div></div></div>","i","TARGET","1","trustrating_stim/white_mw091.bmp","1","noMatchFace","i","1500","trustrating_stim/white_mw012.bmp","green","Share","REAL","1"
"","","","","63d43dc4b4b7a0e426a381cd","bdp_wmem","Fri Mar 10 2023 12:40:50 GMT-0800 (Pacific Standard Time)","613000","Match,No Match","html-keyboard-response","135","345744","0.0-7.0-5.19","","null","","<div class='trialBorder'><div class='vertical-center'><img src='img/correct.jpg'></div><div class='respDiv'><div class='respDivL'>Match<br>(e)</div><div class='respDivR'><font style='color:orange'>No Match<br>(i)</font></div></div></div>","null","FEEDBACK","","","","","","","","","","",""
"","","","","63d43dc4b4b7a0e426a381cd","bdp_wmem","Fri Mar 10 2023 12:40:50 GMT-0800 (Pacific Standard Time)","613000","Match,No Match","html-keyboard-response","136","346245","0.0-7.0-1.20","","null","","<div class='trialBorder'><div class='vertical-center'><img src='img/fixation2_sml.jpg'</img></div></div>","null","FIX","","","","","","","","","","",""
"","","","","63d43dc4b4b7a0e426a381cd","bdp_wmem","Fri Mar 10 2023 12:40:50 GMT-0800 (Pacific Standard Time)","613000","Match,No Match","html-keyboard-response","137","349248","0.0-7.0-2.20","","null","","<div class='trialBorder'><div class='vertical-center'><img style='vertical-align:center; align:center' src='img/fixation2_sml.jpg'></div><div class='arrayDiv2'><div class='tl'><img class='introPic' src='trustrating_stim/white_mw003.bmp'><br><font color='green'><strong>Share</strong></font></div><div class='tr'><img class='introPic' src='trustrating_stim/white_mw078.bmp'><br><font color='red'><strong>Keep</strong></font></div></div></div>","null","ARRAY","2","trustrating_stim/white_mw003.bmp,trustrating_stim/white_mw078.bmp","1,0","Match","e","3000","","","","",""
"","","","","63d43dc4b4b7a0e426a381cd","bdp_wmem","Fri Mar 10 2023 12:40:50 GMT-0800 (Pacific Standard Time)","613000","Match,No Match","html-keyboard-response","138","353249","0.0-7.0-3.20","","null","","<div class='trialBorder'><div class='vertical-center'><img src='img/fixation2_sml.jpg'</img></div></div>","null","DELAY","","","","","","","","","","",""
"","","","","63d43dc4b4b7a0e426a381cd","bdp_wmem","Fri Mar 10 2023 12:40:50 GMT-0800 (Pacific Standard Time)","613000","Match,No Match","html-keyboard-response","139","356548","0.0-7.0-4.20","","3298","","<div class='trialBorder'><div class='targDiv'><div class='tc'><img class='introPic' src='trustrating_stim/white_mw078.bmp'><br><font color='red'><strong>Keep</strong></font></div></div><div class='respDiv'><div class='respDivL'>Match<br>(e)</div><div class='respDivR'>No Match<br>(i)</div></div></div>","e","TARGET","2","trustrating_stim/white_mw003.bmp,trustrating_stim/white_mw078.bmp","1,0","Match","e","3000","trustrating_stim/white_mw078.bmp","red","Keep","REAL","1"
"","","","","63d43dc4b4b7a0e426a381cd","bdp_wmem","Fri Mar 10 2023 12:40:50 GMT-0800 (Pacific Standard Time)","613000","Match,No Match","html-keyboard-response","140","357052","0.0-7.0-5.20","","null","","<div class='trialBorder'><div class='vertical-center'><img src='img/correct.jpg'></div><div class='respDiv'><div class='respDivL'><font style='color:orange'>Match<br>(e)</font></div><div class='respDivR'>No Match<br>(i)</div></div></div>","null","FEEDBACK","","","","","","","","","","",""
"","","","","63d43dc4b4b7a0e426a381cd","bdp_wmem","Fri Mar 10 2023 12:40:50 GMT-0800 (Pacific Standard Time)","613000","Match,No Match","html-keyboard-response","141","357554","0.0-7.0-1.21","","null","","<div class='trialBorder'><div class='vertical-center'><img src='img/fixation2_sml.jpg'</img></div></div>","null","FIX","","","","","","","","","","",""
"","","","","63d43dc4b4b7a0e426a381cd","bdp_wmem","Fri Mar 10 2023 12:40:50 GMT-0800 (Pacific Standard Time)","613000","Match,No Match","html-keyboard-response","142","360557","0.0-7.0-2.21","","null","","<div class='trialBorder'><div class='vertical-center'><img style='vertical-align:center; align:center' src='img/fixation2_sml.jpg'></div><div class='arrayDiv2'><div class='tl'><img class='introPic' src='trustrating_stim/white_mw013.bmp'><br><font color='green'><strong>Share</strong></font></div><div class='tr'><img class='introPic' src='trustrating_stim/white_mw042.bmp'><br><font color='red'><strong>Keep</strong></font></div></div></div>","null","ARRAY","2","trustrating_stim/white_mw013.bmp,trustrating_stim/white_mw042.bmp","1,0","noMatchFace","i","3000","","","","",""
"","","","","63d43dc4b4b7a0e426a381cd","bdp_wmem","Fri Mar 10 2023 12:40:50 GMT-0800 (Pacific Standard Time)","613000","Match,No Match","html-keyboard-response","143","364559","0.0-7.0-3.21","","null","","<div class='trialBorder'><div class='vertical-center'><img src='img/fixation2_sml.jpg'</img></div></div>","null","DELAY","","","","","","","","","","",""
"","","","","63d43dc4b4b7a0e426a381cd","bdp_wmem","Fri Mar 10 2023 12:40:50 GMT-0800 (Pacific Standard Time)","613000","Match,No Match","html-keyboard-response","144","365559","0.0-7.0-4.21","","998","","<div class='trialBorder'><div class='targDiv'><div class='tc'><img class='introPic' src='trustrating_stim/white_mw010.bmp'><br><font color='green'><strong>Share</strong></font></div></div><div class='respDiv'><div class='respDivL'>Match<br>(e)</div><div class='respDivR'>No Match<br>(i)</div></div></div>","i","TARGET","2","trustrating_stim/white_mw013.bmp,trustrating_stim/white_mw042.bmp","1,0","noMatchFace","i","3000","trustrating_stim/white_mw010.bmp","green","Share","REAL","1"
"","","","","63d43dc4b4b7a0e426a381cd","bdp_wmem","Fri Mar 10 2023 12:40:50 GMT-0800 (Pacific Standard Time)","613000","Match,No Match","html-keyboard-response","145","366059","0.0-7.0-5.21","","null","","<div class='trialBorder'><div class='vertical-center'><img src='img/correct.jpg'></div><div class='respDiv'><div class='respDivL'>Match<br>(e)</div><div class='respDivR'><font style='color:orange'>No Match<br>(i)</font></div></div></div>","null","FEEDBACK","","","","","","","","","","",""
"","","","","63d43dc4b4b7a0e426a381cd","bdp_wmem","Fri Mar 10 2023 12:40:50 GMT-0800 (Pacific Standard Time)","613000","Match,No Match","html-keyboard-response","146","366563","0.0-7.0-1.22","","null","","<div class='trialBorder'><div class='vertical-center'><img src='img/fixation2_sml.jpg'</img></div></div>","null","FIX","","","","","","","","","","",""
"","","","","63d43dc4b4b7a0e426a381cd","bdp_wmem","Fri Mar 10 2023 12:40:50 GMT-0800 (Pacific Standard Time)","613000","Match,No Match","html-keyboard-response","147","369564","0.0-7.0-2.22","","null","","<div class='trialBorder'><div class='vertical-center'><img style='vertical-align:center; align:center' src='img/fixation2_sml.jpg'></div><div class='arrayDiv2'><div class='tl'><img class='introPic' src='trustrating_stim/white_mw070.bmp'><br><font color='green'><strong>Share</strong></font></div><div class='tr'><img class='introPic' src='trustrating_stim/white_mw040.bmp'><br><font color='red'><strong>Keep</strong></font></div></div></div>","null","ARRAY","2","trustrating_stim/white_mw070.bmp,trustrating_stim/white_mw040.bmp","1,0","noMatchFace","i","3000","","","","",""
"","","","","63d43dc4b4b7a0e426a381cd","bdp_wmem","Fri Mar 10 2023 12:40:50 GMT-0800 (Pacific Standard Time)","613000","Match,No Match","html-keyboard-response","148","373564","0.0-7.0-3.22","","null","","<div class='trialBorder'><div class='vertical-center'><img src='img/fixation2_sml.jpg'</img></div></div>","null","DELAY","","","","","","","","","","",""
"","","","","63d43dc4b4b7a0e426a381cd","bdp_wmem","Fri Mar 10 2023 12:40:50 GMT-0800 (Pacific Standard Time)","613000","Match,No Match","html-keyboard-response","149","375810","0.0-7.0-4.22","","2245","","<div class='trialBorder'><div class='targDiv'><div class='tc'><img class='introPic' src='trustrating_stim/white_mw010.bmp'><br><font color='green'><strong>Share</strong></font></div></div><div class='respDiv'><div class='respDivL'>Match<br>(e)</div><div class='respDivR'>No Match<br>(i)</div></div></div>","i","TARGET","2","trustrating_stim/white_mw070.bmp,trustrating_stim/white_mw040.bmp","1,0","noMatchFace","i","3000","trustrating_stim/white_mw010.bmp","green","Share","REAL","1"
"","","","","63d43dc4b4b7a0e426a381cd","bdp_wmem","Fri Mar 10 2023 12:40:50 GMT-0800 (Pacific Standard Time)","613000","Match,No Match","html-keyboard-response","150","376312","0.0-7.0-5.22","","null","","<div class='trialBorder'><div class='vertical-center'><img src='img/correct.jpg'></div><div class='respDiv'><div class='respDivL'>Match<br>(e)</div><div class='respDivR'><font style='color:orange'>No Match<br>(i)</font></div></div></div>","null","FEEDBACK","","","","","","","","","","",""
"","","","","63d43dc4b4b7a0e426a381cd","bdp_wmem","Fri Mar 10 2023 12:40:50 GMT-0800 (Pacific Standard Time)","613000","Match,No Match","html-keyboard-response","151","376813","0.0-7.0-1.23","","null","","<div class='trialBorder'><div class='vertical-center'><img src='img/fixation2_sml.jpg'</img></div></div>","null","FIX","","","","","","","","","","",""
"","","","","63d43dc4b4b7a0e426a381cd","bdp_wmem","Fri Mar 10 2023 12:40:50 GMT-0800 (Pacific Standard Time)","613000","Match,No Match","html-keyboard-response","152","379817","0.0-7.0-2.23","","null","","<div class='trialBorder'><div class='vertical-center'><img style='vertical-align:center; align:center' src='img/fixation2_sml.jpg'></div><div class='arrayDiv2'><div class='tl'><img class='introPic' src='trustrating_stim/white_mw070.bmp'><br><font color='green'><strong>Share</strong></font></div><div class='tr'><img class='introPic' src='trustrating_stim/white_mw012.bmp'><br><font color='red'><strong>Keep</strong></font></div></div></div>","null","ARRAY","2","trustrating_stim/white_mw070.bmp,trustrating_stim/white_mw012.bmp","1,0","noMatchFace","i","3000","","","","",""
"","","","","63d43dc4b4b7a0e426a381cd","bdp_wmem","Fri Mar 10 2023 12:40:50 GMT-0800 (Pacific Standard Time)","613000","Match,No Match","html-keyboard-response","153","383819","0.0-7.0-3.23","","null","","<div class='trialBorder'><div class='vertical-center'><img src='img/fixation2_sml.jpg'</img></div></div>","null","DELAY","","","","","","","","","","",""
"","","","","63d43dc4b4b7a0e426a381cd","bdp_wmem","Fri Mar 10 2023 12:40:50 GMT-0800 (Pacific Standard Time)","613000","Match,No Match","html-keyboard-response","154","385211","0.0-7.0-4.23","","1391","","<div class='trialBorder'><div class='targDiv'><div class='tc'><img class='introPic' src='trustrating_stim/white_mw040.bmp'><br><font color='green'><strong>Share</strong></font></div></div><div class='respDiv'><div class='respDivL'>Match<br>(e)</div><div class='respDivR'>No Match<br>(i)</div></div></div>","i","TARGET","2","trustrating_stim/white_mw070.bmp,trustrating_stim/white_mw012.bmp","1,0","noMatchFace","i","3000","trustrating_stim/white_mw040.bmp","green","Share","REAL","1"
"","","","","63d43dc4b4b7a0e426a381cd","bdp_wmem","Fri Mar 10 2023 12:40:50 GMT-0800 (Pacific Standard Time)","613000","Match,No Match","html-keyboard-response","155","385713","0.0-7.0-5.23","","null","","<div class='trialBorder'><div class='vertical-center'><img src='img/correct.jpg'></div><div class='respDiv'><div class='respDivL'>Match<br>(e)</div><div class='respDivR'><font style='color:orange'>No Match<br>(i)</font></div></div></div>","null","FEEDBACK","","","","","","","","","","",""
"","","","","63d43dc4b4b7a0e426a381cd","bdp_wmem","Fri Mar 10 2023 12:40:50 GMT-0800 (Pacific Standard Time)","613000","Match,No Match","html-keyboard-response","156","386215","0.0-7.0-1.24","","null","","<div class='trialBorder'><div class='vertical-center'><img src='img/fixation2_sml.jpg'</img></div></div>","null","FIX","","","","","","","","","","",""
"","","","","63d43dc4b4b7a0e426a381cd","bdp_wmem","Fri Mar 10 2023 12:40:50 GMT-0800 (Pacific Standard Time)","613000","Match,No Match","html-keyboard-response","157","390717","0.0-7.0-2.24","","null","","<div class='trialBorder'><div class='vertical-center'><img style='vertical-align:center; align:center' src='img/fixation2_sml.jpg'></div><div class='arrayDiv3'><div class='tl'><img class='introPic' src='trustrating_stim/white_mw042.bmp'><br><font color='green'><strong>Share</strong></font></div><div class='tc'><img class='introPic' src='trustrating_stim/white_mw010.bmp'><br><font color='green'><strong>Share</strong></font></div><div class='tr'><img class='introPic' src='trustrating_stim/white_mw038.bmp'><br><font color='red'><strong>Keep</strong></font></div></div></div>","null","ARRAY","3","trustrating_stim/white_mw042.bmp,trustrating_stim/white_mw010.bmp,trustrating_stim/white_mw038.bmp","1,1,0","Match","e","4500","","","","",""
"","","","","63d43dc4b4b7a0e426a381cd","bdp_wmem","Fri Mar 10 2023 12:40:50 GMT-0800 (Pacific Standard Time)","613000","Match,No Match","html-keyboard-response","158","394720","0.0-7.0-3.24","","null","","<div class='trialBorder'><div class='vertical-center'><img src='img/fixation2_sml.jpg'</img></div></div>","null","DELAY","","","","","","","","","","",""
"","","","","63d43dc4b4b7a0e426a381cd","bdp_wmem","Fri Mar 10 2023 12:40:50 GMT-0800 (Pacific Standard Time)","613000","Match,No Match","html-keyboard-response","159","396606","0.0-7.0-4.24","","1885","","<div class='trialBorder'><div class='targDiv'><div class='tc'><img class='introPic' src='trustrating_stim/white_mw010.bmp'><br><font color='green'><strong>Share</strong></font></div></div><div class='respDiv'><div class='respDivL'>Match<br>(e)</div><div class='respDivR'>No Match<br>(i)</div></div></div>","e","TARGET","3","trustrating_stim/white_mw042.bmp,trustrating_stim/white_mw010.bmp,trustrating_stim/white_mw038.bmp","1,1,0","Match","e","4500","trustrating_stim/white_mw010.bmp","green","Share","REAL","1"
"","","","","63d43dc4b4b7a0e426a381cd","bdp_wmem","Fri Mar 10 2023 12:40:50 GMT-0800 (Pacific Standard Time)","613000","Match,No Match","html-keyboard-response","160","397108","0.0-7.0-5.24","","null","","<div class='trialBorder'><div class='vertical-center'><img src='img/correct.jpg'></div><div class='respDiv'><div class='respDivL'><font style='color:orange'>Match<br>(e)</font></div><div class='respDivR'>No Match<br>(i)</div></div></div>","null","FEEDBACK","","","","","","","","","","",""
"","","","","63d43dc4b4b7a0e426a381cd","bdp_wmem","Fri Mar 10 2023 12:40:50 GMT-0800 (Pacific Standard Time)","613000","Match,No Match","html-keyboard-response","161","397609","0.0-7.0-1.25","","null","","<div class='trialBorder'><div class='vertical-center'><img src='img/fixation2_sml.jpg'</img></div></div>","null","FIX","","","","","","","","","","",""
"","","","","63d43dc4b4b7a0e426a381cd","bdp_wmem","Fri Mar 10 2023 12:40:50 GMT-0800 (Pacific Standard Time)","613000","Match,No Match","html-keyboard-response","162","402112","0.0-7.0-2.25","","null","","<div class='trialBorder'><div class='vertical-center'><img style='vertical-align:center; align:center' src='img/fixation2_sml.jpg'></div><div class='arrayDiv3'><div class='tl'><img class='introPic' src='trustrating_stim/white_mw091.bmp'><br><font color='red'><strong>Keep</strong></font></div><div class='tc'><img class='introPic' src='trustrating_stim/white_mw013.bmp'><br><font color='red'><strong>Keep</strong></font></div><div class='tr'><img class='introPic' src='trustrating_stim/white_mw078.bmp'><br><font color='green'><strong>Share</strong></font></div></div></div>","null","ARRAY","3","trustrating_stim/white_mw091.bmp,trustrating_stim/white_mw013.bmp,trustrating_stim/white_mw078.bmp","0,0,1","noMatchOutcome","i","4500","","","","",""
"","","","","63d43dc4b4b7a0e426a381cd","bdp_wmem","Fri Mar 10 2023 12:40:50 GMT-0800 (Pacific Standard Time)","613000","Match,No Match","html-keyboard-response","163","406114","0.0-7.0-3.25","","null","","<div class='trialBorder'><div class='vertical-center'><img src='img/fixation2_sml.jpg'</img></div></div>","null","DELAY","","","","","","","","","","",""
"","","","","63d43dc4b4b7a0e426a381cd","bdp_wmem","Fri Mar 10 2023 12:40:50 GMT-0800 (Pacific Standard Time)","613000","Match,No Match","html-keyboard-response","164","408260","0.0-7.0-4.25","","2143","","<div class='trialBorder'><div class='targDiv'><div class='tc'><img class='introPic' src='trustrating_stim/white_mw091.bmp'><br><font color='green'><strong>Share</strong></font></div></div><div class='respDiv'><div class='respDivL'>Match<br>(e)</div><div class='respDivR'>No Match<br>(i)</div></div></div>","i","TARGET","3","trustrating_stim/white_mw091.bmp,trustrating_stim/white_mw013.bmp,trustrating_stim/white_mw078.bmp","0,0,1","noMatchOutcome","i","4500","trustrating_stim/white_mw091.bmp","green","Share","REAL","1"
"","","","","63d43dc4b4b7a0e426a381cd","bdp_wmem","Fri Mar 10 2023 12:40:50 GMT-0800 (Pacific Standard Time)","613000","Match,No Match","html-keyboard-response","165","408761","0.0-7.0-5.25","","null","","<div class='trialBorder'><div class='vertical-center'><img src='img/correct.jpg'></div><div class='respDiv'><div class='respDivL'>Match<br>(e)</div><div class='respDivR'><font style='color:orange'>No Match<br>(i)</font></div></div></div>","null","FEEDBACK","","","","","","","","","","",""
"","","","","63d43dc4b4b7a0e426a381cd","bdp_wmem","Fri Mar 10 2023 12:40:50 GMT-0800 (Pacific Standard Time)","613000","Match,No Match","html-keyboard-response","166","409263","0.0-7.0-1.26","","null","","<div class='trialBorder'><div class='vertical-center'><img src='img/fixation2_sml.jpg'</img></div></div>","null","FIX","","","","","","","","","","",""
"","","","","63d43dc4b4b7a0e426a381cd","bdp_wmem","Fri Mar 10 2023 12:40:50 GMT-0800 (Pacific Standard Time)","613000","Match,No Match","html-keyboard-response","167","410765","0.0-7.0-2.26","","null","","<div class='trialBorder'><div class='vertical-center'><img style='vertical-align:center; align:center' src='img/fixation2_sml.jpg'></div><div class='arrayDiv1'><div class='tc'><img class='introPic' src='trustrating_stim/white_mw003.bmp'><br><font color='red'><strong>Keep</strong></font></div></div></div>","null","ARRAY","1","trustrating_stim/white_mw003.bmp","0","noMatchFace","i","1500","","","","",""
"","","","","63d43dc4b4b7a0e426a381cd","bdp_wmem","Fri Mar 10 2023 12:40:50 GMT-0800 (Pacific Standard Time)","613000","Match,No Match","html-keyboard-response","168","414768","0.0-7.0-3.26","","null","","<div class='trialBorder'><div class='vertical-center'><img src='img/fixation2_sml.jpg'</img></div></div>","null","DELAY","","","","","","","","","","",""
"","","","","63d43dc4b4b7a0e426a381cd","bdp_wmem","Fri Mar 10 2023 12:40:50 GMT-0800 (Pacific Standard Time)","613000","Match,No Match","html-keyboard-response","169","416027","0.0-7.0-4.26","","1258","","<div class='trialBorder'><div class='targDiv'><div class='tc'><img class='introPic' src='trustrating_stim/white_mw091.bmp'><br><font color='red'><strong>Keep</strong></font></div></div><div class='respDiv'><div class='respDivL'>Match<br>(e)</div><div class='respDivR'>No Match<br>(i)</div></div></div>","i","TARGET","1","trustrating_stim/white_mw003.bmp","0","noMatchFace","i","1500","trustrating_stim/white_mw091.bmp","red","Keep","REAL","1"
"","","","","63d43dc4b4b7a0e426a381cd","bdp_wmem","Fri Mar 10 2023 12:40:50 GMT-0800 (Pacific Standard Time)","613000","Match,No Match","html-keyboard-response","170","416528","0.0-7.0-5.26","","null","","<div class='trialBorder'><div class='vertical-center'><img src='img/correct.jpg'></div><div class='respDiv'><div class='respDivL'>Match<br>(e)</div><div class='respDivR'><font style='color:orange'>No Match<br>(i)</font></div></div></div>","null","FEEDBACK","","","","","","","","","","",""
"","","","","63d43dc4b4b7a0e426a381cd","bdp_wmem","Fri Mar 10 2023 12:40:50 GMT-0800 (Pacific Standard Time)","613000","Match,No Match","html-keyboard-response","171","417030","0.0-7.0-1.27","","null","","<div class='trialBorder'><div class='vertical-center'><img src='img/fixation2_sml.jpg'</img></div></div>","null","FIX","","","","","","","","","","",""
"","","","","63d43dc4b4b7a0e426a381cd","bdp_wmem","Fri Mar 10 2023 12:40:50 GMT-0800 (Pacific Standard Time)","613000","Match,No Match","html-keyboard-response","172","421533","0.0-7.0-2.27","","null","","<div class='trialBorder'><div class='vertical-center'><img style='vertical-align:center; align:center' src='img/fixation2_sml.jpg'></div><div class='arrayDiv3'><div class='tl'><img class='introPic' src='trustrating_stim/white_mw070.bmp'><br><font color='green'><strong>Share</strong></font></div><div class='tc'><img class='introPic' src='trustrating_stim/white_mw010.bmp'><br><font color='red'><strong>Keep</strong></font></div><div class='tr'><img class='introPic' src='trustrating_stim/white_mw078.bmp'><br><font color='red'><strong>Keep</strong></font></div></div></div>","null","ARRAY","3","trustrating_stim/white_mw070.bmp,trustrating_stim/white_mw010.bmp,trustrating_stim/white_mw078.bmp","1,0,0","Match","e","4500","","","","",""
"","","","","63d43dc4b4b7a0e426a381cd","bdp_wmem","Fri Mar 10 2023 12:40:50 GMT-0800 (Pacific Standard Time)","613000","Match,No Match","html-keyboard-response","173","425535","0.0-7.0-3.27","","null","","<div class='trialBorder'><div class='vertical-center'><img src='img/fixation2_sml.jpg'</img></div></div>","null","DELAY","","","","","","","","","","",""
"","","","","63d43dc4b4b7a0e426a381cd","bdp_wmem","Fri Mar 10 2023 12:40:50 GMT-0800 (Pacific Standard Time)","613000","Match,No Match","html-keyboard-response","174","428370","0.0-7.0-4.27","","2833","","<div class='trialBorder'><div class='targDiv'><div class='tc'><img class='introPic' src='trustrating_stim/white_mw010.bmp'><br><font color='red'><strong>Keep</strong></font></div></div><div class='respDiv'><div class='respDivL'>Match<br>(e)</div><div class='respDivR'>No Match<br>(i)</div></div></div>","e","TARGET","3","trustrating_stim/white_mw070.bmp,trustrating_stim/white_mw010.bmp,trustrating_stim/white_mw078.bmp","1,0,0","Match","e","4500","trustrating_stim/white_mw010.bmp","red","Keep","REAL","1"
"","","","","63d43dc4b4b7a0e426a381cd","bdp_wmem","Fri Mar 10 2023 12:40:50 GMT-0800 (Pacific Standard Time)","613000","Match,No Match","html-keyboard-response","175","428870","0.0-7.0-5.27","","null","","<div class='trialBorder'><div class='vertical-center'><img src='img/correct.jpg'></div><div class='respDiv'><div class='respDivL'><font style='color:orange'>Match<br>(e)</font></div><div class='respDivR'>No Match<br>(i)</div></div></div>","null","FEEDBACK","","","","","","","","","","",""
"","","","","63d43dc4b4b7a0e426a381cd","bdp_wmem","Fri Mar 10 2023 12:40:50 GMT-0800 (Pacific Standard Time)","613000","Match,No Match","html-keyboard-response","176","429372","0.0-7.0-1.28","","null","","<div class='trialBorder'><div class='vertical-center'><img src='img/fixation2_sml.jpg'</img></div></div>","null","FIX","","","","","","","","","","",""
"","","","","63d43dc4b4b7a0e426a381cd","bdp_wmem","Fri Mar 10 2023 12:40:50 GMT-0800 (Pacific Standard Time)","613000","Match,No Match","html-keyboard-response","177","430875","0.0-7.0-2.28","","null","","<div class='trialBorder'><div class='vertical-center'><img style='vertical-align:center; align:center' src='img/fixation2_sml.jpg'></div><div class='arrayDiv1'><div class='tc'><img class='introPic' src='trustrating_stim/white_mw010.bmp'><br><font color='green'><strong>Share</strong></font></div></div></div>","null","ARRAY","1","trustrating_stim/white_mw010.bmp","1","noMatchFace","i","1500","","","","",""
"","","","","63d43dc4b4b7a0e426a381cd","bdp_wmem","Fri Mar 10 2023 12:40:50 GMT-0800 (Pacific Standard Time)","613000","Match,No Match","html-keyboard-response","178","434876","0.0-7.0-3.28","","null","","<div class='trialBorder'><div class='vertical-center'><img src='img/fixation2_sml.jpg'</img></div></div>","null","DELAY","","","","","","","","","","",""
"","","","","63d43dc4b4b7a0e426a381cd","bdp_wmem","Fri Mar 10 2023 12:40:50 GMT-0800 (Pacific Standard Time)","613000","Match,No Match","html-keyboard-response","179","435379","0.0-7.0-4.28","","500","","<div class='trialBorder'><div class='targDiv'><div class='tc'><img class='introPic' src='trustrating_stim/white_mw085.bmp'><br><font color='green'><strong>Share</strong></font></div></div><div class='respDiv'><div class='respDivL'>Match<br>(e)</div><div class='respDivR'>No Match<br>(i)</div></div></div>","i","TARGET","1","trustrating_stim/white_mw010.bmp","1","noMatchFace","i","1500","trustrating_stim/white_mw085.bmp","green","Share","REAL","1"
"","","","","63d43dc4b4b7a0e426a381cd","bdp_wmem","Fri Mar 10 2023 12:40:50 GMT-0800 (Pacific Standard Time)","613000","Match,No Match","html-keyboard-response","180","435882","0.0-7.0-5.28","","null","","<div class='trialBorder'><div class='vertical-center'><img src='img/correct.jpg'></div><div class='respDiv'><div class='respDivL'>Match<br>(e)</div><div class='respDivR'><font style='color:orange'>No Match<br>(i)</font></div></div></div>","null","FEEDBACK","","","","","","","","","","",""
"","","","","63d43dc4b4b7a0e426a381cd","bdp_wmem","Fri Mar 10 2023 12:40:50 GMT-0800 (Pacific Standard Time)","613000","Match,No Match","html-keyboard-response","181","436383","0.0-7.0-1.29","","null","","<div class='trialBorder'><div class='vertical-center'><img src='img/fixation2_sml.jpg'</img></div></div>","null","FIX","","","","","","","","","","",""
"","","","","63d43dc4b4b7a0e426a381cd","bdp_wmem","Fri Mar 10 2023 12:40:50 GMT-0800 (Pacific Standard Time)","613000","Match,No Match","html-keyboard-response","182","440886","0.0-7.0-2.29","","null","","<div class='trialBorder'><div class='vertical-center'><img style='vertical-align:center; align:center' src='img/fixation2_sml.jpg'></div><div class='arrayDiv3'><div class='tl'><img class='introPic' src='trustrating_stim/white_mw091.bmp'><br><font color='red'><strong>Keep</strong></font></div><div class='tc'><img class='introPic' src='trustrating_stim/white_mw085.bmp'><br><font color='red'><strong>Keep</strong></font></div><div class='tr'><img class='introPic' src='trustrating_stim/white_mw042.bmp'><br><font color='green'><strong>Share</strong></font></div></div></div>","null","ARRAY","3","trustrating_stim/white_mw091.bmp,trustrating_stim/white_mw085.bmp,trustrating_stim/white_mw042.bmp","0,0,1","noMatchOutcome","i","4500","","","","",""
"","","","","63d43dc4b4b7a0e426a381cd","bdp_wmem","Fri Mar 10 2023 12:40:50 GMT-0800 (Pacific Standard Time)","613000","Match,No Match","html-keyboard-response","183","444887","0.0-7.0-3.29","","null","","<div class='trialBorder'><div class='vertical-center'><img src='img/fixation2_sml.jpg'</img></div></div>","null","DELAY","","","","","","","","","","",""
"","","","","63d43dc4b4b7a0e426a381cd","bdp_wmem","Fri Mar 10 2023 12:40:50 GMT-0800 (Pacific Standard Time)","613000","Match,No Match","html-keyboard-response","184","446600","0.0-7.0-4.29","","1712","","<div class='trialBorder'><div class='targDiv'><div class='tc'><img class='introPic' src='trustrating_stim/white_mw091.bmp'><br><font color='green'><strong>Share</strong></font></div></div><div class='respDiv'><div class='respDivL'>Match<br>(e)</div><div class='respDivR'>No Match<br>(i)</div></div></div>","i","TARGET","3","trustrating_stim/white_mw091.bmp,trustrating_stim/white_mw085.bmp,trustrating_stim/white_mw042.bmp","0,0,1","noMatchOutcome","i","4500","trustrating_stim/white_mw091.bmp","green","Share","REAL","1"
"","","","","63d43dc4b4b7a0e426a381cd","bdp_wmem","Fri Mar 10 2023 12:40:50 GMT-0800 (Pacific Standard Time)","613000","Match,No Match","html-keyboard-response","185","447103","0.0-7.0-5.29","","null","","<div class='trialBorder'><div class='vertical-center'><img src='img/correct.jpg'></div><div class='respDiv'><div class='respDivL'>Match<br>(e)</div><div class='respDivR'><font style='color:orange'>No Match<br>(i)</font></div></div></div>","null","FEEDBACK","","","","","","","","","","",""
"","","","","63d43dc4b4b7a0e426a381cd","bdp_wmem","Fri Mar 10 2023 12:40:50 GMT-0800 (Pacific Standard Time)","613000","Match,No Match","html-keyboard-response","186","447605","0.0-7.0-1.30","","null","","<div class='trialBorder'><div class='vertical-center'><img src='img/fixation2_sml.jpg'</img></div></div>","null","FIX","","","","","","","","","","",""
