"trial_type","trial_index","time_elapsed","internal_node_id","subject_id","task","startTime","totalTime","labels","view_history","rt","event","trial","time","trialtype","success","stimulus","key_press","stimType","arraySize","arrayFaces","arrayOutcomes","matchType","corrResp","arrayDur","targFace","targCol","targOutcome","trialType","corr"
"pavlovia","0","3","0.0-0.0","62851102d56842a48361f9d4","bdp_wmem","Wed Jul 27 2022 13:20:50 GMT-0400 (Eastern Daylight Time)","580104","Match,No Match","","","","","","","","","","","","","","","","","","","","",""
"instructions","1","4273","0.0-1.0","62851102d56842a48361f9d4","bdp_wmem","Wed Jul 27 2022 13:20:50 GMT-0400 (Eastern Daylight Time)","580104","Match,No Match","[{""page_index"":0,""viewing_time"":4270}]","4270","","","","","","","","","","","","","","","","","","",""
"","","","","62851102d56842a48361f9d4","bdp_wmem","Wed Jul 27 2022 13:20:50 GMT-0400 (Eastern Daylight Time)","580104","Match,No Match","","","fullscreenenter","2","6181","fullscreenenter","","","","","","","","","","","","","","",""
"fullscreen","2","7177","0.0-2.0","62851102d56842a48361f9d4","bdp_wmem","Wed Jul 27 2022 13:20:50 GMT-0400 (Eastern Daylight Time)","580104","Match,No Match","","","","","","","true","","","","","","","","","","","","","",""
"instructions","3","91993","0.0-4.0","62851102d56842a48361f9d4","bdp_wmem","Wed Jul 27 2022 13:20:50 GMT-0400 (Eastern Daylight Time)","580104","Match,No Match","[{""page_index"":0,""viewing_time"":25549},{""page_index"":1,""viewing_time"":23846},{""page_index"":2,""viewing_time"":17582},{""page_index"":3,""viewing_time"":5633},{""page_index"":4,""viewing_time"":12205}]","84815","","","","","","","","","","","","","","","","","","",""
"html-keyboard-response","4","92497","0.0-5.0-1.0","62851102d56842a48361f9d4","bdp_wmem","Wed Jul 27 2022 13:20:50 GMT-0400 (Eastern Daylight Time)","580104","Match,No Match","","null","","","","","","<div class='trialBorder'><div class='vertical-center'><img src='img/fixation2_sml.jpg'</img></div></div>","null","FIX","","","","","","","","","","",""
"html-keyboard-response","5","93998","0.0-5.0-2.0","62851102d56842a48361f9d4","bdp_wmem","Wed Jul 27 2022 13:20:50 GMT-0400 (Eastern Daylight Time)","580104","Match,No Match","","null","","","","","","<div class='trialBorder'><div class='vertical-center'><img style='vertical-align:center; align:center' src='img/fixation2_sml.jpg'></div><div class='arrayDiv1'><div class='tc'><img class='introPic' src='trustrating_stim/white_mw070.bmp'><br><font color='red'><strong>Keep</strong></font></div></div></div>","null","ARRAY","1","trustrating_stim/white_mw070.bmp","0","Match","e","1500","","","","",""
"html-keyboard-response","6","98000","0.0-5.0-3.0","62851102d56842a48361f9d4","bdp_wmem","Wed Jul 27 2022 13:20:50 GMT-0400 (Eastern Daylight Time)","580104","Match,No Match","","null","","","","","","<div class='trialBorder'><div class='vertical-center'><img src='img/fixation2_sml.jpg'</img></div></div>","null","DELAY","","","","","","","","","","",""
"html-keyboard-response","7","99046","0.0-5.0-4.0","62851102d56842a48361f9d4","bdp_wmem","Wed Jul 27 2022 13:20:50 GMT-0400 (Eastern Daylight Time)","580104","Match,No Match","","1045","","","","","","<div class='trialBorder'><div class='targDiv'><div class='tc'><img class='introPic' src='trustrating_stim/white_mw070.bmp'><br><font color='red'><strong>Keep</strong></font></div></div><div class='respDiv'><div class='respDivL'>Match<br>(e)</div><div class='respDivR'>No Match<br>(i)</div></div></div>","e","TARGET","1","trustrating_stim/white_mw070.bmp","0","Match","e","1500","trustrating_stim/white_mw070.bmp","red","Keep","PRACTICE","1"
"html-keyboard-response","8","99550","0.0-5.0-5.0","62851102d56842a48361f9d4","bdp_wmem","Wed Jul 27 2022 13:20:50 GMT-0400 (Eastern Daylight Time)","580104","Match,No Match","","null","","","","","","<div class='trialBorder'><div class='vertical-center'><img src='img/correct.jpg'></div><div class='respDiv'><div class='respDivL'><font style='color:orange'>Match<br>(e)</font></div><div class='respDivR'>No Match<br>(i)</div></div></div>","null","FEEDBACK","","","","","","","","","","",""
"html-keyboard-response","9","100055","0.0-5.0-1.1","62851102d56842a48361f9d4","bdp_wmem","Wed Jul 27 2022 13:20:50 GMT-0400 (Eastern Daylight Time)","580104","Match,No Match","","null","","","","","","<div class='trialBorder'><div class='vertical-center'><img src='img/fixation2_sml.jpg'</img></div></div>","null","FIX","","","","","","","","","","",""
"html-keyboard-response","10","101561","0.0-5.0-2.1","62851102d56842a48361f9d4","bdp_wmem","Wed Jul 27 2022 13:20:50 GMT-0400 (Eastern Daylight Time)","580104","Match,No Match","","null","","","","","","<div class='trialBorder'><div class='vertical-center'><img style='vertical-align:center; align:center' src='img/fixation2_sml.jpg'></div><div class='arrayDiv1'><div class='tc'><img class='introPic' src='trustrating_stim/white_mw042.bmp'><br><font color='green'><strong>Share</strong></font></div></div></div>","null","ARRAY","1","trustrating_stim/white_mw042.bmp","1","noMatchFace","i","1500","","","","",""
"html-keyboard-response","11","105563","0.0-5.0-3.1","62851102d56842a48361f9d4","bdp_wmem","Wed Jul 27 2022 13:20:50 GMT-0400 (Eastern Daylight Time)","580104","Match,No Match","","null","","","","","","<div class='trialBorder'><div class='vertical-center'><img src='img/fixation2_sml.jpg'</img></div></div>","null","DELAY","","","","","","","","","","",""
"html-keyboard-response","12","106509","0.0-5.0-4.1","62851102d56842a48361f9d4","bdp_wmem","Wed Jul 27 2022 13:20:50 GMT-0400 (Eastern Daylight Time)","580104","Match,No Match","","944","","","","","","<div class='trialBorder'><div class='targDiv'><div class='tc'><img class='introPic' src='trustrating_stim/white_mw092.bmp'><br><font color='green'><strong>Share</strong></font></div></div><div class='respDiv'><div class='respDivL'>Match<br>(e)</div><div class='respDivR'>No Match<br>(i)</div></div></div>","i","TARGET","1","trustrating_stim/white_mw042.bmp","1","noMatchFace","i","1500","trustrating_stim/white_mw092.bmp","green","Share","PRACTICE","1"
"html-keyboard-response","13","107011","0.0-5.0-5.1","62851102d56842a48361f9d4","bdp_wmem","Wed Jul 27 2022 13:20:50 GMT-0400 (Eastern Daylight Time)","580104","Match,No Match","","null","","","","","","<div class='trialBorder'><div class='vertical-center'><img src='img/correct.jpg'></div><div class='respDiv'><div class='respDivL'>Match<br>(e)</div><div class='respDivR'><font style='color:orange'>No Match<br>(i)</font></div></div></div>","null","FEEDBACK","","","","","","","","","","",""
"html-keyboard-response","14","107514","0.0-5.0-1.2","62851102d56842a48361f9d4","bdp_wmem","Wed Jul 27 2022 13:20:50 GMT-0400 (Eastern Daylight Time)","580104","Match,No Match","","null","","","","","","<div class='trialBorder'><div class='vertical-center'><img src='img/fixation2_sml.jpg'</img></div></div>","null","FIX","","","","","","","","","","",""
"html-keyboard-response","15","112019","0.0-5.0-2.2","62851102d56842a48361f9d4","bdp_wmem","Wed Jul 27 2022 13:20:50 GMT-0400 (Eastern Daylight Time)","580104","Match,No Match","","null","","","","","","<div class='trialBorder'><div class='vertical-center'><img style='vertical-align:center; align:center' src='img/fixation2_sml.jpg'></div><div class='arrayDiv3'><div class='tl'><img class='introPic' src='trustrating_stim/white_mw042.bmp'><br><font color='red'><strong>Keep</strong></font></div><div class='tc'><img class='introPic' src='trustrating_stim/white_mw091.bmp'><br><font color='green'><strong>Share</strong></font></div><div class='tr'><img class='introPic' src='trustrating_stim/white_mw013.bmp'><br><font color='red'><strong>Keep</strong></font></div></div></div>","null","ARRAY","3","trustrating_stim/white_mw042.bmp,trustrating_stim/white_mw091.bmp,trustrating_stim/white_mw013.bmp","0,1,0","noMatchOutcome","i","4500","","","","",""
"html-keyboard-response","16","116024","0.0-5.0-3.2","62851102d56842a48361f9d4","bdp_wmem","Wed Jul 27 2022 13:20:50 GMT-0400 (Eastern Daylight Time)","580104","Match,No Match","","null","","","","","","<div class='trialBorder'><div class='vertical-center'><img src='img/fixation2_sml.jpg'</img></div></div>","null","DELAY","","","","","","","","","","",""
"html-keyboard-response","17","117263","0.0-5.0-4.2","62851102d56842a48361f9d4","bdp_wmem","Wed Jul 27 2022 13:20:50 GMT-0400 (Eastern Daylight Time)","580104","Match,No Match","","1238","","","","","","<div class='trialBorder'><div class='targDiv'><div class='tc'><img class='introPic' src='trustrating_stim/white_mw091.bmp'><br><font color='red'><strong>Keep</strong></font></div></div><div class='respDiv'><div class='respDivL'>Match<br>(e)</div><div class='respDivR'>No Match<br>(i)</div></div></div>","i","TARGET","3","trustrating_stim/white_mw042.bmp,trustrating_stim/white_mw091.bmp,trustrating_stim/white_mw013.bmp","0,1,0","noMatchOutcome","i","4500","trustrating_stim/white_mw091.bmp","red","Keep","PRACTICE","1"
"html-keyboard-response","18","117766","0.0-5.0-5.2","62851102d56842a48361f9d4","bdp_wmem","Wed Jul 27 2022 13:20:50 GMT-0400 (Eastern Daylight Time)","580104","Match,No Match","","null","","","","","","<div class='trialBorder'><div class='vertical-center'><img src='img/correct.jpg'></div><div class='respDiv'><div class='respDivL'>Match<br>(e)</div><div class='respDivR'><font style='color:orange'>No Match<br>(i)</font></div></div></div>","null","FEEDBACK","","","","","","","","","","",""
"html-keyboard-response","19","118271","0.0-5.0-1.3","62851102d56842a48361f9d4","bdp_wmem","Wed Jul 27 2022 13:20:50 GMT-0400 (Eastern Daylight Time)","580104","Match,No Match","","null","","","","","","<div class='trialBorder'><div class='vertical-center'><img src='img/fixation2_sml.jpg'</img></div></div>","null","FIX","","","","","","","","","","",""
"html-keyboard-response","20","121273","0.0-5.0-2.3","62851102d56842a48361f9d4","bdp_wmem","Wed Jul 27 2022 13:20:50 GMT-0400 (Eastern Daylight Time)","580104","Match,No Match","","null","","","","","","<div class='trialBorder'><div class='vertical-center'><img style='vertical-align:center; align:center' src='img/fixation2_sml.jpg'></div><div class='arrayDiv2'><div class='tl'><img class='introPic' src='trustrating_stim/white_mw040.bmp'><br><font color='green'><strong>Share</strong></font></div><div class='tr'><img class='introPic' src='trustrating_stim/white_mw013.bmp'><br><font color='red'><strong>Keep</strong></font></div></div></div>","null","ARRAY","2","trustrating_stim/white_mw040.bmp,trustrating_stim/white_mw013.bmp","1,0","Match","e","3000","","","","",""
"html-keyboard-response","21","125276","0.0-5.0-3.3","62851102d56842a48361f9d4","bdp_wmem","Wed Jul 27 2022 13:20:50 GMT-0400 (Eastern Daylight Time)","580104","Match,No Match","","null","","","","","","<div class='trialBorder'><div class='vertical-center'><img src='img/fixation2_sml.jpg'</img></div></div>","null","DELAY","","","","","","","","","","",""
"html-keyboard-response","22","126179","0.0-5.0-4.3","62851102d56842a48361f9d4","bdp_wmem","Wed Jul 27 2022 13:20:50 GMT-0400 (Eastern Daylight Time)","580104","Match,No Match","","902","","","","","","<div class='trialBorder'><div class='targDiv'><div class='tc'><img class='introPic' src='trustrating_stim/white_mw040.bmp'><br><font color='green'><strong>Share</strong></font></div></div><div class='respDiv'><div class='respDivL'>Match<br>(e)</div><div class='respDivR'>No Match<br>(i)</div></div></div>","e","TARGET","2","trustrating_stim/white_mw040.bmp,trustrating_stim/white_mw013.bmp","1,0","Match","e","3000","trustrating_stim/white_mw040.bmp","green","Share","PRACTICE","1"
"html-keyboard-response","23","126682","0.0-5.0-5.3","62851102d56842a48361f9d4","bdp_wmem","Wed Jul 27 2022 13:20:50 GMT-0400 (Eastern Daylight Time)","580104","Match,No Match","","null","","","","","","<div class='trialBorder'><div class='vertical-center'><img src='img/correct.jpg'></div><div class='respDiv'><div class='respDivL'><font style='color:orange'>Match<br>(e)</font></div><div class='respDivR'>No Match<br>(i)</div></div></div>","null","FEEDBACK","","","","","","","","","","",""
"html-keyboard-response","24","127186","0.0-5.0-1.4","62851102d56842a48361f9d4","bdp_wmem","Wed Jul 27 2022 13:20:50 GMT-0400 (Eastern Daylight Time)","580104","Match,No Match","","null","","","","","","<div class='trialBorder'><div class='vertical-center'><img src='img/fixation2_sml.jpg'</img></div></div>","null","FIX","","","","","","","","","","",""
"html-keyboard-response","25","131691","0.0-5.0-2.4","62851102d56842a48361f9d4","bdp_wmem","Wed Jul 27 2022 13:20:50 GMT-0400 (Eastern Daylight Time)","580104","Match,No Match","","null","","","","","","<div class='trialBorder'><div class='vertical-center'><img style='vertical-align:center; align:center' src='img/fixation2_sml.jpg'></div><div class='arrayDiv3'><div class='tl'><img class='introPic' src='trustrating_stim/white_mw003.bmp'><br><font color='red'><strong>Keep</strong></font></div><div class='tc'><img class='introPic' src='trustrating_stim/white_mw078.bmp'><br><font color='green'><strong>Share</strong></font></div><div class='tr'><img class='introPic' src='trustrating_stim/white_mw010.bmp'><br><font color='red'><strong>Keep</strong></font></div></div></div>","null","ARRAY","3","trustrating_stim/white_mw003.bmp,trustrating_stim/white_mw078.bmp,trustrating_stim/white_mw010.bmp","0,1,0","Match","e","4500","","","","",""
"html-keyboard-response","26","135696","0.0-5.0-3.4","62851102d56842a48361f9d4","bdp_wmem","Wed Jul 27 2022 13:20:50 GMT-0400 (Eastern Daylight Time)","580104","Match,No Match","","null","","","","","","<div class='trialBorder'><div class='vertical-center'><img src='img/fixation2_sml.jpg'</img></div></div>","null","DELAY","","","","","","","","","","",""
"html-keyboard-response","27","136595","0.0-5.0-4.4","62851102d56842a48361f9d4","bdp_wmem","Wed Jul 27 2022 13:20:50 GMT-0400 (Eastern Daylight Time)","580104","Match,No Match","","898","","","","","","<div class='trialBorder'><div class='targDiv'><div class='tc'><img class='introPic' src='trustrating_stim/white_mw003.bmp'><br><font color='red'><strong>Keep</strong></font></div></div><div class='respDiv'><div class='respDivL'>Match<br>(e)</div><div class='respDivR'>No Match<br>(i)</div></div></div>","i","TARGET","3","trustrating_stim/white_mw003.bmp,trustrating_stim/white_mw078.bmp,trustrating_stim/white_mw010.bmp","0,1,0","Match","e","4500","trustrating_stim/white_mw003.bmp","red","Keep","PRACTICE","0"
"html-keyboard-response","28","137099","0.0-5.0-5.4","62851102d56842a48361f9d4","bdp_wmem","Wed Jul 27 2022 13:20:50 GMT-0400 (Eastern Daylight Time)","580104","Match,No Match","","null","","","","","","<div class='trialBorder'><div class='vertical-center'><img src='img/error.jpg'></div><div class='respDiv'><div class='respDivL'>Match<br>(e)</div><div class='respDivR'><font style='color:orange'>No Match<br>(i)</font></div></div></div>","null","FEEDBACK","","","","","","","","","","",""
"html-keyboard-response","29","137601","0.0-5.0-1.5","62851102d56842a48361f9d4","bdp_wmem","Wed Jul 27 2022 13:20:50 GMT-0400 (Eastern Daylight Time)","580104","Match,No Match","","null","","","","","","<div class='trialBorder'><div class='vertical-center'><img src='img/fixation2_sml.jpg'</img></div></div>","null","FIX","","","","","","","","","","",""
"html-keyboard-response","30","140605","0.0-5.0-2.5","62851102d56842a48361f9d4","bdp_wmem","Wed Jul 27 2022 13:20:50 GMT-0400 (Eastern Daylight Time)","580104","Match,No Match","","null","","","","","","<div class='trialBorder'><div class='vertical-center'><img style='vertical-align:center; align:center' src='img/fixation2_sml.jpg'></div><div class='arrayDiv2'><div class='tl'><img class='introPic' src='trustrating_stim/white_mw003.bmp'><br><font color='red'><strong>Keep</strong></font></div><div class='tr'><img class='introPic' src='trustrating_stim/white_mw070.bmp'><br><font color='green'><strong>Share</strong></font></div></div></div>","null","ARRAY","2","trustrating_stim/white_mw003.bmp,trustrating_stim/white_mw070.bmp","0,1","noMatchOutcome","i","3000","","","","",""
"html-keyboard-response","31","144610","0.0-5.0-3.5","62851102d56842a48361f9d4","bdp_wmem","Wed Jul 27 2022 13:20:50 GMT-0400 (Eastern Daylight Time)","580104","Match,No Match","","null","","","","","","<div class='trialBorder'><div class='vertical-center'><img src='img/fixation2_sml.jpg'</img></div></div>","null","DELAY","","","","","","","","","","",""
"html-keyboard-response","32","145804","0.0-5.0-4.5","62851102d56842a48361f9d4","bdp_wmem","Wed Jul 27 2022 13:20:50 GMT-0400 (Eastern Daylight Time)","580104","Match,No Match","","1193","","","","","","<div class='trialBorder'><div class='targDiv'><div class='tc'><img class='introPic' src='trustrating_stim/white_mw070.bmp'><br><font color='red'><strong>Keep</strong></font></div></div><div class='respDiv'><div class='respDivL'>Match<br>(e)</div><div class='respDivR'>No Match<br>(i)</div></div></div>","i","TARGET","2","trustrating_stim/white_mw003.bmp,trustrating_stim/white_mw070.bmp","0,1","noMatchOutcome","i","3000","trustrating_stim/white_mw070.bmp","red","Keep","PRACTICE","1"
"html-keyboard-response","33","146308","0.0-5.0-5.5","62851102d56842a48361f9d4","bdp_wmem","Wed Jul 27 2022 13:20:50 GMT-0400 (Eastern Daylight Time)","580104","Match,No Match","","null","","","","","","<div class='trialBorder'><div class='vertical-center'><img src='img/correct.jpg'></div><div class='respDiv'><div class='respDivL'>Match<br>(e)</div><div class='respDivR'><font style='color:orange'>No Match<br>(i)</font></div></div></div>","null","FEEDBACK","","","","","","","","","","",""
"instructions","34","153644","0.0-6.0","62851102d56842a48361f9d4","bdp_wmem","Wed Jul 27 2022 13:20:50 GMT-0400 (Eastern Daylight Time)","580104","Match,No Match","[{""page_index"":0,""viewing_time"":7335}]","7336","","","","","","","","","","","","","","","","","","",""
"html-keyboard-response","35","154144","0.0-7.0-1.0","62851102d56842a48361f9d4","bdp_wmem","Wed Jul 27 2022 13:20:50 GMT-0400 (Eastern Daylight Time)","580104","Match,No Match","","null","","","","","","<div class='trialBorder'><div class='vertical-center'><img src='img/fixation2_sml.jpg'</img></div></div>","null","FIX","","","","","","","","","","",""
"html-keyboard-response","36","155649","0.0-7.0-2.0","62851102d56842a48361f9d4","bdp_wmem","Wed Jul 27 2022 13:20:50 GMT-0400 (Eastern Daylight Time)","580104","Match,No Match","","null","","","","","","<div class='trialBorder'><div class='vertical-center'><img style='vertical-align:center; align:center' src='img/fixation2_sml.jpg'></div><div class='arrayDiv1'><div class='tc'><img class='introPic' src='trustrating_stim/white_mw042.bmp'><br><font color='green'><strong>Share</strong></font></div></div></div>","null","ARRAY","1","trustrating_stim/white_mw042.bmp","1","Match","e","1500","","","","",""
"html-keyboard-response","37","159653","0.0-7.0-3.0","62851102d56842a48361f9d4","bdp_wmem","Wed Jul 27 2022 13:20:50 GMT-0400 (Eastern Daylight Time)","580104","Match,No Match","","null","","","","","","<div class='trialBorder'><div class='vertical-center'><img src='img/fixation2_sml.jpg'</img></div></div>","null","DELAY","","","","","","","","","","",""
"html-keyboard-response","38","160321","0.0-7.0-4.0","62851102d56842a48361f9d4","bdp_wmem","Wed Jul 27 2022 13:20:50 GMT-0400 (Eastern Daylight Time)","580104","Match,No Match","","667","","","","","","<div class='trialBorder'><div class='targDiv'><div class='tc'><img class='introPic' src='trustrating_stim/white_mw042.bmp'><br><font color='green'><strong>Share</strong></font></div></div><div class='respDiv'><div class='respDivL'>Match<br>(e)</div><div class='respDivR'>No Match<br>(i)</div></div></div>","e","TARGET","1","trustrating_stim/white_mw042.bmp","1","Match","e","1500","trustrating_stim/white_mw042.bmp","green","Share","REAL","1"
"html-keyboard-response","39","160826","0.0-7.0-5.0","62851102d56842a48361f9d4","bdp_wmem","Wed Jul 27 2022 13:20:50 GMT-0400 (Eastern Daylight Time)","580104","Match,No Match","","null","","","","","","<div class='trialBorder'><div class='vertical-center'><img src='img/correct.jpg'></div><div class='respDiv'><div class='respDivL'><font style='color:orange'>Match<br>(e)</font></div><div class='respDivR'>No Match<br>(i)</div></div></div>","null","FEEDBACK","","","","","","","","","","",""
"html-keyboard-response","40","161331","0.0-7.0-1.1","62851102d56842a48361f9d4","bdp_wmem","Wed Jul 27 2022 13:20:50 GMT-0400 (Eastern Daylight Time)","580104","Match,No Match","","null","","","","","","<div class='trialBorder'><div class='vertical-center'><img src='img/fixation2_sml.jpg'</img></div></div>","null","FIX","","","","","","","","","","",""
"html-keyboard-response","41","162834","0.0-7.0-2.1","62851102d56842a48361f9d4","bdp_wmem","Wed Jul 27 2022 13:20:50 GMT-0400 (Eastern Daylight Time)","580104","Match,No Match","","null","","","","","","<div class='trialBorder'><div class='vertical-center'><img style='vertical-align:center; align:center' src='img/fixation2_sml.jpg'></div><div class='arrayDiv1'><div class='tc'><img class='introPic' src='trustrating_stim/white_mw070.bmp'><br><font color='green'><strong>Share</strong></font></div></div></div>","null","ARRAY","1","trustrating_stim/white_mw070.bmp","1","noMatchOutcome","i","1500","","","","",""
"html-keyboard-response","42","166840","0.0-7.0-3.1","62851102d56842a48361f9d4","bdp_wmem","Wed Jul 27 2022 13:20:50 GMT-0400 (Eastern Daylight Time)","580104","Match,No Match","","null","","","","","","<div class='trialBorder'><div class='vertical-center'><img src='img/fixation2_sml.jpg'</img></div></div>","null","DELAY","","","","","","","","","","",""
"html-keyboard-response","43","167483","0.0-7.0-4.1","62851102d56842a48361f9d4","bdp_wmem","Wed Jul 27 2022 13:20:50 GMT-0400 (Eastern Daylight Time)","580104","Match,No Match","","642","","","","","","<div class='trialBorder'><div class='targDiv'><div class='tc'><img class='introPic' src='trustrating_stim/white_mw070.bmp'><br><font color='red'><strong>Keep</strong></font></div></div><div class='respDiv'><div class='respDivL'>Match<br>(e)</div><div class='respDivR'>No Match<br>(i)</div></div></div>","i","TARGET","1","trustrating_stim/white_mw070.bmp","1","noMatchOutcome","i","1500","trustrating_stim/white_mw070.bmp","red","Keep","REAL","1"
"html-keyboard-response","44","167985","0.0-7.0-5.1","62851102d56842a48361f9d4","bdp_wmem","Wed Jul 27 2022 13:20:50 GMT-0400 (Eastern Daylight Time)","580104","Match,No Match","","null","","","","","","<div class='trialBorder'><div class='vertical-center'><img src='img/correct.jpg'></div><div class='respDiv'><div class='respDivL'>Match<br>(e)</div><div class='respDivR'><font style='color:orange'>No Match<br>(i)</font></div></div></div>","null","FEEDBACK","","","","","","","","","","",""
"html-keyboard-response","45","168488","0.0-7.0-1.2","62851102d56842a48361f9d4","bdp_wmem","Wed Jul 27 2022 13:20:50 GMT-0400 (Eastern Daylight Time)","580104","Match,No Match","","null","","","","","","<div class='trialBorder'><div class='vertical-center'><img src='img/fixation2_sml.jpg'</img></div></div>","null","FIX","","","","","","","","","","",""
"html-keyboard-response","46","169992","0.0-7.0-2.2","62851102d56842a48361f9d4","bdp_wmem","Wed Jul 27 2022 13:20:50 GMT-0400 (Eastern Daylight Time)","580104","Match,No Match","","null","","","","","","<div class='trialBorder'><div class='vertical-center'><img style='vertical-align:center; align:center' src='img/fixation2_sml.jpg'></div><div class='arrayDiv1'><div class='tc'><img class='introPic' src='trustrating_stim/white_mw092.bmp'><br><font color='red'><strong>Keep</strong></font></div></div></div>","null","ARRAY","1","trustrating_stim/white_mw092.bmp","0","Match","e","1500","","","","",""
"html-keyboard-response","47","173997","0.0-7.0-3.2","62851102d56842a48361f9d4","bdp_wmem","Wed Jul 27 2022 13:20:50 GMT-0400 (Eastern Daylight Time)","580104","Match,No Match","","null","","","","","","<div class='trialBorder'><div class='vertical-center'><img src='img/fixation2_sml.jpg'</img></div></div>","null","DELAY","","","","","","","","","","",""
"html-keyboard-response","48","174646","0.0-7.0-4.2","62851102d56842a48361f9d4","bdp_wmem","Wed Jul 27 2022 13:20:50 GMT-0400 (Eastern Daylight Time)","580104","Match,No Match","","648","","","","","","<div class='trialBorder'><div class='targDiv'><div class='tc'><img class='introPic' src='trustrating_stim/white_mw092.bmp'><br><font color='red'><strong>Keep</strong></font></div></div><div class='respDiv'><div class='respDivL'>Match<br>(e)</div><div class='respDivR'>No Match<br>(i)</div></div></div>","e","TARGET","1","trustrating_stim/white_mw092.bmp","0","Match","e","1500","trustrating_stim/white_mw092.bmp","red","Keep","REAL","1"
"html-keyboard-response","49","175148","0.0-7.0-5.2","62851102d56842a48361f9d4","bdp_wmem","Wed Jul 27 2022 13:20:50 GMT-0400 (Eastern Daylight Time)","580104","Match,No Match","","null","","","","","","<div class='trialBorder'><div class='vertical-center'><img src='img/correct.jpg'></div><div class='respDiv'><div class='respDivL'><font style='color:orange'>Match<br>(e)</font></div><div class='respDivR'>No Match<br>(i)</div></div></div>","null","FEEDBACK","","","","","","","","","","",""
"html-keyboard-response","50","175651","0.0-7.0-1.3","62851102d56842a48361f9d4","bdp_wmem","Wed Jul 27 2022 13:20:50 GMT-0400 (Eastern Daylight Time)","580104","Match,No Match","","null","","","","","","<div class='trialBorder'><div class='vertical-center'><img src='img/fixation2_sml.jpg'</img></div></div>","null","FIX","","","","","","","","","","",""
"html-keyboard-response","51","178653","0.0-7.0-2.3","62851102d56842a48361f9d4","bdp_wmem","Wed Jul 27 2022 13:20:50 GMT-0400 (Eastern Daylight Time)","580104","Match,No Match","","null","","","","","","<div class='trialBorder'><div class='vertical-center'><img style='vertical-align:center; align:center' src='img/fixation2_sml.jpg'></div><div class='arrayDiv2'><div class='tl'><img class='introPic' src='trustrating_stim/white_mw092.bmp'><br><font color='green'><strong>Share</strong></font></div><div class='tr'><img class='introPic' src='trustrating_stim/white_mw038.bmp'><br><font color='red'><strong>Keep</strong></font></div></div></div>","null","ARRAY","2","trustrating_stim/white_mw092.bmp,trustrating_stim/white_mw038.bmp","1,0","Match","e","3000","","","","",""
"html-keyboard-response","52","182658","0.0-7.0-3.3","62851102d56842a48361f9d4","bdp_wmem","Wed Jul 27 2022 13:20:50 GMT-0400 (Eastern Daylight Time)","580104","Match,No Match","","null","","","","","","<div class='trialBorder'><div class='vertical-center'><img src='img/fixation2_sml.jpg'</img></div></div>","null","DELAY","","","","","","","","","","",""
"html-keyboard-response","53","183437","0.0-7.0-4.3","62851102d56842a48361f9d4","bdp_wmem","Wed Jul 27 2022 13:20:50 GMT-0400 (Eastern Daylight Time)","580104","Match,No Match","","778","","","","","","<div class='trialBorder'><div class='targDiv'><div class='tc'><img class='introPic' src='trustrating_stim/white_mw038.bmp'><br><font color='red'><strong>Keep</strong></font></div></div><div class='respDiv'><div class='respDivL'>Match<br>(e)</div><div class='respDivR'>No Match<br>(i)</div></div></div>","e","TARGET","2","trustrating_stim/white_mw092.bmp,trustrating_stim/white_mw038.bmp","1,0","Match","e","3000","trustrating_stim/white_mw038.bmp","red","Keep","REAL","1"
"html-keyboard-response","54","183941","0.0-7.0-5.3","62851102d56842a48361f9d4","bdp_wmem","Wed Jul 27 2022 13:20:50 GMT-0400 (Eastern Daylight Time)","580104","Match,No Match","","null","","","","","","<div class='trialBorder'><div class='vertical-center'><img src='img/correct.jpg'></div><div class='respDiv'><div class='respDivL'><font style='color:orange'>Match<br>(e)</font></div><div class='respDivR'>No Match<br>(i)</div></div></div>","null","FEEDBACK","","","","","","","","","","",""
"html-keyboard-response","55","184446","0.0-7.0-1.4","62851102d56842a48361f9d4","bdp_wmem","Wed Jul 27 2022 13:20:50 GMT-0400 (Eastern Daylight Time)","580104","Match,No Match","","null","","","","","","<div class='trialBorder'><div class='vertical-center'><img src='img/fixation2_sml.jpg'</img></div></div>","null","FIX","","","","","","","","","","",""
"html-keyboard-response","56","187448","0.0-7.0-2.4","62851102d56842a48361f9d4","bdp_wmem","Wed Jul 27 2022 13:20:50 GMT-0400 (Eastern Daylight Time)","580104","Match,No Match","","null","","","","","","<div class='trialBorder'><div class='vertical-center'><img style='vertical-align:center; align:center' src='img/fixation2_sml.jpg'></div><div class='arrayDiv2'><div class='tl'><img class='introPic' src='trustrating_stim/white_mw040.bmp'><br><font color='green'><strong>Share</strong></font></div><div class='tr'><img class='introPic' src='trustrating_stim/white_mw012.bmp'><br><font color='red'><strong>Keep</strong></font></div></div></div>","null","ARRAY","2","trustrating_stim/white_mw040.bmp,trustrating_stim/white_mw012.bmp","1,0","noMatchFace","i","3000","","","","",""
"html-keyboard-response","57","191621","0.0-7.0-3.4","62851102d56842a48361f9d4","bdp_wmem","Wed Jul 27 2022 13:20:50 GMT-0400 (Eastern Daylight Time)","580104","Match,No Match","","null","","","","","","<div class='trialBorder'><div class='vertical-center'><img src='img/fixation2_sml.jpg'</img></div></div>","null","DELAY","","","","","","","","","","",""
"html-keyboard-response","58","192372","0.0-7.0-4.4","62851102d56842a48361f9d4","bdp_wmem","Wed Jul 27 2022 13:20:50 GMT-0400 (Eastern Daylight Time)","580104","Match,No Match","","751","","","","","","<div class='trialBorder'><div class='targDiv'><div class='tc'><img class='introPic' src='trustrating_stim/white_mw085.bmp'><br><font color='red'><strong>Keep</strong></font></div></div><div class='respDiv'><div class='respDivL'>Match<br>(e)</div><div class='respDivR'>No Match<br>(i)</div></div></div>","i","TARGET","2","trustrating_stim/white_mw040.bmp,trustrating_stim/white_mw012.bmp","1,0","noMatchFace","i","3000","trustrating_stim/white_mw085.bmp","red","Keep","REAL","1"
"html-keyboard-response","59","192877","0.0-7.0-5.4","62851102d56842a48361f9d4","bdp_wmem","Wed Jul 27 2022 13:20:50 GMT-0400 (Eastern Daylight Time)","580104","Match,No Match","","null","","","","","","<div class='trialBorder'><div class='vertical-center'><img src='img/correct.jpg'></div><div class='respDiv'><div class='respDivL'>Match<br>(e)</div><div class='respDivR'><font style='color:orange'>No Match<br>(i)</font></div></div></div>","null","FEEDBACK","","","","","","","","","","",""
"html-keyboard-response","60","193380","0.0-7.0-1.5","62851102d56842a48361f9d4","bdp_wmem","Wed Jul 27 2022 13:20:50 GMT-0400 (Eastern Daylight Time)","580104","Match,No Match","","null","","","","","","<div class='trialBorder'><div class='vertical-center'><img src='img/fixation2_sml.jpg'</img></div></div>","null","FIX","","","","","","","","","","",""
"html-keyboard-response","61","197884","0.0-7.0-2.5","62851102d56842a48361f9d4","bdp_wmem","Wed Jul 27 2022 13:20:50 GMT-0400 (Eastern Daylight Time)","580104","Match,No Match","","null","","","","","","<div class='trialBorder'><div class='vertical-center'><img style='vertical-align:center; align:center' src='img/fixation2_sml.jpg'></div><div class='arrayDiv3'><div class='tl'><img class='introPic' src='trustrating_stim/white_mw013.bmp'><br><font color='red'><strong>Keep</strong></font></div><div class='tc'><img class='introPic' src='trustrating_stim/white_mw003.bmp'><br><font color='green'><strong>Share</strong></font></div><div class='tr'><img class='introPic' src='trustrating_stim/white_mw038.bmp'><br><font color='red'><strong>Keep</strong></font></div></div></div>","null","ARRAY","3","trustrating_stim/white_mw013.bmp,trustrating_stim/white_mw003.bmp,trustrating_stim/white_mw038.bmp","0,1,0","Match","e","4500","","","","",""
"html-keyboard-response","62","201890","0.0-7.0-3.5","62851102d56842a48361f9d4","bdp_wmem","Wed Jul 27 2022 13:20:50 GMT-0400 (Eastern Daylight Time)","580104","Match,No Match","","null","","","","","","<div class='trialBorder'><div class='vertical-center'><img src='img/fixation2_sml.jpg'</img></div></div>","null","DELAY","","","","","","","","","","",""
"html-keyboard-response","63","202582","0.0-7.0-4.5","62851102d56842a48361f9d4","bdp_wmem","Wed Jul 27 2022 13:20:50 GMT-0400 (Eastern Daylight Time)","580104","Match,No Match","","691","","","","","","<div class='trialBorder'><div class='targDiv'><div class='tc'><img class='introPic' src='trustrating_stim/white_mw003.bmp'><br><font color='green'><strong>Share</strong></font></div></div><div class='respDiv'><div class='respDivL'>Match<br>(e)</div><div class='respDivR'>No Match<br>(i)</div></div></div>","e","TARGET","3","trustrating_stim/white_mw013.bmp,trustrating_stim/white_mw003.bmp,trustrating_stim/white_mw038.bmp","0,1,0","Match","e","4500","trustrating_stim/white_mw003.bmp","green","Share","REAL","1"
"html-keyboard-response","64","203087","0.0-7.0-5.5","62851102d56842a48361f9d4","bdp_wmem","Wed Jul 27 2022 13:20:50 GMT-0400 (Eastern Daylight Time)","580104","Match,No Match","","null","","","","","","<div class='trialBorder'><div class='vertical-center'><img src='img/correct.jpg'></div><div class='respDiv'><div class='respDivL'><font style='color:orange'>Match<br>(e)</font></div><div class='respDivR'>No Match<br>(i)</div></div></div>","null","FEEDBACK","","","","","","","","","","",""
"html-keyboard-response","65","203590","0.0-7.0-1.6","62851102d56842a48361f9d4","bdp_wmem","Wed Jul 27 2022 13:20:50 GMT-0400 (Eastern Daylight Time)","580104","Match,No Match","","null","","","","","","<div class='trialBorder'><div class='vertical-center'><img src='img/fixation2_sml.jpg'</img></div></div>","null","FIX","","","","","","","","","","",""
"html-keyboard-response","66","206592","0.0-7.0-2.6","62851102d56842a48361f9d4","bdp_wmem","Wed Jul 27 2022 13:20:50 GMT-0400 (Eastern Daylight Time)","580104","Match,No Match","","null","","","","","","<div class='trialBorder'><div class='vertical-center'><img style='vertical-align:center; align:center' src='img/fixation2_sml.jpg'></div><div class='arrayDiv2'><div class='tl'><img class='introPic' src='trustrating_stim/white_mw040.bmp'><br><font color='red'><strong>Keep</strong></font></div><div class='tr'><img class='introPic' src='trustrating_stim/white_mw092.bmp'><br><font color='green'><strong>Share</strong></font></div></div></div>","null","ARRAY","2","trustrating_stim/white_mw040.bmp,trustrating_stim/white_mw092.bmp","0,1","Match","e","3000","","","","",""
"html-keyboard-response","67","210597","0.0-7.0-3.6","62851102d56842a48361f9d4","bdp_wmem","Wed Jul 27 2022 13:20:50 GMT-0400 (Eastern Daylight Time)","580104","Match,No Match","","null","","","","","","<div class='trialBorder'><div class='vertical-center'><img src='img/fixation2_sml.jpg'</img></div></div>","null","DELAY","","","","","","","","","","",""
"html-keyboard-response","68","211424","0.0-7.0-4.6","62851102d56842a48361f9d4","bdp_wmem","Wed Jul 27 2022 13:20:50 GMT-0400 (Eastern Daylight Time)","580104","Match,No Match","","826","","","","","","<div class='trialBorder'><div class='targDiv'><div class='tc'><img class='introPic' src='trustrating_stim/white_mw092.bmp'><br><font color='green'><strong>Share</strong></font></div></div><div class='respDiv'><div class='respDivL'>Match<br>(e)</div><div class='respDivR'>No Match<br>(i)</div></div></div>","e","TARGET","2","trustrating_stim/white_mw040.bmp,trustrating_stim/white_mw092.bmp","0,1","Match","e","3000","trustrating_stim/white_mw092.bmp","green","Share","REAL","1"
"html-keyboard-response","69","211929","0.0-7.0-5.6","62851102d56842a48361f9d4","bdp_wmem","Wed Jul 27 2022 13:20:50 GMT-0400 (Eastern Daylight Time)","580104","Match,No Match","","null","","","","","","<div class='trialBorder'><div class='vertical-center'><img src='img/correct.jpg'></div><div class='respDiv'><div class='respDivL'><font style='color:orange'>Match<br>(e)</font></div><div class='respDivR'>No Match<br>(i)</div></div></div>","null","FEEDBACK","","","","","","","","","","",""
"html-keyboard-response","70","212433","0.0-7.0-1.7","62851102d56842a48361f9d4","bdp_wmem","Wed Jul 27 2022 13:20:50 GMT-0400 (Eastern Daylight Time)","580104","Match,No Match","","null","","","","","","<div class='trialBorder'><div class='vertical-center'><img src='img/fixation2_sml.jpg'</img></div></div>","null","FIX","","","","","","","","","","",""
"html-keyboard-response","71","215439","0.0-7.0-2.7","62851102d56842a48361f9d4","bdp_wmem","Wed Jul 27 2022 13:20:50 GMT-0400 (Eastern Daylight Time)","580104","Match,No Match","","null","","","","","","<div class='trialBorder'><div class='vertical-center'><img style='vertical-align:center; align:center' src='img/fixation2_sml.jpg'></div><div class='arrayDiv2'><div class='tl'><img class='introPic' src='trustrating_stim/white_mw012.bmp'><br><font color='red'><strong>Keep</strong></font></div><div class='tr'><img class='introPic' src='trustrating_stim/white_mw010.bmp'><br><font color='green'><strong>Share</strong></font></div></div></div>","null","ARRAY","2","trustrating_stim/white_mw012.bmp,trustrating_stim/white_mw010.bmp","0,1","noMatchOutcome","i","3000","","","","",""
"html-keyboard-response","72","219445","0.0-7.0-3.7","62851102d56842a48361f9d4","bdp_wmem","Wed Jul 27 2022 13:20:50 GMT-0400 (Eastern Daylight Time)","580104","Match,No Match","","null","","","","","","<div class='trialBorder'><div class='vertical-center'><img src='img/fixation2_sml.jpg'</img></div></div>","null","DELAY","","","","","","","","","","",""
"html-keyboard-response","73","220316","0.0-7.0-4.7","62851102d56842a48361f9d4","bdp_wmem","Wed Jul 27 2022 13:20:50 GMT-0400 (Eastern Daylight Time)","580104","Match,No Match","","871","","","","","","<div class='trialBorder'><div class='targDiv'><div class='tc'><img class='introPic' src='trustrating_stim/white_mw010.bmp'><br><font color='red'><strong>Keep</strong></font></div></div><div class='respDiv'><div class='respDivL'>Match<br>(e)</div><div class='respDivR'>No Match<br>(i)</div></div></div>","i","TARGET","2","trustrating_stim/white_mw012.bmp,trustrating_stim/white_mw010.bmp","0,1","noMatchOutcome","i","3000","trustrating_stim/white_mw010.bmp","red","Keep","REAL","1"
"html-keyboard-response","74","220820","0.0-7.0-5.7","62851102d56842a48361f9d4","bdp_wmem","Wed Jul 27 2022 13:20:50 GMT-0400 (Eastern Daylight Time)","580104","Match,No Match","","null","","","","","","<div class='trialBorder'><div class='vertical-center'><img src='img/correct.jpg'></div><div class='respDiv'><div class='respDivL'>Match<br>(e)</div><div class='respDivR'><font style='color:orange'>No Match<br>(i)</font></div></div></div>","null","FEEDBACK","","","","","","","","","","",""
"html-keyboard-response","75","221325","0.0-7.0-1.8","62851102d56842a48361f9d4","bdp_wmem","Wed Jul 27 2022 13:20:50 GMT-0400 (Eastern Daylight Time)","580104","Match,No Match","","null","","","","","","<div class='trialBorder'><div class='vertical-center'><img src='img/fixation2_sml.jpg'</img></div></div>","null","FIX","","","","","","","","","","",""
"html-keyboard-response","76","224327","0.0-7.0-2.8","62851102d56842a48361f9d4","bdp_wmem","Wed Jul 27 2022 13:20:50 GMT-0400 (Eastern Daylight Time)","580104","Match,No Match","","null","","","","","","<div class='trialBorder'><div class='vertical-center'><img style='vertical-align:center; align:center' src='img/fixation2_sml.jpg'></div><div class='arrayDiv2'><div class='tl'><img class='introPic' src='trustrating_stim/white_mw070.bmp'><br><font color='red'><strong>Keep</strong></font></div><div class='tr'><img class='introPic' src='trustrating_stim/white_mw078.bmp'><br><font color='green'><strong>Share</strong></font></div></div></div>","null","ARRAY","2","trustrating_stim/white_mw070.bmp,trustrating_stim/white_mw078.bmp","0,1","Match","e","3000","","","","",""
"html-keyboard-response","77","228332","0.0-7.0-3.8","62851102d56842a48361f9d4","bdp_wmem","Wed Jul 27 2022 13:20:50 GMT-0400 (Eastern Daylight Time)","580104","Match,No Match","","null","","","","","","<div class='trialBorder'><div class='vertical-center'><img src='img/fixation2_sml.jpg'</img></div></div>","null","DELAY","","","","","","","","","","",""
"html-keyboard-response","78","229170","0.0-7.0-4.8","62851102d56842a48361f9d4","bdp_wmem","Wed Jul 27 2022 13:20:50 GMT-0400 (Eastern Daylight Time)","580104","Match,No Match","","837","","","","","","<div class='trialBorder'><div class='targDiv'><div class='tc'><img class='introPic' src='trustrating_stim/white_mw070.bmp'><br><font color='red'><strong>Keep</strong></font></div></div><div class='respDiv'><div class='respDivL'>Match<br>(e)</div><div class='respDivR'>No Match<br>(i)</div></div></div>","e","TARGET","2","trustrating_stim/white_mw070.bmp,trustrating_stim/white_mw078.bmp","0,1","Match","e","3000","trustrating_stim/white_mw070.bmp","red","Keep","REAL","1"
"html-keyboard-response","79","229673","0.0-7.0-5.8","62851102d56842a48361f9d4","bdp_wmem","Wed Jul 27 2022 13:20:50 GMT-0400 (Eastern Daylight Time)","580104","Match,No Match","","null","","","","","","<div class='trialBorder'><div class='vertical-center'><img src='img/correct.jpg'></div><div class='respDiv'><div class='respDivL'><font style='color:orange'>Match<br>(e)</font></div><div class='respDivR'>No Match<br>(i)</div></div></div>","null","FEEDBACK","","","","","","","","","","",""
"html-keyboard-response","80","230178","0.0-7.0-1.9","62851102d56842a48361f9d4","bdp_wmem","Wed Jul 27 2022 13:20:50 GMT-0400 (Eastern Daylight Time)","580104","Match,No Match","","null","","","","","","<div class='trialBorder'><div class='vertical-center'><img src='img/fixation2_sml.jpg'</img></div></div>","null","FIX","","","","","","","","","","",""
"html-keyboard-response","81","231681","0.0-7.0-2.9","62851102d56842a48361f9d4","bdp_wmem","Wed Jul 27 2022 13:20:50 GMT-0400 (Eastern Daylight Time)","580104","Match,No Match","","null","","","","","","<div class='trialBorder'><div class='vertical-center'><img style='vertical-align:center; align:center' src='img/fixation2_sml.jpg'></div><div class='arrayDiv1'><div class='tc'><img class='introPic' src='trustrating_stim/white_mw010.bmp'><br><font color='green'><strong>Share</strong></font></div></div></div>","null","ARRAY","1","trustrating_stim/white_mw010.bmp","1","noMatchOutcome","i","1500","","","","",""
"html-keyboard-response","82","235687","0.0-7.0-3.9","62851102d56842a48361f9d4","bdp_wmem","Wed Jul 27 2022 13:20:50 GMT-0400 (Eastern Daylight Time)","580104","Match,No Match","","null","","","","","","<div class='trialBorder'><div class='vertical-center'><img src='img/fixation2_sml.jpg'</img></div></div>","null","DELAY","","","","","","","","","","",""
"html-keyboard-response","83","236480","0.0-7.0-4.9","62851102d56842a48361f9d4","bdp_wmem","Wed Jul 27 2022 13:20:50 GMT-0400 (Eastern Daylight Time)","580104","Match,No Match","","791","","","","","","<div class='trialBorder'><div class='targDiv'><div class='tc'><img class='introPic' src='trustrating_stim/white_mw010.bmp'><br><font color='red'><strong>Keep</strong></font></div></div><div class='respDiv'><div class='respDivL'>Match<br>(e)</div><div class='respDivR'>No Match<br>(i)</div></div></div>","i","TARGET","1","trustrating_stim/white_mw010.bmp","1","noMatchOutcome","i","1500","trustrating_stim/white_mw010.bmp","red","Keep","REAL","1"
"html-keyboard-response","84","236982","0.0-7.0-5.9","62851102d56842a48361f9d4","bdp_wmem","Wed Jul 27 2022 13:20:50 GMT-0400 (Eastern Daylight Time)","580104","Match,No Match","","null","","","","","","<div class='trialBorder'><div class='vertical-center'><img src='img/correct.jpg'></div><div class='respDiv'><div class='respDivL'>Match<br>(e)</div><div class='respDivR'><font style='color:orange'>No Match<br>(i)</font></div></div></div>","null","FEEDBACK","","","","","","","","","","",""
"html-keyboard-response","85","237486","0.0-7.0-1.10","62851102d56842a48361f9d4","bdp_wmem","Wed Jul 27 2022 13:20:50 GMT-0400 (Eastern Daylight Time)","580104","Match,No Match","","null","","","","","","<div class='trialBorder'><div class='vertical-center'><img src='img/fixation2_sml.jpg'</img></div></div>","null","FIX","","","","","","","","","","",""
"html-keyboard-response","86","238990","0.0-7.0-2.10","62851102d56842a48361f9d4","bdp_wmem","Wed Jul 27 2022 13:20:50 GMT-0400 (Eastern Daylight Time)","580104","Match,No Match","","null","","","","","","<div class='trialBorder'><div class='vertical-center'><img style='vertical-align:center; align:center' src='img/fixation2_sml.jpg'></div><div class='arrayDiv1'><div class='tc'><img class='introPic' src='trustrating_stim/white_mw092.bmp'><br><font color='green'><strong>Share</strong></font></div></div></div>","null","ARRAY","1","trustrating_stim/white_mw092.bmp","1","noMatchOutcome","i","1500","","","","",""
"html-keyboard-response","87","242995","0.0-7.0-3.10","62851102d56842a48361f9d4","bdp_wmem","Wed Jul 27 2022 13:20:50 GMT-0400 (Eastern Daylight Time)","580104","Match,No Match","","null","","","","","","<div class='trialBorder'><div class='vertical-center'><img src='img/fixation2_sml.jpg'</img></div></div>","null","DELAY","","","","","","","","","","",""
"html-keyboard-response","88","243834","0.0-7.0-4.10","62851102d56842a48361f9d4","bdp_wmem","Wed Jul 27 2022 13:20:50 GMT-0400 (Eastern Daylight Time)","580104","Match,No Match","","838","","","","","","<div class='trialBorder'><div class='targDiv'><div class='tc'><img class='introPic' src='trustrating_stim/white_mw092.bmp'><br><font color='red'><strong>Keep</strong></font></div></div><div class='respDiv'><div class='respDivL'>Match<br>(e)</div><div class='respDivR'>No Match<br>(i)</div></div></div>","i","TARGET","1","trustrating_stim/white_mw092.bmp","1","noMatchOutcome","i","1500","trustrating_stim/white_mw092.bmp","red","Keep","REAL","1"
"html-keyboard-response","89","244338","0.0-7.0-5.10","62851102d56842a48361f9d4","bdp_wmem","Wed Jul 27 2022 13:20:50 GMT-0400 (Eastern Daylight Time)","580104","Match,No Match","","null","","","","","","<div class='trialBorder'><div class='vertical-center'><img src='img/correct.jpg'></div><div class='respDiv'><div class='respDivL'>Match<br>(e)</div><div class='respDivR'><font style='color:orange'>No Match<br>(i)</font></div></div></div>","null","FEEDBACK","","","","","","","","","","",""
"html-keyboard-response","90","244842","0.0-7.0-1.11","62851102d56842a48361f9d4","bdp_wmem","Wed Jul 27 2022 13:20:50 GMT-0400 (Eastern Daylight Time)","580104","Match,No Match","","null","","","","","","<div class='trialBorder'><div class='vertical-center'><img src='img/fixation2_sml.jpg'</img></div></div>","null","FIX","","","","","","","","","","",""
"html-keyboard-response","91","249347","0.0-7.0-2.11","62851102d56842a48361f9d4","bdp_wmem","Wed Jul 27 2022 13:20:50 GMT-0400 (Eastern Daylight Time)","580104","Match,No Match","","null","","","","","","<div class='trialBorder'><div class='vertical-center'><img style='vertical-align:center; align:center' src='img/fixation2_sml.jpg'></div><div class='arrayDiv3'><div class='tl'><img class='introPic' src='trustrating_stim/white_mw003.bmp'><br><font color='red'><strong>Keep</strong></font></div><div class='tc'><img class='introPic' src='trustrating_stim/white_mw091.bmp'><br><font color='green'><strong>Share</strong></font></div><div class='tr'><img class='introPic' src='trustrating_stim/white_mw085.bmp'><br><font color='red'><strong>Keep</strong></font></div></div></div>","null","ARRAY","3","trustrating_stim/white_mw003.bmp,trustrating_stim/white_mw091.bmp,trustrating_stim/white_mw085.bmp","0,1,0","Match","e","4500","","","","",""
"html-keyboard-response","92","253351","0.0-7.0-3.11","62851102d56842a48361f9d4","bdp_wmem","Wed Jul 27 2022 13:20:50 GMT-0400 (Eastern Daylight Time)","580104","Match,No Match","","null","","","","","","<div class='trialBorder'><div class='vertical-center'><img src='img/fixation2_sml.jpg'</img></div></div>","null","DELAY","","","","","","","","","","",""
"html-keyboard-response","93","254350","0.0-7.0-4.11","62851102d56842a48361f9d4","bdp_wmem","Wed Jul 27 2022 13:20:50 GMT-0400 (Eastern Daylight Time)","580104","Match,No Match","","998","","","","","","<div class='trialBorder'><div class='targDiv'><div class='tc'><img class='introPic' src='trustrating_stim/white_mw091.bmp'><br><font color='green'><strong>Share</strong></font></div></div><div class='respDiv'><div class='respDivL'>Match<br>(e)</div><div class='respDivR'>No Match<br>(i)</div></div></div>","e","TARGET","3","trustrating_stim/white_mw003.bmp,trustrating_stim/white_mw091.bmp,trustrating_stim/white_mw085.bmp","0,1,0","Match","e","4500","trustrating_stim/white_mw091.bmp","green","Share","REAL","1"
"html-keyboard-response","94","254854","0.0-7.0-5.11","62851102d56842a48361f9d4","bdp_wmem","Wed Jul 27 2022 13:20:50 GMT-0400 (Eastern Daylight Time)","580104","Match,No Match","","null","","","","","","<div class='trialBorder'><div class='vertical-center'><img src='img/correct.jpg'></div><div class='respDiv'><div class='respDivL'><font style='color:orange'>Match<br>(e)</font></div><div class='respDivR'>No Match<br>(i)</div></div></div>","null","FEEDBACK","","","","","","","","","","",""
"html-keyboard-response","95","255358","0.0-7.0-1.12","62851102d56842a48361f9d4","bdp_wmem","Wed Jul 27 2022 13:20:50 GMT-0400 (Eastern Daylight Time)","580104","Match,No Match","","null","","","","","","<div class='trialBorder'><div class='vertical-center'><img src='img/fixation2_sml.jpg'</img></div></div>","null","FIX","","","","","","","","","","",""
"html-keyboard-response","96","259859","0.0-7.0-2.12","62851102d56842a48361f9d4","bdp_wmem","Wed Jul 27 2022 13:20:50 GMT-0400 (Eastern Daylight Time)","580104","Match,No Match","","null","","","","","","<div class='trialBorder'><div class='vertical-center'><img style='vertical-align:center; align:center' src='img/fixation2_sml.jpg'></div><div class='arrayDiv3'><div class='tl'><img class='introPic' src='trustrating_stim/white_mw013.bmp'><br><font color='red'><strong>Keep</strong></font></div><div class='tc'><img class='introPic' src='trustrating_stim/white_mw010.bmp'><br><font color='red'><strong>Keep</strong></font></div><div class='tr'><img class='introPic' src='trustrating_stim/white_mw091.bmp'><br><font color='green'><strong>Share</strong></font></div></div></div>","null","ARRAY","3","trustrating_stim/white_mw013.bmp,trustrating_stim/white_mw010.bmp,trustrating_stim/white_mw091.bmp","0,0,1","noMatchFace","i","4500","","","","",""
"html-keyboard-response","97","263861","0.0-7.0-3.12","62851102d56842a48361f9d4","bdp_wmem","Wed Jul 27 2022 13:20:50 GMT-0400 (Eastern Daylight Time)","580104","Match,No Match","","null","","","","","","<div class='trialBorder'><div class='vertical-center'><img src='img/fixation2_sml.jpg'</img></div></div>","null","DELAY","","","","","","","","","","",""
"html-keyboard-response","98","264601","0.0-7.0-4.12","62851102d56842a48361f9d4","bdp_wmem","Wed Jul 27 2022 13:20:50 GMT-0400 (Eastern Daylight Time)","580104","Match,No Match","","739","","","","","","<div class='trialBorder'><div class='targDiv'><div class='tc'><img class='introPic' src='trustrating_stim/white_mw078.bmp'><br><font color='green'><strong>Share</strong></font></div></div><div class='respDiv'><div class='respDivL'>Match<br>(e)</div><div class='respDivR'>No Match<br>(i)</div></div></div>","i","TARGET","3","trustrating_stim/white_mw013.bmp,trustrating_stim/white_mw010.bmp,trustrating_stim/white_mw091.bmp","0,0,1","noMatchFace","i","4500","trustrating_stim/white_mw078.bmp","green","Share","REAL","1"
"html-keyboard-response","99","265102","0.0-7.0-5.12","62851102d56842a48361f9d4","bdp_wmem","Wed Jul 27 2022 13:20:50 GMT-0400 (Eastern Daylight Time)","580104","Match,No Match","","null","","","","","","<div class='trialBorder'><div class='vertical-center'><img src='img/correct.jpg'></div><div class='respDiv'><div class='respDivL'>Match<br>(e)</div><div class='respDivR'><font style='color:orange'>No Match<br>(i)</font></div></div></div>","null","FEEDBACK","","","","","","","","","","",""
"html-keyboard-response","100","265607","0.0-7.0-1.13","62851102d56842a48361f9d4","bdp_wmem","Wed Jul 27 2022 13:20:50 GMT-0400 (Eastern Daylight Time)","580104","Match,No Match","","null","","","","","","<div class='trialBorder'><div class='vertical-center'><img src='img/fixation2_sml.jpg'</img></div></div>","null","FIX","","","","","","","","","","",""
"html-keyboard-response","101","267110","0.0-7.0-2.13","62851102d56842a48361f9d4","bdp_wmem","Wed Jul 27 2022 13:20:50 GMT-0400 (Eastern Daylight Time)","580104","Match,No Match","","null","","","","","","<div class='trialBorder'><div class='vertical-center'><img style='vertical-align:center; align:center' src='img/fixation2_sml.jpg'></div><div class='arrayDiv1'><div class='tc'><img class='introPic' src='trustrating_stim/white_mw070.bmp'><br><font color='green'><strong>Share</strong></font></div></div></div>","null","ARRAY","1","trustrating_stim/white_mw070.bmp","1","noMatchFace","i","1500","","","","",""
"html-keyboard-response","102","271115","0.0-7.0-3.13","62851102d56842a48361f9d4","bdp_wmem","Wed Jul 27 2022 13:20:50 GMT-0400 (Eastern Daylight Time)","580104","Match,No Match","","null","","","","","","<div class='trialBorder'><div class='vertical-center'><img src='img/fixation2_sml.jpg'</img></div></div>","null","DELAY","","","","","","","","","","",""
"html-keyboard-response","103","271969","0.0-7.0-4.13","62851102d56842a48361f9d4","bdp_wmem","Wed Jul 27 2022 13:20:50 GMT-0400 (Eastern Daylight Time)","580104","Match,No Match","","853","","","","","","<div class='trialBorder'><div class='targDiv'><div class='tc'><img class='introPic' src='trustrating_stim/white_mw085.bmp'><br><font color='green'><strong>Share</strong></font></div></div><div class='respDiv'><div class='respDivL'>Match<br>(e)</div><div class='respDivR'>No Match<br>(i)</div></div></div>","i","TARGET","1","trustrating_stim/white_mw070.bmp","1","noMatchFace","i","1500","trustrating_stim/white_mw085.bmp","green","Share","REAL","1"
"html-keyboard-response","104","272474","0.0-7.0-5.13","62851102d56842a48361f9d4","bdp_wmem","Wed Jul 27 2022 13:20:50 GMT-0400 (Eastern Daylight Time)","580104","Match,No Match","","null","","","","","","<div class='trialBorder'><div class='vertical-center'><img src='img/correct.jpg'></div><div class='respDiv'><div class='respDivL'>Match<br>(e)</div><div class='respDivR'><font style='color:orange'>No Match<br>(i)</font></div></div></div>","null","FEEDBACK","","","","","","","","","","",""
"html-keyboard-response","105","272979","0.0-7.0-1.14","62851102d56842a48361f9d4","bdp_wmem","Wed Jul 27 2022 13:20:50 GMT-0400 (Eastern Daylight Time)","580104","Match,No Match","","null","","","","","","<div class='trialBorder'><div class='vertical-center'><img src='img/fixation2_sml.jpg'</img></div></div>","null","FIX","","","","","","","","","","",""
"html-keyboard-response","106","277484","0.0-7.0-2.14","62851102d56842a48361f9d4","bdp_wmem","Wed Jul 27 2022 13:20:50 GMT-0400 (Eastern Daylight Time)","580104","Match,No Match","","null","","","","","","<div class='trialBorder'><div class='vertical-center'><img style='vertical-align:center; align:center' src='img/fixation2_sml.jpg'></div><div class='arrayDiv3'><div class='tl'><img class='introPic' src='trustrating_stim/white_mw070.bmp'><br><font color='red'><strong>Keep</strong></font></div><div class='tc'><img class='introPic' src='trustrating_stim/white_mw012.bmp'><br><font color='green'><strong>Share</strong></font></div><div class='tr'><img class='introPic' src='trustrating_stim/white_mw091.bmp'><br><font color='green'><strong>Share</strong></font></div></div></div>","null","ARRAY","3","trustrating_stim/white_mw070.bmp,trustrating_stim/white_mw012.bmp,trustrating_stim/white_mw091.bmp","0,1,1","noMatchOutcome","i","4500","","","","",""
"html-keyboard-response","107","281489","0.0-7.0-3.14","62851102d56842a48361f9d4","bdp_wmem","Wed Jul 27 2022 13:20:50 GMT-0400 (Eastern Daylight Time)","580104","Match,No Match","","null","","","","","","<div class='trialBorder'><div class='vertical-center'><img src='img/fixation2_sml.jpg'</img></div></div>","null","DELAY","","","","","","","","","","",""
"html-keyboard-response","108","282588","0.0-7.0-4.14","62851102d56842a48361f9d4","bdp_wmem","Wed Jul 27 2022 13:20:50 GMT-0400 (Eastern Daylight Time)","580104","Match,No Match","","1098","","","","","","<div class='trialBorder'><div class='targDiv'><div class='tc'><img class='introPic' src='trustrating_stim/white_mw012.bmp'><br><font color='red'><strong>Keep</strong></font></div></div><div class='respDiv'><div class='respDivL'>Match<br>(e)</div><div class='respDivR'>No Match<br>(i)</div></div></div>","e","TARGET","3","trustrating_stim/white_mw070.bmp,trustrating_stim/white_mw012.bmp,trustrating_stim/white_mw091.bmp","0,1,1","noMatchOutcome","i","4500","trustrating_stim/white_mw012.bmp","red","Keep","REAL","0"
"html-keyboard-response","109","283091","0.0-7.0-5.14","62851102d56842a48361f9d4","bdp_wmem","Wed Jul 27 2022 13:20:50 GMT-0400 (Eastern Daylight Time)","580104","Match,No Match","","null","","","","","","<div class='trialBorder'><div class='vertical-center'><img src='img/error.jpg'></div><div class='respDiv'><div class='respDivL'><font style='color:orange'>Match<br>(e)</font></div><div class='respDivR'>No Match<br>(i)</div></div></div>","null","FEEDBACK","","","","","","","","","","",""
"html-keyboard-response","110","283592","0.0-7.0-1.15","62851102d56842a48361f9d4","bdp_wmem","Wed Jul 27 2022 13:20:50 GMT-0400 (Eastern Daylight Time)","580104","Match,No Match","","null","","","","","","<div class='trialBorder'><div class='vertical-center'><img src='img/fixation2_sml.jpg'</img></div></div>","null","FIX","","","","","","","","","","",""
"html-keyboard-response","111","288096","0.0-7.0-2.15","62851102d56842a48361f9d4","bdp_wmem","Wed Jul 27 2022 13:20:50 GMT-0400 (Eastern Daylight Time)","580104","Match,No Match","","null","","","","","","<div class='trialBorder'><div class='vertical-center'><img style='vertical-align:center; align:center' src='img/fixation2_sml.jpg'></div><div class='arrayDiv3'><div class='tl'><img class='introPic' src='trustrating_stim/white_mw042.bmp'><br><font color='green'><strong>Share</strong></font></div><div class='tc'><img class='introPic' src='trustrating_stim/white_mw085.bmp'><br><font color='red'><strong>Keep</strong></font></div><div class='tr'><img class='introPic' src='trustrating_stim/white_mw092.bmp'><br><font color='red'><strong>Keep</strong></font></div></div></div>","null","ARRAY","3","trustrating_stim/white_mw042.bmp,trustrating_stim/white_mw085.bmp,trustrating_stim/white_mw092.bmp","1,0,0","noMatchFace","i","4500","","","","",""
"html-keyboard-response","112","292101","0.0-7.0-3.15","62851102d56842a48361f9d4","bdp_wmem","Wed Jul 27 2022 13:20:50 GMT-0400 (Eastern Daylight Time)","580104","Match,No Match","","null","","","","","","<div class='trialBorder'><div class='vertical-center'><img src='img/fixation2_sml.jpg'</img></div></div>","null","DELAY","","","","","","","","","","",""
"html-keyboard-response","113","293183","0.0-7.0-4.15","62851102d56842a48361f9d4","bdp_wmem","Wed Jul 27 2022 13:20:50 GMT-0400 (Eastern Daylight Time)","580104","Match,No Match","","1081","","","","","","<div class='trialBorder'><div class='targDiv'><div class='tc'><img class='introPic' src='trustrating_stim/white_mw003.bmp'><br><font color='red'><strong>Keep</strong></font></div></div><div class='respDiv'><div class='respDivL'>Match<br>(e)</div><div class='respDivR'>No Match<br>(i)</div></div></div>","i","TARGET","3","trustrating_stim/white_mw042.bmp,trustrating_stim/white_mw085.bmp,trustrating_stim/white_mw092.bmp","1,0,0","noMatchFace","i","4500","trustrating_stim/white_mw003.bmp","red","Keep","REAL","1"
"html-keyboard-response","114","293686","0.0-7.0-5.15","62851102d56842a48361f9d4","bdp_wmem","Wed Jul 27 2022 13:20:50 GMT-0400 (Eastern Daylight Time)","580104","Match,No Match","","null","","","","","","<div class='trialBorder'><div class='vertical-center'><img src='img/correct.jpg'></div><div class='respDiv'><div class='respDivL'>Match<br>(e)</div><div class='respDivR'><font style='color:orange'>No Match<br>(i)</font></div></div></div>","null","FEEDBACK","","","","","","","","","","",""
"html-keyboard-response","115","294191","0.0-7.0-1.16","62851102d56842a48361f9d4","bdp_wmem","Wed Jul 27 2022 13:20:50 GMT-0400 (Eastern Daylight Time)","580104","Match,No Match","","null","","","","","","<div class='trialBorder'><div class='vertical-center'><img src='img/fixation2_sml.jpg'</img></div></div>","null","FIX","","","","","","","","","","",""
"html-keyboard-response","116","297194","0.0-7.0-2.16","62851102d56842a48361f9d4","bdp_wmem","Wed Jul 27 2022 13:20:50 GMT-0400 (Eastern Daylight Time)","580104","Match,No Match","","null","","","","","","<div class='trialBorder'><div class='vertical-center'><img style='vertical-align:center; align:center' src='img/fixation2_sml.jpg'></div><div class='arrayDiv2'><div class='tl'><img class='introPic' src='trustrating_stim/white_mw070.bmp'><br><font color='green'><strong>Share</strong></font></div><div class='tr'><img class='introPic' src='trustrating_stim/white_mw091.bmp'><br><font color='red'><strong>Keep</strong></font></div></div></div>","null","ARRAY","2","trustrating_stim/white_mw070.bmp,trustrating_stim/white_mw091.bmp","1,0","Match","e","3000","","","","",""
"html-keyboard-response","117","301199","0.0-7.0-3.16","62851102d56842a48361f9d4","bdp_wmem","Wed Jul 27 2022 13:20:50 GMT-0400 (Eastern Daylight Time)","580104","Match,No Match","","null","","","","","","<div class='trialBorder'><div class='vertical-center'><img src='img/fixation2_sml.jpg'</img></div></div>","null","DELAY","","","","","","","","","","",""
"html-keyboard-response","118","301622","0.0-7.0-4.16","62851102d56842a48361f9d4","bdp_wmem","Wed Jul 27 2022 13:20:50 GMT-0400 (Eastern Daylight Time)","580104","Match,No Match","","422","","","","","","<div class='trialBorder'><div class='targDiv'><div class='tc'><img class='introPic' src='trustrating_stim/white_mw091.bmp'><br><font color='red'><strong>Keep</strong></font></div></div><div class='respDiv'><div class='respDivL'>Match<br>(e)</div><div class='respDivR'>No Match<br>(i)</div></div></div>","e","TARGET","2","trustrating_stim/white_mw070.bmp,trustrating_stim/white_mw091.bmp","1,0","Match","e","3000","trustrating_stim/white_mw091.bmp","red","Keep","REAL","1"
"html-keyboard-response","119","302127","0.0-7.0-5.16","62851102d56842a48361f9d4","bdp_wmem","Wed Jul 27 2022 13:20:50 GMT-0400 (Eastern Daylight Time)","580104","Match,No Match","","null","","","","","","<div class='trialBorder'><div class='vertical-center'><img src='img/correct.jpg'></div><div class='respDiv'><div class='respDivL'><font style='color:orange'>Match<br>(e)</font></div><div class='respDivR'>No Match<br>(i)</div></div></div>","null","FEEDBACK","","","","","","","","","","",""
"html-keyboard-response","120","302631","0.0-7.0-1.17","62851102d56842a48361f9d4","bdp_wmem","Wed Jul 27 2022 13:20:50 GMT-0400 (Eastern Daylight Time)","580104","Match,No Match","","null","","","","","","<div class='trialBorder'><div class='vertical-center'><img src='img/fixation2_sml.jpg'</img></div></div>","null","FIX","","","","","","","","","","",""
"html-keyboard-response","121","307136","0.0-7.0-2.17","62851102d56842a48361f9d4","bdp_wmem","Wed Jul 27 2022 13:20:50 GMT-0400 (Eastern Daylight Time)","580104","Match,No Match","","null","","","","","","<div class='trialBorder'><div class='vertical-center'><img style='vertical-align:center; align:center' src='img/fixation2_sml.jpg'></div><div class='arrayDiv3'><div class='tl'><img class='introPic' src='trustrating_stim/white_mw092.bmp'><br><font color='green'><strong>Share</strong></font></div><div class='tc'><img class='introPic' src='trustrating_stim/white_mw078.bmp'><br><font color='green'><strong>Share</strong></font></div><div class='tr'><img class='introPic' src='trustrating_stim/white_mw013.bmp'><br><font color='red'><strong>Keep</strong></font></div></div></div>","null","ARRAY","3","trustrating_stim/white_mw092.bmp,trustrating_stim/white_mw078.bmp,trustrating_stim/white_mw013.bmp","1,1,0","Match","e","4500","","","","",""
"html-keyboard-response","122","311139","0.0-7.0-3.17","62851102d56842a48361f9d4","bdp_wmem","Wed Jul 27 2022 13:20:50 GMT-0400 (Eastern Daylight Time)","580104","Match,No Match","","null","","","","","","<div class='trialBorder'><div class='vertical-center'><img src='img/fixation2_sml.jpg'</img></div></div>","null","DELAY","","","","","","","","","","",""
"html-keyboard-response","123","312313","0.0-7.0-4.17","62851102d56842a48361f9d4","bdp_wmem","Wed Jul 27 2022 13:20:50 GMT-0400 (Eastern Daylight Time)","580104","Match,No Match","","1172","","","","","","<div class='trialBorder'><div class='targDiv'><div class='tc'><img class='introPic' src='trustrating_stim/white_mw013.bmp'><br><font color='red'><strong>Keep</strong></font></div></div><div class='respDiv'><div class='respDivL'>Match<br>(e)</div><div class='respDivR'>No Match<br>(i)</div></div></div>","e","TARGET","3","trustrating_stim/white_mw092.bmp,trustrating_stim/white_mw078.bmp,trustrating_stim/white_mw013.bmp","1,1,0","Match","e","4500","trustrating_stim/white_mw013.bmp","red","Keep","REAL","1"
"html-keyboard-response","124","312815","0.0-7.0-5.17","62851102d56842a48361f9d4","bdp_wmem","Wed Jul 27 2022 13:20:50 GMT-0400 (Eastern Daylight Time)","580104","Match,No Match","","null","","","","","","<div class='trialBorder'><div class='vertical-center'><img src='img/correct.jpg'></div><div class='respDiv'><div class='respDivL'><font style='color:orange'>Match<br>(e)</font></div><div class='respDivR'>No Match<br>(i)</div></div></div>","null","FEEDBACK","","","","","","","","","","",""
"html-keyboard-response","125","313318","0.0-7.0-1.18","62851102d56842a48361f9d4","bdp_wmem","Wed Jul 27 2022 13:20:50 GMT-0400 (Eastern Daylight Time)","580104","Match,No Match","","null","","","","","","<div class='trialBorder'><div class='vertical-center'><img src='img/fixation2_sml.jpg'</img></div></div>","null","FIX","","","","","","","","","","",""
"html-keyboard-response","126","314823","0.0-7.0-2.18","62851102d56842a48361f9d4","bdp_wmem","Wed Jul 27 2022 13:20:50 GMT-0400 (Eastern Daylight Time)","580104","Match,No Match","","null","","","","","","<div class='trialBorder'><div class='vertical-center'><img style='vertical-align:center; align:center' src='img/fixation2_sml.jpg'></div><div class='arrayDiv1'><div class='tc'><img class='introPic' src='trustrating_stim/white_mw070.bmp'><br><font color='green'><strong>Share</strong></font></div></div></div>","null","ARRAY","1","trustrating_stim/white_mw070.bmp","1","Match","e","1500","","","","",""
"html-keyboard-response","127","318828","0.0-7.0-3.18","62851102d56842a48361f9d4","bdp_wmem","Wed Jul 27 2022 13:20:50 GMT-0400 (Eastern Daylight Time)","580104","Match,No Match","","null","","","","","","<div class='trialBorder'><div class='vertical-center'><img src='img/fixation2_sml.jpg'</img></div></div>","null","DELAY","","","","","","","","","","",""
"html-keyboard-response","128","319451","0.0-7.0-4.18","62851102d56842a48361f9d4","bdp_wmem","Wed Jul 27 2022 13:20:50 GMT-0400 (Eastern Daylight Time)","580104","Match,No Match","","623","","","","","","<div class='trialBorder'><div class='targDiv'><div class='tc'><img class='introPic' src='trustrating_stim/white_mw070.bmp'><br><font color='green'><strong>Share</strong></font></div></div><div class='respDiv'><div class='respDivL'>Match<br>(e)</div><div class='respDivR'>No Match<br>(i)</div></div></div>","e","TARGET","1","trustrating_stim/white_mw070.bmp","1","Match","e","1500","trustrating_stim/white_mw070.bmp","green","Share","REAL","1"
"html-keyboard-response","129","319955","0.0-7.0-5.18","62851102d56842a48361f9d4","bdp_wmem","Wed Jul 27 2022 13:20:50 GMT-0400 (Eastern Daylight Time)","580104","Match,No Match","","null","","","","","","<div class='trialBorder'><div class='vertical-center'><img src='img/correct.jpg'></div><div class='respDiv'><div class='respDivL'><font style='color:orange'>Match<br>(e)</font></div><div class='respDivR'>No Match<br>(i)</div></div></div>","null","FEEDBACK","","","","","","","","","","",""
"html-keyboard-response","130","320459","0.0-7.0-1.19","62851102d56842a48361f9d4","bdp_wmem","Wed Jul 27 2022 13:20:50 GMT-0400 (Eastern Daylight Time)","580104","Match,No Match","","null","","","","","","<div class='trialBorder'><div class='vertical-center'><img src='img/fixation2_sml.jpg'</img></div></div>","null","FIX","","","","","","","","","","",""
"html-keyboard-response","131","321962","0.0-7.0-2.19","62851102d56842a48361f9d4","bdp_wmem","Wed Jul 27 2022 13:20:50 GMT-0400 (Eastern Daylight Time)","580104","Match,No Match","","null","","","","","","<div class='trialBorder'><div class='vertical-center'><img style='vertical-align:center; align:center' src='img/fixation2_sml.jpg'></div><div class='arrayDiv1'><div class='tc'><img class='introPic' src='trustrating_stim/white_mw040.bmp'><br><font color='red'><strong>Keep</strong></font></div></div></div>","null","ARRAY","1","trustrating_stim/white_mw040.bmp","0","Match","e","1500","","","","",""
"html-keyboard-response","132","325963","0.0-7.0-3.19","62851102d56842a48361f9d4","bdp_wmem","Wed Jul 27 2022 13:20:50 GMT-0400 (Eastern Daylight Time)","580104","Match,No Match","","null","","","","","","<div class='trialBorder'><div class='vertical-center'><img src='img/fixation2_sml.jpg'</img></div></div>","null","DELAY","","","","","","","","","","",""
"html-keyboard-response","133","326569","0.0-7.0-4.19","62851102d56842a48361f9d4","bdp_wmem","Wed Jul 27 2022 13:20:50 GMT-0400 (Eastern Daylight Time)","580104","Match,No Match","","604","","","","","","<div class='trialBorder'><div class='targDiv'><div class='tc'><img class='introPic' src='trustrating_stim/white_mw040.bmp'><br><font color='red'><strong>Keep</strong></font></div></div><div class='respDiv'><div class='respDivL'>Match<br>(e)</div><div class='respDivR'>No Match<br>(i)</div></div></div>","e","TARGET","1","trustrating_stim/white_mw040.bmp","0","Match","e","1500","trustrating_stim/white_mw040.bmp","red","Keep","REAL","1"
"html-keyboard-response","134","327070","0.0-7.0-5.19","62851102d56842a48361f9d4","bdp_wmem","Wed Jul 27 2022 13:20:50 GMT-0400 (Eastern Daylight Time)","580104","Match,No Match","","null","","","","","","<div class='trialBorder'><div class='vertical-center'><img src='img/correct.jpg'></div><div class='respDiv'><div class='respDivL'><font style='color:orange'>Match<br>(e)</font></div><div class='respDivR'>No Match<br>(i)</div></div></div>","null","FEEDBACK","","","","","","","","","","",""
"html-keyboard-response","135","327575","0.0-7.0-1.20","62851102d56842a48361f9d4","bdp_wmem","Wed Jul 27 2022 13:20:50 GMT-0400 (Eastern Daylight Time)","580104","Match,No Match","","null","","","","","","<div class='trialBorder'><div class='vertical-center'><img src='img/fixation2_sml.jpg'</img></div></div>","null","FIX","","","","","","","","","","",""
"html-keyboard-response","136","329080","0.0-7.0-2.20","62851102d56842a48361f9d4","bdp_wmem","Wed Jul 27 2022 13:20:50 GMT-0400 (Eastern Daylight Time)","580104","Match,No Match","","null","","","","","","<div class='trialBorder'><div class='vertical-center'><img style='vertical-align:center; align:center' src='img/fixation2_sml.jpg'></div><div class='arrayDiv1'><div class='tc'><img class='introPic' src='trustrating_stim/white_mw042.bmp'><br><font color='red'><strong>Keep</strong></font></div></div></div>","null","ARRAY","1","trustrating_stim/white_mw042.bmp","0","noMatchFace","i","1500","","","","",""
"html-keyboard-response","137","333085","0.0-7.0-3.20","62851102d56842a48361f9d4","bdp_wmem","Wed Jul 27 2022 13:20:50 GMT-0400 (Eastern Daylight Time)","580104","Match,No Match","","null","","","","","","<div class='trialBorder'><div class='vertical-center'><img src='img/fixation2_sml.jpg'</img></div></div>","null","DELAY","","","","","","","","","","",""
"html-keyboard-response","138","333770","0.0-7.0-4.20","62851102d56842a48361f9d4","bdp_wmem","Wed Jul 27 2022 13:20:50 GMT-0400 (Eastern Daylight Time)","580104","Match,No Match","","683","","","","","","<div class='trialBorder'><div class='targDiv'><div class='tc'><img class='introPic' src='trustrating_stim/white_mw085.bmp'><br><font color='red'><strong>Keep</strong></font></div></div><div class='respDiv'><div class='respDivL'>Match<br>(e)</div><div class='respDivR'>No Match<br>(i)</div></div></div>","i","TARGET","1","trustrating_stim/white_mw042.bmp","0","noMatchFace","i","1500","trustrating_stim/white_mw085.bmp","red","Keep","REAL","1"
"html-keyboard-response","139","334270","0.0-7.0-5.20","62851102d56842a48361f9d4","bdp_wmem","Wed Jul 27 2022 13:20:50 GMT-0400 (Eastern Daylight Time)","580104","Match,No Match","","null","","","","","","<div class='trialBorder'><div class='vertical-center'><img src='img/correct.jpg'></div><div class='respDiv'><div class='respDivL'>Match<br>(e)</div><div class='respDivR'><font style='color:orange'>No Match<br>(i)</font></div></div></div>","null","FEEDBACK","","","","","","","","","","",""
"html-keyboard-response","140","334774","0.0-7.0-1.21","62851102d56842a48361f9d4","bdp_wmem","Wed Jul 27 2022 13:20:50 GMT-0400 (Eastern Daylight Time)","580104","Match,No Match","","null","","","","","","<div class='trialBorder'><div class='vertical-center'><img src='img/fixation2_sml.jpg'</img></div></div>","null","FIX","","","","","","","","","","",""
"html-keyboard-response","141","339279","0.0-7.0-2.21","62851102d56842a48361f9d4","bdp_wmem","Wed Jul 27 2022 13:20:50 GMT-0400 (Eastern Daylight Time)","580104","Match,No Match","","null","","","","","","<div class='trialBorder'><div class='vertical-center'><img style='vertical-align:center; align:center' src='img/fixation2_sml.jpg'></div><div class='arrayDiv3'><div class='tl'><img class='introPic' src='trustrating_stim/white_mw091.bmp'><br><font color='green'><strong>Share</strong></font></div><div class='tc'><img class='introPic' src='trustrating_stim/white_mw040.bmp'><br><font color='red'><strong>Keep</strong></font></div><div class='tr'><img class='introPic' src='trustrating_stim/white_mw042.bmp'><br><font color='green'><strong>Share</strong></font></div></div></div>","null","ARRAY","3","trustrating_stim/white_mw091.bmp,trustrating_stim/white_mw040.bmp,trustrating_stim/white_mw042.bmp","1,0,1","Match","e","4500","","","","",""
"html-keyboard-response","142","343285","0.0-7.0-3.21","62851102d56842a48361f9d4","bdp_wmem","Wed Jul 27 2022 13:20:50 GMT-0400 (Eastern Daylight Time)","580104","Match,No Match","","null","","","","","","<div class='trialBorder'><div class='vertical-center'><img src='img/fixation2_sml.jpg'</img></div></div>","null","DELAY","","","","","","","","","","",""
"html-keyboard-response","143","344626","0.0-7.0-4.21","62851102d56842a48361f9d4","bdp_wmem","Wed Jul 27 2022 13:20:50 GMT-0400 (Eastern Daylight Time)","580104","Match,No Match","","1340","","","","","","<div class='trialBorder'><div class='targDiv'><div class='tc'><img class='introPic' src='trustrating_stim/white_mw040.bmp'><br><font color='red'><strong>Keep</strong></font></div></div><div class='respDiv'><div class='respDivL'>Match<br>(e)</div><div class='respDivR'>No Match<br>(i)</div></div></div>","e","TARGET","3","trustrating_stim/white_mw091.bmp,trustrating_stim/white_mw040.bmp,trustrating_stim/white_mw042.bmp","1,0,1","Match","e","4500","trustrating_stim/white_mw040.bmp","red","Keep","REAL","1"
"html-keyboard-response","144","345131","0.0-7.0-5.21","62851102d56842a48361f9d4","bdp_wmem","Wed Jul 27 2022 13:20:50 GMT-0400 (Eastern Daylight Time)","580104","Match,No Match","","null","","","","","","<div class='trialBorder'><div class='vertical-center'><img src='img/correct.jpg'></div><div class='respDiv'><div class='respDivL'><font style='color:orange'>Match<br>(e)</font></div><div class='respDivR'>No Match<br>(i)</div></div></div>","null","FEEDBACK","","","","","","","","","","",""
"html-keyboard-response","145","345636","0.0-7.0-1.22","62851102d56842a48361f9d4","bdp_wmem","Wed Jul 27 2022 13:20:50 GMT-0400 (Eastern Daylight Time)","580104","Match,No Match","","null","","","","","","<div class='trialBorder'><div class='vertical-center'><img src='img/fixation2_sml.jpg'</img></div></div>","null","FIX","","","","","","","","","","",""
"html-keyboard-response","146","350140","0.0-7.0-2.22","62851102d56842a48361f9d4","bdp_wmem","Wed Jul 27 2022 13:20:50 GMT-0400 (Eastern Daylight Time)","580104","Match,No Match","","null","","","","","","<div class='trialBorder'><div class='vertical-center'><img style='vertical-align:center; align:center' src='img/fixation2_sml.jpg'></div><div class='arrayDiv3'><div class='tl'><img class='introPic' src='trustrating_stim/white_mw010.bmp'><br><font color='red'><strong>Keep</strong></font></div><div class='tc'><img class='introPic' src='trustrating_stim/white_mw085.bmp'><br><font color='green'><strong>Share</strong></font></div><div class='tr'><img class='introPic' src='trustrating_stim/white_mw070.bmp'><br><font color='green'><strong>Share</strong></font></div></div></div>","null","ARRAY","3","trustrating_stim/white_mw010.bmp,trustrating_stim/white_mw085.bmp,trustrating_stim/white_mw070.bmp","0,1,1","noMatchOutcome","i","4500","","","","",""
"html-keyboard-response","147","354143","0.0-7.0-3.22","62851102d56842a48361f9d4","bdp_wmem","Wed Jul 27 2022 13:20:50 GMT-0400 (Eastern Daylight Time)","580104","Match,No Match","","null","","","","","","<div class='trialBorder'><div class='vertical-center'><img src='img/fixation2_sml.jpg'</img></div></div>","null","DELAY","","","","","","","","","","",""
"html-keyboard-response","148","355253","0.0-7.0-4.22","62851102d56842a48361f9d4","bdp_wmem","Wed Jul 27 2022 13:20:50 GMT-0400 (Eastern Daylight Time)","580104","Match,No Match","","1109","","","","","","<div class='trialBorder'><div class='targDiv'><div class='tc'><img class='introPic' src='trustrating_stim/white_mw085.bmp'><br><font color='red'><strong>Keep</strong></font></div></div><div class='respDiv'><div class='respDivL'>Match<br>(e)</div><div class='respDivR'>No Match<br>(i)</div></div></div>","i","TARGET","3","trustrating_stim/white_mw010.bmp,trustrating_stim/white_mw085.bmp,trustrating_stim/white_mw070.bmp","0,1,1","noMatchOutcome","i","4500","trustrating_stim/white_mw085.bmp","red","Keep","REAL","1"
"html-keyboard-response","149","355756","0.0-7.0-5.22","62851102d56842a48361f9d4","bdp_wmem","Wed Jul 27 2022 13:20:50 GMT-0400 (Eastern Daylight Time)","580104","Match,No Match","","null","","","","","","<div class='trialBorder'><div class='vertical-center'><img src='img/correct.jpg'></div><div class='respDiv'><div class='respDivL'>Match<br>(e)</div><div class='respDivR'><font style='color:orange'>No Match<br>(i)</font></div></div></div>","null","FEEDBACK","","","","","","","","","","",""
"html-keyboard-response","150","356259","0.0-7.0-1.23","62851102d56842a48361f9d4","bdp_wmem","Wed Jul 27 2022 13:20:50 GMT-0400 (Eastern Daylight Time)","580104","Match,No Match","","null","","","","","","<div class='trialBorder'><div class='vertical-center'><img src='img/fixation2_sml.jpg'</img></div></div>","null","FIX","","","","","","","","","","",""
"html-keyboard-response","151","359264","0.0-7.0-2.23","62851102d56842a48361f9d4","bdp_wmem","Wed Jul 27 2022 13:20:50 GMT-0400 (Eastern Daylight Time)","580104","Match,No Match","","null","","","","","","<div class='trialBorder'><div class='vertical-center'><img style='vertical-align:center; align:center' src='img/fixation2_sml.jpg'></div><div class='arrayDiv2'><div class='tl'><img class='introPic' src='trustrating_stim/white_mw040.bmp'><br><font color='green'><strong>Share</strong></font></div><div class='tr'><img class='introPic' src='trustrating_stim/white_mw091.bmp'><br><font color='red'><strong>Keep</strong></font></div></div></div>","null","ARRAY","2","trustrating_stim/white_mw040.bmp,trustrating_stim/white_mw091.bmp","1,0","noMatchOutcome","i","3000","","","","",""
"html-keyboard-response","152","363265","0.0-7.0-3.23","62851102d56842a48361f9d4","bdp_wmem","Wed Jul 27 2022 13:20:50 GMT-0400 (Eastern Daylight Time)","580104","Match,No Match","","null","","","","","","<div class='trialBorder'><div class='vertical-center'><img src='img/fixation2_sml.jpg'</img></div></div>","null","DELAY","","","","","","","","","","",""
"html-keyboard-response","153","364132","0.0-7.0-4.23","62851102d56842a48361f9d4","bdp_wmem","Wed Jul 27 2022 13:20:50 GMT-0400 (Eastern Daylight Time)","580104","Match,No Match","","866","","","","","","<div class='trialBorder'><div class='targDiv'><div class='tc'><img class='introPic' src='trustrating_stim/white_mw091.bmp'><br><font color='green'><strong>Share</strong></font></div></div><div class='respDiv'><div class='respDivL'>Match<br>(e)</div><div class='respDivR'>No Match<br>(i)</div></div></div>","i","TARGET","2","trustrating_stim/white_mw040.bmp,trustrating_stim/white_mw091.bmp","1,0","noMatchOutcome","i","3000","trustrating_stim/white_mw091.bmp","green","Share","REAL","1"
"html-keyboard-response","154","364636","0.0-7.0-5.23","62851102d56842a48361f9d4","bdp_wmem","Wed Jul 27 2022 13:20:50 GMT-0400 (Eastern Daylight Time)","580104","Match,No Match","","null","","","","","","<div class='trialBorder'><div class='vertical-center'><img src='img/correct.jpg'></div><div class='respDiv'><div class='respDivL'>Match<br>(e)</div><div class='respDivR'><font style='color:orange'>No Match<br>(i)</font></div></div></div>","null","FEEDBACK","","","","","","","","","","",""
"html-keyboard-response","155","365140","0.0-7.0-1.24","62851102d56842a48361f9d4","bdp_wmem","Wed Jul 27 2022 13:20:50 GMT-0400 (Eastern Daylight Time)","580104","Match,No Match","","null","","","","","","<div class='trialBorder'><div class='vertical-center'><img src='img/fixation2_sml.jpg'</img></div></div>","null","FIX","","","","","","","","","","",""
"html-keyboard-response","156","366645","0.0-7.0-2.24","62851102d56842a48361f9d4","bdp_wmem","Wed Jul 27 2022 13:20:50 GMT-0400 (Eastern Daylight Time)","580104","Match,No Match","","null","","","","","","<div class='trialBorder'><div class='vertical-center'><img style='vertical-align:center; align:center' src='img/fixation2_sml.jpg'></div><div class='arrayDiv1'><div class='tc'><img class='introPic' src='trustrating_stim/white_mw085.bmp'><br><font color='red'><strong>Keep</strong></font></div></div></div>","null","ARRAY","1","trustrating_stim/white_mw085.bmp","0","noMatchOutcome","i","1500","","","","",""
"html-keyboard-response","157","370650","0.0-7.0-3.24","62851102d56842a48361f9d4","bdp_wmem","Wed Jul 27 2022 13:20:50 GMT-0400 (Eastern Daylight Time)","580104","Match,No Match","","null","","","","","","<div class='trialBorder'><div class='vertical-center'><img src='img/fixation2_sml.jpg'</img></div></div>","null","DELAY","","","","","","","","","","",""
"html-keyboard-response","158","371290","0.0-7.0-4.24","62851102d56842a48361f9d4","bdp_wmem","Wed Jul 27 2022 13:20:50 GMT-0400 (Eastern Daylight Time)","580104","Match,No Match","","639","","","","","","<div class='trialBorder'><div class='targDiv'><div class='tc'><img class='introPic' src='trustrating_stim/white_mw085.bmp'><br><font color='green'><strong>Share</strong></font></div></div><div class='respDiv'><div class='respDivL'>Match<br>(e)</div><div class='respDivR'>No Match<br>(i)</div></div></div>","i","TARGET","1","trustrating_stim/white_mw085.bmp","0","noMatchOutcome","i","1500","trustrating_stim/white_mw085.bmp","green","Share","REAL","1"
"html-keyboard-response","159","371793","0.0-7.0-5.24","62851102d56842a48361f9d4","bdp_wmem","Wed Jul 27 2022 13:20:50 GMT-0400 (Eastern Daylight Time)","580104","Match,No Match","","null","","","","","","<div class='trialBorder'><div class='vertical-center'><img src='img/correct.jpg'></div><div class='respDiv'><div class='respDivL'>Match<br>(e)</div><div class='respDivR'><font style='color:orange'>No Match<br>(i)</font></div></div></div>","null","FEEDBACK","","","","","","","","","","",""
"html-keyboard-response","160","372299","0.0-7.0-1.25","62851102d56842a48361f9d4","bdp_wmem","Wed Jul 27 2022 13:20:50 GMT-0400 (Eastern Daylight Time)","580104","Match,No Match","","null","","","","","","<div class='trialBorder'><div class='vertical-center'><img src='img/fixation2_sml.jpg'</img></div></div>","null","FIX","","","","","","","","","","",""
"html-keyboard-response","161","373802","0.0-7.0-2.25","62851102d56842a48361f9d4","bdp_wmem","Wed Jul 27 2022 13:20:50 GMT-0400 (Eastern Daylight Time)","580104","Match,No Match","","null","","","","","","<div class='trialBorder'><div class='vertical-center'><img style='vertical-align:center; align:center' src='img/fixation2_sml.jpg'></div><div class='arrayDiv1'><div class='tc'><img class='introPic' src='trustrating_stim/white_mw091.bmp'><br><font color='green'><strong>Share</strong></font></div></div></div>","null","ARRAY","1","trustrating_stim/white_mw091.bmp","1","Match","e","1500","","","","",""
"html-keyboard-response","162","377804","0.0-7.0-3.25","62851102d56842a48361f9d4","bdp_wmem","Wed Jul 27 2022 13:20:50 GMT-0400 (Eastern Daylight Time)","580104","Match,No Match","","null","","","","","","<div class='trialBorder'><div class='vertical-center'><img src='img/fixation2_sml.jpg'</img></div></div>","null","DELAY","","","","","","","","","","",""
"html-keyboard-response","163","379003","0.0-7.0-4.25","62851102d56842a48361f9d4","bdp_wmem","Wed Jul 27 2022 13:20:50 GMT-0400 (Eastern Daylight Time)","580104","Match,No Match","","1198","","","","","","<div class='trialBorder'><div class='targDiv'><div class='tc'><img class='introPic' src='trustrating_stim/white_mw091.bmp'><br><font color='green'><strong>Share</strong></font></div></div><div class='respDiv'><div class='respDivL'>Match<br>(e)</div><div class='respDivR'>No Match<br>(i)</div></div></div>","e","TARGET","1","trustrating_stim/white_mw091.bmp","1","Match","e","1500","trustrating_stim/white_mw091.bmp","green","Share","REAL","1"
"html-keyboard-response","164","379503","0.0-7.0-5.25","62851102d56842a48361f9d4","bdp_wmem","Wed Jul 27 2022 13:20:50 GMT-0400 (Eastern Daylight Time)","580104","Match,No Match","","null","","","","","","<div class='trialBorder'><div class='vertical-center'><img src='img/correct.jpg'></div><div class='respDiv'><div class='respDivL'><font style='color:orange'>Match<br>(e)</font></div><div class='respDivR'>No Match<br>(i)</div></div></div>","null","FEEDBACK","","","","","","","","","","",""
"html-keyboard-response","165","380008","0.0-7.0-1.26","62851102d56842a48361f9d4","bdp_wmem","Wed Jul 27 2022 13:20:50 GMT-0400 (Eastern Daylight Time)","580104","Match,No Match","","null","","","","","","<div class='trialBorder'><div class='vertical-center'><img src='img/fixation2_sml.jpg'</img></div></div>","null","FIX","","","","","","","","","","",""
"html-keyboard-response","166","384513","0.0-7.0-2.26","62851102d56842a48361f9d4","bdp_wmem","Wed Jul 27 2022 13:20:50 GMT-0400 (Eastern Daylight Time)","580104","Match,No Match","","null","","","","","","<div class='trialBorder'><div class='vertical-center'><img style='vertical-align:center; align:center' src='img/fixation2_sml.jpg'></div><div class='arrayDiv3'><div class='tl'><img class='introPic' src='trustrating_stim/white_mw003.bmp'><br><font color='green'><strong>Share</strong></font></div><div class='tc'><img class='introPic' src='trustrating_stim/white_mw012.bmp'><br><font color='red'><strong>Keep</strong></font></div><div class='tr'><img class='introPic' src='trustrating_stim/white_mw010.bmp'><br><font color='red'><strong>Keep</strong></font></div></div></div>","null","ARRAY","3","trustrating_stim/white_mw003.bmp,trustrating_stim/white_mw012.bmp,trustrating_stim/white_mw010.bmp","1,0,0","noMatchFace","i","4500","","","","",""
"html-keyboard-response","167","388517","0.0-7.0-3.26","62851102d56842a48361f9d4","bdp_wmem","Wed Jul 27 2022 13:20:50 GMT-0400 (Eastern Daylight Time)","580104","Match,No Match","","null","","","","","","<div class='trialBorder'><div class='vertical-center'><img src='img/fixation2_sml.jpg'</img></div></div>","null","DELAY","","","","","","","","","","",""
"html-keyboard-response","168","389649","0.0-7.0-4.26","62851102d56842a48361f9d4","bdp_wmem","Wed Jul 27 2022 13:20:50 GMT-0400 (Eastern Daylight Time)","580104","Match,No Match","","1131","","","","","","<div class='trialBorder'><div class='targDiv'><div class='tc'><img class='introPic' src='trustrating_stim/white_mw085.bmp'><br><font color='red'><strong>Keep</strong></font></div></div><div class='respDiv'><div class='respDivL'>Match<br>(e)</div><div class='respDivR'>No Match<br>(i)</div></div></div>","i","TARGET","3","trustrating_stim/white_mw003.bmp,trustrating_stim/white_mw012.bmp,trustrating_stim/white_mw010.bmp","1,0,0","noMatchFace","i","4500","trustrating_stim/white_mw085.bmp","red","Keep","REAL","1"
"html-keyboard-response","169","390151","0.0-7.0-5.26","62851102d56842a48361f9d4","bdp_wmem","Wed Jul 27 2022 13:20:50 GMT-0400 (Eastern Daylight Time)","580104","Match,No Match","","null","","","","","","<div class='trialBorder'><div class='vertical-center'><img src='img/correct.jpg'></div><div class='respDiv'><div class='respDivL'>Match<br>(e)</div><div class='respDivR'><font style='color:orange'>No Match<br>(i)</font></div></div></div>","null","FEEDBACK","","","","","","","","","","",""
"html-keyboard-response","170","390654","0.0-7.0-1.27","62851102d56842a48361f9d4","bdp_wmem","Wed Jul 27 2022 13:20:50 GMT-0400 (Eastern Daylight Time)","580104","Match,No Match","","null","","","","","","<div class='trialBorder'><div class='vertical-center'><img src='img/fixation2_sml.jpg'</img></div></div>","null","FIX","","","","","","","","","","",""
"html-keyboard-response","171","395159","0.0-7.0-2.27","62851102d56842a48361f9d4","bdp_wmem","Wed Jul 27 2022 13:20:50 GMT-0400 (Eastern Daylight Time)","580104","Match,No Match","","null","","","","","","<div class='trialBorder'><div class='vertical-center'><img style='vertical-align:center; align:center' src='img/fixation2_sml.jpg'></div><div class='arrayDiv3'><div class='tl'><img class='introPic' src='trustrating_stim/white_mw003.bmp'><br><font color='green'><strong>Share</strong></font></div><div class='tc'><img class='introPic' src='trustrating_stim/white_mw040.bmp'><br><font color='red'><strong>Keep</strong></font></div><div class='tr'><img class='introPic' src='trustrating_stim/white_mw085.bmp'><br><font color='red'><strong>Keep</strong></font></div></div></div>","null","ARRAY","3","trustrating_stim/white_mw003.bmp,trustrating_stim/white_mw040.bmp,trustrating_stim/white_mw085.bmp","1,0,0","Match","e","4500","","","","",""
"html-keyboard-response","172","399164","0.0-7.0-3.27","62851102d56842a48361f9d4","bdp_wmem","Wed Jul 27 2022 13:20:50 GMT-0400 (Eastern Daylight Time)","580104","Match,No Match","","null","","","","","","<div class='trialBorder'><div class='vertical-center'><img src='img/fixation2_sml.jpg'</img></div></div>","null","DELAY","","","","","","","","","","",""
"html-keyboard-response","173","400318","0.0-7.0-4.27","62851102d56842a48361f9d4","bdp_wmem","Wed Jul 27 2022 13:20:50 GMT-0400 (Eastern Daylight Time)","580104","Match,No Match","","1153","","","","","","<div class='trialBorder'><div class='targDiv'><div class='tc'><img class='introPic' src='trustrating_stim/white_mw040.bmp'><br><font color='red'><strong>Keep</strong></font></div></div><div class='respDiv'><div class='respDivL'>Match<br>(e)</div><div class='respDivR'>No Match<br>(i)</div></div></div>","e","TARGET","3","trustrating_stim/white_mw003.bmp,trustrating_stim/white_mw040.bmp,trustrating_stim/white_mw085.bmp","1,0,0","Match","e","4500","trustrating_stim/white_mw040.bmp","red","Keep","REAL","1"
"html-keyboard-response","174","400820","0.0-7.0-5.27","62851102d56842a48361f9d4","bdp_wmem","Wed Jul 27 2022 13:20:50 GMT-0400 (Eastern Daylight Time)","580104","Match,No Match","","null","","","","","","<div class='trialBorder'><div class='vertical-center'><img src='img/correct.jpg'></div><div class='respDiv'><div class='respDivL'><font style='color:orange'>Match<br>(e)</font></div><div class='respDivR'>No Match<br>(i)</div></div></div>","null","FEEDBACK","","","","","","","","","","",""
"html-keyboard-response","175","401324","0.0-7.0-1.28","62851102d56842a48361f9d4","bdp_wmem","Wed Jul 27 2022 13:20:50 GMT-0400 (Eastern Daylight Time)","580104","Match,No Match","","null","","","","","","<div class='trialBorder'><div class='vertical-center'><img src='img/fixation2_sml.jpg'</img></div></div>","null","FIX","","","","","","","","","","",""
"html-keyboard-response","176","405828","0.0-7.0-2.28","62851102d56842a48361f9d4","bdp_wmem","Wed Jul 27 2022 13:20:50 GMT-0400 (Eastern Daylight Time)","580104","Match,No Match","","null","","","","","","<div class='trialBorder'><div class='vertical-center'><img style='vertical-align:center; align:center' src='img/fixation2_sml.jpg'></div><div class='arrayDiv3'><div class='tl'><img class='introPic' src='trustrating_stim/white_mw078.bmp'><br><font color='green'><strong>Share</strong></font></div><div class='tc'><img class='introPic' src='trustrating_stim/white_mw040.bmp'><br><font color='green'><strong>Share</strong></font></div><div class='tr'><img class='introPic' src='trustrating_stim/white_mw013.bmp'><br><font color='red'><strong>Keep</strong></font></div></div></div>","null","ARRAY","3","trustrating_stim/white_mw078.bmp,trustrating_stim/white_mw040.bmp,trustrating_stim/white_mw013.bmp","1,1,0","Match","e","4500","","","","",""
"html-keyboard-response","177","409831","0.0-7.0-3.28","62851102d56842a48361f9d4","bdp_wmem","Wed Jul 27 2022 13:20:50 GMT-0400 (Eastern Daylight Time)","580104","Match,No Match","","null","","","","","","<div class='trialBorder'><div class='vertical-center'><img src='img/fixation2_sml.jpg'</img></div></div>","null","DELAY","","","","","","","","","","",""
"html-keyboard-response","178","410745","0.0-7.0-4.28","62851102d56842a48361f9d4","bdp_wmem","Wed Jul 27 2022 13:20:50 GMT-0400 (Eastern Daylight Time)","580104","Match,No Match","","913","","","","","","<div class='trialBorder'><div class='targDiv'><div class='tc'><img class='introPic' src='trustrating_stim/white_mw040.bmp'><br><font color='green'><strong>Share</strong></font></div></div><div class='respDiv'><div class='respDivL'>Match<br>(e)</div><div class='respDivR'>No Match<br>(i)</div></div></div>","e","TARGET","3","trustrating_stim/white_mw078.bmp,trustrating_stim/white_mw040.bmp,trustrating_stim/white_mw013.bmp","1,1,0","Match","e","4500","trustrating_stim/white_mw040.bmp","green","Share","REAL","1"
"html-keyboard-response","179","411246","0.0-7.0-5.28","62851102d56842a48361f9d4","bdp_wmem","Wed Jul 27 2022 13:20:50 GMT-0400 (Eastern Daylight Time)","580104","Match,No Match","","null","","","","","","<div class='trialBorder'><div class='vertical-center'><img src='img/correct.jpg'></div><div class='respDiv'><div class='respDivL'><font style='color:orange'>Match<br>(e)</font></div><div class='respDivR'>No Match<br>(i)</div></div></div>","null","FEEDBACK","","","","","","","","","","",""
"html-keyboard-response","180","411750","0.0-7.0-1.29","62851102d56842a48361f9d4","bdp_wmem","Wed Jul 27 2022 13:20:50 GMT-0400 (Eastern Daylight Time)","580104","Match,No Match","","null","","","","","","<div class='trialBorder'><div class='vertical-center'><img src='img/fixation2_sml.jpg'</img></div></div>","null","FIX","","","","","","","","","","",""
"html-keyboard-response","181","416255","0.0-7.0-2.29","62851102d56842a48361f9d4","bdp_wmem","Wed Jul 27 2022 13:20:50 GMT-0400 (Eastern Daylight Time)","580104","Match,No Match","","null","","","","","","<div class='trialBorder'><div class='vertical-center'><img style='vertical-align:center; align:center' src='img/fixation2_sml.jpg'></div><div class='arrayDiv3'><div class='tl'><img class='introPic' src='trustrating_stim/white_mw070.bmp'><br><font color='red'><strong>Keep</strong></font></div><div class='tc'><img class='introPic' src='trustrating_stim/white_mw092.bmp'><br><font color='red'><strong>Keep</strong></font></div><div class='tr'><img class='introPic' src='trustrating_stim/white_mw085.bmp'><br><font color='green'><strong>Share</strong></font></div></div></div>","null","ARRAY","3","trustrating_stim/white_mw070.bmp,trustrating_stim/white_mw092.bmp,trustrating_stim/white_mw085.bmp","0,0,1","Match","e","4500","","","","",""
"html-keyboard-response","182","420261","0.0-7.0-3.29","62851102d56842a48361f9d4","bdp_wmem","Wed Jul 27 2022 13:20:50 GMT-0400 (Eastern Daylight Time)","580104","Match,No Match","","null","","","","","","<div class='trialBorder'><div class='vertical-center'><img src='img/fixation2_sml.jpg'</img></div></div>","null","DELAY","","","","","","","","","","",""
"html-keyboard-response","183","421176","0.0-7.0-4.29","62851102d56842a48361f9d4","bdp_wmem","Wed Jul 27 2022 13:20:50 GMT-0400 (Eastern Daylight Time)","580104","Match,No Match","","914","","","","","","<div class='trialBorder'><div class='targDiv'><div class='tc'><img class='introPic' src='trustrating_stim/white_mw085.bmp'><br><font color='green'><strong>Share</strong></font></div></div><div class='respDiv'><div class='respDivL'>Match<br>(e)</div><div class='respDivR'>No Match<br>(i)</div></div></div>","e","TARGET","3","trustrating_stim/white_mw070.bmp,trustrating_stim/white_mw092.bmp,trustrating_stim/white_mw085.bmp","0,0,1","Match","e","4500","trustrating_stim/white_mw085.bmp","green","Share","REAL","1"
"html-keyboard-response","184","421677","0.0-7.0-5.29","62851102d56842a48361f9d4","bdp_wmem","Wed Jul 27 2022 13:20:50 GMT-0400 (Eastern Daylight Time)","580104","Match,No Match","","null","","","","","","<div class='trialBorder'><div class='vertical-center'><img src='img/correct.jpg'></div><div class='respDiv'><div class='respDivL'><font style='color:orange'>Match<br>(e)</font></div><div class='respDivR'>No Match<br>(i)</div></div></div>","null","FEEDBACK","","","","","","","","","","",""
"html-keyboard-response","185","422182","0.0-7.0-1.30","62851102d56842a48361f9d4","bdp_wmem","Wed Jul 27 2022 13:20:50 GMT-0400 (Eastern Daylight Time)","580104","Match,No Match","","null","","","","","","<div class='trialBorder'><div class='vertical-center'><img src='img/fixation2_sml.jpg'</img></div></div>","null","FIX","","","","","","","","","","",""
"html-keyboard-response","186","425183","0.0-7.0-2.30","62851102d56842a48361f9d4","bdp_wmem","Wed Jul 27 2022 13:20:50 GMT-0400 (Eastern Daylight Time)","580104","Match,No Match","","null","","","","","","<div class='trialBorder'><div class='vertical-center'><img style='vertical-align:center; align:center' src='img/fixation2_sml.jpg'></div><div class='arrayDiv2'><div class='tl'><img class='introPic' src='trustrating_stim/white_mw070.bmp'><br><font color='green'><strong>Share</strong></font></div><div class='tr'><img class='introPic' src='trustrating_stim/white_mw038.bmp'><br><font color='red'><strong>Keep</strong></font></div></div></div>","null","ARRAY","2","trustrating_stim/white_mw070.bmp,trustrating_stim/white_mw038.bmp","1,0","Match","e","3000","","","","",""
"html-keyboard-response","187","429189","0.0-7.0-3.30","62851102d56842a48361f9d4","bdp_wmem","Wed Jul 27 2022 13:20:50 GMT-0400 (Eastern Daylight Time)","580104","Match,No Match","","null","","","","","","<div class='trialBorder'><div class='vertical-center'><img src='img/fixation2_sml.jpg'</img></div></div>","null","DELAY","","","","","","","","","","",""
