"event","trial","time","trialtype","subject_id","task","startTime","totalTime","labels","numBlurs","trial_type","trial_index","time_elapsed","internal_node_id","view_history","rt","success","stimulus","key_press","stimType","arraySize","arrayFaces","arrayOutcomes","matchType","corrResp","arrayDur","targFace","targCol","targOutcome","trialType","corr"
"focus","0","0","focusevent","63d13b5ec81c77c3030c51c5","bdp_wmem","Tue Mar 14 2023 21:24:10 GMT-0400 (Eastern Daylight Time)","508224","Match,No Match","","","","","","","","","","","","","","","","","","","","","",""
"blur","0","0","blurevent","63d13b5ec81c77c3030c51c5","bdp_wmem","Tue Mar 14 2023 21:24:10 GMT-0400 (Eastern Daylight Time)","508224","Match,No Match","1","","","","","","","","","","","","","","","","","","","","",""
"focus","0","0","focusevent","63d13b5ec81c77c3030c51c5","bdp_wmem","Tue Mar 14 2023 21:24:10 GMT-0400 (Eastern Daylight Time)","508224","Match,No Match","","","","","","","","","","","","","","","","","","","","","",""
"","","","","63d13b5ec81c77c3030c51c5","bdp_wmem","Tue Mar 14 2023 21:24:10 GMT-0400 (Eastern Daylight Time)","508224","Match,No Match","","pavlovia","0","7","0.0-0.0","","","","","","","","","","","","","","","","",""
"","","","","63d13b5ec81c77c3030c51c5","bdp_wmem","Tue Mar 14 2023 21:24:10 GMT-0400 (Eastern Daylight Time)","508224","Match,No Match","","instructions","1","1312","0.0-1.0","[{""page_index"":0,""viewing_time"":1304}]","1305","","","","","","","","","","","","","","",""
"fullscreenexit","2","4412","fullscreenexit","63d13b5ec81c77c3030c51c5","bdp_wmem","Tue Mar 14 2023 21:24:10 GMT-0400 (Eastern Daylight Time)","508224","Match,No Match","","","","","","","","","","","","","","","","","","","","","",""
"","","","","63d13b5ec81c77c3030c51c5","bdp_wmem","Tue Mar 14 2023 21:24:10 GMT-0400 (Eastern Daylight Time)","508224","Match,No Match","","fullscreen","2","5149","0.0-2.0","","","true","","","","","","","","","","","","","",""
"","","","fullscreenfail","63d13b5ec81c77c3030c51c5","bdp_wmem","Tue Mar 14 2023 21:24:10 GMT-0400 (Eastern Daylight Time)","508224","Match,No Match","","image-keyboard-response","3","6094","0.0-3.0-0.0","","941","","","32","","","","","","","","","","","",""
"","","","","63d13b5ec81c77c3030c51c5","bdp_wmem","Tue Mar 14 2023 21:24:10 GMT-0400 (Eastern Daylight Time)","508224","Match,No Match","","instructions","4","13445","0.0-4.0","[{""page_index"":0,""viewing_time"":1877},{""page_index"":1,""viewing_time"":1026},{""page_index"":2,""viewing_time"":634},{""page_index"":3,""viewing_time"":967},{""page_index"":4,""viewing_time"":2584}]","7088","","","","","","","","","","","","","","",""
"","","","","63d13b5ec81c77c3030c51c5","bdp_wmem","Tue Mar 14 2023 21:24:10 GMT-0400 (Eastern Daylight Time)","508224","Match,No Match","","html-keyboard-response","5","13952","0.0-5.0-1.0","","null","","<div class='trialBorder'><div class='vertical-center'><img src='img/fixation2_sml.jpg'</img></div></div>","null","FIX","","","","","","","","","","",""
"","","","","63d13b5ec81c77c3030c51c5","bdp_wmem","Tue Mar 14 2023 21:24:10 GMT-0400 (Eastern Daylight Time)","508224","Match,No Match","","html-keyboard-response","6","18457","0.0-5.0-2.0","","null","","<div class='trialBorder'><div class='vertical-center'><img style='vertical-align:center; align:center' src='img/fixation2_sml.jpg'></div><div class='arrayDiv3'><div class='tl'><img class='introPic' src='trustrating_stim/white_mw070.bmp'><br><font color='green'><strong>Share</strong></font></div><div class='tc'><img class='introPic' src='trustrating_stim/white_mw091.bmp'><br><font color='red'><strong>Keep</strong></font></div><div class='tr'><img class='introPic' src='trustrating_stim/white_mw078.bmp'><br><font color='green'><strong>Share</strong></font></div></div></div>","null","ARRAY","3","trustrating_stim/white_mw070.bmp,trustrating_stim/white_mw091.bmp,trustrating_stim/white_mw078.bmp","1,0,1","Match","e","4500","","","","",""
"","","","","63d13b5ec81c77c3030c51c5","bdp_wmem","Tue Mar 14 2023 21:24:10 GMT-0400 (Eastern Daylight Time)","508224","Match,No Match","","html-keyboard-response","7","22464","0.0-5.0-3.0","","null","","<div class='trialBorder'><div class='vertical-center'><img src='img/fixation2_sml.jpg'</img></div></div>","null","DELAY","","","","","","","","","","",""
"","","","","63d13b5ec81c77c3030c51c5","bdp_wmem","Tue Mar 14 2023 21:24:10 GMT-0400 (Eastern Daylight Time)","508224","Match,No Match","","html-keyboard-response","8","23909","0.0-5.0-4.0","","1443","","<div class='trialBorder'><div class='targDiv'><div class='tc'><img class='introPic' src='trustrating_stim/white_mw091.bmp'><br><font color='red'><strong>Keep</strong></font></div></div><div class='respDiv'><div class='respDivL'>Match<br>(e)</div><div class='respDivR'>No Match<br>(i)</div></div></div>","e","TARGET","3","trustrating_stim/white_mw070.bmp,trustrating_stim/white_mw091.bmp,trustrating_stim/white_mw078.bmp","1,0,1","Match","e","4500","trustrating_stim/white_mw091.bmp","red","Keep","PRACTICE","1"
"","","","","63d13b5ec81c77c3030c51c5","bdp_wmem","Tue Mar 14 2023 21:24:10 GMT-0400 (Eastern Daylight Time)","508224","Match,No Match","","html-keyboard-response","9","24426","0.0-5.0-5.0","","null","","<div class='trialBorder'><div class='vertical-center'><img src='img/correct.jpg'></div><div class='respDiv'><div class='respDivL'><font style='color:orange'>Match<br>(e)</font></div><div class='respDivR'>No Match<br>(i)</div></div></div>","null","FEEDBACK","","","","","","","","","","",""
"","","","","63d13b5ec81c77c3030c51c5","bdp_wmem","Tue Mar 14 2023 21:24:10 GMT-0400 (Eastern Daylight Time)","508224","Match,No Match","","html-keyboard-response","10","24938","0.0-5.0-1.1","","null","","<div class='trialBorder'><div class='vertical-center'><img src='img/fixation2_sml.jpg'</img></div></div>","null","FIX","","","","","","","","","","",""
"","","","","63d13b5ec81c77c3030c51c5","bdp_wmem","Tue Mar 14 2023 21:24:10 GMT-0400 (Eastern Daylight Time)","508224","Match,No Match","","html-keyboard-response","11","29444","0.0-5.0-2.1","","null","","<div class='trialBorder'><div class='vertical-center'><img style='vertical-align:center; align:center' src='img/fixation2_sml.jpg'></div><div class='arrayDiv3'><div class='tl'><img class='introPic' src='trustrating_stim/white_mw012.bmp'><br><font color='red'><strong>Keep</strong></font></div><div class='tc'><img class='introPic' src='trustrating_stim/white_mw013.bmp'><br><font color='red'><strong>Keep</strong></font></div><div class='tr'><img class='introPic' src='trustrating_stim/white_mw085.bmp'><br><font color='green'><strong>Share</strong></font></div></div></div>","null","ARRAY","3","trustrating_stim/white_mw012.bmp,trustrating_stim/white_mw013.bmp,trustrating_stim/white_mw085.bmp","0,0,1","noMatchOutcome","i","4500","","","","",""
"","","","","63d13b5ec81c77c3030c51c5","bdp_wmem","Tue Mar 14 2023 21:24:10 GMT-0400 (Eastern Daylight Time)","508224","Match,No Match","","html-keyboard-response","12","33445","0.0-5.0-3.1","","null","","<div class='trialBorder'><div class='vertical-center'><img src='img/fixation2_sml.jpg'</img></div></div>","null","DELAY","","","","","","","","","","",""
"","","","","63d13b5ec81c77c3030c51c5","bdp_wmem","Tue Mar 14 2023 21:24:10 GMT-0400 (Eastern Daylight Time)","508224","Match,No Match","","html-keyboard-response","13","33634","0.0-5.0-4.1","","188","","<div class='trialBorder'><div class='targDiv'><div class='tc'><img class='introPic' src='trustrating_stim/white_mw012.bmp'><br><font color='green'><strong>Share</strong></font></div></div><div class='respDiv'><div class='respDivL'>Match<br>(e)</div><div class='respDivR'>No Match<br>(i)</div></div></div>","e","TARGET","3","trustrating_stim/white_mw012.bmp,trustrating_stim/white_mw013.bmp,trustrating_stim/white_mw085.bmp","0,0,1","noMatchOutcome","i","4500","trustrating_stim/white_mw012.bmp","green","Share","PRACTICE","0"
"","","","","63d13b5ec81c77c3030c51c5","bdp_wmem","Tue Mar 14 2023 21:24:10 GMT-0400 (Eastern Daylight Time)","508224","Match,No Match","","html-keyboard-response","14","34141","0.0-5.0-5.1","","null","","<div class='trialBorder'><div class='vertical-center'><img src='img/error.jpg'></div><div class='respDiv'><div class='respDivL'><font style='color:orange'>Match<br>(e)</font></div><div class='respDivR'>No Match<br>(i)</div></div></div>","null","FEEDBACK","","","","","","","","","","",""
"","","","","63d13b5ec81c77c3030c51c5","bdp_wmem","Tue Mar 14 2023 21:24:10 GMT-0400 (Eastern Daylight Time)","508224","Match,No Match","","html-keyboard-response","15","34655","0.0-5.0-1.2","","null","","<div class='trialBorder'><div class='vertical-center'><img src='img/fixation2_sml.jpg'</img></div></div>","null","FIX","","","","","","","","","","",""
"","","","","63d13b5ec81c77c3030c51c5","bdp_wmem","Tue Mar 14 2023 21:24:10 GMT-0400 (Eastern Daylight Time)","508224","Match,No Match","","html-keyboard-response","16","36158","0.0-5.0-2.2","","null","","<div class='trialBorder'><div class='vertical-center'><img style='vertical-align:center; align:center' src='img/fixation2_sml.jpg'></div><div class='arrayDiv1'><div class='tc'><img class='introPic' src='trustrating_stim/white_mw003.bmp'><br><font color='green'><strong>Share</strong></font></div></div></div>","null","ARRAY","1","trustrating_stim/white_mw003.bmp","1","Match","e","1500","","","","",""
"","","","","63d13b5ec81c77c3030c51c5","bdp_wmem","Tue Mar 14 2023 21:24:10 GMT-0400 (Eastern Daylight Time)","508224","Match,No Match","","html-keyboard-response","17","40167","0.0-5.0-3.2","","null","","<div class='trialBorder'><div class='vertical-center'><img src='img/fixation2_sml.jpg'</img></div></div>","null","DELAY","","","","","","","","","","",""
"","","","","63d13b5ec81c77c3030c51c5","bdp_wmem","Tue Mar 14 2023 21:24:10 GMT-0400 (Eastern Daylight Time)","508224","Match,No Match","","html-keyboard-response","18","41802","0.0-5.0-4.2","","1634","","<div class='trialBorder'><div class='targDiv'><div class='tc'><img class='introPic' src='trustrating_stim/white_mw003.bmp'><br><font color='green'><strong>Share</strong></font></div></div><div class='respDiv'><div class='respDivL'>Match<br>(e)</div><div class='respDivR'>No Match<br>(i)</div></div></div>","e","TARGET","1","trustrating_stim/white_mw003.bmp","1","Match","e","1500","trustrating_stim/white_mw003.bmp","green","Share","PRACTICE","1"
"","","","","63d13b5ec81c77c3030c51c5","bdp_wmem","Tue Mar 14 2023 21:24:10 GMT-0400 (Eastern Daylight Time)","508224","Match,No Match","","html-keyboard-response","19","42309","0.0-5.0-5.2","","null","","<div class='trialBorder'><div class='vertical-center'><img src='img/correct.jpg'></div><div class='respDiv'><div class='respDivL'><font style='color:orange'>Match<br>(e)</font></div><div class='respDivR'>No Match<br>(i)</div></div></div>","null","FEEDBACK","","","","","","","","","","",""
"","","","","63d13b5ec81c77c3030c51c5","bdp_wmem","Tue Mar 14 2023 21:24:10 GMT-0400 (Eastern Daylight Time)","508224","Match,No Match","","html-keyboard-response","20","42813","0.0-5.0-1.3","","null","","<div class='trialBorder'><div class='vertical-center'><img src='img/fixation2_sml.jpg'</img></div></div>","null","FIX","","","","","","","","","","",""
"","","","","63d13b5ec81c77c3030c51c5","bdp_wmem","Tue Mar 14 2023 21:24:10 GMT-0400 (Eastern Daylight Time)","508224","Match,No Match","","html-keyboard-response","21","44327","0.0-5.0-2.3","","null","","<div class='trialBorder'><div class='vertical-center'><img style='vertical-align:center; align:center' src='img/fixation2_sml.jpg'></div><div class='arrayDiv1'><div class='tc'><img class='introPic' src='trustrating_stim/white_mw013.bmp'><br><font color='green'><strong>Share</strong></font></div></div></div>","null","ARRAY","1","trustrating_stim/white_mw013.bmp","1","noMatchFace","i","1500","","","","",""
"","","","","63d13b5ec81c77c3030c51c5","bdp_wmem","Tue Mar 14 2023 21:24:10 GMT-0400 (Eastern Daylight Time)","508224","Match,No Match","","html-keyboard-response","22","48333","0.0-5.0-3.3","","null","","<div class='trialBorder'><div class='vertical-center'><img src='img/fixation2_sml.jpg'</img></div></div>","null","DELAY","","","","","","","","","","",""
"","","","","63d13b5ec81c77c3030c51c5","bdp_wmem","Tue Mar 14 2023 21:24:10 GMT-0400 (Eastern Daylight Time)","508224","Match,No Match","","html-keyboard-response","23","49246","0.0-5.0-4.3","","909","","<div class='trialBorder'><div class='targDiv'><div class='tc'><img class='introPic' src='trustrating_stim/white_mw078.bmp'><br><font color='green'><strong>Share</strong></font></div></div><div class='respDiv'><div class='respDivL'>Match<br>(e)</div><div class='respDivR'>No Match<br>(i)</div></div></div>","e","TARGET","1","trustrating_stim/white_mw013.bmp","1","noMatchFace","i","1500","trustrating_stim/white_mw078.bmp","green","Share","PRACTICE","0"
"","","","","63d13b5ec81c77c3030c51c5","bdp_wmem","Tue Mar 14 2023 21:24:10 GMT-0400 (Eastern Daylight Time)","508224","Match,No Match","","html-keyboard-response","24","49750","0.0-5.0-5.3","","null","","<div class='trialBorder'><div class='vertical-center'><img src='img/error.jpg'></div><div class='respDiv'><div class='respDivL'><font style='color:orange'>Match<br>(e)</font></div><div class='respDivR'>No Match<br>(i)</div></div></div>","null","FEEDBACK","","","","","","","","","","",""
"","","","","63d13b5ec81c77c3030c51c5","bdp_wmem","Tue Mar 14 2023 21:24:10 GMT-0400 (Eastern Daylight Time)","508224","Match,No Match","","html-keyboard-response","25","50264","0.0-5.0-1.4","","null","","<div class='trialBorder'><div class='vertical-center'><img src='img/fixation2_sml.jpg'</img></div></div>","null","FIX","","","","","","","","","","",""
"","","","","63d13b5ec81c77c3030c51c5","bdp_wmem","Tue Mar 14 2023 21:24:10 GMT-0400 (Eastern Daylight Time)","508224","Match,No Match","","html-keyboard-response","26","53276","0.0-5.0-2.4","","null","","<div class='trialBorder'><div class='vertical-center'><img style='vertical-align:center; align:center' src='img/fixation2_sml.jpg'></div><div class='arrayDiv2'><div class='tl'><img class='introPic' src='trustrating_stim/white_mw078.bmp'><br><font color='red'><strong>Keep</strong></font></div><div class='tr'><img class='introPic' src='trustrating_stim/white_mw013.bmp'><br><font color='green'><strong>Share</strong></font></div></div></div>","null","ARRAY","2","trustrating_stim/white_mw078.bmp,trustrating_stim/white_mw013.bmp","0,1","Match","e","3000","","","","",""
"","","","","63d13b5ec81c77c3030c51c5","bdp_wmem","Tue Mar 14 2023 21:24:10 GMT-0400 (Eastern Daylight Time)","508224","Match,No Match","","html-keyboard-response","27","57282","0.0-5.0-3.4","","null","","<div class='trialBorder'><div class='vertical-center'><img src='img/fixation2_sml.jpg'</img></div></div>","null","DELAY","","","","","","","","","","",""
"","","","","63d13b5ec81c77c3030c51c5","bdp_wmem","Tue Mar 14 2023 21:24:10 GMT-0400 (Eastern Daylight Time)","508224","Match,No Match","","html-keyboard-response","28","57695","0.0-5.0-4.4","","411","","<div class='trialBorder'><div class='targDiv'><div class='tc'><img class='introPic' src='trustrating_stim/white_mw078.bmp'><br><font color='red'><strong>Keep</strong></font></div></div><div class='respDiv'><div class='respDivL'>Match<br>(e)</div><div class='respDivR'>No Match<br>(i)</div></div></div>","e","TARGET","2","trustrating_stim/white_mw078.bmp,trustrating_stim/white_mw013.bmp","0,1","Match","e","3000","trustrating_stim/white_mw078.bmp","red","Keep","PRACTICE","1"
"","","","","63d13b5ec81c77c3030c51c5","bdp_wmem","Tue Mar 14 2023 21:24:10 GMT-0400 (Eastern Daylight Time)","508224","Match,No Match","","html-keyboard-response","29","58206","0.0-5.0-5.4","","null","","<div class='trialBorder'><div class='vertical-center'><img src='img/correct.jpg'></div><div class='respDiv'><div class='respDivL'><font style='color:orange'>Match<br>(e)</font></div><div class='respDivR'>No Match<br>(i)</div></div></div>","null","FEEDBACK","","","","","","","","","","",""
"","","","","63d13b5ec81c77c3030c51c5","bdp_wmem","Tue Mar 14 2023 21:24:10 GMT-0400 (Eastern Daylight Time)","508224","Match,No Match","","html-keyboard-response","30","58715","0.0-5.0-1.5","","null","","<div class='trialBorder'><div class='vertical-center'><img src='img/fixation2_sml.jpg'</img></div></div>","null","FIX","","","","","","","","","","",""
"","","","","63d13b5ec81c77c3030c51c5","bdp_wmem","Tue Mar 14 2023 21:24:10 GMT-0400 (Eastern Daylight Time)","508224","Match,No Match","","html-keyboard-response","31","61725","0.0-5.0-2.5","","null","","<div class='trialBorder'><div class='vertical-center'><img style='vertical-align:center; align:center' src='img/fixation2_sml.jpg'></div><div class='arrayDiv2'><div class='tl'><img class='introPic' src='trustrating_stim/white_mw085.bmp'><br><font color='green'><strong>Share</strong></font></div><div class='tr'><img class='introPic' src='trustrating_stim/white_mw010.bmp'><br><font color='red'><strong>Keep</strong></font></div></div></div>","null","ARRAY","2","trustrating_stim/white_mw085.bmp,trustrating_stim/white_mw010.bmp","1,0","noMatchFace","i","3000","","","","",""
"","","","","63d13b5ec81c77c3030c51c5","bdp_wmem","Tue Mar 14 2023 21:24:10 GMT-0400 (Eastern Daylight Time)","508224","Match,No Match","","html-keyboard-response","32","65743","0.0-5.0-3.5","","null","","<div class='trialBorder'><div class='vertical-center'><img src='img/fixation2_sml.jpg'</img></div></div>","null","DELAY","","","","","","","","","","",""
"","","","","63d13b5ec81c77c3030c51c5","bdp_wmem","Tue Mar 14 2023 21:24:10 GMT-0400 (Eastern Daylight Time)","508224","Match,No Match","","html-keyboard-response","33","66900","0.0-5.0-4.5","","1155","","<div class='trialBorder'><div class='targDiv'><div class='tc'><img class='introPic' src='trustrating_stim/white_mw012.bmp'><br><font color='green'><strong>Share</strong></font></div></div><div class='respDiv'><div class='respDivL'>Match<br>(e)</div><div class='respDivR'>No Match<br>(i)</div></div></div>","i","TARGET","2","trustrating_stim/white_mw085.bmp,trustrating_stim/white_mw010.bmp","1,0","noMatchFace","i","3000","trustrating_stim/white_mw012.bmp","green","Share","PRACTICE","1"
"","","","","63d13b5ec81c77c3030c51c5","bdp_wmem","Tue Mar 14 2023 21:24:10 GMT-0400 (Eastern Daylight Time)","508224","Match,No Match","","html-keyboard-response","34","67408","0.0-5.0-5.5","","null","","<div class='trialBorder'><div class='vertical-center'><img src='img/correct.jpg'></div><div class='respDiv'><div class='respDivL'>Match<br>(e)</div><div class='respDivR'><font style='color:orange'>No Match<br>(i)</font></div></div></div>","null","FEEDBACK","","","","","","","","","","",""
"","","","","63d13b5ec81c77c3030c51c5","bdp_wmem","Tue Mar 14 2023 21:24:10 GMT-0400 (Eastern Daylight Time)","508224","Match,No Match","","instructions","35","70245","0.0-6.0","[{""page_index"":0,""viewing_time"":2836}]","2837","","","","","","","","","","","","","","",""
"","","","","63d13b5ec81c77c3030c51c5","bdp_wmem","Tue Mar 14 2023 21:24:10 GMT-0400 (Eastern Daylight Time)","508224","Match,No Match","","html-keyboard-response","36","70756","0.0-7.0-1.0","","null","","<div class='trialBorder'><div class='vertical-center'><img src='img/fixation2_sml.jpg'</img></div></div>","null","FIX","","","","","","","","","","",""
"","","","","63d13b5ec81c77c3030c51c5","bdp_wmem","Tue Mar 14 2023 21:24:10 GMT-0400 (Eastern Daylight Time)","508224","Match,No Match","","html-keyboard-response","37","72262","0.0-7.0-2.0","","null","","<div class='trialBorder'><div class='vertical-center'><img style='vertical-align:center; align:center' src='img/fixation2_sml.jpg'></div><div class='arrayDiv1'><div class='tc'><img class='introPic' src='trustrating_stim/white_mw078.bmp'><br><font color='red'><strong>Keep</strong></font></div></div></div>","null","ARRAY","1","trustrating_stim/white_mw078.bmp","0","Match","e","1500","","","","",""
"","","","","63d13b5ec81c77c3030c51c5","bdp_wmem","Tue Mar 14 2023 21:24:10 GMT-0400 (Eastern Daylight Time)","508224","Match,No Match","","html-keyboard-response","38","76268","0.0-7.0-3.0","","null","","<div class='trialBorder'><div class='vertical-center'><img src='img/fixation2_sml.jpg'</img></div></div>","null","DELAY","","","","","","","","","","",""
"","","","","63d13b5ec81c77c3030c51c5","bdp_wmem","Tue Mar 14 2023 21:24:10 GMT-0400 (Eastern Daylight Time)","508224","Match,No Match","","html-keyboard-response","39","76622","0.0-7.0-4.0","","353","","<div class='trialBorder'><div class='targDiv'><div class='tc'><img class='introPic' src='trustrating_stim/white_mw078.bmp'><br><font color='red'><strong>Keep</strong></font></div></div><div class='respDiv'><div class='respDivL'>Match<br>(e)</div><div class='respDivR'>No Match<br>(i)</div></div></div>","e","TARGET","1","trustrating_stim/white_mw078.bmp","0","Match","e","1500","trustrating_stim/white_mw078.bmp","red","Keep","REAL","1"
"","","","","63d13b5ec81c77c3030c51c5","bdp_wmem","Tue Mar 14 2023 21:24:10 GMT-0400 (Eastern Daylight Time)","508224","Match,No Match","","html-keyboard-response","40","77134","0.0-7.0-5.0","","null","","<div class='trialBorder'><div class='vertical-center'><img src='img/correct.jpg'></div><div class='respDiv'><div class='respDivL'><font style='color:orange'>Match<br>(e)</font></div><div class='respDivR'>No Match<br>(i)</div></div></div>","null","FEEDBACK","","","","","","","","","","",""
"","","","","63d13b5ec81c77c3030c51c5","bdp_wmem","Tue Mar 14 2023 21:24:10 GMT-0400 (Eastern Daylight Time)","508224","Match,No Match","","html-keyboard-response","41","77636","0.0-7.0-1.1","","null","","<div class='trialBorder'><div class='vertical-center'><img src='img/fixation2_sml.jpg'</img></div></div>","null","FIX","","","","","","","","","","",""
"","","","","63d13b5ec81c77c3030c51c5","bdp_wmem","Tue Mar 14 2023 21:24:10 GMT-0400 (Eastern Daylight Time)","508224","Match,No Match","","html-keyboard-response","42","82142","0.0-7.0-2.1","","null","","<div class='trialBorder'><div class='vertical-center'><img style='vertical-align:center; align:center' src='img/fixation2_sml.jpg'></div><div class='arrayDiv3'><div class='tl'><img class='introPic' src='trustrating_stim/white_mw003.bmp'><br><font color='green'><strong>Share</strong></font></div><div class='tc'><img class='introPic' src='trustrating_stim/white_mw013.bmp'><br><font color='red'><strong>Keep</strong></font></div><div class='tr'><img class='introPic' src='trustrating_stim/white_mw085.bmp'><br><font color='red'><strong>Keep</strong></font></div></div></div>","null","ARRAY","3","trustrating_stim/white_mw003.bmp,trustrating_stim/white_mw013.bmp,trustrating_stim/white_mw085.bmp","1,0,0","noMatchOutcome","i","4500","","","","",""
"","","","","63d13b5ec81c77c3030c51c5","bdp_wmem","Tue Mar 14 2023 21:24:10 GMT-0400 (Eastern Daylight Time)","508224","Match,No Match","","html-keyboard-response","43","86148","0.0-7.0-3.1","","null","","<div class='trialBorder'><div class='vertical-center'><img src='img/fixation2_sml.jpg'</img></div></div>","null","DELAY","","","","","","","","","","",""
"","","","","63d13b5ec81c77c3030c51c5","bdp_wmem","Tue Mar 14 2023 21:24:10 GMT-0400 (Eastern Daylight Time)","508224","Match,No Match","","html-keyboard-response","44","86666","0.0-7.0-4.1","","516","","<div class='trialBorder'><div class='targDiv'><div class='tc'><img class='introPic' src='trustrating_stim/white_mw013.bmp'><br><font color='green'><strong>Share</strong></font></div></div><div class='respDiv'><div class='respDivL'>Match<br>(e)</div><div class='respDivR'>No Match<br>(i)</div></div></div>","e","TARGET","3","trustrating_stim/white_mw003.bmp,trustrating_stim/white_mw013.bmp,trustrating_stim/white_mw085.bmp","1,0,0","noMatchOutcome","i","4500","trustrating_stim/white_mw013.bmp","green","Share","REAL","0"
"","","","","63d13b5ec81c77c3030c51c5","bdp_wmem","Tue Mar 14 2023 21:24:10 GMT-0400 (Eastern Daylight Time)","508224","Match,No Match","","html-keyboard-response","45","87182","0.0-7.0-5.1","","null","","<div class='trialBorder'><div class='vertical-center'><img src='img/error.jpg'></div><div class='respDiv'><div class='respDivL'><font style='color:orange'>Match<br>(e)</font></div><div class='respDivR'>No Match<br>(i)</div></div></div>","null","FEEDBACK","","","","","","","","","","",""
"","","","","63d13b5ec81c77c3030c51c5","bdp_wmem","Tue Mar 14 2023 21:24:10 GMT-0400 (Eastern Daylight Time)","508224","Match,No Match","","html-keyboard-response","46","87695","0.0-7.0-1.2","","null","","<div class='trialBorder'><div class='vertical-center'><img src='img/fixation2_sml.jpg'</img></div></div>","null","FIX","","","","","","","","","","",""
"","","","","63d13b5ec81c77c3030c51c5","bdp_wmem","Tue Mar 14 2023 21:24:10 GMT-0400 (Eastern Daylight Time)","508224","Match,No Match","","html-keyboard-response","47","90701","0.0-7.0-2.2","","null","","<div class='trialBorder'><div class='vertical-center'><img style='vertical-align:center; align:center' src='img/fixation2_sml.jpg'></div><div class='arrayDiv2'><div class='tl'><img class='introPic' src='trustrating_stim/white_mw085.bmp'><br><font color='red'><strong>Keep</strong></font></div><div class='tr'><img class='introPic' src='trustrating_stim/white_mw038.bmp'><br><font color='green'><strong>Share</strong></font></div></div></div>","null","ARRAY","2","trustrating_stim/white_mw085.bmp,trustrating_stim/white_mw038.bmp","0,1","Match","e","3000","","","","",""
"","","","","63d13b5ec81c77c3030c51c5","bdp_wmem","Tue Mar 14 2023 21:24:10 GMT-0400 (Eastern Daylight Time)","508224","Match,No Match","","html-keyboard-response","48","94705","0.0-7.0-3.2","","null","","<div class='trialBorder'><div class='vertical-center'><img src='img/fixation2_sml.jpg'</img></div></div>","null","DELAY","","","","","","","","","","",""
"","","","","63d13b5ec81c77c3030c51c5","bdp_wmem","Tue Mar 14 2023 21:24:10 GMT-0400 (Eastern Daylight Time)","508224","Match,No Match","","html-keyboard-response","49","95962","0.0-7.0-4.2","","1256","","<div class='trialBorder'><div class='targDiv'><div class='tc'><img class='introPic' src='trustrating_stim/white_mw038.bmp'><br><font color='green'><strong>Share</strong></font></div></div><div class='respDiv'><div class='respDivL'>Match<br>(e)</div><div class='respDivR'>No Match<br>(i)</div></div></div>","e","TARGET","2","trustrating_stim/white_mw085.bmp,trustrating_stim/white_mw038.bmp","0,1","Match","e","3000","trustrating_stim/white_mw038.bmp","green","Share","REAL","1"
"","","","","63d13b5ec81c77c3030c51c5","bdp_wmem","Tue Mar 14 2023 21:24:10 GMT-0400 (Eastern Daylight Time)","508224","Match,No Match","","html-keyboard-response","50","96471","0.0-7.0-5.2","","null","","<div class='trialBorder'><div class='vertical-center'><img src='img/correct.jpg'></div><div class='respDiv'><div class='respDivL'><font style='color:orange'>Match<br>(e)</font></div><div class='respDivR'>No Match<br>(i)</div></div></div>","null","FEEDBACK","","","","","","","","","","",""
"","","","","63d13b5ec81c77c3030c51c5","bdp_wmem","Tue Mar 14 2023 21:24:10 GMT-0400 (Eastern Daylight Time)","508224","Match,No Match","","html-keyboard-response","51","96974","0.0-7.0-1.3","","null","","<div class='trialBorder'><div class='vertical-center'><img src='img/fixation2_sml.jpg'</img></div></div>","null","FIX","","","","","","","","","","",""
"","","","","63d13b5ec81c77c3030c51c5","bdp_wmem","Tue Mar 14 2023 21:24:10 GMT-0400 (Eastern Daylight Time)","508224","Match,No Match","","html-keyboard-response","52","99976","0.0-7.0-2.3","","null","","<div class='trialBorder'><div class='vertical-center'><img style='vertical-align:center; align:center' src='img/fixation2_sml.jpg'></div><div class='arrayDiv2'><div class='tl'><img class='introPic' src='trustrating_stim/white_mw038.bmp'><br><font color='red'><strong>Keep</strong></font></div><div class='tr'><img class='introPic' src='trustrating_stim/white_mw042.bmp'><br><font color='green'><strong>Share</strong></font></div></div></div>","null","ARRAY","2","trustrating_stim/white_mw038.bmp,trustrating_stim/white_mw042.bmp","0,1","noMatchOutcome","i","3000","","","","",""
"","","","","63d13b5ec81c77c3030c51c5","bdp_wmem","Tue Mar 14 2023 21:24:10 GMT-0400 (Eastern Daylight Time)","508224","Match,No Match","","html-keyboard-response","53","103992","0.0-7.0-3.3","","null","","<div class='trialBorder'><div class='vertical-center'><img src='img/fixation2_sml.jpg'</img></div></div>","null","DELAY","","","","","","","","","","",""
"","","","","63d13b5ec81c77c3030c51c5","bdp_wmem","Tue Mar 14 2023 21:24:10 GMT-0400 (Eastern Daylight Time)","508224","Match,No Match","","html-keyboard-response","54","105033","0.0-7.0-4.3","","1040","","<div class='trialBorder'><div class='targDiv'><div class='tc'><img class='introPic' src='trustrating_stim/white_mw042.bmp'><br><font color='red'><strong>Keep</strong></font></div></div><div class='respDiv'><div class='respDivL'>Match<br>(e)</div><div class='respDivR'>No Match<br>(i)</div></div></div>","i","TARGET","2","trustrating_stim/white_mw038.bmp,trustrating_stim/white_mw042.bmp","0,1","noMatchOutcome","i","3000","trustrating_stim/white_mw042.bmp","red","Keep","REAL","1"
"","","","","63d13b5ec81c77c3030c51c5","bdp_wmem","Tue Mar 14 2023 21:24:10 GMT-0400 (Eastern Daylight Time)","508224","Match,No Match","","html-keyboard-response","55","105546","0.0-7.0-5.3","","null","","<div class='trialBorder'><div class='vertical-center'><img src='img/correct.jpg'></div><div class='respDiv'><div class='respDivL'>Match<br>(e)</div><div class='respDivR'><font style='color:orange'>No Match<br>(i)</font></div></div></div>","null","FEEDBACK","","","","","","","","","","",""
"","","","","63d13b5ec81c77c3030c51c5","bdp_wmem","Tue Mar 14 2023 21:24:10 GMT-0400 (Eastern Daylight Time)","508224","Match,No Match","","html-keyboard-response","56","106052","0.0-7.0-1.4","","null","","<div class='trialBorder'><div class='vertical-center'><img src='img/fixation2_sml.jpg'</img></div></div>","null","FIX","","","","","","","","","","",""
"","","","","63d13b5ec81c77c3030c51c5","bdp_wmem","Tue Mar 14 2023 21:24:10 GMT-0400 (Eastern Daylight Time)","508224","Match,No Match","","html-keyboard-response","57","107557","0.0-7.0-2.4","","null","","<div class='trialBorder'><div class='vertical-center'><img style='vertical-align:center; align:center' src='img/fixation2_sml.jpg'></div><div class='arrayDiv1'><div class='tc'><img class='introPic' src='trustrating_stim/white_mw092.bmp'><br><font color='red'><strong>Keep</strong></font></div></div></div>","null","ARRAY","1","trustrating_stim/white_mw092.bmp","0","noMatchFace","i","1500","","","","",""
"","","","","63d13b5ec81c77c3030c51c5","bdp_wmem","Tue Mar 14 2023 21:24:10 GMT-0400 (Eastern Daylight Time)","508224","Match,No Match","","html-keyboard-response","58","111570","0.0-7.0-3.4","","null","","<div class='trialBorder'><div class='vertical-center'><img src='img/fixation2_sml.jpg'</img></div></div>","null","DELAY","","","","","","","","","","",""
"","","","","63d13b5ec81c77c3030c51c5","bdp_wmem","Tue Mar 14 2023 21:24:10 GMT-0400 (Eastern Daylight Time)","508224","Match,No Match","","html-keyboard-response","59","113664","0.0-7.0-4.4","","2093","","<div class='trialBorder'><div class='targDiv'><div class='tc'><img class='introPic' src='trustrating_stim/white_mw003.bmp'><br><font color='red'><strong>Keep</strong></font></div></div><div class='respDiv'><div class='respDivL'>Match<br>(e)</div><div class='respDivR'>No Match<br>(i)</div></div></div>","e","TARGET","1","trustrating_stim/white_mw092.bmp","0","noMatchFace","i","1500","trustrating_stim/white_mw003.bmp","red","Keep","REAL","0"
"","","","","63d13b5ec81c77c3030c51c5","bdp_wmem","Tue Mar 14 2023 21:24:10 GMT-0400 (Eastern Daylight Time)","508224","Match,No Match","","html-keyboard-response","60","114178","0.0-7.0-5.4","","null","","<div class='trialBorder'><div class='vertical-center'><img src='img/error.jpg'></div><div class='respDiv'><div class='respDivL'><font style='color:orange'>Match<br>(e)</font></div><div class='respDivR'>No Match<br>(i)</div></div></div>","null","FEEDBACK","","","","","","","","","","",""
"","","","","63d13b5ec81c77c3030c51c5","bdp_wmem","Tue Mar 14 2023 21:24:10 GMT-0400 (Eastern Daylight Time)","508224","Match,No Match","","html-keyboard-response","61","114689","0.0-7.0-1.5","","null","","<div class='trialBorder'><div class='vertical-center'><img src='img/fixation2_sml.jpg'</img></div></div>","null","FIX","","","","","","","","","","",""
"","","","","63d13b5ec81c77c3030c51c5","bdp_wmem","Tue Mar 14 2023 21:24:10 GMT-0400 (Eastern Daylight Time)","508224","Match,No Match","","html-keyboard-response","62","116198","0.0-7.0-2.5","","null","","<div class='trialBorder'><div class='vertical-center'><img style='vertical-align:center; align:center' src='img/fixation2_sml.jpg'></div><div class='arrayDiv1'><div class='tc'><img class='introPic' src='trustrating_stim/white_mw085.bmp'><br><font color='red'><strong>Keep</strong></font></div></div></div>","null","ARRAY","1","trustrating_stim/white_mw085.bmp","0","Match","e","1500","","","","",""
"","","","","63d13b5ec81c77c3030c51c5","bdp_wmem","Tue Mar 14 2023 21:24:10 GMT-0400 (Eastern Daylight Time)","508224","Match,No Match","","html-keyboard-response","63","120210","0.0-7.0-3.5","","null","","<div class='trialBorder'><div class='vertical-center'><img src='img/fixation2_sml.jpg'</img></div></div>","null","DELAY","","","","","","","","","","",""
"","","","","63d13b5ec81c77c3030c51c5","bdp_wmem","Tue Mar 14 2023 21:24:10 GMT-0400 (Eastern Daylight Time)","508224","Match,No Match","","html-keyboard-response","64","120611","0.0-7.0-4.5","","400","","<div class='trialBorder'><div class='targDiv'><div class='tc'><img class='introPic' src='trustrating_stim/white_mw085.bmp'><br><font color='red'><strong>Keep</strong></font></div></div><div class='respDiv'><div class='respDivL'>Match<br>(e)</div><div class='respDivR'>No Match<br>(i)</div></div></div>","i","TARGET","1","trustrating_stim/white_mw085.bmp","0","Match","e","1500","trustrating_stim/white_mw085.bmp","red","Keep","REAL","0"
"","","","","63d13b5ec81c77c3030c51c5","bdp_wmem","Tue Mar 14 2023 21:24:10 GMT-0400 (Eastern Daylight Time)","508224","Match,No Match","","html-keyboard-response","65","121114","0.0-7.0-5.5","","null","","<div class='trialBorder'><div class='vertical-center'><img src='img/error.jpg'></div><div class='respDiv'><div class='respDivL'>Match<br>(e)</div><div class='respDivR'><font style='color:orange'>No Match<br>(i)</font></div></div></div>","null","FEEDBACK","","","","","","","","","","",""
"","","","","63d13b5ec81c77c3030c51c5","bdp_wmem","Tue Mar 14 2023 21:24:10 GMT-0400 (Eastern Daylight Time)","508224","Match,No Match","","html-keyboard-response","66","121627","0.0-7.0-1.6","","null","","<div class='trialBorder'><div class='vertical-center'><img src='img/fixation2_sml.jpg'</img></div></div>","null","FIX","","","","","","","","","","",""
"","","","","63d13b5ec81c77c3030c51c5","bdp_wmem","Tue Mar 14 2023 21:24:10 GMT-0400 (Eastern Daylight Time)","508224","Match,No Match","","html-keyboard-response","67","123129","0.0-7.0-2.6","","null","","<div class='trialBorder'><div class='vertical-center'><img style='vertical-align:center; align:center' src='img/fixation2_sml.jpg'></div><div class='arrayDiv1'><div class='tc'><img class='introPic' src='trustrating_stim/white_mw013.bmp'><br><font color='red'><strong>Keep</strong></font></div></div></div>","null","ARRAY","1","trustrating_stim/white_mw013.bmp","0","noMatchOutcome","i","1500","","","","",""
"","","","","63d13b5ec81c77c3030c51c5","bdp_wmem","Tue Mar 14 2023 21:24:10 GMT-0400 (Eastern Daylight Time)","508224","Match,No Match","","html-keyboard-response","68","127136","0.0-7.0-3.6","","null","","<div class='trialBorder'><div class='vertical-center'><img src='img/fixation2_sml.jpg'</img></div></div>","null","DELAY","","","","","","","","","","",""
"","","","","63d13b5ec81c77c3030c51c5","bdp_wmem","Tue Mar 14 2023 21:24:10 GMT-0400 (Eastern Daylight Time)","508224","Match,No Match","","html-keyboard-response","69","127785","0.0-7.0-4.6","","648","","<div class='trialBorder'><div class='targDiv'><div class='tc'><img class='introPic' src='trustrating_stim/white_mw013.bmp'><br><font color='green'><strong>Share</strong></font></div></div><div class='respDiv'><div class='respDivL'>Match<br>(e)</div><div class='respDivR'>No Match<br>(i)</div></div></div>","e","TARGET","1","trustrating_stim/white_mw013.bmp","0","noMatchOutcome","i","1500","trustrating_stim/white_mw013.bmp","green","Share","REAL","0"
"","","","","63d13b5ec81c77c3030c51c5","bdp_wmem","Tue Mar 14 2023 21:24:10 GMT-0400 (Eastern Daylight Time)","508224","Match,No Match","","html-keyboard-response","70","128290","0.0-7.0-5.6","","null","","<div class='trialBorder'><div class='vertical-center'><img src='img/error.jpg'></div><div class='respDiv'><div class='respDivL'><font style='color:orange'>Match<br>(e)</font></div><div class='respDivR'>No Match<br>(i)</div></div></div>","null","FEEDBACK","","","","","","","","","","",""
"","","","","63d13b5ec81c77c3030c51c5","bdp_wmem","Tue Mar 14 2023 21:24:10 GMT-0400 (Eastern Daylight Time)","508224","Match,No Match","","html-keyboard-response","71","128805","0.0-7.0-1.7","","null","","<div class='trialBorder'><div class='vertical-center'><img src='img/fixation2_sml.jpg'</img></div></div>","null","FIX","","","","","","","","","","",""
"","","","","63d13b5ec81c77c3030c51c5","bdp_wmem","Tue Mar 14 2023 21:24:10 GMT-0400 (Eastern Daylight Time)","508224","Match,No Match","","html-keyboard-response","72","131806","0.0-7.0-2.7","","null","","<div class='trialBorder'><div class='vertical-center'><img style='vertical-align:center; align:center' src='img/fixation2_sml.jpg'></div><div class='arrayDiv2'><div class='tl'><img class='introPic' src='trustrating_stim/white_mw003.bmp'><br><font color='red'><strong>Keep</strong></font></div><div class='tr'><img class='introPic' src='trustrating_stim/white_mw070.bmp'><br><font color='green'><strong>Share</strong></font></div></div></div>","null","ARRAY","2","trustrating_stim/white_mw003.bmp,trustrating_stim/white_mw070.bmp","0,1","Match","e","3000","","","","",""
"","","","","63d13b5ec81c77c3030c51c5","bdp_wmem","Tue Mar 14 2023 21:24:10 GMT-0400 (Eastern Daylight Time)","508224","Match,No Match","","html-keyboard-response","73","135822","0.0-7.0-3.7","","null","","<div class='trialBorder'><div class='vertical-center'><img src='img/fixation2_sml.jpg'</img></div></div>","null","DELAY","","","","","","","","","","",""
"","","","","63d13b5ec81c77c3030c51c5","bdp_wmem","Tue Mar 14 2023 21:24:10 GMT-0400 (Eastern Daylight Time)","508224","Match,No Match","","html-keyboard-response","74","136513","0.0-7.0-4.7","","690","","<div class='trialBorder'><div class='targDiv'><div class='tc'><img class='introPic' src='trustrating_stim/white_mw070.bmp'><br><font color='green'><strong>Share</strong></font></div></div><div class='respDiv'><div class='respDivL'>Match<br>(e)</div><div class='respDivR'>No Match<br>(i)</div></div></div>","i","TARGET","2","trustrating_stim/white_mw003.bmp,trustrating_stim/white_mw070.bmp","0,1","Match","e","3000","trustrating_stim/white_mw070.bmp","green","Share","REAL","0"
"","","","","63d13b5ec81c77c3030c51c5","bdp_wmem","Tue Mar 14 2023 21:24:10 GMT-0400 (Eastern Daylight Time)","508224","Match,No Match","","html-keyboard-response","75","137027","0.0-7.0-5.7","","null","","<div class='trialBorder'><div class='vertical-center'><img src='img/error.jpg'></div><div class='respDiv'><div class='respDivL'>Match<br>(e)</div><div class='respDivR'><font style='color:orange'>No Match<br>(i)</font></div></div></div>","null","FEEDBACK","","","","","","","","","","",""
"","","","","63d13b5ec81c77c3030c51c5","bdp_wmem","Tue Mar 14 2023 21:24:10 GMT-0400 (Eastern Daylight Time)","508224","Match,No Match","","html-keyboard-response","76","137540","0.0-7.0-1.8","","null","","<div class='trialBorder'><div class='vertical-center'><img src='img/fixation2_sml.jpg'</img></div></div>","null","FIX","","","","","","","","","","",""
"","","","","63d13b5ec81c77c3030c51c5","bdp_wmem","Tue Mar 14 2023 21:24:10 GMT-0400 (Eastern Daylight Time)","508224","Match,No Match","","html-keyboard-response","77","142043","0.0-7.0-2.8","","null","","<div class='trialBorder'><div class='vertical-center'><img style='vertical-align:center; align:center' src='img/fixation2_sml.jpg'></div><div class='arrayDiv3'><div class='tl'><img class='introPic' src='trustrating_stim/white_mw042.bmp'><br><font color='red'><strong>Keep</strong></font></div><div class='tc'><img class='introPic' src='trustrating_stim/white_mw013.bmp'><br><font color='green'><strong>Share</strong></font></div><div class='tr'><img class='introPic' src='trustrating_stim/white_mw010.bmp'><br><font color='red'><strong>Keep</strong></font></div></div></div>","null","ARRAY","3","trustrating_stim/white_mw042.bmp,trustrating_stim/white_mw013.bmp,trustrating_stim/white_mw010.bmp","0,1,0","Match","e","4500","","","","",""
"","","","","63d13b5ec81c77c3030c51c5","bdp_wmem","Tue Mar 14 2023 21:24:10 GMT-0400 (Eastern Daylight Time)","508224","Match,No Match","","html-keyboard-response","78","146059","0.0-7.0-3.8","","null","","<div class='trialBorder'><div class='vertical-center'><img src='img/fixation2_sml.jpg'</img></div></div>","null","DELAY","","","","","","","","","","",""
"","","","","63d13b5ec81c77c3030c51c5","bdp_wmem","Tue Mar 14 2023 21:24:10 GMT-0400 (Eastern Daylight Time)","508224","Match,No Match","","html-keyboard-response","79","146554","0.0-7.0-4.8","","495","","<div class='trialBorder'><div class='targDiv'><div class='tc'><img class='introPic' src='trustrating_stim/white_mw013.bmp'><br><font color='green'><strong>Share</strong></font></div></div><div class='respDiv'><div class='respDivL'>Match<br>(e)</div><div class='respDivR'>No Match<br>(i)</div></div></div>","e","TARGET","3","trustrating_stim/white_mw042.bmp,trustrating_stim/white_mw013.bmp,trustrating_stim/white_mw010.bmp","0,1,0","Match","e","4500","trustrating_stim/white_mw013.bmp","green","Share","REAL","1"
"","","","","63d13b5ec81c77c3030c51c5","bdp_wmem","Tue Mar 14 2023 21:24:10 GMT-0400 (Eastern Daylight Time)","508224","Match,No Match","","html-keyboard-response","80","147055","0.0-7.0-5.8","","null","","<div class='trialBorder'><div class='vertical-center'><img src='img/correct.jpg'></div><div class='respDiv'><div class='respDivL'><font style='color:orange'>Match<br>(e)</font></div><div class='respDivR'>No Match<br>(i)</div></div></div>","null","FEEDBACK","","","","","","","","","","",""
"","","","","63d13b5ec81c77c3030c51c5","bdp_wmem","Tue Mar 14 2023 21:24:10 GMT-0400 (Eastern Daylight Time)","508224","Match,No Match","","html-keyboard-response","81","147556","0.0-7.0-1.9","","null","","<div class='trialBorder'><div class='vertical-center'><img src='img/fixation2_sml.jpg'</img></div></div>","null","FIX","","","","","","","","","","",""
"","","","","63d13b5ec81c77c3030c51c5","bdp_wmem","Tue Mar 14 2023 21:24:10 GMT-0400 (Eastern Daylight Time)","508224","Match,No Match","","html-keyboard-response","82","150560","0.0-7.0-2.9","","null","","<div class='trialBorder'><div class='vertical-center'><img style='vertical-align:center; align:center' src='img/fixation2_sml.jpg'></div><div class='arrayDiv2'><div class='tl'><img class='introPic' src='trustrating_stim/white_mw040.bmp'><br><font color='red'><strong>Keep</strong></font></div><div class='tr'><img class='introPic' src='trustrating_stim/white_mw010.bmp'><br><font color='green'><strong>Share</strong></font></div></div></div>","null","ARRAY","2","trustrating_stim/white_mw040.bmp,trustrating_stim/white_mw010.bmp","0,1","noMatchOutcome","i","3000","","","","",""
"","","","","63d13b5ec81c77c3030c51c5","bdp_wmem","Tue Mar 14 2023 21:24:10 GMT-0400 (Eastern Daylight Time)","508224","Match,No Match","","html-keyboard-response","83","154564","0.0-7.0-3.9","","null","","<div class='trialBorder'><div class='vertical-center'><img src='img/fixation2_sml.jpg'</img></div></div>","null","DELAY","","","","","","","","","","",""
"","","","","63d13b5ec81c77c3030c51c5","bdp_wmem","Tue Mar 14 2023 21:24:10 GMT-0400 (Eastern Daylight Time)","508224","Match,No Match","","html-keyboard-response","84","154985","0.0-7.0-4.9","","421","","<div class='trialBorder'><div class='targDiv'><div class='tc'><img class='introPic' src='trustrating_stim/white_mw040.bmp'><br><font color='green'><strong>Share</strong></font></div></div><div class='respDiv'><div class='respDivL'>Match<br>(e)</div><div class='respDivR'>No Match<br>(i)</div></div></div>","i","TARGET","2","trustrating_stim/white_mw040.bmp,trustrating_stim/white_mw010.bmp","0,1","noMatchOutcome","i","3000","trustrating_stim/white_mw040.bmp","green","Share","REAL","1"
"","","","","63d13b5ec81c77c3030c51c5","bdp_wmem","Tue Mar 14 2023 21:24:10 GMT-0400 (Eastern Daylight Time)","508224","Match,No Match","","html-keyboard-response","85","155500","0.0-7.0-5.9","","null","","<div class='trialBorder'><div class='vertical-center'><img src='img/correct.jpg'></div><div class='respDiv'><div class='respDivL'>Match<br>(e)</div><div class='respDivR'><font style='color:orange'>No Match<br>(i)</font></div></div></div>","null","FEEDBACK","","","","","","","","","","",""
"","","","","63d13b5ec81c77c3030c51c5","bdp_wmem","Tue Mar 14 2023 21:24:10 GMT-0400 (Eastern Daylight Time)","508224","Match,No Match","","html-keyboard-response","86","156006","0.0-7.0-1.10","","null","","<div class='trialBorder'><div class='vertical-center'><img src='img/fixation2_sml.jpg'</img></div></div>","null","FIX","","","","","","","","","","",""
"","","","","63d13b5ec81c77c3030c51c5","bdp_wmem","Tue Mar 14 2023 21:24:10 GMT-0400 (Eastern Daylight Time)","508224","Match,No Match","","html-keyboard-response","87","160509","0.0-7.0-2.10","","null","","<div class='trialBorder'><div class='vertical-center'><img style='vertical-align:center; align:center' src='img/fixation2_sml.jpg'></div><div class='arrayDiv3'><div class='tl'><img class='introPic' src='trustrating_stim/white_mw085.bmp'><br><font color='green'><strong>Share</strong></font></div><div class='tc'><img class='introPic' src='trustrating_stim/white_mw038.bmp'><br><font color='green'><strong>Share</strong></font></div><div class='tr'><img class='introPic' src='trustrating_stim/white_mw003.bmp'><br><font color='red'><strong>Keep</strong></font></div></div></div>","null","ARRAY","3","trustrating_stim/white_mw085.bmp,trustrating_stim/white_mw038.bmp,trustrating_stim/white_mw003.bmp","1,1,0","Match","e","4500","","","","",""
"","","","","63d13b5ec81c77c3030c51c5","bdp_wmem","Tue Mar 14 2023 21:24:10 GMT-0400 (Eastern Daylight Time)","508224","Match,No Match","","html-keyboard-response","88","164520","0.0-7.0-3.10","","null","","<div class='trialBorder'><div class='vertical-center'><img src='img/fixation2_sml.jpg'</img></div></div>","null","DELAY","","","","","","","","","","",""
"","","","","63d13b5ec81c77c3030c51c5","bdp_wmem","Tue Mar 14 2023 21:24:10 GMT-0400 (Eastern Daylight Time)","508224","Match,No Match","","html-keyboard-response","89","164942","0.0-7.0-4.10","","421","","<div class='trialBorder'><div class='targDiv'><div class='tc'><img class='introPic' src='trustrating_stim/white_mw038.bmp'><br><font color='green'><strong>Share</strong></font></div></div><div class='respDiv'><div class='respDivL'>Match<br>(e)</div><div class='respDivR'>No Match<br>(i)</div></div></div>","e","TARGET","3","trustrating_stim/white_mw085.bmp,trustrating_stim/white_mw038.bmp,trustrating_stim/white_mw003.bmp","1,1,0","Match","e","4500","trustrating_stim/white_mw038.bmp","green","Share","REAL","1"
"","","","","63d13b5ec81c77c3030c51c5","bdp_wmem","Tue Mar 14 2023 21:24:10 GMT-0400 (Eastern Daylight Time)","508224","Match,No Match","","html-keyboard-response","90","165458","0.0-7.0-5.10","","null","","<div class='trialBorder'><div class='vertical-center'><img src='img/correct.jpg'></div><div class='respDiv'><div class='respDivL'><font style='color:orange'>Match<br>(e)</font></div><div class='respDivR'>No Match<br>(i)</div></div></div>","null","FEEDBACK","","","","","","","","","","",""
"","","","","63d13b5ec81c77c3030c51c5","bdp_wmem","Tue Mar 14 2023 21:24:10 GMT-0400 (Eastern Daylight Time)","508224","Match,No Match","","html-keyboard-response","91","165974","0.0-7.0-1.11","","null","","<div class='trialBorder'><div class='vertical-center'><img src='img/fixation2_sml.jpg'</img></div></div>","null","FIX","","","","","","","","","","",""
"","","","","63d13b5ec81c77c3030c51c5","bdp_wmem","Tue Mar 14 2023 21:24:10 GMT-0400 (Eastern Daylight Time)","508224","Match,No Match","","html-keyboard-response","92","167479","0.0-7.0-2.11","","null","","<div class='trialBorder'><div class='vertical-center'><img style='vertical-align:center; align:center' src='img/fixation2_sml.jpg'></div><div class='arrayDiv1'><div class='tc'><img class='introPic' src='trustrating_stim/white_mw010.bmp'><br><font color='green'><strong>Share</strong></font></div></div></div>","null","ARRAY","1","trustrating_stim/white_mw010.bmp","1","Match","e","1500","","","","",""
"","","","","63d13b5ec81c77c3030c51c5","bdp_wmem","Tue Mar 14 2023 21:24:10 GMT-0400 (Eastern Daylight Time)","508224","Match,No Match","","html-keyboard-response","93","171480","0.0-7.0-3.11","","null","","<div class='trialBorder'><div class='vertical-center'><img src='img/fixation2_sml.jpg'</img></div></div>","null","DELAY","","","","","","","","","","",""
"","","","","63d13b5ec81c77c3030c51c5","bdp_wmem","Tue Mar 14 2023 21:24:10 GMT-0400 (Eastern Daylight Time)","508224","Match,No Match","","html-keyboard-response","94","172266","0.0-7.0-4.11","","785","","<div class='trialBorder'><div class='targDiv'><div class='tc'><img class='introPic' src='trustrating_stim/white_mw010.bmp'><br><font color='green'><strong>Share</strong></font></div></div><div class='respDiv'><div class='respDivL'>Match<br>(e)</div><div class='respDivR'>No Match<br>(i)</div></div></div>","i","TARGET","1","trustrating_stim/white_mw010.bmp","1","Match","e","1500","trustrating_stim/white_mw010.bmp","green","Share","REAL","0"
"","","","","63d13b5ec81c77c3030c51c5","bdp_wmem","Tue Mar 14 2023 21:24:10 GMT-0400 (Eastern Daylight Time)","508224","Match,No Match","","html-keyboard-response","95","172775","0.0-7.0-5.11","","null","","<div class='trialBorder'><div class='vertical-center'><img src='img/error.jpg'></div><div class='respDiv'><div class='respDivL'>Match<br>(e)</div><div class='respDivR'><font style='color:orange'>No Match<br>(i)</font></div></div></div>","null","FEEDBACK","","","","","","","","","","",""
"","","","","63d13b5ec81c77c3030c51c5","bdp_wmem","Tue Mar 14 2023 21:24:10 GMT-0400 (Eastern Daylight Time)","508224","Match,No Match","","html-keyboard-response","96","173288","0.0-7.0-1.12","","null","","<div class='trialBorder'><div class='vertical-center'><img src='img/fixation2_sml.jpg'</img></div></div>","null","FIX","","","","","","","","","","",""
"","","","","63d13b5ec81c77c3030c51c5","bdp_wmem","Tue Mar 14 2023 21:24:10 GMT-0400 (Eastern Daylight Time)","508224","Match,No Match","","html-keyboard-response","97","176310","0.0-7.0-2.12","","null","","<div class='trialBorder'><div class='vertical-center'><img style='vertical-align:center; align:center' src='img/fixation2_sml.jpg'></div><div class='arrayDiv2'><div class='tl'><img class='introPic' src='trustrating_stim/white_mw013.bmp'><br><font color='red'><strong>Keep</strong></font></div><div class='tr'><img class='introPic' src='trustrating_stim/white_mw012.bmp'><br><font color='green'><strong>Share</strong></font></div></div></div>","null","ARRAY","2","trustrating_stim/white_mw013.bmp,trustrating_stim/white_mw012.bmp","0,1","Match","e","3000","","","","",""
"","","","","63d13b5ec81c77c3030c51c5","bdp_wmem","Tue Mar 14 2023 21:24:10 GMT-0400 (Eastern Daylight Time)","508224","Match,No Match","","html-keyboard-response","98","180319","0.0-7.0-3.12","","null","","<div class='trialBorder'><div class='vertical-center'><img src='img/fixation2_sml.jpg'</img></div></div>","null","DELAY","","","","","","","","","","",""
"","","","","63d13b5ec81c77c3030c51c5","bdp_wmem","Tue Mar 14 2023 21:24:10 GMT-0400 (Eastern Daylight Time)","508224","Match,No Match","","html-keyboard-response","99","181059","0.0-7.0-4.12","","739","","<div class='trialBorder'><div class='targDiv'><div class='tc'><img class='introPic' src='trustrating_stim/white_mw013.bmp'><br><font color='red'><strong>Keep</strong></font></div></div><div class='respDiv'><div class='respDivL'>Match<br>(e)</div><div class='respDivR'>No Match<br>(i)</div></div></div>","e","TARGET","2","trustrating_stim/white_mw013.bmp,trustrating_stim/white_mw012.bmp","0,1","Match","e","3000","trustrating_stim/white_mw013.bmp","red","Keep","REAL","1"
"","","","","63d13b5ec81c77c3030c51c5","bdp_wmem","Tue Mar 14 2023 21:24:10 GMT-0400 (Eastern Daylight Time)","508224","Match,No Match","","html-keyboard-response","100","181572","0.0-7.0-5.12","","null","","<div class='trialBorder'><div class='vertical-center'><img src='img/correct.jpg'></div><div class='respDiv'><div class='respDivL'><font style='color:orange'>Match<br>(e)</font></div><div class='respDivR'>No Match<br>(i)</div></div></div>","null","FEEDBACK","","","","","","","","","","",""
"","","","","63d13b5ec81c77c3030c51c5","bdp_wmem","Tue Mar 14 2023 21:24:10 GMT-0400 (Eastern Daylight Time)","508224","Match,No Match","","html-keyboard-response","101","182078","0.0-7.0-1.13","","null","","<div class='trialBorder'><div class='vertical-center'><img src='img/fixation2_sml.jpg'</img></div></div>","null","FIX","","","","","","","","","","",""
"","","","","63d13b5ec81c77c3030c51c5","bdp_wmem","Tue Mar 14 2023 21:24:10 GMT-0400 (Eastern Daylight Time)","508224","Match,No Match","","html-keyboard-response","102","186590","0.0-7.0-2.13","","null","","<div class='trialBorder'><div class='vertical-center'><img style='vertical-align:center; align:center' src='img/fixation2_sml.jpg'></div><div class='arrayDiv3'><div class='tl'><img class='introPic' src='trustrating_stim/white_mw038.bmp'><br><font color='red'><strong>Keep</strong></font></div><div class='tc'><img class='introPic' src='trustrating_stim/white_mw092.bmp'><br><font color='green'><strong>Share</strong></font></div><div class='tr'><img class='introPic' src='trustrating_stim/white_mw070.bmp'><br><font color='red'><strong>Keep</strong></font></div></div></div>","null","ARRAY","3","trustrating_stim/white_mw038.bmp,trustrating_stim/white_mw092.bmp,trustrating_stim/white_mw070.bmp","0,1,0","noMatchOutcome","i","4500","","","","",""
"","","","","63d13b5ec81c77c3030c51c5","bdp_wmem","Tue Mar 14 2023 21:24:10 GMT-0400 (Eastern Daylight Time)","508224","Match,No Match","","html-keyboard-response","103","190597","0.0-7.0-3.13","","null","","<div class='trialBorder'><div class='vertical-center'><img src='img/fixation2_sml.jpg'</img></div></div>","null","DELAY","","","","","","","","","","",""
"","","","","63d13b5ec81c77c3030c51c5","bdp_wmem","Tue Mar 14 2023 21:24:10 GMT-0400 (Eastern Daylight Time)","508224","Match,No Match","","html-keyboard-response","104","191162","0.0-7.0-4.13","","565","","<div class='trialBorder'><div class='targDiv'><div class='tc'><img class='introPic' src='trustrating_stim/white_mw070.bmp'><br><font color='green'><strong>Share</strong></font></div></div><div class='respDiv'><div class='respDivL'>Match<br>(e)</div><div class='respDivR'>No Match<br>(i)</div></div></div>","i","TARGET","3","trustrating_stim/white_mw038.bmp,trustrating_stim/white_mw092.bmp,trustrating_stim/white_mw070.bmp","0,1,0","noMatchOutcome","i","4500","trustrating_stim/white_mw070.bmp","green","Share","REAL","1"
"","","","","63d13b5ec81c77c3030c51c5","bdp_wmem","Tue Mar 14 2023 21:24:10 GMT-0400 (Eastern Daylight Time)","508224","Match,No Match","","html-keyboard-response","105","191671","0.0-7.0-5.13","","null","","<div class='trialBorder'><div class='vertical-center'><img src='img/correct.jpg'></div><div class='respDiv'><div class='respDivL'>Match<br>(e)</div><div class='respDivR'><font style='color:orange'>No Match<br>(i)</font></div></div></div>","null","FEEDBACK","","","","","","","","","","",""
"","","","","63d13b5ec81c77c3030c51c5","bdp_wmem","Tue Mar 14 2023 21:24:10 GMT-0400 (Eastern Daylight Time)","508224","Match,No Match","","html-keyboard-response","106","192178","0.0-7.0-1.14","","null","","<div class='trialBorder'><div class='vertical-center'><img src='img/fixation2_sml.jpg'</img></div></div>","null","FIX","","","","","","","","","","",""
"","","","","63d13b5ec81c77c3030c51c5","bdp_wmem","Tue Mar 14 2023 21:24:10 GMT-0400 (Eastern Daylight Time)","508224","Match,No Match","","html-keyboard-response","107","196691","0.0-7.0-2.14","","null","","<div class='trialBorder'><div class='vertical-center'><img style='vertical-align:center; align:center' src='img/fixation2_sml.jpg'></div><div class='arrayDiv3'><div class='tl'><img class='introPic' src='trustrating_stim/white_mw040.bmp'><br><font color='green'><strong>Share</strong></font></div><div class='tc'><img class='introPic' src='trustrating_stim/white_mw012.bmp'><br><font color='green'><strong>Share</strong></font></div><div class='tr'><img class='introPic' src='trustrating_stim/white_mw091.bmp'><br><font color='red'><strong>Keep</strong></font></div></div></div>","null","ARRAY","3","trustrating_stim/white_mw040.bmp,trustrating_stim/white_mw012.bmp,trustrating_stim/white_mw091.bmp","1,1,0","Match","e","4500","","","","",""
"","","","","63d13b5ec81c77c3030c51c5","bdp_wmem","Tue Mar 14 2023 21:24:10 GMT-0400 (Eastern Daylight Time)","508224","Match,No Match","","html-keyboard-response","108","200703","0.0-7.0-3.14","","null","","<div class='trialBorder'><div class='vertical-center'><img src='img/fixation2_sml.jpg'</img></div></div>","null","DELAY","","","","","","","","","","",""
"","","","","63d13b5ec81c77c3030c51c5","bdp_wmem","Tue Mar 14 2023 21:24:10 GMT-0400 (Eastern Daylight Time)","508224","Match,No Match","","html-keyboard-response","109","201406","0.0-7.0-4.14","","702","","<div class='trialBorder'><div class='targDiv'><div class='tc'><img class='introPic' src='trustrating_stim/white_mw091.bmp'><br><font color='red'><strong>Keep</strong></font></div></div><div class='respDiv'><div class='respDivL'>Match<br>(e)</div><div class='respDivR'>No Match<br>(i)</div></div></div>","i","TARGET","3","trustrating_stim/white_mw040.bmp,trustrating_stim/white_mw012.bmp,trustrating_stim/white_mw091.bmp","1,1,0","Match","e","4500","trustrating_stim/white_mw091.bmp","red","Keep","REAL","0"
"","","","","63d13b5ec81c77c3030c51c5","bdp_wmem","Tue Mar 14 2023 21:24:10 GMT-0400 (Eastern Daylight Time)","508224","Match,No Match","","html-keyboard-response","110","201918","0.0-7.0-5.14","","null","","<div class='trialBorder'><div class='vertical-center'><img src='img/error.jpg'></div><div class='respDiv'><div class='respDivL'>Match<br>(e)</div><div class='respDivR'><font style='color:orange'>No Match<br>(i)</font></div></div></div>","null","FEEDBACK","","","","","","","","","","",""
"","","","","63d13b5ec81c77c3030c51c5","bdp_wmem","Tue Mar 14 2023 21:24:10 GMT-0400 (Eastern Daylight Time)","508224","Match,No Match","","html-keyboard-response","111","202422","0.0-7.0-1.15","","null","","<div class='trialBorder'><div class='vertical-center'><img src='img/fixation2_sml.jpg'</img></div></div>","null","FIX","","","","","","","","","","",""
"","","","","63d13b5ec81c77c3030c51c5","bdp_wmem","Tue Mar 14 2023 21:24:10 GMT-0400 (Eastern Daylight Time)","508224","Match,No Match","","html-keyboard-response","112","205431","0.0-7.0-2.15","","null","","<div class='trialBorder'><div class='vertical-center'><img style='vertical-align:center; align:center' src='img/fixation2_sml.jpg'></div><div class='arrayDiv2'><div class='tl'><img class='introPic' src='trustrating_stim/white_mw010.bmp'><br><font color='green'><strong>Share</strong></font></div><div class='tr'><img class='introPic' src='trustrating_stim/white_mw013.bmp'><br><font color='red'><strong>Keep</strong></font></div></div></div>","null","ARRAY","2","trustrating_stim/white_mw010.bmp,trustrating_stim/white_mw013.bmp","1,0","Match","e","3000","","","","",""
"","","","","63d13b5ec81c77c3030c51c5","bdp_wmem","Tue Mar 14 2023 21:24:10 GMT-0400 (Eastern Daylight Time)","508224","Match,No Match","","html-keyboard-response","113","209433","0.0-7.0-3.15","","null","","<div class='trialBorder'><div class='vertical-center'><img src='img/fixation2_sml.jpg'</img></div></div>","null","DELAY","","","","","","","","","","",""
"","","","","63d13b5ec81c77c3030c51c5","bdp_wmem","Tue Mar 14 2023 21:24:10 GMT-0400 (Eastern Daylight Time)","508224","Match,No Match","","html-keyboard-response","114","209750","0.0-7.0-4.15","","315","","<div class='trialBorder'><div class='targDiv'><div class='tc'><img class='introPic' src='trustrating_stim/white_mw013.bmp'><br><font color='red'><strong>Keep</strong></font></div></div><div class='respDiv'><div class='respDivL'>Match<br>(e)</div><div class='respDivR'>No Match<br>(i)</div></div></div>","e","TARGET","2","trustrating_stim/white_mw010.bmp,trustrating_stim/white_mw013.bmp","1,0","Match","e","3000","trustrating_stim/white_mw013.bmp","red","Keep","REAL","1"
"","","","","63d13b5ec81c77c3030c51c5","bdp_wmem","Tue Mar 14 2023 21:24:10 GMT-0400 (Eastern Daylight Time)","508224","Match,No Match","","html-keyboard-response","115","210252","0.0-7.0-5.15","","null","","<div class='trialBorder'><div class='vertical-center'><img src='img/correct.jpg'></div><div class='respDiv'><div class='respDivL'><font style='color:orange'>Match<br>(e)</font></div><div class='respDivR'>No Match<br>(i)</div></div></div>","null","FEEDBACK","","","","","","","","","","",""
"","","","","63d13b5ec81c77c3030c51c5","bdp_wmem","Tue Mar 14 2023 21:24:10 GMT-0400 (Eastern Daylight Time)","508224","Match,No Match","","html-keyboard-response","116","210756","0.0-7.0-1.16","","null","","<div class='trialBorder'><div class='vertical-center'><img src='img/fixation2_sml.jpg'</img></div></div>","null","FIX","","","","","","","","","","",""
"","","","","63d13b5ec81c77c3030c51c5","bdp_wmem","Tue Mar 14 2023 21:24:10 GMT-0400 (Eastern Daylight Time)","508224","Match,No Match","","html-keyboard-response","117","212271","0.0-7.0-2.16","","null","","<div class='trialBorder'><div class='vertical-center'><img style='vertical-align:center; align:center' src='img/fixation2_sml.jpg'></div><div class='arrayDiv1'><div class='tc'><img class='introPic' src='trustrating_stim/white_mw085.bmp'><br><font color='red'><strong>Keep</strong></font></div></div></div>","null","ARRAY","1","trustrating_stim/white_mw085.bmp","0","Match","e","1500","","","","",""
"","","","","63d13b5ec81c77c3030c51c5","bdp_wmem","Tue Mar 14 2023 21:24:10 GMT-0400 (Eastern Daylight Time)","508224","Match,No Match","","html-keyboard-response","118","216285","0.0-7.0-3.16","","null","","<div class='trialBorder'><div class='vertical-center'><img src='img/fixation2_sml.jpg'</img></div></div>","null","DELAY","","","","","","","","","","",""
"","","","","63d13b5ec81c77c3030c51c5","bdp_wmem","Tue Mar 14 2023 21:24:10 GMT-0400 (Eastern Daylight Time)","508224","Match,No Match","","html-keyboard-response","119","216769","0.0-7.0-4.16","","482","","<div class='trialBorder'><div class='targDiv'><div class='tc'><img class='introPic' src='trustrating_stim/white_mw085.bmp'><br><font color='red'><strong>Keep</strong></font></div></div><div class='respDiv'><div class='respDivL'>Match<br>(e)</div><div class='respDivR'>No Match<br>(i)</div></div></div>","i","TARGET","1","trustrating_stim/white_mw085.bmp","0","Match","e","1500","trustrating_stim/white_mw085.bmp","red","Keep","REAL","0"
"","","","","63d13b5ec81c77c3030c51c5","bdp_wmem","Tue Mar 14 2023 21:24:10 GMT-0400 (Eastern Daylight Time)","508224","Match,No Match","","html-keyboard-response","120","217279","0.0-7.0-5.16","","null","","<div class='trialBorder'><div class='vertical-center'><img src='img/error.jpg'></div><div class='respDiv'><div class='respDivL'>Match<br>(e)</div><div class='respDivR'><font style='color:orange'>No Match<br>(i)</font></div></div></div>","null","FEEDBACK","","","","","","","","","","",""
"","","","","63d13b5ec81c77c3030c51c5","bdp_wmem","Tue Mar 14 2023 21:24:10 GMT-0400 (Eastern Daylight Time)","508224","Match,No Match","","html-keyboard-response","121","217779","0.0-7.0-1.17","","null","","<div class='trialBorder'><div class='vertical-center'><img src='img/fixation2_sml.jpg'</img></div></div>","null","FIX","","","","","","","","","","",""
"","","","","63d13b5ec81c77c3030c51c5","bdp_wmem","Tue Mar 14 2023 21:24:10 GMT-0400 (Eastern Daylight Time)","508224","Match,No Match","","html-keyboard-response","122","219281","0.0-7.0-2.17","","null","","<div class='trialBorder'><div class='vertical-center'><img style='vertical-align:center; align:center' src='img/fixation2_sml.jpg'></div><div class='arrayDiv1'><div class='tc'><img class='introPic' src='trustrating_stim/white_mw085.bmp'><br><font color='red'><strong>Keep</strong></font></div></div></div>","null","ARRAY","1","trustrating_stim/white_mw085.bmp","0","Match","e","1500","","","","",""
"","","","","63d13b5ec81c77c3030c51c5","bdp_wmem","Tue Mar 14 2023 21:24:10 GMT-0400 (Eastern Daylight Time)","508224","Match,No Match","","html-keyboard-response","123","223289","0.0-7.0-3.17","","null","","<div class='trialBorder'><div class='vertical-center'><img src='img/fixation2_sml.jpg'</img></div></div>","null","DELAY","","","","","","","","","","",""
"","","","","63d13b5ec81c77c3030c51c5","bdp_wmem","Tue Mar 14 2023 21:24:10 GMT-0400 (Eastern Daylight Time)","508224","Match,No Match","","html-keyboard-response","124","223695","0.0-7.0-4.17","","405","","<div class='trialBorder'><div class='targDiv'><div class='tc'><img class='introPic' src='trustrating_stim/white_mw085.bmp'><br><font color='red'><strong>Keep</strong></font></div></div><div class='respDiv'><div class='respDivL'>Match<br>(e)</div><div class='respDivR'>No Match<br>(i)</div></div></div>","i","TARGET","1","trustrating_stim/white_mw085.bmp","0","Match","e","1500","trustrating_stim/white_mw085.bmp","red","Keep","REAL","0"
"","","","","63d13b5ec81c77c3030c51c5","bdp_wmem","Tue Mar 14 2023 21:24:10 GMT-0400 (Eastern Daylight Time)","508224","Match,No Match","","html-keyboard-response","125","224204","0.0-7.0-5.17","","null","","<div class='trialBorder'><div class='vertical-center'><img src='img/error.jpg'></div><div class='respDiv'><div class='respDivL'>Match<br>(e)</div><div class='respDivR'><font style='color:orange'>No Match<br>(i)</font></div></div></div>","null","FEEDBACK","","","","","","","","","","",""
"","","","","63d13b5ec81c77c3030c51c5","bdp_wmem","Tue Mar 14 2023 21:24:10 GMT-0400 (Eastern Daylight Time)","508224","Match,No Match","","html-keyboard-response","126","224720","0.0-7.0-1.18","","null","","<div class='trialBorder'><div class='vertical-center'><img src='img/fixation2_sml.jpg'</img></div></div>","null","FIX","","","","","","","","","","",""
"","","","","63d13b5ec81c77c3030c51c5","bdp_wmem","Tue Mar 14 2023 21:24:10 GMT-0400 (Eastern Daylight Time)","508224","Match,No Match","","html-keyboard-response","127","226233","0.0-7.0-2.18","","null","","<div class='trialBorder'><div class='vertical-center'><img style='vertical-align:center; align:center' src='img/fixation2_sml.jpg'></div><div class='arrayDiv1'><div class='tc'><img class='introPic' src='trustrating_stim/white_mw091.bmp'><br><font color='red'><strong>Keep</strong></font></div></div></div>","null","ARRAY","1","trustrating_stim/white_mw091.bmp","0","Match","e","1500","","","","",""
"","","","","63d13b5ec81c77c3030c51c5","bdp_wmem","Tue Mar 14 2023 21:24:10 GMT-0400 (Eastern Daylight Time)","508224","Match,No Match","","html-keyboard-response","128","230240","0.0-7.0-3.18","","null","","<div class='trialBorder'><div class='vertical-center'><img src='img/fixation2_sml.jpg'</img></div></div>","null","DELAY","","","","","","","","","","",""
"","","","","63d13b5ec81c77c3030c51c5","bdp_wmem","Tue Mar 14 2023 21:24:10 GMT-0400 (Eastern Daylight Time)","508224","Match,No Match","","html-keyboard-response","129","231004","0.0-7.0-4.18","","763","","<div class='trialBorder'><div class='targDiv'><div class='tc'><img class='introPic' src='trustrating_stim/white_mw091.bmp'><br><font color='red'><strong>Keep</strong></font></div></div><div class='respDiv'><div class='respDivL'>Match<br>(e)</div><div class='respDivR'>No Match<br>(i)</div></div></div>","e","TARGET","1","trustrating_stim/white_mw091.bmp","0","Match","e","1500","trustrating_stim/white_mw091.bmp","red","Keep","REAL","1"
"","","","","63d13b5ec81c77c3030c51c5","bdp_wmem","Tue Mar 14 2023 21:24:10 GMT-0400 (Eastern Daylight Time)","508224","Match,No Match","","html-keyboard-response","130","231508","0.0-7.0-5.18","","null","","<div class='trialBorder'><div class='vertical-center'><img src='img/correct.jpg'></div><div class='respDiv'><div class='respDivL'><font style='color:orange'>Match<br>(e)</font></div><div class='respDivR'>No Match<br>(i)</div></div></div>","null","FEEDBACK","","","","","","","","","","",""
"","","","","63d13b5ec81c77c3030c51c5","bdp_wmem","Tue Mar 14 2023 21:24:10 GMT-0400 (Eastern Daylight Time)","508224","Match,No Match","","html-keyboard-response","131","232021","0.0-7.0-1.19","","null","","<div class='trialBorder'><div class='vertical-center'><img src='img/fixation2_sml.jpg'</img></div></div>","null","FIX","","","","","","","","","","",""
"","","","","63d13b5ec81c77c3030c51c5","bdp_wmem","Tue Mar 14 2023 21:24:10 GMT-0400 (Eastern Daylight Time)","508224","Match,No Match","","html-keyboard-response","132","236538","0.0-7.0-2.19","","null","","<div class='trialBorder'><div class='vertical-center'><img style='vertical-align:center; align:center' src='img/fixation2_sml.jpg'></div><div class='arrayDiv3'><div class='tl'><img class='introPic' src='trustrating_stim/white_mw013.bmp'><br><font color='red'><strong>Keep</strong></font></div><div class='tc'><img class='introPic' src='trustrating_stim/white_mw070.bmp'><br><font color='green'><strong>Share</strong></font></div><div class='tr'><img class='introPic' src='trustrating_stim/white_mw091.bmp'><br><font color='red'><strong>Keep</strong></font></div></div></div>","null","ARRAY","3","trustrating_stim/white_mw013.bmp,trustrating_stim/white_mw070.bmp,trustrating_stim/white_mw091.bmp","0,1,0","noMatchFace","i","4500","","","","",""
"","","","","63d13b5ec81c77c3030c51c5","bdp_wmem","Tue Mar 14 2023 21:24:10 GMT-0400 (Eastern Daylight Time)","508224","Match,No Match","","html-keyboard-response","133","240540","0.0-7.0-3.19","","null","","<div class='trialBorder'><div class='vertical-center'><img src='img/fixation2_sml.jpg'</img></div></div>","null","DELAY","","","","","","","","","","",""
"","","","","63d13b5ec81c77c3030c51c5","bdp_wmem","Tue Mar 14 2023 21:24:10 GMT-0400 (Eastern Daylight Time)","508224","Match,No Match","","html-keyboard-response","134","248075","0.0-7.0-4.19","","7534","","<div class='trialBorder'><div class='targDiv'><div class='tc'><img class='introPic' src='trustrating_stim/white_mw012.bmp'><br><font color='red'><strong>Keep</strong></font></div></div><div class='respDiv'><div class='respDivL'>Match<br>(e)</div><div class='respDivR'>No Match<br>(i)</div></div></div>","e","TARGET","3","trustrating_stim/white_mw013.bmp,trustrating_stim/white_mw070.bmp,trustrating_stim/white_mw091.bmp","0,1,0","noMatchFace","i","4500","trustrating_stim/white_mw012.bmp","red","Keep","REAL","0"
"","","","","63d13b5ec81c77c3030c51c5","bdp_wmem","Tue Mar 14 2023 21:24:10 GMT-0400 (Eastern Daylight Time)","508224","Match,No Match","","html-keyboard-response","135","248585","0.0-7.0-5.19","","null","","<div class='trialBorder'><div class='vertical-center'><img src='img/error.jpg'></div><div class='respDiv'><div class='respDivL'><font style='color:orange'>Match<br>(e)</font></div><div class='respDivR'>No Match<br>(i)</div></div></div>","null","FEEDBACK","","","","","","","","","","",""
"","","","","63d13b5ec81c77c3030c51c5","bdp_wmem","Tue Mar 14 2023 21:24:10 GMT-0400 (Eastern Daylight Time)","508224","Match,No Match","","html-keyboard-response","136","249097","0.0-7.0-1.20","","null","","<div class='trialBorder'><div class='vertical-center'><img src='img/fixation2_sml.jpg'</img></div></div>","null","FIX","","","","","","","","","","",""
"","","","","63d13b5ec81c77c3030c51c5","bdp_wmem","Tue Mar 14 2023 21:24:10 GMT-0400 (Eastern Daylight Time)","508224","Match,No Match","","html-keyboard-response","137","253611","0.0-7.0-2.20","","null","","<div class='trialBorder'><div class='vertical-center'><img style='vertical-align:center; align:center' src='img/fixation2_sml.jpg'></div><div class='arrayDiv3'><div class='tl'><img class='introPic' src='trustrating_stim/white_mw085.bmp'><br><font color='green'><strong>Share</strong></font></div><div class='tc'><img class='introPic' src='trustrating_stim/white_mw078.bmp'><br><font color='red'><strong>Keep</strong></font></div><div class='tr'><img class='introPic' src='trustrating_stim/white_mw038.bmp'><br><font color='green'><strong>Share</strong></font></div></div></div>","null","ARRAY","3","trustrating_stim/white_mw085.bmp,trustrating_stim/white_mw078.bmp,trustrating_stim/white_mw038.bmp","1,0,1","noMatchOutcome","i","4500","","","","",""
"","","","","63d13b5ec81c77c3030c51c5","bdp_wmem","Tue Mar 14 2023 21:24:10 GMT-0400 (Eastern Daylight Time)","508224","Match,No Match","","html-keyboard-response","138","257623","0.0-7.0-3.20","","null","","<div class='trialBorder'><div class='vertical-center'><img src='img/fixation2_sml.jpg'</img></div></div>","null","DELAY","","","","","","","","","","",""
"","","","","63d13b5ec81c77c3030c51c5","bdp_wmem","Tue Mar 14 2023 21:24:10 GMT-0400 (Eastern Daylight Time)","508224","Match,No Match","","html-keyboard-response","139","259771","0.0-7.0-4.20","","2147","","<div class='trialBorder'><div class='targDiv'><div class='tc'><img class='introPic' src='trustrating_stim/white_mw038.bmp'><br><font color='red'><strong>Keep</strong></font></div></div><div class='respDiv'><div class='respDivL'>Match<br>(e)</div><div class='respDivR'>No Match<br>(i)</div></div></div>","i","TARGET","3","trustrating_stim/white_mw085.bmp,trustrating_stim/white_mw078.bmp,trustrating_stim/white_mw038.bmp","1,0,1","noMatchOutcome","i","4500","trustrating_stim/white_mw038.bmp","red","Keep","REAL","1"
"","","","","63d13b5ec81c77c3030c51c5","bdp_wmem","Tue Mar 14 2023 21:24:10 GMT-0400 (Eastern Daylight Time)","508224","Match,No Match","","html-keyboard-response","140","260280","0.0-7.0-5.20","","null","","<div class='trialBorder'><div class='vertical-center'><img src='img/correct.jpg'></div><div class='respDiv'><div class='respDivL'>Match<br>(e)</div><div class='respDivR'><font style='color:orange'>No Match<br>(i)</font></div></div></div>","null","FEEDBACK","","","","","","","","","","",""
"","","","","63d13b5ec81c77c3030c51c5","bdp_wmem","Tue Mar 14 2023 21:24:10 GMT-0400 (Eastern Daylight Time)","508224","Match,No Match","","html-keyboard-response","141","260783","0.0-7.0-1.21","","null","","<div class='trialBorder'><div class='vertical-center'><img src='img/fixation2_sml.jpg'</img></div></div>","null","FIX","","","","","","","","","","",""
"","","","","63d13b5ec81c77c3030c51c5","bdp_wmem","Tue Mar 14 2023 21:24:10 GMT-0400 (Eastern Daylight Time)","508224","Match,No Match","","html-keyboard-response","142","262286","0.0-7.0-2.21","","null","","<div class='trialBorder'><div class='vertical-center'><img style='vertical-align:center; align:center' src='img/fixation2_sml.jpg'></div><div class='arrayDiv1'><div class='tc'><img class='introPic' src='trustrating_stim/white_mw012.bmp'><br><font color='green'><strong>Share</strong></font></div></div></div>","null","ARRAY","1","trustrating_stim/white_mw012.bmp","1","Match","e","1500","","","","",""
"","","","","63d13b5ec81c77c3030c51c5","bdp_wmem","Tue Mar 14 2023 21:24:10 GMT-0400 (Eastern Daylight Time)","508224","Match,No Match","","html-keyboard-response","143","266297","0.0-7.0-3.21","","null","","<div class='trialBorder'><div class='vertical-center'><img src='img/fixation2_sml.jpg'</img></div></div>","null","DELAY","","","","","","","","","","",""
"","","","","63d13b5ec81c77c3030c51c5","bdp_wmem","Tue Mar 14 2023 21:24:10 GMT-0400 (Eastern Daylight Time)","508224","Match,No Match","","html-keyboard-response","144","274349","0.0-7.0-4.21","","8051","","<div class='trialBorder'><div class='targDiv'><div class='tc'><img class='introPic' src='trustrating_stim/white_mw012.bmp'><br><font color='green'><strong>Share</strong></font></div></div><div class='respDiv'><div class='respDivL'>Match<br>(e)</div><div class='respDivR'>No Match<br>(i)</div></div></div>","i","TARGET","1","trustrating_stim/white_mw012.bmp","1","Match","e","1500","trustrating_stim/white_mw012.bmp","green","Share","REAL","0"
"","","","","63d13b5ec81c77c3030c51c5","bdp_wmem","Tue Mar 14 2023 21:24:10 GMT-0400 (Eastern Daylight Time)","508224","Match,No Match","","html-keyboard-response","145","274854","0.0-7.0-5.21","","null","","<div class='trialBorder'><div class='vertical-center'><img src='img/error.jpg'></div><div class='respDiv'><div class='respDivL'>Match<br>(e)</div><div class='respDivR'><font style='color:orange'>No Match<br>(i)</font></div></div></div>","null","FEEDBACK","","","","","","","","","","",""
"","","","","63d13b5ec81c77c3030c51c5","bdp_wmem","Tue Mar 14 2023 21:24:10 GMT-0400 (Eastern Daylight Time)","508224","Match,No Match","","html-keyboard-response","146","275365","0.0-7.0-1.22","","null","","<div class='trialBorder'><div class='vertical-center'><img src='img/fixation2_sml.jpg'</img></div></div>","null","FIX","","","","","","","","","","",""
"","","","","63d13b5ec81c77c3030c51c5","bdp_wmem","Tue Mar 14 2023 21:24:10 GMT-0400 (Eastern Daylight Time)","508224","Match,No Match","","html-keyboard-response","147","279876","0.0-7.0-2.22","","null","","<div class='trialBorder'><div class='vertical-center'><img style='vertical-align:center; align:center' src='img/fixation2_sml.jpg'></div><div class='arrayDiv3'><div class='tl'><img class='introPic' src='trustrating_stim/white_mw091.bmp'><br><font color='green'><strong>Share</strong></font></div><div class='tc'><img class='introPic' src='trustrating_stim/white_mw042.bmp'><br><font color='green'><strong>Share</strong></font></div><div class='tr'><img class='introPic' src='trustrating_stim/white_mw038.bmp'><br><font color='red'><strong>Keep</strong></font></div></div></div>","null","ARRAY","3","trustrating_stim/white_mw091.bmp,trustrating_stim/white_mw042.bmp,trustrating_stim/white_mw038.bmp","1,1,0","Match","e","4500","","","","",""
"","","","","63d13b5ec81c77c3030c51c5","bdp_wmem","Tue Mar 14 2023 21:24:10 GMT-0400 (Eastern Daylight Time)","508224","Match,No Match","","html-keyboard-response","148","283886","0.0-7.0-3.22","","null","","<div class='trialBorder'><div class='vertical-center'><img src='img/fixation2_sml.jpg'</img></div></div>","null","DELAY","","","","","","","","","","",""
"","","","","63d13b5ec81c77c3030c51c5","bdp_wmem","Tue Mar 14 2023 21:24:10 GMT-0400 (Eastern Daylight Time)","508224","Match,No Match","","html-keyboard-response","149","284615","0.0-7.0-4.22","","728","","<div class='trialBorder'><div class='targDiv'><div class='tc'><img class='introPic' src='trustrating_stim/white_mw091.bmp'><br><font color='green'><strong>Share</strong></font></div></div><div class='respDiv'><div class='respDivL'>Match<br>(e)</div><div class='respDivR'>No Match<br>(i)</div></div></div>","e","TARGET","3","trustrating_stim/white_mw091.bmp,trustrating_stim/white_mw042.bmp,trustrating_stim/white_mw038.bmp","1,1,0","Match","e","4500","trustrating_stim/white_mw091.bmp","green","Share","REAL","1"
"","","","","63d13b5ec81c77c3030c51c5","bdp_wmem","Tue Mar 14 2023 21:24:10 GMT-0400 (Eastern Daylight Time)","508224","Match,No Match","","html-keyboard-response","150","285122","0.0-7.0-5.22","","null","","<div class='trialBorder'><div class='vertical-center'><img src='img/correct.jpg'></div><div class='respDiv'><div class='respDivL'><font style='color:orange'>Match<br>(e)</font></div><div class='respDivR'>No Match<br>(i)</div></div></div>","null","FEEDBACK","","","","","","","","","","",""
"","","","","63d13b5ec81c77c3030c51c5","bdp_wmem","Tue Mar 14 2023 21:24:10 GMT-0400 (Eastern Daylight Time)","508224","Match,No Match","","html-keyboard-response","151","285629","0.0-7.0-1.23","","null","","<div class='trialBorder'><div class='vertical-center'><img src='img/fixation2_sml.jpg'</img></div></div>","null","FIX","","","","","","","","","","",""
"","","","","63d13b5ec81c77c3030c51c5","bdp_wmem","Tue Mar 14 2023 21:24:10 GMT-0400 (Eastern Daylight Time)","508224","Match,No Match","","html-keyboard-response","152","290140","0.0-7.0-2.23","","null","","<div class='trialBorder'><div class='vertical-center'><img style='vertical-align:center; align:center' src='img/fixation2_sml.jpg'></div><div class='arrayDiv3'><div class='tl'><img class='introPic' src='trustrating_stim/white_mw003.bmp'><br><font color='green'><strong>Share</strong></font></div><div class='tc'><img class='introPic' src='trustrating_stim/white_mw038.bmp'><br><font color='green'><strong>Share</strong></font></div><div class='tr'><img class='introPic' src='trustrating_stim/white_mw070.bmp'><br><font color='red'><strong>Keep</strong></font></div></div></div>","null","ARRAY","3","trustrating_stim/white_mw003.bmp,trustrating_stim/white_mw038.bmp,trustrating_stim/white_mw070.bmp","1,1,0","Match","e","4500","","","","",""
"","","","","63d13b5ec81c77c3030c51c5","bdp_wmem","Tue Mar 14 2023 21:24:10 GMT-0400 (Eastern Daylight Time)","508224","Match,No Match","","html-keyboard-response","153","294149","0.0-7.0-3.23","","null","","<div class='trialBorder'><div class='vertical-center'><img src='img/fixation2_sml.jpg'</img></div></div>","null","DELAY","","","","","","","","","","",""
"","","","","63d13b5ec81c77c3030c51c5","bdp_wmem","Tue Mar 14 2023 21:24:10 GMT-0400 (Eastern Daylight Time)","508224","Match,No Match","","html-keyboard-response","154","294587","0.0-7.0-4.23","","435","","<div class='trialBorder'><div class='targDiv'><div class='tc'><img class='introPic' src='trustrating_stim/white_mw070.bmp'><br><font color='red'><strong>Keep</strong></font></div></div><div class='respDiv'><div class='respDivL'>Match<br>(e)</div><div class='respDivR'>No Match<br>(i)</div></div></div>","e","TARGET","3","trustrating_stim/white_mw003.bmp,trustrating_stim/white_mw038.bmp,trustrating_stim/white_mw070.bmp","1,1,0","Match","e","4500","trustrating_stim/white_mw070.bmp","red","Keep","REAL","1"
"","","","","63d13b5ec81c77c3030c51c5","bdp_wmem","Tue Mar 14 2023 21:24:10 GMT-0400 (Eastern Daylight Time)","508224","Match,No Match","","html-keyboard-response","155","295101","0.0-7.0-5.23","","null","","<div class='trialBorder'><div class='vertical-center'><img src='img/correct.jpg'></div><div class='respDiv'><div class='respDivL'><font style='color:orange'>Match<br>(e)</font></div><div class='respDivR'>No Match<br>(i)</div></div></div>","null","FEEDBACK","","","","","","","","","","",""
"","","","","63d13b5ec81c77c3030c51c5","bdp_wmem","Tue Mar 14 2023 21:24:10 GMT-0400 (Eastern Daylight Time)","508224","Match,No Match","","html-keyboard-response","156","295607","0.0-7.0-1.24","","null","","<div class='trialBorder'><div class='vertical-center'><img src='img/fixation2_sml.jpg'</img></div></div>","null","FIX","","","","","","","","","","",""
"","","","","63d13b5ec81c77c3030c51c5","bdp_wmem","Tue Mar 14 2023 21:24:10 GMT-0400 (Eastern Daylight Time)","508224","Match,No Match","","html-keyboard-response","157","298615","0.0-7.0-2.24","","null","","<div class='trialBorder'><div class='vertical-center'><img style='vertical-align:center; align:center' src='img/fixation2_sml.jpg'></div><div class='arrayDiv2'><div class='tl'><img class='introPic' src='trustrating_stim/white_mw012.bmp'><br><font color='red'><strong>Keep</strong></font></div><div class='tr'><img class='introPic' src='trustrating_stim/white_mw091.bmp'><br><font color='green'><strong>Share</strong></font></div></div></div>","null","ARRAY","2","trustrating_stim/white_mw012.bmp,trustrating_stim/white_mw091.bmp","0,1","noMatchFace","i","3000","","","","",""
"","","","","63d13b5ec81c77c3030c51c5","bdp_wmem","Tue Mar 14 2023 21:24:10 GMT-0400 (Eastern Daylight Time)","508224","Match,No Match","","html-keyboard-response","158","302623","0.0-7.0-3.24","","null","","<div class='trialBorder'><div class='vertical-center'><img src='img/fixation2_sml.jpg'</img></div></div>","null","DELAY","","","","","","","","","","",""
"","","","","63d13b5ec81c77c3030c51c5","bdp_wmem","Tue Mar 14 2023 21:24:10 GMT-0400 (Eastern Daylight Time)","508224","Match,No Match","","html-keyboard-response","159","303934","0.0-7.0-4.24","","1309","","<div class='trialBorder'><div class='targDiv'><div class='tc'><img class='introPic' src='trustrating_stim/white_mw038.bmp'><br><font color='green'><strong>Share</strong></font></div></div><div class='respDiv'><div class='respDivL'>Match<br>(e)</div><div class='respDivR'>No Match<br>(i)</div></div></div>","e","TARGET","2","trustrating_stim/white_mw012.bmp,trustrating_stim/white_mw091.bmp","0,1","noMatchFace","i","3000","trustrating_stim/white_mw038.bmp","green","Share","REAL","0"
"","","","","63d13b5ec81c77c3030c51c5","bdp_wmem","Tue Mar 14 2023 21:24:10 GMT-0400 (Eastern Daylight Time)","508224","Match,No Match","","html-keyboard-response","160","304441","0.0-7.0-5.24","","null","","<div class='trialBorder'><div class='vertical-center'><img src='img/error.jpg'></div><div class='respDiv'><div class='respDivL'><font style='color:orange'>Match<br>(e)</font></div><div class='respDivR'>No Match<br>(i)</div></div></div>","null","FEEDBACK","","","","","","","","","","",""
"","","","","63d13b5ec81c77c3030c51c5","bdp_wmem","Tue Mar 14 2023 21:24:10 GMT-0400 (Eastern Daylight Time)","508224","Match,No Match","","html-keyboard-response","161","304953","0.0-7.0-1.25","","null","","<div class='trialBorder'><div class='vertical-center'><img src='img/fixation2_sml.jpg'</img></div></div>","null","FIX","","","","","","","","","","",""
"","","","","63d13b5ec81c77c3030c51c5","bdp_wmem","Tue Mar 14 2023 21:24:10 GMT-0400 (Eastern Daylight Time)","508224","Match,No Match","","html-keyboard-response","162","309467","0.0-7.0-2.25","","null","","<div class='trialBorder'><div class='vertical-center'><img style='vertical-align:center; align:center' src='img/fixation2_sml.jpg'></div><div class='arrayDiv3'><div class='tl'><img class='introPic' src='trustrating_stim/white_mw013.bmp'><br><font color='red'><strong>Keep</strong></font></div><div class='tc'><img class='introPic' src='trustrating_stim/white_mw003.bmp'><br><font color='green'><strong>Share</strong></font></div><div class='tr'><img class='introPic' src='trustrating_stim/white_mw092.bmp'><br><font color='red'><strong>Keep</strong></font></div></div></div>","null","ARRAY","3","trustrating_stim/white_mw013.bmp,trustrating_stim/white_mw003.bmp,trustrating_stim/white_mw092.bmp","0,1,0","noMatchFace","i","4500","","","","",""
"","","","","63d13b5ec81c77c3030c51c5","bdp_wmem","Tue Mar 14 2023 21:24:10 GMT-0400 (Eastern Daylight Time)","508224","Match,No Match","","html-keyboard-response","163","313481","0.0-7.0-3.25","","null","","<div class='trialBorder'><div class='vertical-center'><img src='img/fixation2_sml.jpg'</img></div></div>","null","DELAY","","","","","","","","","","",""
"","","","","63d13b5ec81c77c3030c51c5","bdp_wmem","Tue Mar 14 2023 21:24:10 GMT-0400 (Eastern Daylight Time)","508224","Match,No Match","","html-keyboard-response","164","315299","0.0-7.0-4.25","","1817","","<div class='trialBorder'><div class='targDiv'><div class='tc'><img class='introPic' src='trustrating_stim/white_mw038.bmp'><br><font color='red'><strong>Keep</strong></font></div></div><div class='respDiv'><div class='respDivL'>Match<br>(e)</div><div class='respDivR'>No Match<br>(i)</div></div></div>","i","TARGET","3","trustrating_stim/white_mw013.bmp,trustrating_stim/white_mw003.bmp,trustrating_stim/white_mw092.bmp","0,1,0","noMatchFace","i","4500","trustrating_stim/white_mw038.bmp","red","Keep","REAL","1"
"","","","","63d13b5ec81c77c3030c51c5","bdp_wmem","Tue Mar 14 2023 21:24:10 GMT-0400 (Eastern Daylight Time)","508224","Match,No Match","","html-keyboard-response","165","315807","0.0-7.0-5.25","","null","","<div class='trialBorder'><div class='vertical-center'><img src='img/correct.jpg'></div><div class='respDiv'><div class='respDivL'>Match<br>(e)</div><div class='respDivR'><font style='color:orange'>No Match<br>(i)</font></div></div></div>","null","FEEDBACK","","","","","","","","","","",""
"","","","","63d13b5ec81c77c3030c51c5","bdp_wmem","Tue Mar 14 2023 21:24:10 GMT-0400 (Eastern Daylight Time)","508224","Match,No Match","","html-keyboard-response","166","316323","0.0-7.0-1.26","","null","","<div class='trialBorder'><div class='vertical-center'><img src='img/fixation2_sml.jpg'</img></div></div>","null","FIX","","","","","","","","","","",""
"","","","","63d13b5ec81c77c3030c51c5","bdp_wmem","Tue Mar 14 2023 21:24:10 GMT-0400 (Eastern Daylight Time)","508224","Match,No Match","","html-keyboard-response","167","320826","0.0-7.0-2.26","","null","","<div class='trialBorder'><div class='vertical-center'><img style='vertical-align:center; align:center' src='img/fixation2_sml.jpg'></div><div class='arrayDiv3'><div class='tl'><img class='introPic' src='trustrating_stim/white_mw040.bmp'><br><font color='green'><strong>Share</strong></font></div><div class='tc'><img class='introPic' src='trustrating_stim/white_mw092.bmp'><br><font color='red'><strong>Keep</strong></font></div><div class='tr'><img class='introPic' src='trustrating_stim/white_mw013.bmp'><br><font color='green'><strong>Share</strong></font></div></div></div>","null","ARRAY","3","trustrating_stim/white_mw040.bmp,trustrating_stim/white_mw092.bmp,trustrating_stim/white_mw013.bmp","1,0,1","noMatchOutcome","i","4500","","","","",""
"","","","","63d13b5ec81c77c3030c51c5","bdp_wmem","Tue Mar 14 2023 21:24:10 GMT-0400 (Eastern Daylight Time)","508224","Match,No Match","","html-keyboard-response","168","324831","0.0-7.0-3.26","","null","","<div class='trialBorder'><div class='vertical-center'><img src='img/fixation2_sml.jpg'</img></div></div>","null","DELAY","","","","","","","","","","",""
"","","","","63d13b5ec81c77c3030c51c5","bdp_wmem","Tue Mar 14 2023 21:24:10 GMT-0400 (Eastern Daylight Time)","508224","Match,No Match","","html-keyboard-response","169","325298","0.0-7.0-4.26","","467","","<div class='trialBorder'><div class='targDiv'><div class='tc'><img class='introPic' src='trustrating_stim/white_mw040.bmp'><br><font color='red'><strong>Keep</strong></font></div></div><div class='respDiv'><div class='respDivL'>Match<br>(e)</div><div class='respDivR'>No Match<br>(i)</div></div></div>","i","TARGET","3","trustrating_stim/white_mw040.bmp,trustrating_stim/white_mw092.bmp,trustrating_stim/white_mw013.bmp","1,0,1","noMatchOutcome","i","4500","trustrating_stim/white_mw040.bmp","red","Keep","REAL","1"
"","","","","63d13b5ec81c77c3030c51c5","bdp_wmem","Tue Mar 14 2023 21:24:10 GMT-0400 (Eastern Daylight Time)","508224","Match,No Match","","html-keyboard-response","170","325807","0.0-7.0-5.26","","null","","<div class='trialBorder'><div class='vertical-center'><img src='img/correct.jpg'></div><div class='respDiv'><div class='respDivL'>Match<br>(e)</div><div class='respDivR'><font style='color:orange'>No Match<br>(i)</font></div></div></div>","null","FEEDBACK","","","","","","","","","","",""
"","","","","63d13b5ec81c77c3030c51c5","bdp_wmem","Tue Mar 14 2023 21:24:10 GMT-0400 (Eastern Daylight Time)","508224","Match,No Match","","html-keyboard-response","171","326316","0.0-7.0-1.27","","null","","<div class='trialBorder'><div class='vertical-center'><img src='img/fixation2_sml.jpg'</img></div></div>","null","FIX","","","","","","","","","","",""
"","","","","63d13b5ec81c77c3030c51c5","bdp_wmem","Tue Mar 14 2023 21:24:10 GMT-0400 (Eastern Daylight Time)","508224","Match,No Match","","html-keyboard-response","172","330820","0.0-7.0-2.27","","null","","<div class='trialBorder'><div class='vertical-center'><img style='vertical-align:center; align:center' src='img/fixation2_sml.jpg'></div><div class='arrayDiv3'><div class='tl'><img class='introPic' src='trustrating_stim/white_mw085.bmp'><br><font color='red'><strong>Keep</strong></font></div><div class='tc'><img class='introPic' src='trustrating_stim/white_mw042.bmp'><br><font color='green'><strong>Share</strong></font></div><div class='tr'><img class='introPic' src='trustrating_stim/white_mw092.bmp'><br><font color='green'><strong>Share</strong></font></div></div></div>","null","ARRAY","3","trustrating_stim/white_mw085.bmp,trustrating_stim/white_mw042.bmp,trustrating_stim/white_mw092.bmp","0,1,1","Match","e","4500","","","","",""
"","","","","63d13b5ec81c77c3030c51c5","bdp_wmem","Tue Mar 14 2023 21:24:10 GMT-0400 (Eastern Daylight Time)","508224","Match,No Match","","html-keyboard-response","173","334826","0.0-7.0-3.27","","null","","<div class='trialBorder'><div class='vertical-center'><img src='img/fixation2_sml.jpg'</img></div></div>","null","DELAY","","","","","","","","","","",""
"","","","","63d13b5ec81c77c3030c51c5","bdp_wmem","Tue Mar 14 2023 21:24:10 GMT-0400 (Eastern Daylight Time)","508224","Match,No Match","","html-keyboard-response","174","335507","0.0-7.0-4.27","","680","","<div class='trialBorder'><div class='targDiv'><div class='tc'><img class='introPic' src='trustrating_stim/white_mw085.bmp'><br><font color='red'><strong>Keep</strong></font></div></div><div class='respDiv'><div class='respDivL'>Match<br>(e)</div><div class='respDivR'>No Match<br>(i)</div></div></div>","i","TARGET","3","trustrating_stim/white_mw085.bmp,trustrating_stim/white_mw042.bmp,trustrating_stim/white_mw092.bmp","0,1,1","Match","e","4500","trustrating_stim/white_mw085.bmp","red","Keep","REAL","0"
"","","","","63d13b5ec81c77c3030c51c5","bdp_wmem","Tue Mar 14 2023 21:24:10 GMT-0400 (Eastern Daylight Time)","508224","Match,No Match","","html-keyboard-response","175","336015","0.0-7.0-5.27","","null","","<div class='trialBorder'><div class='vertical-center'><img src='img/error.jpg'></div><div class='respDiv'><div class='respDivL'>Match<br>(e)</div><div class='respDivR'><font style='color:orange'>No Match<br>(i)</font></div></div></div>","null","FEEDBACK","","","","","","","","","","",""
"","","","","63d13b5ec81c77c3030c51c5","bdp_wmem","Tue Mar 14 2023 21:24:10 GMT-0400 (Eastern Daylight Time)","508224","Match,No Match","","html-keyboard-response","176","336525","0.0-7.0-1.28","","null","","<div class='trialBorder'><div class='vertical-center'><img src='img/fixation2_sml.jpg'</img></div></div>","null","FIX","","","","","","","","","","",""
"","","","","63d13b5ec81c77c3030c51c5","bdp_wmem","Tue Mar 14 2023 21:24:10 GMT-0400 (Eastern Daylight Time)","508224","Match,No Match","","html-keyboard-response","177","338032","0.0-7.0-2.28","","null","","<div class='trialBorder'><div class='vertical-center'><img style='vertical-align:center; align:center' src='img/fixation2_sml.jpg'></div><div class='arrayDiv1'><div class='tc'><img class='introPic' src='trustrating_stim/white_mw085.bmp'><br><font color='red'><strong>Keep</strong></font></div></div></div>","null","ARRAY","1","trustrating_stim/white_mw085.bmp","0","noMatchOutcome","i","1500","","","","",""
"","","","","63d13b5ec81c77c3030c51c5","bdp_wmem","Tue Mar 14 2023 21:24:10 GMT-0400 (Eastern Daylight Time)","508224","Match,No Match","","html-keyboard-response","178","342047","0.0-7.0-3.28","","null","","<div class='trialBorder'><div class='vertical-center'><img src='img/fixation2_sml.jpg'</img></div></div>","null","DELAY","","","","","","","","","","",""
"","","","","63d13b5ec81c77c3030c51c5","bdp_wmem","Tue Mar 14 2023 21:24:10 GMT-0400 (Eastern Daylight Time)","508224","Match,No Match","","html-keyboard-response","179","342610","0.0-7.0-4.28","","563","","<div class='trialBorder'><div class='targDiv'><div class='tc'><img class='introPic' src='trustrating_stim/white_mw085.bmp'><br><font color='green'><strong>Share</strong></font></div></div><div class='respDiv'><div class='respDivL'>Match<br>(e)</div><div class='respDivR'>No Match<br>(i)</div></div></div>","i","TARGET","1","trustrating_stim/white_mw085.bmp","0","noMatchOutcome","i","1500","trustrating_stim/white_mw085.bmp","green","Share","REAL","1"
"","","","","63d13b5ec81c77c3030c51c5","bdp_wmem","Tue Mar 14 2023 21:24:10 GMT-0400 (Eastern Daylight Time)","508224","Match,No Match","","html-keyboard-response","180","343119","0.0-7.0-5.28","","null","","<div class='trialBorder'><div class='vertical-center'><img src='img/correct.jpg'></div><div class='respDiv'><div class='respDivL'>Match<br>(e)</div><div class='respDivR'><font style='color:orange'>No Match<br>(i)</font></div></div></div>","null","FEEDBACK","","","","","","","","","","",""
"","","","","63d13b5ec81c77c3030c51c5","bdp_wmem","Tue Mar 14 2023 21:24:10 GMT-0400 (Eastern Daylight Time)","508224","Match,No Match","","html-keyboard-response","181","343625","0.0-7.0-1.29","","null","","<div class='trialBorder'><div class='vertical-center'><img src='img/fixation2_sml.jpg'</img></div></div>","null","FIX","","","","","","","","","","",""
"","","","","63d13b5ec81c77c3030c51c5","bdp_wmem","Tue Mar 14 2023 21:24:10 GMT-0400 (Eastern Daylight Time)","508224","Match,No Match","","html-keyboard-response","182","348136","0.0-7.0-2.29","","null","","<div class='trialBorder'><div class='vertical-center'><img style='vertical-align:center; align:center' src='img/fixation2_sml.jpg'></div><div class='arrayDiv3'><div class='tl'><img class='introPic' src='trustrating_stim/white_mw078.bmp'><br><font color='red'><strong>Keep</strong></font></div><div class='tc'><img class='introPic' src='trustrating_stim/white_mw091.bmp'><br><font color='green'><strong>Share</strong></font></div><div class='tr'><img class='introPic' src='trustrating_stim/white_mw038.bmp'><br><font color='green'><strong>Share</strong></font></div></div></div>","null","ARRAY","3","trustrating_stim/white_mw078.bmp,trustrating_stim/white_mw091.bmp,trustrating_stim/white_mw038.bmp","0,1,1","Match","e","4500","","","","",""
"","","","","63d13b5ec81c77c3030c51c5","bdp_wmem","Tue Mar 14 2023 21:24:10 GMT-0400 (Eastern Daylight Time)","508224","Match,No Match","","html-keyboard-response","183","352149","0.0-7.0-3.29","","null","","<div class='trialBorder'><div class='vertical-center'><img src='img/fixation2_sml.jpg'</img></div></div>","null","DELAY","","","","","","","","","","",""
"","","","","63d13b5ec81c77c3030c51c5","bdp_wmem","Tue Mar 14 2023 21:24:10 GMT-0400 (Eastern Daylight Time)","508224","Match,No Match","","html-keyboard-response","184","352849","0.0-7.0-4.29","","699","","<div class='trialBorder'><div class='targDiv'><div class='tc'><img class='introPic' src='trustrating_stim/white_mw038.bmp'><br><font color='green'><strong>Share</strong></font></div></div><div class='respDiv'><div class='respDivL'>Match<br>(e)</div><div class='respDivR'>No Match<br>(i)</div></div></div>","i","TARGET","3","trustrating_stim/white_mw078.bmp,trustrating_stim/white_mw091.bmp,trustrating_stim/white_mw038.bmp","0,1,1","Match","e","4500","trustrating_stim/white_mw038.bmp","green","Share","REAL","0"
