"event","trial","time","trialtype","subject_id","task","startTime","totalTime","labels","trial_type","trial_index","time_elapsed","internal_node_id","view_history","rt","success","stimulus","key_press","stimType","arraySize","arrayFaces","arrayOutcomes","matchType","corrResp","arrayDur","targFace","targCol","targOutcome","trialType","corr"
"focus","0","0","focusevent","61103c2b7810420e5f23f437","bdp_wmem","Mon Mar 13 2023 23:30:27 GMT-0500 (Central Daylight Time)","671727","Match,No Match","","","","","","","","","","","","","","","","","","","","",""
"","","","","61103c2b7810420e5f23f437","bdp_wmem","Mon Mar 13 2023 23:30:27 GMT-0500 (Central Daylight Time)","671727","Match,No Match","pavlovia","0","3","0.0-0.0","","","","","","","","","","","","","","","","",""
"","","","","61103c2b7810420e5f23f437","bdp_wmem","Mon Mar 13 2023 23:30:27 GMT-0500 (Central Daylight Time)","671727","Match,No Match","instructions","1","10247","0.0-1.0","[{""page_index"":0,""viewing_time"":10244}]","10244","","","","","","","","","","","","","","",""
"fullscreenexit","2","15188","fullscreenexit","61103c2b7810420e5f23f437","bdp_wmem","Mon Mar 13 2023 23:30:27 GMT-0500 (Central Daylight Time)","671727","Match,No Match","","","","","","","","","","","","","","","","","","","","",""
"","","","","61103c2b7810420e5f23f437","bdp_wmem","Mon Mar 13 2023 23:30:27 GMT-0500 (Central Daylight Time)","671727","Match,No Match","fullscreen","2","16187","0.0-2.0","","","true","","","","","","","","","","","","","",""
"","","","fullscreenfail","61103c2b7810420e5f23f437","bdp_wmem","Mon Mar 13 2023 23:30:27 GMT-0500 (Central Daylight Time)","671727","Match,No Match","image-keyboard-response","3","18660","0.0-3.0-0.0","","2470","","","32","","","","","","","","","","","",""
"","","","","61103c2b7810420e5f23f437","bdp_wmem","Mon Mar 13 2023 23:30:27 GMT-0500 (Central Daylight Time)","671727","Match,No Match","instructions","4","140870","0.0-4.0","[{""page_index"":0,""viewing_time"":77562},{""page_index"":1,""viewing_time"":20007},{""page_index"":2,""viewing_time"":12962},{""page_index"":3,""viewing_time"":8447},{""page_index"":4,""viewing_time"":2980}]","121958","","","","","","","","","","","","","","",""
"","","","","61103c2b7810420e5f23f437","bdp_wmem","Mon Mar 13 2023 23:30:27 GMT-0500 (Central Daylight Time)","671727","Match,No Match","html-keyboard-response","5","141374","0.0-5.0-1.0","","null","","<div class='trialBorder'><div class='vertical-center'><img src='img/fixation2_sml.jpg'</img></div></div>","null","FIX","","","","","","","","","","",""
"","","","","61103c2b7810420e5f23f437","bdp_wmem","Mon Mar 13 2023 23:30:27 GMT-0500 (Central Daylight Time)","671727","Match,No Match","html-keyboard-response","6","142878","0.0-5.0-2.0","","null","","<div class='trialBorder'><div class='vertical-center'><img style='vertical-align:center; align:center' src='img/fixation2_sml.jpg'></div><div class='arrayDiv1'><div class='tc'><img class='introPic' src='trustrating_stim/white_mw091.bmp'><br><font color='green'><strong>Share</strong></font></div></div></div>","null","ARRAY","1","trustrating_stim/white_mw091.bmp","1","Match","e","1500","","","","",""
"","","","","61103c2b7810420e5f23f437","bdp_wmem","Mon Mar 13 2023 23:30:27 GMT-0500 (Central Daylight Time)","671727","Match,No Match","html-keyboard-response","7","146884","0.0-5.0-3.0","","null","","<div class='trialBorder'><div class='vertical-center'><img src='img/fixation2_sml.jpg'</img></div></div>","null","DELAY","","","","","","","","","","",""
"","","","","61103c2b7810420e5f23f437","bdp_wmem","Mon Mar 13 2023 23:30:27 GMT-0500 (Central Daylight Time)","671727","Match,No Match","html-keyboard-response","8","147928","0.0-5.0-4.0","","1043","","<div class='trialBorder'><div class='targDiv'><div class='tc'><img class='introPic' src='trustrating_stim/white_mw091.bmp'><br><font color='green'><strong>Share</strong></font></div></div><div class='respDiv'><div class='respDivL'>Match<br>(e)</div><div class='respDivR'>No Match<br>(i)</div></div></div>","e","TARGET","1","trustrating_stim/white_mw091.bmp","1","Match","e","1500","trustrating_stim/white_mw091.bmp","green","Share","PRACTICE","1"
"","","","","61103c2b7810420e5f23f437","bdp_wmem","Mon Mar 13 2023 23:30:27 GMT-0500 (Central Daylight Time)","671727","Match,No Match","html-keyboard-response","9","148435","0.0-5.0-5.0","","null","","<div class='trialBorder'><div class='vertical-center'><img src='img/correct.jpg'></div><div class='respDiv'><div class='respDivL'><font style='color:orange'>Match<br>(e)</font></div><div class='respDivR'>No Match<br>(i)</div></div></div>","null","FEEDBACK","","","","","","","","","","",""
"","","","","61103c2b7810420e5f23f437","bdp_wmem","Mon Mar 13 2023 23:30:27 GMT-0500 (Central Daylight Time)","671727","Match,No Match","html-keyboard-response","10","148939","0.0-5.0-1.1","","null","","<div class='trialBorder'><div class='vertical-center'><img src='img/fixation2_sml.jpg'</img></div></div>","null","FIX","","","","","","","","","","",""
"","","","","61103c2b7810420e5f23f437","bdp_wmem","Mon Mar 13 2023 23:30:27 GMT-0500 (Central Daylight Time)","671727","Match,No Match","html-keyboard-response","11","151944","0.0-5.0-2.1","","null","","<div class='trialBorder'><div class='vertical-center'><img style='vertical-align:center; align:center' src='img/fixation2_sml.jpg'></div><div class='arrayDiv2'><div class='tl'><img class='introPic' src='trustrating_stim/white_mw092.bmp'><br><font color='red'><strong>Keep</strong></font></div><div class='tr'><img class='introPic' src='trustrating_stim/white_mw070.bmp'><br><font color='green'><strong>Share</strong></font></div></div></div>","null","ARRAY","2","trustrating_stim/white_mw092.bmp,trustrating_stim/white_mw070.bmp","0,1","noMatchOutcome","i","3000","","","","",""
"","","","","61103c2b7810420e5f23f437","bdp_wmem","Mon Mar 13 2023 23:30:27 GMT-0500 (Central Daylight Time)","671727","Match,No Match","html-keyboard-response","12","155949","0.0-5.0-3.1","","null","","<div class='trialBorder'><div class='vertical-center'><img src='img/fixation2_sml.jpg'</img></div></div>","null","DELAY","","","","","","","","","","",""
"","","","","61103c2b7810420e5f23f437","bdp_wmem","Mon Mar 13 2023 23:30:27 GMT-0500 (Central Daylight Time)","671727","Match,No Match","html-keyboard-response","13","157634","0.0-5.0-4.1","","1683","","<div class='trialBorder'><div class='targDiv'><div class='tc'><img class='introPic' src='trustrating_stim/white_mw070.bmp'><br><font color='red'><strong>Keep</strong></font></div></div><div class='respDiv'><div class='respDivL'>Match<br>(e)</div><div class='respDivR'>No Match<br>(i)</div></div></div>","i","TARGET","2","trustrating_stim/white_mw092.bmp,trustrating_stim/white_mw070.bmp","0,1","noMatchOutcome","i","3000","trustrating_stim/white_mw070.bmp","red","Keep","PRACTICE","1"
"","","","","61103c2b7810420e5f23f437","bdp_wmem","Mon Mar 13 2023 23:30:27 GMT-0500 (Central Daylight Time)","671727","Match,No Match","html-keyboard-response","14","158138","0.0-5.0-5.1","","null","","<div class='trialBorder'><div class='vertical-center'><img src='img/correct.jpg'></div><div class='respDiv'><div class='respDivL'>Match<br>(e)</div><div class='respDivR'><font style='color:orange'>No Match<br>(i)</font></div></div></div>","null","FEEDBACK","","","","","","","","","","",""
"","","","","61103c2b7810420e5f23f437","bdp_wmem","Mon Mar 13 2023 23:30:27 GMT-0500 (Central Daylight Time)","671727","Match,No Match","html-keyboard-response","15","158644","0.0-5.0-1.2","","null","","<div class='trialBorder'><div class='vertical-center'><img src='img/fixation2_sml.jpg'</img></div></div>","null","FIX","","","","","","","","","","",""
"","","","","61103c2b7810420e5f23f437","bdp_wmem","Mon Mar 13 2023 23:30:27 GMT-0500 (Central Daylight Time)","671727","Match,No Match","html-keyboard-response","16","163150","0.0-5.0-2.2","","null","","<div class='trialBorder'><div class='vertical-center'><img style='vertical-align:center; align:center' src='img/fixation2_sml.jpg'></div><div class='arrayDiv3'><div class='tl'><img class='introPic' src='trustrating_stim/white_mw078.bmp'><br><font color='red'><strong>Keep</strong></font></div><div class='tc'><img class='introPic' src='trustrating_stim/white_mw010.bmp'><br><font color='green'><strong>Share</strong></font></div><div class='tr'><img class='introPic' src='trustrating_stim/white_mw042.bmp'><br><font color='red'><strong>Keep</strong></font></div></div></div>","null","ARRAY","3","trustrating_stim/white_mw078.bmp,trustrating_stim/white_mw010.bmp,trustrating_stim/white_mw042.bmp","0,1,0","Match","e","4500","","","","",""
"","","","","61103c2b7810420e5f23f437","bdp_wmem","Mon Mar 13 2023 23:30:27 GMT-0500 (Central Daylight Time)","671727","Match,No Match","html-keyboard-response","17","167153","0.0-5.0-3.2","","null","","<div class='trialBorder'><div class='vertical-center'><img src='img/fixation2_sml.jpg'</img></div></div>","null","DELAY","","","","","","","","","","",""
"","","","","61103c2b7810420e5f23f437","bdp_wmem","Mon Mar 13 2023 23:30:27 GMT-0500 (Central Daylight Time)","671727","Match,No Match","html-keyboard-response","18","168592","0.0-5.0-4.2","","1437","","<div class='trialBorder'><div class='targDiv'><div class='tc'><img class='introPic' src='trustrating_stim/white_mw078.bmp'><br><font color='red'><strong>Keep</strong></font></div></div><div class='respDiv'><div class='respDivL'>Match<br>(e)</div><div class='respDivR'>No Match<br>(i)</div></div></div>","e","TARGET","3","trustrating_stim/white_mw078.bmp,trustrating_stim/white_mw010.bmp,trustrating_stim/white_mw042.bmp","0,1,0","Match","e","4500","trustrating_stim/white_mw078.bmp","red","Keep","PRACTICE","1"
"","","","","61103c2b7810420e5f23f437","bdp_wmem","Mon Mar 13 2023 23:30:27 GMT-0500 (Central Daylight Time)","671727","Match,No Match","html-keyboard-response","19","169092","0.0-5.0-5.2","","null","","<div class='trialBorder'><div class='vertical-center'><img src='img/correct.jpg'></div><div class='respDiv'><div class='respDivL'><font style='color:orange'>Match<br>(e)</font></div><div class='respDivR'>No Match<br>(i)</div></div></div>","null","FEEDBACK","","","","","","","","","","",""
"","","","","61103c2b7810420e5f23f437","bdp_wmem","Mon Mar 13 2023 23:30:27 GMT-0500 (Central Daylight Time)","671727","Match,No Match","html-keyboard-response","20","169596","0.0-5.0-1.3","","null","","<div class='trialBorder'><div class='vertical-center'><img src='img/fixation2_sml.jpg'</img></div></div>","null","FIX","","","","","","","","","","",""
"","","","","61103c2b7810420e5f23f437","bdp_wmem","Mon Mar 13 2023 23:30:27 GMT-0500 (Central Daylight Time)","671727","Match,No Match","html-keyboard-response","21","171102","0.0-5.0-2.3","","null","","<div class='trialBorder'><div class='vertical-center'><img style='vertical-align:center; align:center' src='img/fixation2_sml.jpg'></div><div class='arrayDiv1'><div class='tc'><img class='introPic' src='trustrating_stim/white_mw070.bmp'><br><font color='red'><strong>Keep</strong></font></div></div></div>","null","ARRAY","1","trustrating_stim/white_mw070.bmp","0","noMatchFace","i","1500","","","","",""
"","","","","61103c2b7810420e5f23f437","bdp_wmem","Mon Mar 13 2023 23:30:27 GMT-0500 (Central Daylight Time)","671727","Match,No Match","html-keyboard-response","22","175108","0.0-5.0-3.3","","null","","<div class='trialBorder'><div class='vertical-center'><img src='img/fixation2_sml.jpg'</img></div></div>","null","DELAY","","","","","","","","","","",""
"","","","","61103c2b7810420e5f23f437","bdp_wmem","Mon Mar 13 2023 23:30:27 GMT-0500 (Central Daylight Time)","671727","Match,No Match","html-keyboard-response","23","176326","0.0-5.0-4.3","","1216","","<div class='trialBorder'><div class='targDiv'><div class='tc'><img class='introPic' src='trustrating_stim/white_mw092.bmp'><br><font color='red'><strong>Keep</strong></font></div></div><div class='respDiv'><div class='respDivL'>Match<br>(e)</div><div class='respDivR'>No Match<br>(i)</div></div></div>","i","TARGET","1","trustrating_stim/white_mw070.bmp","0","noMatchFace","i","1500","trustrating_stim/white_mw092.bmp","red","Keep","PRACTICE","1"
"","","","","61103c2b7810420e5f23f437","bdp_wmem","Mon Mar 13 2023 23:30:27 GMT-0500 (Central Daylight Time)","671727","Match,No Match","html-keyboard-response","24","176831","0.0-5.0-5.3","","null","","<div class='trialBorder'><div class='vertical-center'><img src='img/correct.jpg'></div><div class='respDiv'><div class='respDivL'>Match<br>(e)</div><div class='respDivR'><font style='color:orange'>No Match<br>(i)</font></div></div></div>","null","FEEDBACK","","","","","","","","","","",""
"","","","","61103c2b7810420e5f23f437","bdp_wmem","Mon Mar 13 2023 23:30:27 GMT-0500 (Central Daylight Time)","671727","Match,No Match","html-keyboard-response","25","177334","0.0-5.0-1.4","","null","","<div class='trialBorder'><div class='vertical-center'><img src='img/fixation2_sml.jpg'</img></div></div>","null","FIX","","","","","","","","","","",""
"","","","","61103c2b7810420e5f23f437","bdp_wmem","Mon Mar 13 2023 23:30:27 GMT-0500 (Central Daylight Time)","671727","Match,No Match","html-keyboard-response","26","180338","0.0-5.0-2.4","","null","","<div class='trialBorder'><div class='vertical-center'><img style='vertical-align:center; align:center' src='img/fixation2_sml.jpg'></div><div class='arrayDiv2'><div class='tl'><img class='introPic' src='trustrating_stim/white_mw038.bmp'><br><font color='green'><strong>Share</strong></font></div><div class='tr'><img class='introPic' src='trustrating_stim/white_mw078.bmp'><br><font color='red'><strong>Keep</strong></font></div></div></div>","null","ARRAY","2","trustrating_stim/white_mw038.bmp,trustrating_stim/white_mw078.bmp","1,0","Match","e","3000","","","","",""
"","","","","61103c2b7810420e5f23f437","bdp_wmem","Mon Mar 13 2023 23:30:27 GMT-0500 (Central Daylight Time)","671727","Match,No Match","html-keyboard-response","27","184342","0.0-5.0-3.4","","null","","<div class='trialBorder'><div class='vertical-center'><img src='img/fixation2_sml.jpg'</img></div></div>","null","DELAY","","","","","","","","","","",""
"","","","","61103c2b7810420e5f23f437","bdp_wmem","Mon Mar 13 2023 23:30:27 GMT-0500 (Central Daylight Time)","671727","Match,No Match","html-keyboard-response","28","185710","0.0-5.0-4.4","","1366","","<div class='trialBorder'><div class='targDiv'><div class='tc'><img class='introPic' src='trustrating_stim/white_mw038.bmp'><br><font color='green'><strong>Share</strong></font></div></div><div class='respDiv'><div class='respDivL'>Match<br>(e)</div><div class='respDivR'>No Match<br>(i)</div></div></div>","e","TARGET","2","trustrating_stim/white_mw038.bmp,trustrating_stim/white_mw078.bmp","1,0","Match","e","3000","trustrating_stim/white_mw038.bmp","green","Share","PRACTICE","1"
"","","","","61103c2b7810420e5f23f437","bdp_wmem","Mon Mar 13 2023 23:30:27 GMT-0500 (Central Daylight Time)","671727","Match,No Match","html-keyboard-response","29","186211","0.0-5.0-5.4","","null","","<div class='trialBorder'><div class='vertical-center'><img src='img/correct.jpg'></div><div class='respDiv'><div class='respDivL'><font style='color:orange'>Match<br>(e)</font></div><div class='respDivR'>No Match<br>(i)</div></div></div>","null","FEEDBACK","","","","","","","","","","",""
"","","","","61103c2b7810420e5f23f437","bdp_wmem","Mon Mar 13 2023 23:30:27 GMT-0500 (Central Daylight Time)","671727","Match,No Match","html-keyboard-response","30","186714","0.0-5.0-1.5","","null","","<div class='trialBorder'><div class='vertical-center'><img src='img/fixation2_sml.jpg'</img></div></div>","null","FIX","","","","","","","","","","",""
"","","","","61103c2b7810420e5f23f437","bdp_wmem","Mon Mar 13 2023 23:30:27 GMT-0500 (Central Daylight Time)","671727","Match,No Match","html-keyboard-response","31","191219","0.0-5.0-2.5","","null","","<div class='trialBorder'><div class='vertical-center'><img style='vertical-align:center; align:center' src='img/fixation2_sml.jpg'></div><div class='arrayDiv3'><div class='tl'><img class='introPic' src='trustrating_stim/white_mw010.bmp'><br><font color='red'><strong>Keep</strong></font></div><div class='tc'><img class='introPic' src='trustrating_stim/white_mw038.bmp'><br><font color='green'><strong>Share</strong></font></div><div class='tr'><img class='introPic' src='trustrating_stim/white_mw013.bmp'><br><font color='green'><strong>Share</strong></font></div></div></div>","null","ARRAY","3","trustrating_stim/white_mw010.bmp,trustrating_stim/white_mw038.bmp,trustrating_stim/white_mw013.bmp","0,1,1","noMatchOutcome","i","4500","","","","",""
"","","","","61103c2b7810420e5f23f437","bdp_wmem","Mon Mar 13 2023 23:30:27 GMT-0500 (Central Daylight Time)","671727","Match,No Match","html-keyboard-response","32","195223","0.0-5.0-3.5","","null","","<div class='trialBorder'><div class='vertical-center'><img src='img/fixation2_sml.jpg'</img></div></div>","null","DELAY","","","","","","","","","","",""
"","","","","61103c2b7810420e5f23f437","bdp_wmem","Mon Mar 13 2023 23:30:27 GMT-0500 (Central Daylight Time)","671727","Match,No Match","html-keyboard-response","33","196954","0.0-5.0-4.5","","1730","","<div class='trialBorder'><div class='targDiv'><div class='tc'><img class='introPic' src='trustrating_stim/white_mw010.bmp'><br><font color='green'><strong>Share</strong></font></div></div><div class='respDiv'><div class='respDivL'>Match<br>(e)</div><div class='respDivR'>No Match<br>(i)</div></div></div>","i","TARGET","3","trustrating_stim/white_mw010.bmp,trustrating_stim/white_mw038.bmp,trustrating_stim/white_mw013.bmp","0,1,1","noMatchOutcome","i","4500","trustrating_stim/white_mw010.bmp","green","Share","PRACTICE","1"
"","","","","61103c2b7810420e5f23f437","bdp_wmem","Mon Mar 13 2023 23:30:27 GMT-0500 (Central Daylight Time)","671727","Match,No Match","html-keyboard-response","34","197459","0.0-5.0-5.5","","null","","<div class='trialBorder'><div class='vertical-center'><img src='img/correct.jpg'></div><div class='respDiv'><div class='respDivL'>Match<br>(e)</div><div class='respDivR'><font style='color:orange'>No Match<br>(i)</font></div></div></div>","null","FEEDBACK","","","","","","","","","","",""
"","","","","61103c2b7810420e5f23f437","bdp_wmem","Mon Mar 13 2023 23:30:27 GMT-0500 (Central Daylight Time)","671727","Match,No Match","instructions","35","201095","0.0-6.0","[{""page_index"":0,""viewing_time"":3635}]","3635","","","","","","","","","","","","","","",""
"","","","","61103c2b7810420e5f23f437","bdp_wmem","Mon Mar 13 2023 23:30:27 GMT-0500 (Central Daylight Time)","671727","Match,No Match","html-keyboard-response","36","201600","0.0-7.0-1.0","","null","","<div class='trialBorder'><div class='vertical-center'><img src='img/fixation2_sml.jpg'</img></div></div>","null","FIX","","","","","","","","","","",""
"","","","","61103c2b7810420e5f23f437","bdp_wmem","Mon Mar 13 2023 23:30:27 GMT-0500 (Central Daylight Time)","671727","Match,No Match","html-keyboard-response","37","204603","0.0-7.0-2.0","","null","","<div class='trialBorder'><div class='vertical-center'><img style='vertical-align:center; align:center' src='img/fixation2_sml.jpg'></div><div class='arrayDiv2'><div class='tl'><img class='introPic' src='trustrating_stim/white_mw012.bmp'><br><font color='red'><strong>Keep</strong></font></div><div class='tr'><img class='introPic' src='trustrating_stim/white_mw038.bmp'><br><font color='green'><strong>Share</strong></font></div></div></div>","null","ARRAY","2","trustrating_stim/white_mw012.bmp,trustrating_stim/white_mw038.bmp","0,1","noMatchOutcome","i","3000","","","","",""
"","","","","61103c2b7810420e5f23f437","bdp_wmem","Mon Mar 13 2023 23:30:27 GMT-0500 (Central Daylight Time)","671727","Match,No Match","html-keyboard-response","38","208604","0.0-7.0-3.0","","null","","<div class='trialBorder'><div class='vertical-center'><img src='img/fixation2_sml.jpg'</img></div></div>","null","DELAY","","","","","","","","","","",""
"","","","","61103c2b7810420e5f23f437","bdp_wmem","Mon Mar 13 2023 23:30:27 GMT-0500 (Central Daylight Time)","671727","Match,No Match","html-keyboard-response","39","210284","0.0-7.0-4.0","","1679","","<div class='trialBorder'><div class='targDiv'><div class='tc'><img class='introPic' src='trustrating_stim/white_mw038.bmp'><br><font color='red'><strong>Keep</strong></font></div></div><div class='respDiv'><div class='respDivL'>Match<br>(e)</div><div class='respDivR'>No Match<br>(i)</div></div></div>","i","TARGET","2","trustrating_stim/white_mw012.bmp,trustrating_stim/white_mw038.bmp","0,1","noMatchOutcome","i","3000","trustrating_stim/white_mw038.bmp","red","Keep","REAL","1"
"","","","","61103c2b7810420e5f23f437","bdp_wmem","Mon Mar 13 2023 23:30:27 GMT-0500 (Central Daylight Time)","671727","Match,No Match","html-keyboard-response","40","210786","0.0-7.0-5.0","","null","","<div class='trialBorder'><div class='vertical-center'><img src='img/correct.jpg'></div><div class='respDiv'><div class='respDivL'>Match<br>(e)</div><div class='respDivR'><font style='color:orange'>No Match<br>(i)</font></div></div></div>","null","FEEDBACK","","","","","","","","","","",""
"","","","","61103c2b7810420e5f23f437","bdp_wmem","Mon Mar 13 2023 23:30:27 GMT-0500 (Central Daylight Time)","671727","Match,No Match","html-keyboard-response","41","211290","0.0-7.0-1.1","","null","","<div class='trialBorder'><div class='vertical-center'><img src='img/fixation2_sml.jpg'</img></div></div>","null","FIX","","","","","","","","","","",""
"","","","","61103c2b7810420e5f23f437","bdp_wmem","Mon Mar 13 2023 23:30:27 GMT-0500 (Central Daylight Time)","671727","Match,No Match","html-keyboard-response","42","215793","0.0-7.0-2.1","","null","","<div class='trialBorder'><div class='vertical-center'><img style='vertical-align:center; align:center' src='img/fixation2_sml.jpg'></div><div class='arrayDiv3'><div class='tl'><img class='introPic' src='trustrating_stim/white_mw085.bmp'><br><font color='red'><strong>Keep</strong></font></div><div class='tc'><img class='introPic' src='trustrating_stim/white_mw078.bmp'><br><font color='green'><strong>Share</strong></font></div><div class='tr'><img class='introPic' src='trustrating_stim/white_mw091.bmp'><br><font color='green'><strong>Share</strong></font></div></div></div>","null","ARRAY","3","trustrating_stim/white_mw085.bmp,trustrating_stim/white_mw078.bmp,trustrating_stim/white_mw091.bmp","0,1,1","Match","e","4500","","","","",""
"","","","","61103c2b7810420e5f23f437","bdp_wmem","Mon Mar 13 2023 23:30:27 GMT-0500 (Central Daylight Time)","671727","Match,No Match","html-keyboard-response","43","219798","0.0-7.0-3.1","","null","","<div class='trialBorder'><div class='vertical-center'><img src='img/fixation2_sml.jpg'</img></div></div>","null","DELAY","","","","","","","","","","",""
"","","","","61103c2b7810420e5f23f437","bdp_wmem","Mon Mar 13 2023 23:30:27 GMT-0500 (Central Daylight Time)","671727","Match,No Match","html-keyboard-response","44","221218","0.0-7.0-4.1","","1420","","<div class='trialBorder'><div class='targDiv'><div class='tc'><img class='introPic' src='trustrating_stim/white_mw091.bmp'><br><font color='green'><strong>Share</strong></font></div></div><div class='respDiv'><div class='respDivL'>Match<br>(e)</div><div class='respDivR'>No Match<br>(i)</div></div></div>","i","TARGET","3","trustrating_stim/white_mw085.bmp,trustrating_stim/white_mw078.bmp,trustrating_stim/white_mw091.bmp","0,1,1","Match","e","4500","trustrating_stim/white_mw091.bmp","green","Share","REAL","0"
"","","","","61103c2b7810420e5f23f437","bdp_wmem","Mon Mar 13 2023 23:30:27 GMT-0500 (Central Daylight Time)","671727","Match,No Match","html-keyboard-response","45","221722","0.0-7.0-5.1","","null","","<div class='trialBorder'><div class='vertical-center'><img src='img/error.jpg'></div><div class='respDiv'><div class='respDivL'>Match<br>(e)</div><div class='respDivR'><font style='color:orange'>No Match<br>(i)</font></div></div></div>","null","FEEDBACK","","","","","","","","","","",""
"","","","","61103c2b7810420e5f23f437","bdp_wmem","Mon Mar 13 2023 23:30:27 GMT-0500 (Central Daylight Time)","671727","Match,No Match","html-keyboard-response","46","222224","0.0-7.0-1.2","","null","","<div class='trialBorder'><div class='vertical-center'><img src='img/fixation2_sml.jpg'</img></div></div>","null","FIX","","","","","","","","","","",""
"","","","","61103c2b7810420e5f23f437","bdp_wmem","Mon Mar 13 2023 23:30:27 GMT-0500 (Central Daylight Time)","671727","Match,No Match","html-keyboard-response","47","225228","0.0-7.0-2.2","","null","","<div class='trialBorder'><div class='vertical-center'><img style='vertical-align:center; align:center' src='img/fixation2_sml.jpg'></div><div class='arrayDiv2'><div class='tl'><img class='introPic' src='trustrating_stim/white_mw042.bmp'><br><font color='red'><strong>Keep</strong></font></div><div class='tr'><img class='introPic' src='trustrating_stim/white_mw012.bmp'><br><font color='green'><strong>Share</strong></font></div></div></div>","null","ARRAY","2","trustrating_stim/white_mw042.bmp,trustrating_stim/white_mw012.bmp","0,1","noMatchOutcome","i","3000","","","","",""
"","","","","61103c2b7810420e5f23f437","bdp_wmem","Mon Mar 13 2023 23:30:27 GMT-0500 (Central Daylight Time)","671727","Match,No Match","html-keyboard-response","48","229234","0.0-7.0-3.2","","null","","<div class='trialBorder'><div class='vertical-center'><img src='img/fixation2_sml.jpg'</img></div></div>","null","DELAY","","","","","","","","","","",""
"","","","","61103c2b7810420e5f23f437","bdp_wmem","Mon Mar 13 2023 23:30:27 GMT-0500 (Central Daylight Time)","671727","Match,No Match","html-keyboard-response","49","230829","0.0-7.0-4.2","","1595","","<div class='trialBorder'><div class='targDiv'><div class='tc'><img class='introPic' src='trustrating_stim/white_mw042.bmp'><br><font color='green'><strong>Share</strong></font></div></div><div class='respDiv'><div class='respDivL'>Match<br>(e)</div><div class='respDivR'>No Match<br>(i)</div></div></div>","i","TARGET","2","trustrating_stim/white_mw042.bmp,trustrating_stim/white_mw012.bmp","0,1","noMatchOutcome","i","3000","trustrating_stim/white_mw042.bmp","green","Share","REAL","1"
"","","","","61103c2b7810420e5f23f437","bdp_wmem","Mon Mar 13 2023 23:30:27 GMT-0500 (Central Daylight Time)","671727","Match,No Match","html-keyboard-response","50","231329","0.0-7.0-5.2","","null","","<div class='trialBorder'><div class='vertical-center'><img src='img/correct.jpg'></div><div class='respDiv'><div class='respDivL'>Match<br>(e)</div><div class='respDivR'><font style='color:orange'>No Match<br>(i)</font></div></div></div>","null","FEEDBACK","","","","","","","","","","",""
"","","","","61103c2b7810420e5f23f437","bdp_wmem","Mon Mar 13 2023 23:30:27 GMT-0500 (Central Daylight Time)","671727","Match,No Match","html-keyboard-response","51","231834","0.0-7.0-1.3","","null","","<div class='trialBorder'><div class='vertical-center'><img src='img/fixation2_sml.jpg'</img></div></div>","null","FIX","","","","","","","","","","",""
"","","","","61103c2b7810420e5f23f437","bdp_wmem","Mon Mar 13 2023 23:30:27 GMT-0500 (Central Daylight Time)","671727","Match,No Match","html-keyboard-response","52","234837","0.0-7.0-2.3","","null","","<div class='trialBorder'><div class='vertical-center'><img style='vertical-align:center; align:center' src='img/fixation2_sml.jpg'></div><div class='arrayDiv2'><div class='tl'><img class='introPic' src='trustrating_stim/white_mw092.bmp'><br><font color='red'><strong>Keep</strong></font></div><div class='tr'><img class='introPic' src='trustrating_stim/white_mw085.bmp'><br><font color='green'><strong>Share</strong></font></div></div></div>","null","ARRAY","2","trustrating_stim/white_mw092.bmp,trustrating_stim/white_mw085.bmp","0,1","Match","e","3000","","","","",""
"","","","","61103c2b7810420e5f23f437","bdp_wmem","Mon Mar 13 2023 23:30:27 GMT-0500 (Central Daylight Time)","671727","Match,No Match","html-keyboard-response","53","238840","0.0-7.0-3.3","","null","","<div class='trialBorder'><div class='vertical-center'><img src='img/fixation2_sml.jpg'</img></div></div>","null","DELAY","","","","","","","","","","",""
"","","","","61103c2b7810420e5f23f437","bdp_wmem","Mon Mar 13 2023 23:30:27 GMT-0500 (Central Daylight Time)","671727","Match,No Match","html-keyboard-response","54","240543","0.0-7.0-4.3","","1702","","<div class='trialBorder'><div class='targDiv'><div class='tc'><img class='introPic' src='trustrating_stim/white_mw085.bmp'><br><font color='green'><strong>Share</strong></font></div></div><div class='respDiv'><div class='respDivL'>Match<br>(e)</div><div class='respDivR'>No Match<br>(i)</div></div></div>","e","TARGET","2","trustrating_stim/white_mw092.bmp,trustrating_stim/white_mw085.bmp","0,1","Match","e","3000","trustrating_stim/white_mw085.bmp","green","Share","REAL","1"
"","","","","61103c2b7810420e5f23f437","bdp_wmem","Mon Mar 13 2023 23:30:27 GMT-0500 (Central Daylight Time)","671727","Match,No Match","html-keyboard-response","55","241049","0.0-7.0-5.3","","null","","<div class='trialBorder'><div class='vertical-center'><img src='img/correct.jpg'></div><div class='respDiv'><div class='respDivL'><font style='color:orange'>Match<br>(e)</font></div><div class='respDivR'>No Match<br>(i)</div></div></div>","null","FEEDBACK","","","","","","","","","","",""
"","","","","61103c2b7810420e5f23f437","bdp_wmem","Mon Mar 13 2023 23:30:27 GMT-0500 (Central Daylight Time)","671727","Match,No Match","html-keyboard-response","56","241555","0.0-7.0-1.4","","null","","<div class='trialBorder'><div class='vertical-center'><img src='img/fixation2_sml.jpg'</img></div></div>","null","FIX","","","","","","","","","","",""
"","","","","61103c2b7810420e5f23f437","bdp_wmem","Mon Mar 13 2023 23:30:27 GMT-0500 (Central Daylight Time)","671727","Match,No Match","html-keyboard-response","57","243058","0.0-7.0-2.4","","null","","<div class='trialBorder'><div class='vertical-center'><img style='vertical-align:center; align:center' src='img/fixation2_sml.jpg'></div><div class='arrayDiv1'><div class='tc'><img class='introPic' src='trustrating_stim/white_mw078.bmp'><br><font color='green'><strong>Share</strong></font></div></div></div>","null","ARRAY","1","trustrating_stim/white_mw078.bmp","1","noMatchFace","i","1500","","","","",""
"","","","","61103c2b7810420e5f23f437","bdp_wmem","Mon Mar 13 2023 23:30:27 GMT-0500 (Central Daylight Time)","671727","Match,No Match","html-keyboard-response","58","247059","0.0-7.0-3.4","","null","","<div class='trialBorder'><div class='vertical-center'><img src='img/fixation2_sml.jpg'</img></div></div>","null","DELAY","","","","","","","","","","",""
"","","","","61103c2b7810420e5f23f437","bdp_wmem","Mon Mar 13 2023 23:30:27 GMT-0500 (Central Daylight Time)","671727","Match,No Match","html-keyboard-response","59","248453","0.0-7.0-4.4","","1394","","<div class='trialBorder'><div class='targDiv'><div class='tc'><img class='introPic' src='trustrating_stim/white_mw092.bmp'><br><font color='green'><strong>Share</strong></font></div></div><div class='respDiv'><div class='respDivL'>Match<br>(e)</div><div class='respDivR'>No Match<br>(i)</div></div></div>","i","TARGET","1","trustrating_stim/white_mw078.bmp","1","noMatchFace","i","1500","trustrating_stim/white_mw092.bmp","green","Share","REAL","1"
"","","","","61103c2b7810420e5f23f437","bdp_wmem","Mon Mar 13 2023 23:30:27 GMT-0500 (Central Daylight Time)","671727","Match,No Match","html-keyboard-response","60","248954","0.0-7.0-5.4","","null","","<div class='trialBorder'><div class='vertical-center'><img src='img/correct.jpg'></div><div class='respDiv'><div class='respDivL'>Match<br>(e)</div><div class='respDivR'><font style='color:orange'>No Match<br>(i)</font></div></div></div>","null","FEEDBACK","","","","","","","","","","",""
"","","","","61103c2b7810420e5f23f437","bdp_wmem","Mon Mar 13 2023 23:30:27 GMT-0500 (Central Daylight Time)","671727","Match,No Match","html-keyboard-response","61","249458","0.0-7.0-1.5","","null","","<div class='trialBorder'><div class='vertical-center'><img src='img/fixation2_sml.jpg'</img></div></div>","null","FIX","","","","","","","","","","",""
"","","","","61103c2b7810420e5f23f437","bdp_wmem","Mon Mar 13 2023 23:30:27 GMT-0500 (Central Daylight Time)","671727","Match,No Match","html-keyboard-response","62","253959","0.0-7.0-2.5","","null","","<div class='trialBorder'><div class='vertical-center'><img style='vertical-align:center; align:center' src='img/fixation2_sml.jpg'></div><div class='arrayDiv3'><div class='tl'><img class='introPic' src='trustrating_stim/white_mw078.bmp'><br><font color='red'><strong>Keep</strong></font></div><div class='tc'><img class='introPic' src='trustrating_stim/white_mw012.bmp'><br><font color='green'><strong>Share</strong></font></div><div class='tr'><img class='introPic' src='trustrating_stim/white_mw091.bmp'><br><font color='green'><strong>Share</strong></font></div></div></div>","null","ARRAY","3","trustrating_stim/white_mw078.bmp,trustrating_stim/white_mw012.bmp,trustrating_stim/white_mw091.bmp","0,1,1","noMatchFace","i","4500","","","","",""
"","","","","61103c2b7810420e5f23f437","bdp_wmem","Mon Mar 13 2023 23:30:27 GMT-0500 (Central Daylight Time)","671727","Match,No Match","html-keyboard-response","63","257961","0.0-7.0-3.5","","null","","<div class='trialBorder'><div class='vertical-center'><img src='img/fixation2_sml.jpg'</img></div></div>","null","DELAY","","","","","","","","","","",""
"","","","","61103c2b7810420e5f23f437","bdp_wmem","Mon Mar 13 2023 23:30:27 GMT-0500 (Central Daylight Time)","671727","Match,No Match","html-keyboard-response","64","259492","0.0-7.0-4.5","","1530","","<div class='trialBorder'><div class='targDiv'><div class='tc'><img class='introPic' src='trustrating_stim/white_mw040.bmp'><br><font color='red'><strong>Keep</strong></font></div></div><div class='respDiv'><div class='respDivL'>Match<br>(e)</div><div class='respDivR'>No Match<br>(i)</div></div></div>","i","TARGET","3","trustrating_stim/white_mw078.bmp,trustrating_stim/white_mw012.bmp,trustrating_stim/white_mw091.bmp","0,1,1","noMatchFace","i","4500","trustrating_stim/white_mw040.bmp","red","Keep","REAL","1"
"","","","","61103c2b7810420e5f23f437","bdp_wmem","Mon Mar 13 2023 23:30:27 GMT-0500 (Central Daylight Time)","671727","Match,No Match","html-keyboard-response","65","259993","0.0-7.0-5.5","","null","","<div class='trialBorder'><div class='vertical-center'><img src='img/correct.jpg'></div><div class='respDiv'><div class='respDivL'>Match<br>(e)</div><div class='respDivR'><font style='color:orange'>No Match<br>(i)</font></div></div></div>","null","FEEDBACK","","","","","","","","","","",""
"","","","","61103c2b7810420e5f23f437","bdp_wmem","Mon Mar 13 2023 23:30:27 GMT-0500 (Central Daylight Time)","671727","Match,No Match","html-keyboard-response","66","260497","0.0-7.0-1.6","","null","","<div class='trialBorder'><div class='vertical-center'><img src='img/fixation2_sml.jpg'</img></div></div>","null","FIX","","","","","","","","","","",""
"","","","","61103c2b7810420e5f23f437","bdp_wmem","Mon Mar 13 2023 23:30:27 GMT-0500 (Central Daylight Time)","671727","Match,No Match","html-keyboard-response","67","261999","0.0-7.0-2.6","","null","","<div class='trialBorder'><div class='vertical-center'><img style='vertical-align:center; align:center' src='img/fixation2_sml.jpg'></div><div class='arrayDiv1'><div class='tc'><img class='introPic' src='trustrating_stim/white_mw042.bmp'><br><font color='green'><strong>Share</strong></font></div></div></div>","null","ARRAY","1","trustrating_stim/white_mw042.bmp","1","noMatchOutcome","i","1500","","","","",""
"","","","","61103c2b7810420e5f23f437","bdp_wmem","Mon Mar 13 2023 23:30:27 GMT-0500 (Central Daylight Time)","671727","Match,No Match","html-keyboard-response","68","266001","0.0-7.0-3.6","","null","","<div class='trialBorder'><div class='vertical-center'><img src='img/fixation2_sml.jpg'</img></div></div>","null","DELAY","","","","","","","","","","",""
"","","","","61103c2b7810420e5f23f437","bdp_wmem","Mon Mar 13 2023 23:30:27 GMT-0500 (Central Daylight Time)","671727","Match,No Match","html-keyboard-response","69","270808","0.0-7.0-4.6","","4806","","<div class='trialBorder'><div class='targDiv'><div class='tc'><img class='introPic' src='trustrating_stim/white_mw042.bmp'><br><font color='red'><strong>Keep</strong></font></div></div><div class='respDiv'><div class='respDivL'>Match<br>(e)</div><div class='respDivR'>No Match<br>(i)</div></div></div>","e","TARGET","1","trustrating_stim/white_mw042.bmp","1","noMatchOutcome","i","1500","trustrating_stim/white_mw042.bmp","red","Keep","REAL","0"
"","","","","61103c2b7810420e5f23f437","bdp_wmem","Mon Mar 13 2023 23:30:27 GMT-0500 (Central Daylight Time)","671727","Match,No Match","html-keyboard-response","70","271309","0.0-7.0-5.6","","null","","<div class='trialBorder'><div class='vertical-center'><img src='img/error.jpg'></div><div class='respDiv'><div class='respDivL'><font style='color:orange'>Match<br>(e)</font></div><div class='respDivR'>No Match<br>(i)</div></div></div>","null","FEEDBACK","","","","","","","","","","",""
"","","","","61103c2b7810420e5f23f437","bdp_wmem","Mon Mar 13 2023 23:30:27 GMT-0500 (Central Daylight Time)","671727","Match,No Match","html-keyboard-response","71","271813","0.0-7.0-1.7","","null","","<div class='trialBorder'><div class='vertical-center'><img src='img/fixation2_sml.jpg'</img></div></div>","null","FIX","","","","","","","","","","",""
"","","","","61103c2b7810420e5f23f437","bdp_wmem","Mon Mar 13 2023 23:30:27 GMT-0500 (Central Daylight Time)","671727","Match,No Match","html-keyboard-response","72","273316","0.0-7.0-2.7","","null","","<div class='trialBorder'><div class='vertical-center'><img style='vertical-align:center; align:center' src='img/fixation2_sml.jpg'></div><div class='arrayDiv1'><div class='tc'><img class='introPic' src='trustrating_stim/white_mw070.bmp'><br><font color='green'><strong>Share</strong></font></div></div></div>","null","ARRAY","1","trustrating_stim/white_mw070.bmp","1","noMatchFace","i","1500","","","","",""
"","","","","61103c2b7810420e5f23f437","bdp_wmem","Mon Mar 13 2023 23:30:27 GMT-0500 (Central Daylight Time)","671727","Match,No Match","html-keyboard-response","73","277322","0.0-7.0-3.7","","null","","<div class='trialBorder'><div class='vertical-center'><img src='img/fixation2_sml.jpg'</img></div></div>","null","DELAY","","","","","","","","","","",""
"","","","","61103c2b7810420e5f23f437","bdp_wmem","Mon Mar 13 2023 23:30:27 GMT-0500 (Central Daylight Time)","671727","Match,No Match","html-keyboard-response","74","278328","0.0-7.0-4.7","","1005","","<div class='trialBorder'><div class='targDiv'><div class='tc'><img class='introPic' src='trustrating_stim/white_mw085.bmp'><br><font color='green'><strong>Share</strong></font></div></div><div class='respDiv'><div class='respDivL'>Match<br>(e)</div><div class='respDivR'>No Match<br>(i)</div></div></div>","i","TARGET","1","trustrating_stim/white_mw070.bmp","1","noMatchFace","i","1500","trustrating_stim/white_mw085.bmp","green","Share","REAL","1"
"","","","","61103c2b7810420e5f23f437","bdp_wmem","Mon Mar 13 2023 23:30:27 GMT-0500 (Central Daylight Time)","671727","Match,No Match","html-keyboard-response","75","278834","0.0-7.0-5.7","","null","","<div class='trialBorder'><div class='vertical-center'><img src='img/correct.jpg'></div><div class='respDiv'><div class='respDivL'>Match<br>(e)</div><div class='respDivR'><font style='color:orange'>No Match<br>(i)</font></div></div></div>","null","FEEDBACK","","","","","","","","","","",""
"","","","","61103c2b7810420e5f23f437","bdp_wmem","Mon Mar 13 2023 23:30:27 GMT-0500 (Central Daylight Time)","671727","Match,No Match","html-keyboard-response","76","279341","0.0-7.0-1.8","","null","","<div class='trialBorder'><div class='vertical-center'><img src='img/fixation2_sml.jpg'</img></div></div>","null","FIX","","","","","","","","","","",""
"","","","","61103c2b7810420e5f23f437","bdp_wmem","Mon Mar 13 2023 23:30:27 GMT-0500 (Central Daylight Time)","671727","Match,No Match","html-keyboard-response","77","283847","0.0-7.0-2.8","","null","","<div class='trialBorder'><div class='vertical-center'><img style='vertical-align:center; align:center' src='img/fixation2_sml.jpg'></div><div class='arrayDiv3'><div class='tl'><img class='introPic' src='trustrating_stim/white_mw003.bmp'><br><font color='green'><strong>Share</strong></font></div><div class='tc'><img class='introPic' src='trustrating_stim/white_mw070.bmp'><br><font color='red'><strong>Keep</strong></font></div><div class='tr'><img class='introPic' src='trustrating_stim/white_mw092.bmp'><br><font color='green'><strong>Share</strong></font></div></div></div>","null","ARRAY","3","trustrating_stim/white_mw003.bmp,trustrating_stim/white_mw070.bmp,trustrating_stim/white_mw092.bmp","1,0,1","noMatchOutcome","i","4500","","","","",""
"","","","","61103c2b7810420e5f23f437","bdp_wmem","Mon Mar 13 2023 23:30:27 GMT-0500 (Central Daylight Time)","671727","Match,No Match","html-keyboard-response","78","287852","0.0-7.0-3.8","","null","","<div class='trialBorder'><div class='vertical-center'><img src='img/fixation2_sml.jpg'</img></div></div>","null","DELAY","","","","","","","","","","",""
"","","","","61103c2b7810420e5f23f437","bdp_wmem","Mon Mar 13 2023 23:30:27 GMT-0500 (Central Daylight Time)","671727","Match,No Match","html-keyboard-response","79","289030","0.0-7.0-4.8","","1178","","<div class='trialBorder'><div class='targDiv'><div class='tc'><img class='introPic' src='trustrating_stim/white_mw003.bmp'><br><font color='red'><strong>Keep</strong></font></div></div><div class='respDiv'><div class='respDivL'>Match<br>(e)</div><div class='respDivR'>No Match<br>(i)</div></div></div>","i","TARGET","3","trustrating_stim/white_mw003.bmp,trustrating_stim/white_mw070.bmp,trustrating_stim/white_mw092.bmp","1,0,1","noMatchOutcome","i","4500","trustrating_stim/white_mw003.bmp","red","Keep","REAL","1"
"","","","","61103c2b7810420e5f23f437","bdp_wmem","Mon Mar 13 2023 23:30:27 GMT-0500 (Central Daylight Time)","671727","Match,No Match","html-keyboard-response","80","289535","0.0-7.0-5.8","","null","","<div class='trialBorder'><div class='vertical-center'><img src='img/correct.jpg'></div><div class='respDiv'><div class='respDivL'>Match<br>(e)</div><div class='respDivR'><font style='color:orange'>No Match<br>(i)</font></div></div></div>","null","FEEDBACK","","","","","","","","","","",""
"","","","","61103c2b7810420e5f23f437","bdp_wmem","Mon Mar 13 2023 23:30:27 GMT-0500 (Central Daylight Time)","671727","Match,No Match","html-keyboard-response","81","290038","0.0-7.0-1.9","","null","","<div class='trialBorder'><div class='vertical-center'><img src='img/fixation2_sml.jpg'</img></div></div>","null","FIX","","","","","","","","","","",""
"","","","","61103c2b7810420e5f23f437","bdp_wmem","Mon Mar 13 2023 23:30:27 GMT-0500 (Central Daylight Time)","671727","Match,No Match","html-keyboard-response","82","294542","0.0-7.0-2.9","","null","","<div class='trialBorder'><div class='vertical-center'><img style='vertical-align:center; align:center' src='img/fixation2_sml.jpg'></div><div class='arrayDiv3'><div class='tl'><img class='introPic' src='trustrating_stim/white_mw013.bmp'><br><font color='green'><strong>Share</strong></font></div><div class='tc'><img class='introPic' src='trustrating_stim/white_mw042.bmp'><br><font color='red'><strong>Keep</strong></font></div><div class='tr'><img class='introPic' src='trustrating_stim/white_mw003.bmp'><br><font color='red'><strong>Keep</strong></font></div></div></div>","null","ARRAY","3","trustrating_stim/white_mw013.bmp,trustrating_stim/white_mw042.bmp,trustrating_stim/white_mw003.bmp","1,0,0","noMatchFace","i","4500","","","","",""
"","","","","61103c2b7810420e5f23f437","bdp_wmem","Mon Mar 13 2023 23:30:27 GMT-0500 (Central Daylight Time)","671727","Match,No Match","html-keyboard-response","83","298546","0.0-7.0-3.9","","null","","<div class='trialBorder'><div class='vertical-center'><img src='img/fixation2_sml.jpg'</img></div></div>","null","DELAY","","","","","","","","","","",""
"","","","","61103c2b7810420e5f23f437","bdp_wmem","Mon Mar 13 2023 23:30:27 GMT-0500 (Central Daylight Time)","671727","Match,No Match","html-keyboard-response","84","299690","0.0-7.0-4.9","","1143","","<div class='trialBorder'><div class='targDiv'><div class='tc'><img class='introPic' src='trustrating_stim/white_mw010.bmp'><br><font color='red'><strong>Keep</strong></font></div></div><div class='respDiv'><div class='respDivL'>Match<br>(e)</div><div class='respDivR'>No Match<br>(i)</div></div></div>","i","TARGET","3","trustrating_stim/white_mw013.bmp,trustrating_stim/white_mw042.bmp,trustrating_stim/white_mw003.bmp","1,0,0","noMatchFace","i","4500","trustrating_stim/white_mw010.bmp","red","Keep","REAL","1"
"","","","","61103c2b7810420e5f23f437","bdp_wmem","Mon Mar 13 2023 23:30:27 GMT-0500 (Central Daylight Time)","671727","Match,No Match","html-keyboard-response","85","300190","0.0-7.0-5.9","","null","","<div class='trialBorder'><div class='vertical-center'><img src='img/correct.jpg'></div><div class='respDiv'><div class='respDivL'>Match<br>(e)</div><div class='respDivR'><font style='color:orange'>No Match<br>(i)</font></div></div></div>","null","FEEDBACK","","","","","","","","","","",""
"","","","","61103c2b7810420e5f23f437","bdp_wmem","Mon Mar 13 2023 23:30:27 GMT-0500 (Central Daylight Time)","671727","Match,No Match","html-keyboard-response","86","300695","0.0-7.0-1.10","","null","","<div class='trialBorder'><div class='vertical-center'><img src='img/fixation2_sml.jpg'</img></div></div>","null","FIX","","","","","","","","","","",""
"","","","","61103c2b7810420e5f23f437","bdp_wmem","Mon Mar 13 2023 23:30:27 GMT-0500 (Central Daylight Time)","671727","Match,No Match","html-keyboard-response","87","302200","0.0-7.0-2.10","","null","","<div class='trialBorder'><div class='vertical-center'><img style='vertical-align:center; align:center' src='img/fixation2_sml.jpg'></div><div class='arrayDiv1'><div class='tc'><img class='introPic' src='trustrating_stim/white_mw091.bmp'><br><font color='red'><strong>Keep</strong></font></div></div></div>","null","ARRAY","1","trustrating_stim/white_mw091.bmp","0","Match","e","1500","","","","",""
"","","","","61103c2b7810420e5f23f437","bdp_wmem","Mon Mar 13 2023 23:30:27 GMT-0500 (Central Daylight Time)","671727","Match,No Match","html-keyboard-response","88","306206","0.0-7.0-3.10","","null","","<div class='trialBorder'><div class='vertical-center'><img src='img/fixation2_sml.jpg'</img></div></div>","null","DELAY","","","","","","","","","","",""
"","","","","61103c2b7810420e5f23f437","bdp_wmem","Mon Mar 13 2023 23:30:27 GMT-0500 (Central Daylight Time)","671727","Match,No Match","html-keyboard-response","89","308459","0.0-7.0-4.10","","2252","","<div class='trialBorder'><div class='targDiv'><div class='tc'><img class='introPic' src='trustrating_stim/white_mw091.bmp'><br><font color='red'><strong>Keep</strong></font></div></div><div class='respDiv'><div class='respDivL'>Match<br>(e)</div><div class='respDivR'>No Match<br>(i)</div></div></div>","e","TARGET","1","trustrating_stim/white_mw091.bmp","0","Match","e","1500","trustrating_stim/white_mw091.bmp","red","Keep","REAL","1"
"","","","","61103c2b7810420e5f23f437","bdp_wmem","Mon Mar 13 2023 23:30:27 GMT-0500 (Central Daylight Time)","671727","Match,No Match","html-keyboard-response","90","308965","0.0-7.0-5.10","","null","","<div class='trialBorder'><div class='vertical-center'><img src='img/correct.jpg'></div><div class='respDiv'><div class='respDivL'><font style='color:orange'>Match<br>(e)</font></div><div class='respDivR'>No Match<br>(i)</div></div></div>","null","FEEDBACK","","","","","","","","","","",""
"","","","","61103c2b7810420e5f23f437","bdp_wmem","Mon Mar 13 2023 23:30:27 GMT-0500 (Central Daylight Time)","671727","Match,No Match","html-keyboard-response","91","309470","0.0-7.0-1.11","","null","","<div class='trialBorder'><div class='vertical-center'><img src='img/fixation2_sml.jpg'</img></div></div>","null","FIX","","","","","","","","","","",""
"","","","","61103c2b7810420e5f23f437","bdp_wmem","Mon Mar 13 2023 23:30:27 GMT-0500 (Central Daylight Time)","671727","Match,No Match","html-keyboard-response","92","312472","0.0-7.0-2.11","","null","","<div class='trialBorder'><div class='vertical-center'><img style='vertical-align:center; align:center' src='img/fixation2_sml.jpg'></div><div class='arrayDiv2'><div class='tl'><img class='introPic' src='trustrating_stim/white_mw003.bmp'><br><font color='green'><strong>Share</strong></font></div><div class='tr'><img class='introPic' src='trustrating_stim/white_mw038.bmp'><br><font color='red'><strong>Keep</strong></font></div></div></div>","null","ARRAY","2","trustrating_stim/white_mw003.bmp,trustrating_stim/white_mw038.bmp","1,0","noMatchOutcome","i","3000","","","","",""
"","","","","61103c2b7810420e5f23f437","bdp_wmem","Mon Mar 13 2023 23:30:27 GMT-0500 (Central Daylight Time)","671727","Match,No Match","html-keyboard-response","93","316476","0.0-7.0-3.11","","null","","<div class='trialBorder'><div class='vertical-center'><img src='img/fixation2_sml.jpg'</img></div></div>","null","DELAY","","","","","","","","","","",""
"","","","","61103c2b7810420e5f23f437","bdp_wmem","Mon Mar 13 2023 23:30:27 GMT-0500 (Central Daylight Time)","671727","Match,No Match","html-keyboard-response","94","317512","0.0-7.0-4.11","","1035","","<div class='trialBorder'><div class='targDiv'><div class='tc'><img class='introPic' src='trustrating_stim/white_mw038.bmp'><br><font color='green'><strong>Share</strong></font></div></div><div class='respDiv'><div class='respDivL'>Match<br>(e)</div><div class='respDivR'>No Match<br>(i)</div></div></div>","i","TARGET","2","trustrating_stim/white_mw003.bmp,trustrating_stim/white_mw038.bmp","1,0","noMatchOutcome","i","3000","trustrating_stim/white_mw038.bmp","green","Share","REAL","1"
"","","","","61103c2b7810420e5f23f437","bdp_wmem","Mon Mar 13 2023 23:30:27 GMT-0500 (Central Daylight Time)","671727","Match,No Match","html-keyboard-response","95","318015","0.0-7.0-5.11","","null","","<div class='trialBorder'><div class='vertical-center'><img src='img/correct.jpg'></div><div class='respDiv'><div class='respDivL'>Match<br>(e)</div><div class='respDivR'><font style='color:orange'>No Match<br>(i)</font></div></div></div>","null","FEEDBACK","","","","","","","","","","",""
"","","","","61103c2b7810420e5f23f437","bdp_wmem","Mon Mar 13 2023 23:30:27 GMT-0500 (Central Daylight Time)","671727","Match,No Match","html-keyboard-response","96","318517","0.0-7.0-1.12","","null","","<div class='trialBorder'><div class='vertical-center'><img src='img/fixation2_sml.jpg'</img></div></div>","null","FIX","","","","","","","","","","",""
"","","","","61103c2b7810420e5f23f437","bdp_wmem","Mon Mar 13 2023 23:30:27 GMT-0500 (Central Daylight Time)","671727","Match,No Match","html-keyboard-response","97","321524","0.0-7.0-2.12","","null","","<div class='trialBorder'><div class='vertical-center'><img style='vertical-align:center; align:center' src='img/fixation2_sml.jpg'></div><div class='arrayDiv2'><div class='tl'><img class='introPic' src='trustrating_stim/white_mw010.bmp'><br><font color='red'><strong>Keep</strong></font></div><div class='tr'><img class='introPic' src='trustrating_stim/white_mw038.bmp'><br><font color='green'><strong>Share</strong></font></div></div></div>","null","ARRAY","2","trustrating_stim/white_mw010.bmp,trustrating_stim/white_mw038.bmp","0,1","Match","e","3000","","","","",""
"","","","","61103c2b7810420e5f23f437","bdp_wmem","Mon Mar 13 2023 23:30:27 GMT-0500 (Central Daylight Time)","671727","Match,No Match","html-keyboard-response","98","325529","0.0-7.0-3.12","","null","","<div class='trialBorder'><div class='vertical-center'><img src='img/fixation2_sml.jpg'</img></div></div>","null","DELAY","","","","","","","","","","",""
"","","","","61103c2b7810420e5f23f437","bdp_wmem","Mon Mar 13 2023 23:30:27 GMT-0500 (Central Daylight Time)","671727","Match,No Match","html-keyboard-response","99","326755","0.0-7.0-4.12","","1225","","<div class='trialBorder'><div class='targDiv'><div class='tc'><img class='introPic' src='trustrating_stim/white_mw038.bmp'><br><font color='green'><strong>Share</strong></font></div></div><div class='respDiv'><div class='respDivL'>Match<br>(e)</div><div class='respDivR'>No Match<br>(i)</div></div></div>","e","TARGET","2","trustrating_stim/white_mw010.bmp,trustrating_stim/white_mw038.bmp","0,1","Match","e","3000","trustrating_stim/white_mw038.bmp","green","Share","REAL","1"
"","","","","61103c2b7810420e5f23f437","bdp_wmem","Mon Mar 13 2023 23:30:27 GMT-0500 (Central Daylight Time)","671727","Match,No Match","html-keyboard-response","100","327256","0.0-7.0-5.12","","null","","<div class='trialBorder'><div class='vertical-center'><img src='img/correct.jpg'></div><div class='respDiv'><div class='respDivL'><font style='color:orange'>Match<br>(e)</font></div><div class='respDivR'>No Match<br>(i)</div></div></div>","null","FEEDBACK","","","","","","","","","","",""
"","","","","61103c2b7810420e5f23f437","bdp_wmem","Mon Mar 13 2023 23:30:27 GMT-0500 (Central Daylight Time)","671727","Match,No Match","html-keyboard-response","101","327759","0.0-7.0-1.13","","null","","<div class='trialBorder'><div class='vertical-center'><img src='img/fixation2_sml.jpg'</img></div></div>","null","FIX","","","","","","","","","","",""
"","","","","61103c2b7810420e5f23f437","bdp_wmem","Mon Mar 13 2023 23:30:27 GMT-0500 (Central Daylight Time)","671727","Match,No Match","html-keyboard-response","102","332266","0.0-7.0-2.13","","null","","<div class='trialBorder'><div class='vertical-center'><img style='vertical-align:center; align:center' src='img/fixation2_sml.jpg'></div><div class='arrayDiv3'><div class='tl'><img class='introPic' src='trustrating_stim/white_mw010.bmp'><br><font color='red'><strong>Keep</strong></font></div><div class='tc'><img class='introPic' src='trustrating_stim/white_mw003.bmp'><br><font color='red'><strong>Keep</strong></font></div><div class='tr'><img class='introPic' src='trustrating_stim/white_mw091.bmp'><br><font color='green'><strong>Share</strong></font></div></div></div>","null","ARRAY","3","trustrating_stim/white_mw010.bmp,trustrating_stim/white_mw003.bmp,trustrating_stim/white_mw091.bmp","0,0,1","Match","e","4500","","","","",""
"","","","","61103c2b7810420e5f23f437","bdp_wmem","Mon Mar 13 2023 23:30:27 GMT-0500 (Central Daylight Time)","671727","Match,No Match","html-keyboard-response","103","336272","0.0-7.0-3.13","","null","","<div class='trialBorder'><div class='vertical-center'><img src='img/fixation2_sml.jpg'</img></div></div>","null","DELAY","","","","","","","","","","",""
"","","","","61103c2b7810420e5f23f437","bdp_wmem","Mon Mar 13 2023 23:30:27 GMT-0500 (Central Daylight Time)","671727","Match,No Match","html-keyboard-response","104","338221","0.0-7.0-4.13","","1947","","<div class='trialBorder'><div class='targDiv'><div class='tc'><img class='introPic' src='trustrating_stim/white_mw003.bmp'><br><font color='red'><strong>Keep</strong></font></div></div><div class='respDiv'><div class='respDivL'>Match<br>(e)</div><div class='respDivR'>No Match<br>(i)</div></div></div>","e","TARGET","3","trustrating_stim/white_mw010.bmp,trustrating_stim/white_mw003.bmp,trustrating_stim/white_mw091.bmp","0,0,1","Match","e","4500","trustrating_stim/white_mw003.bmp","red","Keep","REAL","1"
"","","","","61103c2b7810420e5f23f437","bdp_wmem","Mon Mar 13 2023 23:30:27 GMT-0500 (Central Daylight Time)","671727","Match,No Match","html-keyboard-response","105","338721","0.0-7.0-5.13","","null","","<div class='trialBorder'><div class='vertical-center'><img src='img/correct.jpg'></div><div class='respDiv'><div class='respDivL'><font style='color:orange'>Match<br>(e)</font></div><div class='respDivR'>No Match<br>(i)</div></div></div>","null","FEEDBACK","","","","","","","","","","",""
"","","","","61103c2b7810420e5f23f437","bdp_wmem","Mon Mar 13 2023 23:30:27 GMT-0500 (Central Daylight Time)","671727","Match,No Match","html-keyboard-response","106","339225","0.0-7.0-1.14","","null","","<div class='trialBorder'><div class='vertical-center'><img src='img/fixation2_sml.jpg'</img></div></div>","null","FIX","","","","","","","","","","",""
"","","","","61103c2b7810420e5f23f437","bdp_wmem","Mon Mar 13 2023 23:30:27 GMT-0500 (Central Daylight Time)","671727","Match,No Match","html-keyboard-response","107","343732","0.0-7.0-2.14","","null","","<div class='trialBorder'><div class='vertical-center'><img style='vertical-align:center; align:center' src='img/fixation2_sml.jpg'></div><div class='arrayDiv3'><div class='tl'><img class='introPic' src='trustrating_stim/white_mw070.bmp'><br><font color='red'><strong>Keep</strong></font></div><div class='tc'><img class='introPic' src='trustrating_stim/white_mw085.bmp'><br><font color='green'><strong>Share</strong></font></div><div class='tr'><img class='introPic' src='trustrating_stim/white_mw091.bmp'><br><font color='green'><strong>Share</strong></font></div></div></div>","null","ARRAY","3","trustrating_stim/white_mw070.bmp,trustrating_stim/white_mw085.bmp,trustrating_stim/white_mw091.bmp","0,1,1","Match","e","4500","","","","",""
"","","","","61103c2b7810420e5f23f437","bdp_wmem","Mon Mar 13 2023 23:30:27 GMT-0500 (Central Daylight Time)","671727","Match,No Match","html-keyboard-response","108","347732","0.0-7.0-3.14","","null","","<div class='trialBorder'><div class='vertical-center'><img src='img/fixation2_sml.jpg'</img></div></div>","null","DELAY","","","","","","","","","","",""
"","","","","61103c2b7810420e5f23f437","bdp_wmem","Mon Mar 13 2023 23:30:27 GMT-0500 (Central Daylight Time)","671727","Match,No Match","html-keyboard-response","109","349083","0.0-7.0-4.14","","1349","","<div class='trialBorder'><div class='targDiv'><div class='tc'><img class='introPic' src='trustrating_stim/white_mw085.bmp'><br><font color='green'><strong>Share</strong></font></div></div><div class='respDiv'><div class='respDivL'>Match<br>(e)</div><div class='respDivR'>No Match<br>(i)</div></div></div>","e","TARGET","3","trustrating_stim/white_mw070.bmp,trustrating_stim/white_mw085.bmp,trustrating_stim/white_mw091.bmp","0,1,1","Match","e","4500","trustrating_stim/white_mw085.bmp","green","Share","REAL","1"
"","","","","61103c2b7810420e5f23f437","bdp_wmem","Mon Mar 13 2023 23:30:27 GMT-0500 (Central Daylight Time)","671727","Match,No Match","html-keyboard-response","110","349584","0.0-7.0-5.14","","null","","<div class='trialBorder'><div class='vertical-center'><img src='img/correct.jpg'></div><div class='respDiv'><div class='respDivL'><font style='color:orange'>Match<br>(e)</font></div><div class='respDivR'>No Match<br>(i)</div></div></div>","null","FEEDBACK","","","","","","","","","","",""
"","","","","61103c2b7810420e5f23f437","bdp_wmem","Mon Mar 13 2023 23:30:27 GMT-0500 (Central Daylight Time)","671727","Match,No Match","html-keyboard-response","111","350088","0.0-7.0-1.15","","null","","<div class='trialBorder'><div class='vertical-center'><img src='img/fixation2_sml.jpg'</img></div></div>","null","FIX","","","","","","","","","","",""
"","","","","61103c2b7810420e5f23f437","bdp_wmem","Mon Mar 13 2023 23:30:27 GMT-0500 (Central Daylight Time)","671727","Match,No Match","html-keyboard-response","112","354597","0.0-7.0-2.15","","null","","<div class='trialBorder'><div class='vertical-center'><img style='vertical-align:center; align:center' src='img/fixation2_sml.jpg'></div><div class='arrayDiv3'><div class='tl'><img class='introPic' src='trustrating_stim/white_mw042.bmp'><br><font color='green'><strong>Share</strong></font></div><div class='tc'><img class='introPic' src='trustrating_stim/white_mw078.bmp'><br><font color='red'><strong>Keep</strong></font></div><div class='tr'><img class='introPic' src='trustrating_stim/white_mw040.bmp'><br><font color='green'><strong>Share</strong></font></div></div></div>","null","ARRAY","3","trustrating_stim/white_mw042.bmp,trustrating_stim/white_mw078.bmp,trustrating_stim/white_mw040.bmp","1,0,1","Match","e","4500","","","","",""
"","","","","61103c2b7810420e5f23f437","bdp_wmem","Mon Mar 13 2023 23:30:27 GMT-0500 (Central Daylight Time)","671727","Match,No Match","html-keyboard-response","113","358601","0.0-7.0-3.15","","null","","<div class='trialBorder'><div class='vertical-center'><img src='img/fixation2_sml.jpg'</img></div></div>","null","DELAY","","","","","","","","","","",""
"","","","","61103c2b7810420e5f23f437","bdp_wmem","Mon Mar 13 2023 23:30:27 GMT-0500 (Central Daylight Time)","671727","Match,No Match","html-keyboard-response","114","359818","0.0-7.0-4.15","","1216","","<div class='trialBorder'><div class='targDiv'><div class='tc'><img class='introPic' src='trustrating_stim/white_mw042.bmp'><br><font color='green'><strong>Share</strong></font></div></div><div class='respDiv'><div class='respDivL'>Match<br>(e)</div><div class='respDivR'>No Match<br>(i)</div></div></div>","i","TARGET","3","trustrating_stim/white_mw042.bmp,trustrating_stim/white_mw078.bmp,trustrating_stim/white_mw040.bmp","1,0,1","Match","e","4500","trustrating_stim/white_mw042.bmp","green","Share","REAL","0"
"","","","","61103c2b7810420e5f23f437","bdp_wmem","Mon Mar 13 2023 23:30:27 GMT-0500 (Central Daylight Time)","671727","Match,No Match","html-keyboard-response","115","360321","0.0-7.0-5.15","","null","","<div class='trialBorder'><div class='vertical-center'><img src='img/error.jpg'></div><div class='respDiv'><div class='respDivL'>Match<br>(e)</div><div class='respDivR'><font style='color:orange'>No Match<br>(i)</font></div></div></div>","null","FEEDBACK","","","","","","","","","","",""
"","","","","61103c2b7810420e5f23f437","bdp_wmem","Mon Mar 13 2023 23:30:27 GMT-0500 (Central Daylight Time)","671727","Match,No Match","html-keyboard-response","116","360826","0.0-7.0-1.16","","null","","<div class='trialBorder'><div class='vertical-center'><img src='img/fixation2_sml.jpg'</img></div></div>","null","FIX","","","","","","","","","","",""
"","","","","61103c2b7810420e5f23f437","bdp_wmem","Mon Mar 13 2023 23:30:27 GMT-0500 (Central Daylight Time)","671727","Match,No Match","html-keyboard-response","117","363832","0.0-7.0-2.16","","null","","<div class='trialBorder'><div class='vertical-center'><img style='vertical-align:center; align:center' src='img/fixation2_sml.jpg'></div><div class='arrayDiv2'><div class='tl'><img class='introPic' src='trustrating_stim/white_mw042.bmp'><br><font color='green'><strong>Share</strong></font></div><div class='tr'><img class='introPic' src='trustrating_stim/white_mw013.bmp'><br><font color='red'><strong>Keep</strong></font></div></div></div>","null","ARRAY","2","trustrating_stim/white_mw042.bmp,trustrating_stim/white_mw013.bmp","1,0","noMatchFace","i","3000","","","","",""
"","","","","61103c2b7810420e5f23f437","bdp_wmem","Mon Mar 13 2023 23:30:27 GMT-0500 (Central Daylight Time)","671727","Match,No Match","html-keyboard-response","118","367839","0.0-7.0-3.16","","null","","<div class='trialBorder'><div class='vertical-center'><img src='img/fixation2_sml.jpg'</img></div></div>","null","DELAY","","","","","","","","","","",""
"","","","","61103c2b7810420e5f23f437","bdp_wmem","Mon Mar 13 2023 23:30:27 GMT-0500 (Central Daylight Time)","671727","Match,No Match","html-keyboard-response","119","369292","0.0-7.0-4.16","","1452","","<div class='trialBorder'><div class='targDiv'><div class='tc'><img class='introPic' src='trustrating_stim/white_mw003.bmp'><br><font color='green'><strong>Share</strong></font></div></div><div class='respDiv'><div class='respDivL'>Match<br>(e)</div><div class='respDivR'>No Match<br>(i)</div></div></div>","i","TARGET","2","trustrating_stim/white_mw042.bmp,trustrating_stim/white_mw013.bmp","1,0","noMatchFace","i","3000","trustrating_stim/white_mw003.bmp","green","Share","REAL","1"
"","","","","61103c2b7810420e5f23f437","bdp_wmem","Mon Mar 13 2023 23:30:27 GMT-0500 (Central Daylight Time)","671727","Match,No Match","html-keyboard-response","120","369793","0.0-7.0-5.16","","null","","<div class='trialBorder'><div class='vertical-center'><img src='img/correct.jpg'></div><div class='respDiv'><div class='respDivL'>Match<br>(e)</div><div class='respDivR'><font style='color:orange'>No Match<br>(i)</font></div></div></div>","null","FEEDBACK","","","","","","","","","","",""
"","","","","61103c2b7810420e5f23f437","bdp_wmem","Mon Mar 13 2023 23:30:27 GMT-0500 (Central Daylight Time)","671727","Match,No Match","html-keyboard-response","121","370297","0.0-7.0-1.17","","null","","<div class='trialBorder'><div class='vertical-center'><img src='img/fixation2_sml.jpg'</img></div></div>","null","FIX","","","","","","","","","","",""
"","","","","61103c2b7810420e5f23f437","bdp_wmem","Mon Mar 13 2023 23:30:27 GMT-0500 (Central Daylight Time)","671727","Match,No Match","html-keyboard-response","122","374800","0.0-7.0-2.17","","null","","<div class='trialBorder'><div class='vertical-center'><img style='vertical-align:center; align:center' src='img/fixation2_sml.jpg'></div><div class='arrayDiv3'><div class='tl'><img class='introPic' src='trustrating_stim/white_mw070.bmp'><br><font color='green'><strong>Share</strong></font></div><div class='tc'><img class='introPic' src='trustrating_stim/white_mw092.bmp'><br><font color='red'><strong>Keep</strong></font></div><div class='tr'><img class='introPic' src='trustrating_stim/white_mw085.bmp'><br><font color='green'><strong>Share</strong></font></div></div></div>","null","ARRAY","3","trustrating_stim/white_mw070.bmp,trustrating_stim/white_mw092.bmp,trustrating_stim/white_mw085.bmp","1,0,1","Match","e","4500","","","","",""
"","","","","61103c2b7810420e5f23f437","bdp_wmem","Mon Mar 13 2023 23:30:27 GMT-0500 (Central Daylight Time)","671727","Match,No Match","html-keyboard-response","123","378805","0.0-7.0-3.17","","null","","<div class='trialBorder'><div class='vertical-center'><img src='img/fixation2_sml.jpg'</img></div></div>","null","DELAY","","","","","","","","","","",""
"","","","","61103c2b7810420e5f23f437","bdp_wmem","Mon Mar 13 2023 23:30:27 GMT-0500 (Central Daylight Time)","671727","Match,No Match","html-keyboard-response","124","380714","0.0-7.0-4.17","","1909","","<div class='trialBorder'><div class='targDiv'><div class='tc'><img class='introPic' src='trustrating_stim/white_mw070.bmp'><br><font color='green'><strong>Share</strong></font></div></div><div class='respDiv'><div class='respDivL'>Match<br>(e)</div><div class='respDivR'>No Match<br>(i)</div></div></div>","e","TARGET","3","trustrating_stim/white_mw070.bmp,trustrating_stim/white_mw092.bmp,trustrating_stim/white_mw085.bmp","1,0,1","Match","e","4500","trustrating_stim/white_mw070.bmp","green","Share","REAL","1"
"","","","","61103c2b7810420e5f23f437","bdp_wmem","Mon Mar 13 2023 23:30:27 GMT-0500 (Central Daylight Time)","671727","Match,No Match","html-keyboard-response","125","381219","0.0-7.0-5.17","","null","","<div class='trialBorder'><div class='vertical-center'><img src='img/correct.jpg'></div><div class='respDiv'><div class='respDivL'><font style='color:orange'>Match<br>(e)</font></div><div class='respDivR'>No Match<br>(i)</div></div></div>","null","FEEDBACK","","","","","","","","","","",""
"","","","","61103c2b7810420e5f23f437","bdp_wmem","Mon Mar 13 2023 23:30:27 GMT-0500 (Central Daylight Time)","671727","Match,No Match","html-keyboard-response","126","381719","0.0-7.0-1.18","","null","","<div class='trialBorder'><div class='vertical-center'><img src='img/fixation2_sml.jpg'</img></div></div>","null","FIX","","","","","","","","","","",""
"","","","","61103c2b7810420e5f23f437","bdp_wmem","Mon Mar 13 2023 23:30:27 GMT-0500 (Central Daylight Time)","671727","Match,No Match","html-keyboard-response","127","386227","0.0-7.0-2.18","","null","","<div class='trialBorder'><div class='vertical-center'><img style='vertical-align:center; align:center' src='img/fixation2_sml.jpg'></div><div class='arrayDiv3'><div class='tl'><img class='introPic' src='trustrating_stim/white_mw040.bmp'><br><font color='green'><strong>Share</strong></font></div><div class='tc'><img class='introPic' src='trustrating_stim/white_mw038.bmp'><br><font color='red'><strong>Keep</strong></font></div><div class='tr'><img class='introPic' src='trustrating_stim/white_mw012.bmp'><br><font color='red'><strong>Keep</strong></font></div></div></div>","null","ARRAY","3","trustrating_stim/white_mw040.bmp,trustrating_stim/white_mw038.bmp,trustrating_stim/white_mw012.bmp","1,0,0","Match","e","4500","","","","",""
"","","","","61103c2b7810420e5f23f437","bdp_wmem","Mon Mar 13 2023 23:30:27 GMT-0500 (Central Daylight Time)","671727","Match,No Match","html-keyboard-response","128","390233","0.0-7.0-3.18","","null","","<div class='trialBorder'><div class='vertical-center'><img src='img/fixation2_sml.jpg'</img></div></div>","null","DELAY","","","","","","","","","","",""
"","","","","61103c2b7810420e5f23f437","bdp_wmem","Mon Mar 13 2023 23:30:27 GMT-0500 (Central Daylight Time)","671727","Match,No Match","html-keyboard-response","129","392140","0.0-7.0-4.18","","1907","","<div class='trialBorder'><div class='targDiv'><div class='tc'><img class='introPic' src='trustrating_stim/white_mw038.bmp'><br><font color='red'><strong>Keep</strong></font></div></div><div class='respDiv'><div class='respDivL'>Match<br>(e)</div><div class='respDivR'>No Match<br>(i)</div></div></div>","i","TARGET","3","trustrating_stim/white_mw040.bmp,trustrating_stim/white_mw038.bmp,trustrating_stim/white_mw012.bmp","1,0,0","Match","e","4500","trustrating_stim/white_mw038.bmp","red","Keep","REAL","0"
"","","","","61103c2b7810420e5f23f437","bdp_wmem","Mon Mar 13 2023 23:30:27 GMT-0500 (Central Daylight Time)","671727","Match,No Match","html-keyboard-response","130","392641","0.0-7.0-5.18","","null","","<div class='trialBorder'><div class='vertical-center'><img src='img/error.jpg'></div><div class='respDiv'><div class='respDivL'>Match<br>(e)</div><div class='respDivR'><font style='color:orange'>No Match<br>(i)</font></div></div></div>","null","FEEDBACK","","","","","","","","","","",""
"","","","","61103c2b7810420e5f23f437","bdp_wmem","Mon Mar 13 2023 23:30:27 GMT-0500 (Central Daylight Time)","671727","Match,No Match","html-keyboard-response","131","393145","0.0-7.0-1.19","","null","","<div class='trialBorder'><div class='vertical-center'><img src='img/fixation2_sml.jpg'</img></div></div>","null","FIX","","","","","","","","","","",""
"","","","","61103c2b7810420e5f23f437","bdp_wmem","Mon Mar 13 2023 23:30:27 GMT-0500 (Central Daylight Time)","671727","Match,No Match","html-keyboard-response","132","396148","0.0-7.0-2.19","","null","","<div class='trialBorder'><div class='vertical-center'><img style='vertical-align:center; align:center' src='img/fixation2_sml.jpg'></div><div class='arrayDiv2'><div class='tl'><img class='introPic' src='trustrating_stim/white_mw003.bmp'><br><font color='green'><strong>Share</strong></font></div><div class='tr'><img class='introPic' src='trustrating_stim/white_mw040.bmp'><br><font color='red'><strong>Keep</strong></font></div></div></div>","null","ARRAY","2","trustrating_stim/white_mw003.bmp,trustrating_stim/white_mw040.bmp","1,0","Match","e","3000","","","","",""
"","","","","61103c2b7810420e5f23f437","bdp_wmem","Mon Mar 13 2023 23:30:27 GMT-0500 (Central Daylight Time)","671727","Match,No Match","html-keyboard-response","133","400149","0.0-7.0-3.19","","null","","<div class='trialBorder'><div class='vertical-center'><img src='img/fixation2_sml.jpg'</img></div></div>","null","DELAY","","","","","","","","","","",""
"","","","","61103c2b7810420e5f23f437","bdp_wmem","Mon Mar 13 2023 23:30:27 GMT-0500 (Central Daylight Time)","671727","Match,No Match","html-keyboard-response","134","401793","0.0-7.0-4.19","","1642","","<div class='trialBorder'><div class='targDiv'><div class='tc'><img class='introPic' src='trustrating_stim/white_mw003.bmp'><br><font color='green'><strong>Share</strong></font></div></div><div class='respDiv'><div class='respDivL'>Match<br>(e)</div><div class='respDivR'>No Match<br>(i)</div></div></div>","e","TARGET","2","trustrating_stim/white_mw003.bmp,trustrating_stim/white_mw040.bmp","1,0","Match","e","3000","trustrating_stim/white_mw003.bmp","green","Share","REAL","1"
"","","","","61103c2b7810420e5f23f437","bdp_wmem","Mon Mar 13 2023 23:30:27 GMT-0500 (Central Daylight Time)","671727","Match,No Match","html-keyboard-response","135","402294","0.0-7.0-5.19","","null","","<div class='trialBorder'><div class='vertical-center'><img src='img/correct.jpg'></div><div class='respDiv'><div class='respDivL'><font style='color:orange'>Match<br>(e)</font></div><div class='respDivR'>No Match<br>(i)</div></div></div>","null","FEEDBACK","","","","","","","","","","",""
"","","","","61103c2b7810420e5f23f437","bdp_wmem","Mon Mar 13 2023 23:30:27 GMT-0500 (Central Daylight Time)","671727","Match,No Match","html-keyboard-response","136","402798","0.0-7.0-1.20","","null","","<div class='trialBorder'><div class='vertical-center'><img src='img/fixation2_sml.jpg'</img></div></div>","null","FIX","","","","","","","","","","",""
"","","","","61103c2b7810420e5f23f437","bdp_wmem","Mon Mar 13 2023 23:30:27 GMT-0500 (Central Daylight Time)","671727","Match,No Match","html-keyboard-response","137","405804","0.0-7.0-2.20","","null","","<div class='trialBorder'><div class='vertical-center'><img style='vertical-align:center; align:center' src='img/fixation2_sml.jpg'></div><div class='arrayDiv2'><div class='tl'><img class='introPic' src='trustrating_stim/white_mw070.bmp'><br><font color='green'><strong>Share</strong></font></div><div class='tr'><img class='introPic' src='trustrating_stim/white_mw010.bmp'><br><font color='red'><strong>Keep</strong></font></div></div></div>","null","ARRAY","2","trustrating_stim/white_mw070.bmp,trustrating_stim/white_mw010.bmp","1,0","Match","e","3000","","","","",""
"","","","","61103c2b7810420e5f23f437","bdp_wmem","Mon Mar 13 2023 23:30:27 GMT-0500 (Central Daylight Time)","671727","Match,No Match","html-keyboard-response","138","409810","0.0-7.0-3.20","","null","","<div class='trialBorder'><div class='vertical-center'><img src='img/fixation2_sml.jpg'</img></div></div>","null","DELAY","","","","","","","","","","",""
"","","","","61103c2b7810420e5f23f437","bdp_wmem","Mon Mar 13 2023 23:30:27 GMT-0500 (Central Daylight Time)","671727","Match,No Match","html-keyboard-response","139","411074","0.0-7.0-4.20","","1262","","<div class='trialBorder'><div class='targDiv'><div class='tc'><img class='introPic' src='trustrating_stim/white_mw070.bmp'><br><font color='green'><strong>Share</strong></font></div></div><div class='respDiv'><div class='respDivL'>Match<br>(e)</div><div class='respDivR'>No Match<br>(i)</div></div></div>","e","TARGET","2","trustrating_stim/white_mw070.bmp,trustrating_stim/white_mw010.bmp","1,0","Match","e","3000","trustrating_stim/white_mw070.bmp","green","Share","REAL","1"
"","","","","61103c2b7810420e5f23f437","bdp_wmem","Mon Mar 13 2023 23:30:27 GMT-0500 (Central Daylight Time)","671727","Match,No Match","html-keyboard-response","140","411575","0.0-7.0-5.20","","null","","<div class='trialBorder'><div class='vertical-center'><img src='img/correct.jpg'></div><div class='respDiv'><div class='respDivL'><font style='color:orange'>Match<br>(e)</font></div><div class='respDivR'>No Match<br>(i)</div></div></div>","null","FEEDBACK","","","","","","","","","","",""
"","","","","61103c2b7810420e5f23f437","bdp_wmem","Mon Mar 13 2023 23:30:27 GMT-0500 (Central Daylight Time)","671727","Match,No Match","html-keyboard-response","141","412078","0.0-7.0-1.21","","null","","<div class='trialBorder'><div class='vertical-center'><img src='img/fixation2_sml.jpg'</img></div></div>","null","FIX","","","","","","","","","","",""
"","","","","61103c2b7810420e5f23f437","bdp_wmem","Mon Mar 13 2023 23:30:27 GMT-0500 (Central Daylight Time)","671727","Match,No Match","html-keyboard-response","142","415084","0.0-7.0-2.21","","null","","<div class='trialBorder'><div class='vertical-center'><img style='vertical-align:center; align:center' src='img/fixation2_sml.jpg'></div><div class='arrayDiv2'><div class='tl'><img class='introPic' src='trustrating_stim/white_mw003.bmp'><br><font color='green'><strong>Share</strong></font></div><div class='tr'><img class='introPic' src='trustrating_stim/white_mw042.bmp'><br><font color='red'><strong>Keep</strong></font></div></div></div>","null","ARRAY","2","trustrating_stim/white_mw003.bmp,trustrating_stim/white_mw042.bmp","1,0","Match","e","3000","","","","",""
"","","","","61103c2b7810420e5f23f437","bdp_wmem","Mon Mar 13 2023 23:30:27 GMT-0500 (Central Daylight Time)","671727","Match,No Match","html-keyboard-response","143","419090","0.0-7.0-3.21","","null","","<div class='trialBorder'><div class='vertical-center'><img src='img/fixation2_sml.jpg'</img></div></div>","null","DELAY","","","","","","","","","","",""
"","","","","61103c2b7810420e5f23f437","bdp_wmem","Mon Mar 13 2023 23:30:27 GMT-0500 (Central Daylight Time)","671727","Match,No Match","html-keyboard-response","144","419979","0.0-7.0-4.21","","888","","<div class='trialBorder'><div class='targDiv'><div class='tc'><img class='introPic' src='trustrating_stim/white_mw003.bmp'><br><font color='green'><strong>Share</strong></font></div></div><div class='respDiv'><div class='respDivL'>Match<br>(e)</div><div class='respDivR'>No Match<br>(i)</div></div></div>","e","TARGET","2","trustrating_stim/white_mw003.bmp,trustrating_stim/white_mw042.bmp","1,0","Match","e","3000","trustrating_stim/white_mw003.bmp","green","Share","REAL","1"
"","","","","61103c2b7810420e5f23f437","bdp_wmem","Mon Mar 13 2023 23:30:27 GMT-0500 (Central Daylight Time)","671727","Match,No Match","html-keyboard-response","145","420479","0.0-7.0-5.21","","null","","<div class='trialBorder'><div class='vertical-center'><img src='img/correct.jpg'></div><div class='respDiv'><div class='respDivL'><font style='color:orange'>Match<br>(e)</font></div><div class='respDivR'>No Match<br>(i)</div></div></div>","null","FEEDBACK","","","","","","","","","","",""
"","","","","61103c2b7810420e5f23f437","bdp_wmem","Mon Mar 13 2023 23:30:27 GMT-0500 (Central Daylight Time)","671727","Match,No Match","html-keyboard-response","146","420985","0.0-7.0-1.22","","null","","<div class='trialBorder'><div class='vertical-center'><img src='img/fixation2_sml.jpg'</img></div></div>","null","FIX","","","","","","","","","","",""
"","","","","61103c2b7810420e5f23f437","bdp_wmem","Mon Mar 13 2023 23:30:27 GMT-0500 (Central Daylight Time)","671727","Match,No Match","html-keyboard-response","147","423988","0.0-7.0-2.22","","null","","<div class='trialBorder'><div class='vertical-center'><img style='vertical-align:center; align:center' src='img/fixation2_sml.jpg'></div><div class='arrayDiv2'><div class='tl'><img class='introPic' src='trustrating_stim/white_mw092.bmp'><br><font color='red'><strong>Keep</strong></font></div><div class='tr'><img class='introPic' src='trustrating_stim/white_mw042.bmp'><br><font color='green'><strong>Share</strong></font></div></div></div>","null","ARRAY","2","trustrating_stim/white_mw092.bmp,trustrating_stim/white_mw042.bmp","0,1","noMatchFace","i","3000","","","","",""
"","","","","61103c2b7810420e5f23f437","bdp_wmem","Mon Mar 13 2023 23:30:27 GMT-0500 (Central Daylight Time)","671727","Match,No Match","html-keyboard-response","148","427994","0.0-7.0-3.22","","null","","<div class='trialBorder'><div class='vertical-center'><img src='img/fixation2_sml.jpg'</img></div></div>","null","DELAY","","","","","","","","","","",""
"","","","","61103c2b7810420e5f23f437","bdp_wmem","Mon Mar 13 2023 23:30:27 GMT-0500 (Central Daylight Time)","671727","Match,No Match","html-keyboard-response","149","429272","0.0-7.0-4.22","","1277","","<div class='trialBorder'><div class='targDiv'><div class='tc'><img class='introPic' src='trustrating_stim/white_mw003.bmp'><br><font color='red'><strong>Keep</strong></font></div></div><div class='respDiv'><div class='respDivL'>Match<br>(e)</div><div class='respDivR'>No Match<br>(i)</div></div></div>","i","TARGET","2","trustrating_stim/white_mw092.bmp,trustrating_stim/white_mw042.bmp","0,1","noMatchFace","i","3000","trustrating_stim/white_mw003.bmp","red","Keep","REAL","1"
"","","","","61103c2b7810420e5f23f437","bdp_wmem","Mon Mar 13 2023 23:30:27 GMT-0500 (Central Daylight Time)","671727","Match,No Match","html-keyboard-response","150","429778","0.0-7.0-5.22","","null","","<div class='trialBorder'><div class='vertical-center'><img src='img/correct.jpg'></div><div class='respDiv'><div class='respDivL'>Match<br>(e)</div><div class='respDivR'><font style='color:orange'>No Match<br>(i)</font></div></div></div>","null","FEEDBACK","","","","","","","","","","",""
"","","","","61103c2b7810420e5f23f437","bdp_wmem","Mon Mar 13 2023 23:30:27 GMT-0500 (Central Daylight Time)","671727","Match,No Match","html-keyboard-response","151","430280","0.0-7.0-1.23","","null","","<div class='trialBorder'><div class='vertical-center'><img src='img/fixation2_sml.jpg'</img></div></div>","null","FIX","","","","","","","","","","",""
"","","","","61103c2b7810420e5f23f437","bdp_wmem","Mon Mar 13 2023 23:30:27 GMT-0500 (Central Daylight Time)","671727","Match,No Match","html-keyboard-response","152","433282","0.0-7.0-2.23","","null","","<div class='trialBorder'><div class='vertical-center'><img style='vertical-align:center; align:center' src='img/fixation2_sml.jpg'></div><div class='arrayDiv2'><div class='tl'><img class='introPic' src='trustrating_stim/white_mw038.bmp'><br><font color='red'><strong>Keep</strong></font></div><div class='tr'><img class='introPic' src='trustrating_stim/white_mw003.bmp'><br><font color='green'><strong>Share</strong></font></div></div></div>","null","ARRAY","2","trustrating_stim/white_mw038.bmp,trustrating_stim/white_mw003.bmp","0,1","Match","e","3000","","","","",""
"","","","","61103c2b7810420e5f23f437","bdp_wmem","Mon Mar 13 2023 23:30:27 GMT-0500 (Central Daylight Time)","671727","Match,No Match","html-keyboard-response","153","437284","0.0-7.0-3.23","","null","","<div class='trialBorder'><div class='vertical-center'><img src='img/fixation2_sml.jpg'</img></div></div>","null","DELAY","","","","","","","","","","",""
"","","","","61103c2b7810420e5f23f437","bdp_wmem","Mon Mar 13 2023 23:30:27 GMT-0500 (Central Daylight Time)","671727","Match,No Match","html-keyboard-response","154","439408","0.0-7.0-4.23","","2123","","<div class='trialBorder'><div class='targDiv'><div class='tc'><img class='introPic' src='trustrating_stim/white_mw003.bmp'><br><font color='green'><strong>Share</strong></font></div></div><div class='respDiv'><div class='respDivL'>Match<br>(e)</div><div class='respDivR'>No Match<br>(i)</div></div></div>","e","TARGET","2","trustrating_stim/white_mw038.bmp,trustrating_stim/white_mw003.bmp","0,1","Match","e","3000","trustrating_stim/white_mw003.bmp","green","Share","REAL","1"
"","","","","61103c2b7810420e5f23f437","bdp_wmem","Mon Mar 13 2023 23:30:27 GMT-0500 (Central Daylight Time)","671727","Match,No Match","html-keyboard-response","155","439909","0.0-7.0-5.23","","null","","<div class='trialBorder'><div class='vertical-center'><img src='img/correct.jpg'></div><div class='respDiv'><div class='respDivL'><font style='color:orange'>Match<br>(e)</font></div><div class='respDivR'>No Match<br>(i)</div></div></div>","null","FEEDBACK","","","","","","","","","","",""
"","","","","61103c2b7810420e5f23f437","bdp_wmem","Mon Mar 13 2023 23:30:27 GMT-0500 (Central Daylight Time)","671727","Match,No Match","html-keyboard-response","156","440412","0.0-7.0-1.24","","null","","<div class='trialBorder'><div class='vertical-center'><img src='img/fixation2_sml.jpg'</img></div></div>","null","FIX","","","","","","","","","","",""
"","","","","61103c2b7810420e5f23f437","bdp_wmem","Mon Mar 13 2023 23:30:27 GMT-0500 (Central Daylight Time)","671727","Match,No Match","html-keyboard-response","157","444919","0.0-7.0-2.24","","null","","<div class='trialBorder'><div class='vertical-center'><img style='vertical-align:center; align:center' src='img/fixation2_sml.jpg'></div><div class='arrayDiv3'><div class='tl'><img class='introPic' src='trustrating_stim/white_mw078.bmp'><br><font color='green'><strong>Share</strong></font></div><div class='tc'><img class='introPic' src='trustrating_stim/white_mw013.bmp'><br><font color='red'><strong>Keep</strong></font></div><div class='tr'><img class='introPic' src='trustrating_stim/white_mw070.bmp'><br><font color='green'><strong>Share</strong></font></div></div></div>","null","ARRAY","3","trustrating_stim/white_mw078.bmp,trustrating_stim/white_mw013.bmp,trustrating_stim/white_mw070.bmp","1,0,1","noMatchOutcome","i","4500","","","","",""
"","","","","61103c2b7810420e5f23f437","bdp_wmem","Mon Mar 13 2023 23:30:27 GMT-0500 (Central Daylight Time)","671727","Match,No Match","html-keyboard-response","158","448925","0.0-7.0-3.24","","null","","<div class='trialBorder'><div class='vertical-center'><img src='img/fixation2_sml.jpg'</img></div></div>","null","DELAY","","","","","","","","","","",""
"","","","","61103c2b7810420e5f23f437","bdp_wmem","Mon Mar 13 2023 23:30:27 GMT-0500 (Central Daylight Time)","671727","Match,No Match","html-keyboard-response","159","450300","0.0-7.0-4.24","","1374","","<div class='trialBorder'><div class='targDiv'><div class='tc'><img class='introPic' src='trustrating_stim/white_mw070.bmp'><br><font color='red'><strong>Keep</strong></font></div></div><div class='respDiv'><div class='respDivL'>Match<br>(e)</div><div class='respDivR'>No Match<br>(i)</div></div></div>","i","TARGET","3","trustrating_stim/white_mw078.bmp,trustrating_stim/white_mw013.bmp,trustrating_stim/white_mw070.bmp","1,0,1","noMatchOutcome","i","4500","trustrating_stim/white_mw070.bmp","red","Keep","REAL","1"
"","","","","61103c2b7810420e5f23f437","bdp_wmem","Mon Mar 13 2023 23:30:27 GMT-0500 (Central Daylight Time)","671727","Match,No Match","html-keyboard-response","160","450802","0.0-7.0-5.24","","null","","<div class='trialBorder'><div class='vertical-center'><img src='img/correct.jpg'></div><div class='respDiv'><div class='respDivL'>Match<br>(e)</div><div class='respDivR'><font style='color:orange'>No Match<br>(i)</font></div></div></div>","null","FEEDBACK","","","","","","","","","","",""
"","","","","61103c2b7810420e5f23f437","bdp_wmem","Mon Mar 13 2023 23:30:27 GMT-0500 (Central Daylight Time)","671727","Match,No Match","html-keyboard-response","161","451305","0.0-7.0-1.25","","null","","<div class='trialBorder'><div class='vertical-center'><img src='img/fixation2_sml.jpg'</img></div></div>","null","FIX","","","","","","","","","","",""
"","","","","61103c2b7810420e5f23f437","bdp_wmem","Mon Mar 13 2023 23:30:27 GMT-0500 (Central Daylight Time)","671727","Match,No Match","html-keyboard-response","162","455811","0.0-7.0-2.25","","null","","<div class='trialBorder'><div class='vertical-center'><img style='vertical-align:center; align:center' src='img/fixation2_sml.jpg'></div><div class='arrayDiv3'><div class='tl'><img class='introPic' src='trustrating_stim/white_mw003.bmp'><br><font color='green'><strong>Share</strong></font></div><div class='tc'><img class='introPic' src='trustrating_stim/white_mw012.bmp'><br><font color='red'><strong>Keep</strong></font></div><div class='tr'><img class='introPic' src='trustrating_stim/white_mw091.bmp'><br><font color='red'><strong>Keep</strong></font></div></div></div>","null","ARRAY","3","trustrating_stim/white_mw003.bmp,trustrating_stim/white_mw012.bmp,trustrating_stim/white_mw091.bmp","1,0,0","Match","e","4500","","","","",""
"","","","","61103c2b7810420e5f23f437","bdp_wmem","Mon Mar 13 2023 23:30:27 GMT-0500 (Central Daylight Time)","671727","Match,No Match","html-keyboard-response","163","459817","0.0-7.0-3.25","","null","","<div class='trialBorder'><div class='vertical-center'><img src='img/fixation2_sml.jpg'</img></div></div>","null","DELAY","","","","","","","","","","",""
"","","","","61103c2b7810420e5f23f437","bdp_wmem","Mon Mar 13 2023 23:30:27 GMT-0500 (Central Daylight Time)","671727","Match,No Match","html-keyboard-response","164","461084","0.0-7.0-4.25","","1267","","<div class='trialBorder'><div class='targDiv'><div class='tc'><img class='introPic' src='trustrating_stim/white_mw091.bmp'><br><font color='red'><strong>Keep</strong></font></div></div><div class='respDiv'><div class='respDivL'>Match<br>(e)</div><div class='respDivR'>No Match<br>(i)</div></div></div>","e","TARGET","3","trustrating_stim/white_mw003.bmp,trustrating_stim/white_mw012.bmp,trustrating_stim/white_mw091.bmp","1,0,0","Match","e","4500","trustrating_stim/white_mw091.bmp","red","Keep","REAL","1"
"","","","","61103c2b7810420e5f23f437","bdp_wmem","Mon Mar 13 2023 23:30:27 GMT-0500 (Central Daylight Time)","671727","Match,No Match","html-keyboard-response","165","461589","0.0-7.0-5.25","","null","","<div class='trialBorder'><div class='vertical-center'><img src='img/correct.jpg'></div><div class='respDiv'><div class='respDivL'><font style='color:orange'>Match<br>(e)</font></div><div class='respDivR'>No Match<br>(i)</div></div></div>","null","FEEDBACK","","","","","","","","","","",""
"","","","","61103c2b7810420e5f23f437","bdp_wmem","Mon Mar 13 2023 23:30:27 GMT-0500 (Central Daylight Time)","671727","Match,No Match","html-keyboard-response","166","462095","0.0-7.0-1.26","","null","","<div class='trialBorder'><div class='vertical-center'><img src='img/fixation2_sml.jpg'</img></div></div>","null","FIX","","","","","","","","","","",""
"","","","","61103c2b7810420e5f23f437","bdp_wmem","Mon Mar 13 2023 23:30:27 GMT-0500 (Central Daylight Time)","671727","Match,No Match","html-keyboard-response","167","465097","0.0-7.0-2.26","","null","","<div class='trialBorder'><div class='vertical-center'><img style='vertical-align:center; align:center' src='img/fixation2_sml.jpg'></div><div class='arrayDiv2'><div class='tl'><img class='introPic' src='trustrating_stim/white_mw078.bmp'><br><font color='green'><strong>Share</strong></font></div><div class='tr'><img class='introPic' src='trustrating_stim/white_mw038.bmp'><br><font color='red'><strong>Keep</strong></font></div></div></div>","null","ARRAY","2","trustrating_stim/white_mw078.bmp,trustrating_stim/white_mw038.bmp","1,0","noMatchFace","i","3000","","","","",""
"","","","","61103c2b7810420e5f23f437","bdp_wmem","Mon Mar 13 2023 23:30:27 GMT-0500 (Central Daylight Time)","671727","Match,No Match","html-keyboard-response","168","469103","0.0-7.0-3.26","","null","","<div class='trialBorder'><div class='vertical-center'><img src='img/fixation2_sml.jpg'</img></div></div>","null","DELAY","","","","","","","","","","",""
"","","","","61103c2b7810420e5f23f437","bdp_wmem","Mon Mar 13 2023 23:30:27 GMT-0500 (Central Daylight Time)","671727","Match,No Match","html-keyboard-response","169","471250","0.0-7.0-4.26","","2147","","<div class='trialBorder'><div class='targDiv'><div class='tc'><img class='introPic' src='trustrating_stim/white_mw042.bmp'><br><font color='red'><strong>Keep</strong></font></div></div><div class='respDiv'><div class='respDivL'>Match<br>(e)</div><div class='respDivR'>No Match<br>(i)</div></div></div>","e","TARGET","2","trustrating_stim/white_mw078.bmp,trustrating_stim/white_mw038.bmp","1,0","noMatchFace","i","3000","trustrating_stim/white_mw042.bmp","red","Keep","REAL","0"
"","","","","61103c2b7810420e5f23f437","bdp_wmem","Mon Mar 13 2023 23:30:27 GMT-0500 (Central Daylight Time)","671727","Match,No Match","html-keyboard-response","170","471752","0.0-7.0-5.26","","null","","<div class='trialBorder'><div class='vertical-center'><img src='img/error.jpg'></div><div class='respDiv'><div class='respDivL'><font style='color:orange'>Match<br>(e)</font></div><div class='respDivR'>No Match<br>(i)</div></div></div>","null","FEEDBACK","","","","","","","","","","",""
"","","","","61103c2b7810420e5f23f437","bdp_wmem","Mon Mar 13 2023 23:30:27 GMT-0500 (Central Daylight Time)","671727","Match,No Match","html-keyboard-response","171","472255","0.0-7.0-1.27","","null","","<div class='trialBorder'><div class='vertical-center'><img src='img/fixation2_sml.jpg'</img></div></div>","null","FIX","","","","","","","","","","",""
"","","","","61103c2b7810420e5f23f437","bdp_wmem","Mon Mar 13 2023 23:30:27 GMT-0500 (Central Daylight Time)","671727","Match,No Match","html-keyboard-response","172","476762","0.0-7.0-2.27","","null","","<div class='trialBorder'><div class='vertical-center'><img style='vertical-align:center; align:center' src='img/fixation2_sml.jpg'></div><div class='arrayDiv3'><div class='tl'><img class='introPic' src='trustrating_stim/white_mw085.bmp'><br><font color='green'><strong>Share</strong></font></div><div class='tc'><img class='introPic' src='trustrating_stim/white_mw012.bmp'><br><font color='red'><strong>Keep</strong></font></div><div class='tr'><img class='introPic' src='trustrating_stim/white_mw070.bmp'><br><font color='red'><strong>Keep</strong></font></div></div></div>","null","ARRAY","3","trustrating_stim/white_mw085.bmp,trustrating_stim/white_mw012.bmp,trustrating_stim/white_mw070.bmp","1,0,0","noMatchFace","i","4500","","","","",""
"","","","","61103c2b7810420e5f23f437","bdp_wmem","Mon Mar 13 2023 23:30:27 GMT-0500 (Central Daylight Time)","671727","Match,No Match","html-keyboard-response","173","480767","0.0-7.0-3.27","","null","","<div class='trialBorder'><div class='vertical-center'><img src='img/fixation2_sml.jpg'</img></div></div>","null","DELAY","","","","","","","","","","",""
"","","","","61103c2b7810420e5f23f437","bdp_wmem","Mon Mar 13 2023 23:30:27 GMT-0500 (Central Daylight Time)","671727","Match,No Match","html-keyboard-response","174","482458","0.0-7.0-4.27","","1690","","<div class='trialBorder'><div class='targDiv'><div class='tc'><img class='introPic' src='trustrating_stim/white_mw078.bmp'><br><font color='red'><strong>Keep</strong></font></div></div><div class='respDiv'><div class='respDivL'>Match<br>(e)</div><div class='respDivR'>No Match<br>(i)</div></div></div>","i","TARGET","3","trustrating_stim/white_mw085.bmp,trustrating_stim/white_mw012.bmp,trustrating_stim/white_mw070.bmp","1,0,0","noMatchFace","i","4500","trustrating_stim/white_mw078.bmp","red","Keep","REAL","1"
"","","","","61103c2b7810420e5f23f437","bdp_wmem","Mon Mar 13 2023 23:30:27 GMT-0500 (Central Daylight Time)","671727","Match,No Match","html-keyboard-response","175","482958","0.0-7.0-5.27","","null","","<div class='trialBorder'><div class='vertical-center'><img src='img/correct.jpg'></div><div class='respDiv'><div class='respDivL'>Match<br>(e)</div><div class='respDivR'><font style='color:orange'>No Match<br>(i)</font></div></div></div>","null","FEEDBACK","","","","","","","","","","",""
"","","","","61103c2b7810420e5f23f437","bdp_wmem","Mon Mar 13 2023 23:30:27 GMT-0500 (Central Daylight Time)","671727","Match,No Match","html-keyboard-response","176","483463","0.0-7.0-1.28","","null","","<div class='trialBorder'><div class='vertical-center'><img src='img/fixation2_sml.jpg'</img></div></div>","null","FIX","","","","","","","","","","",""
"","","","","61103c2b7810420e5f23f437","bdp_wmem","Mon Mar 13 2023 23:30:27 GMT-0500 (Central Daylight Time)","671727","Match,No Match","html-keyboard-response","177","486466","0.0-7.0-2.28","","null","","<div class='trialBorder'><div class='vertical-center'><img style='vertical-align:center; align:center' src='img/fixation2_sml.jpg'></div><div class='arrayDiv2'><div class='tl'><img class='introPic' src='trustrating_stim/white_mw010.bmp'><br><font color='red'><strong>Keep</strong></font></div><div class='tr'><img class='introPic' src='trustrating_stim/white_mw091.bmp'><br><font color='green'><strong>Share</strong></font></div></div></div>","null","ARRAY","2","trustrating_stim/white_mw010.bmp,trustrating_stim/white_mw091.bmp","0,1","Match","e","3000","","","","",""
"","","","","61103c2b7810420e5f23f437","bdp_wmem","Mon Mar 13 2023 23:30:27 GMT-0500 (Central Daylight Time)","671727","Match,No Match","html-keyboard-response","178","490469","0.0-7.0-3.28","","null","","<div class='trialBorder'><div class='vertical-center'><img src='img/fixation2_sml.jpg'</img></div></div>","null","DELAY","","","","","","","","","","",""
"","","","","61103c2b7810420e5f23f437","bdp_wmem","Mon Mar 13 2023 23:30:27 GMT-0500 (Central Daylight Time)","671727","Match,No Match","html-keyboard-response","179","491734","0.0-7.0-4.28","","1265","","<div class='trialBorder'><div class='targDiv'><div class='tc'><img class='introPic' src='trustrating_stim/white_mw010.bmp'><br><font color='red'><strong>Keep</strong></font></div></div><div class='respDiv'><div class='respDivL'>Match<br>(e)</div><div class='respDivR'>No Match<br>(i)</div></div></div>","i","TARGET","2","trustrating_stim/white_mw010.bmp,trustrating_stim/white_mw091.bmp","0,1","Match","e","3000","trustrating_stim/white_mw010.bmp","red","Keep","REAL","0"
"","","","","61103c2b7810420e5f23f437","bdp_wmem","Mon Mar 13 2023 23:30:27 GMT-0500 (Central Daylight Time)","671727","Match,No Match","html-keyboard-response","180","492234","0.0-7.0-5.28","","null","","<div class='trialBorder'><div class='vertical-center'><img src='img/error.jpg'></div><div class='respDiv'><div class='respDivL'>Match<br>(e)</div><div class='respDivR'><font style='color:orange'>No Match<br>(i)</font></div></div></div>","null","FEEDBACK","","","","","","","","","","",""
"","","","","61103c2b7810420e5f23f437","bdp_wmem","Mon Mar 13 2023 23:30:27 GMT-0500 (Central Daylight Time)","671727","Match,No Match","html-keyboard-response","181","492739","0.0-7.0-1.29","","null","","<div class='trialBorder'><div class='vertical-center'><img src='img/fixation2_sml.jpg'</img></div></div>","null","FIX","","","","","","","","","","",""
"","","","","61103c2b7810420e5f23f437","bdp_wmem","Mon Mar 13 2023 23:30:27 GMT-0500 (Central Daylight Time)","671727","Match,No Match","html-keyboard-response","182","494245","0.0-7.0-2.29","","null","","<div class='trialBorder'><div class='vertical-center'><img style='vertical-align:center; align:center' src='img/fixation2_sml.jpg'></div><div class='arrayDiv1'><div class='tc'><img class='introPic' src='trustrating_stim/white_mw013.bmp'><br><font color='red'><strong>Keep</strong></font></div></div></div>","null","ARRAY","1","trustrating_stim/white_mw013.bmp","0","Match","e","1500","","","","",""
"","","","","61103c2b7810420e5f23f437","bdp_wmem","Mon Mar 13 2023 23:30:27 GMT-0500 (Central Daylight Time)","671727","Match,No Match","html-keyboard-response","183","498249","0.0-7.0-3.29","","null","","<div class='trialBorder'><div class='vertical-center'><img src='img/fixation2_sml.jpg'</img></div></div>","null","DELAY","","","","","","","","","","",""
"","","","","61103c2b7810420e5f23f437","bdp_wmem","Mon Mar 13 2023 23:30:27 GMT-0500 (Central Daylight Time)","671727","Match,No Match","html-keyboard-response","184","500608","0.0-7.0-4.29","","2359","","<div class='trialBorder'><div class='targDiv'><div class='tc'><img class='introPic' src='trustrating_stim/white_mw013.bmp'><br><font color='red'><strong>Keep</strong></font></div></div><div class='respDiv'><div class='respDivL'>Match<br>(e)</div><div class='respDivR'>No Match<br>(i)</div></div></div>","i","TARGET","1","trustrating_stim/white_mw013.bmp","0","Match","e","1500","trustrating_stim/white_mw013.bmp","red","Keep","REAL","0"
"","","","","61103c2b7810420e5f23f437","bdp_wmem","Mon Mar 13 2023 23:30:27 GMT-0500 (Central Daylight Time)","671727","Match,No Match","html-keyboard-response","185","501109","0.0-7.0-5.29","","null","","<div class='trialBorder'><div class='vertical-center'><img src='img/error.jpg'></div><div class='respDiv'><div class='respDivL'>Match<br>(e)</div><div class='respDivR'><font style='color:orange'>No Match<br>(i)</font></div></div></div>","null","FEEDBACK","","","","","","","","","","",""
