"trial_type","trial_index","time_elapsed","internal_node_id","subject_id","task","startTime","totalTime","labels","view_history","rt","event","trial","time","trialtype","success","stimulus","key_press","stimType","arraySize","arrayFaces","arrayOutcomes","matchType","corrResp","arrayDur","targFace","targCol","targOutcome","trialType","corr"
"pavlovia","0","5","0.0-0.0","63e554b7631c8ec3ce069e32","bdp_wmem","Mon Mar 13 2023 21:45:58 GMT-0700 (Pacific Daylight Time)","659086","Match,No Match","","","","","","","","","","","","","","","","","","","","",""
"instructions","1","5409","0.0-1.0","63e554b7631c8ec3ce069e32","bdp_wmem","Mon Mar 13 2023 21:45:58 GMT-0700 (Pacific Daylight Time)","659086","Match,No Match","[{""page_index"":0,""viewing_time"":5403}]","5403","","","","","","","","","","","","","","","","","","",""
"","","","","63e554b7631c8ec3ce069e32","bdp_wmem","Mon Mar 13 2023 21:45:58 GMT-0700 (Pacific Daylight Time)","659086","Match,No Match","","","fullscreenenter","2","8774","fullscreenenter","","","","","","","","","","","","","","",""
"fullscreen","2","9753","0.0-2.0","63e554b7631c8ec3ce069e32","bdp_wmem","Mon Mar 13 2023 21:45:58 GMT-0700 (Pacific Daylight Time)","659086","Match,No Match","","","","","","","true","","","","","","","","","","","","","",""
"instructions","3","128063","0.0-4.0","63e554b7631c8ec3ce069e32","bdp_wmem","Mon Mar 13 2023 21:45:58 GMT-0700 (Pacific Daylight Time)","659086","Match,No Match","[{""page_index"":0,""viewing_time"":39179},{""page_index"":1,""viewing_time"":37528},{""page_index"":2,""viewing_time"":25138},{""page_index"":3,""viewing_time"":11695},{""page_index"":4,""viewing_time"":4767}]","118308","","","","","","","","","","","","","","","","","","",""
"html-keyboard-response","4","128569","0.0-5.0-1.0","63e554b7631c8ec3ce069e32","bdp_wmem","Mon Mar 13 2023 21:45:58 GMT-0700 (Pacific Daylight Time)","659086","Match,No Match","","null","","","","","","<div class='trialBorder'><div class='vertical-center'><img src='img/fixation2_sml.jpg'</img></div></div>","null","FIX","","","","","","","","","","",""
"html-keyboard-response","5","133073","0.0-5.0-2.0","63e554b7631c8ec3ce069e32","bdp_wmem","Mon Mar 13 2023 21:45:58 GMT-0700 (Pacific Daylight Time)","659086","Match,No Match","","null","","","","","","<div class='trialBorder'><div class='vertical-center'><img style='vertical-align:center; align:center' src='img/fixation2_sml.jpg'></div><div class='arrayDiv3'><div class='tl'><img class='introPic' src='trustrating_stim/white_mw085.bmp'><br><font color='red'><strong>Keep</strong></font></div><div class='tc'><img class='introPic' src='trustrating_stim/white_mw010.bmp'><br><font color='red'><strong>Keep</strong></font></div><div class='tr'><img class='introPic' src='trustrating_stim/white_mw078.bmp'><br><font color='green'><strong>Share</strong></font></div></div></div>","null","ARRAY","3","trustrating_stim/white_mw085.bmp,trustrating_stim/white_mw010.bmp,trustrating_stim/white_mw078.bmp","0,0,1","noMatchOutcome","i","4500","","","","",""
"html-keyboard-response","6","137076","0.0-5.0-3.0","63e554b7631c8ec3ce069e32","bdp_wmem","Mon Mar 13 2023 21:45:58 GMT-0700 (Pacific Daylight Time)","659086","Match,No Match","","null","","","","","","<div class='trialBorder'><div class='vertical-center'><img src='img/fixation2_sml.jpg'</img></div></div>","null","DELAY","","","","","","","","","","",""
"html-keyboard-response","7","140296","0.0-5.0-4.0","63e554b7631c8ec3ce069e32","bdp_wmem","Mon Mar 13 2023 21:45:58 GMT-0700 (Pacific Daylight Time)","659086","Match,No Match","","3216","","","","","","<div class='trialBorder'><div class='targDiv'><div class='tc'><img class='introPic' src='trustrating_stim/white_mw010.bmp'><br><font color='green'><strong>Share</strong></font></div></div><div class='respDiv'><div class='respDivL'>Match<br>(e)</div><div class='respDivR'>No Match<br>(i)</div></div></div>","i","TARGET","3","trustrating_stim/white_mw085.bmp,trustrating_stim/white_mw010.bmp,trustrating_stim/white_mw078.bmp","0,0,1","noMatchOutcome","i","4500","trustrating_stim/white_mw010.bmp","green","Share","PRACTICE","1"
"html-keyboard-response","8","140799","0.0-5.0-5.0","63e554b7631c8ec3ce069e32","bdp_wmem","Mon Mar 13 2023 21:45:58 GMT-0700 (Pacific Daylight Time)","659086","Match,No Match","","null","","","","","","<div class='trialBorder'><div class='vertical-center'><img src='img/correct.jpg'></div><div class='respDiv'><div class='respDivL'>Match<br>(e)</div><div class='respDivR'><font style='color:orange'>No Match<br>(i)</font></div></div></div>","null","FEEDBACK","","","","","","","","","","",""
"html-keyboard-response","9","141303","0.0-5.0-1.1","63e554b7631c8ec3ce069e32","bdp_wmem","Mon Mar 13 2023 21:45:58 GMT-0700 (Pacific Daylight Time)","659086","Match,No Match","","null","","","","","","<div class='trialBorder'><div class='vertical-center'><img src='img/fixation2_sml.jpg'</img></div></div>","null","FIX","","","","","","","","","","",""
"html-keyboard-response","10","144306","0.0-5.0-2.1","63e554b7631c8ec3ce069e32","bdp_wmem","Mon Mar 13 2023 21:45:58 GMT-0700 (Pacific Daylight Time)","659086","Match,No Match","","null","","","","","","<div class='trialBorder'><div class='vertical-center'><img style='vertical-align:center; align:center' src='img/fixation2_sml.jpg'></div><div class='arrayDiv2'><div class='tl'><img class='introPic' src='trustrating_stim/white_mw012.bmp'><br><font color='green'><strong>Share</strong></font></div><div class='tr'><img class='introPic' src='trustrating_stim/white_mw091.bmp'><br><font color='red'><strong>Keep</strong></font></div></div></div>","null","ARRAY","2","trustrating_stim/white_mw012.bmp,trustrating_stim/white_mw091.bmp","1,0","noMatchFace","i","3000","","","","",""
"html-keyboard-response","11","148309","0.0-5.0-3.1","63e554b7631c8ec3ce069e32","bdp_wmem","Mon Mar 13 2023 21:45:58 GMT-0700 (Pacific Daylight Time)","659086","Match,No Match","","null","","","","","","<div class='trialBorder'><div class='vertical-center'><img src='img/fixation2_sml.jpg'</img></div></div>","null","DELAY","","","","","","","","","","",""
"html-keyboard-response","12","151423","0.0-5.0-4.1","63e554b7631c8ec3ce069e32","bdp_wmem","Mon Mar 13 2023 21:45:58 GMT-0700 (Pacific Daylight Time)","659086","Match,No Match","","3111","","","","","","<div class='trialBorder'><div class='targDiv'><div class='tc'><img class='introPic' src='trustrating_stim/white_mw092.bmp'><br><font color='red'><strong>Keep</strong></font></div></div><div class='respDiv'><div class='respDivL'>Match<br>(e)</div><div class='respDivR'>No Match<br>(i)</div></div></div>","e","TARGET","2","trustrating_stim/white_mw012.bmp,trustrating_stim/white_mw091.bmp","1,0","noMatchFace","i","3000","trustrating_stim/white_mw092.bmp","red","Keep","PRACTICE","0"
"html-keyboard-response","13","151926","0.0-5.0-5.1","63e554b7631c8ec3ce069e32","bdp_wmem","Mon Mar 13 2023 21:45:58 GMT-0700 (Pacific Daylight Time)","659086","Match,No Match","","null","","","","","","<div class='trialBorder'><div class='vertical-center'><img src='img/error.jpg'></div><div class='respDiv'><div class='respDivL'><font style='color:orange'>Match<br>(e)</font></div><div class='respDivR'>No Match<br>(i)</div></div></div>","null","FEEDBACK","","","","","","","","","","",""
"html-keyboard-response","14","152428","0.0-5.0-1.2","63e554b7631c8ec3ce069e32","bdp_wmem","Mon Mar 13 2023 21:45:58 GMT-0700 (Pacific Daylight Time)","659086","Match,No Match","","null","","","","","","<div class='trialBorder'><div class='vertical-center'><img src='img/fixation2_sml.jpg'</img></div></div>","null","FIX","","","","","","","","","","",""
"html-keyboard-response","15","156933","0.0-5.0-2.2","63e554b7631c8ec3ce069e32","bdp_wmem","Mon Mar 13 2023 21:45:58 GMT-0700 (Pacific Daylight Time)","659086","Match,No Match","","null","","","","","","<div class='trialBorder'><div class='vertical-center'><img style='vertical-align:center; align:center' src='img/fixation2_sml.jpg'></div><div class='arrayDiv3'><div class='tl'><img class='introPic' src='trustrating_stim/white_mw042.bmp'><br><font color='green'><strong>Share</strong></font></div><div class='tc'><img class='introPic' src='trustrating_stim/white_mw078.bmp'><br><font color='red'><strong>Keep</strong></font></div><div class='tr'><img class='introPic' src='trustrating_stim/white_mw040.bmp'><br><font color='green'><strong>Share</strong></font></div></div></div>","null","ARRAY","3","trustrating_stim/white_mw042.bmp,trustrating_stim/white_mw078.bmp,trustrating_stim/white_mw040.bmp","1,0,1","Match","e","4500","","","","",""
"html-keyboard-response","16","160936","0.0-5.0-3.2","63e554b7631c8ec3ce069e32","bdp_wmem","Mon Mar 13 2023 21:45:58 GMT-0700 (Pacific Daylight Time)","659086","Match,No Match","","null","","","","","","<div class='trialBorder'><div class='vertical-center'><img src='img/fixation2_sml.jpg'</img></div></div>","null","DELAY","","","","","","","","","","",""
"html-keyboard-response","17","162647","0.0-5.0-4.2","63e554b7631c8ec3ce069e32","bdp_wmem","Mon Mar 13 2023 21:45:58 GMT-0700 (Pacific Daylight Time)","659086","Match,No Match","","1707","","","","","","<div class='trialBorder'><div class='targDiv'><div class='tc'><img class='introPic' src='trustrating_stim/white_mw042.bmp'><br><font color='green'><strong>Share</strong></font></div></div><div class='respDiv'><div class='respDivL'>Match<br>(e)</div><div class='respDivR'>No Match<br>(i)</div></div></div>","e","TARGET","3","trustrating_stim/white_mw042.bmp,trustrating_stim/white_mw078.bmp,trustrating_stim/white_mw040.bmp","1,0,1","Match","e","4500","trustrating_stim/white_mw042.bmp","green","Share","PRACTICE","1"
"html-keyboard-response","18","163149","0.0-5.0-5.2","63e554b7631c8ec3ce069e32","bdp_wmem","Mon Mar 13 2023 21:45:58 GMT-0700 (Pacific Daylight Time)","659086","Match,No Match","","null","","","","","","<div class='trialBorder'><div class='vertical-center'><img src='img/correct.jpg'></div><div class='respDiv'><div class='respDivL'><font style='color:orange'>Match<br>(e)</font></div><div class='respDivR'>No Match<br>(i)</div></div></div>","null","FEEDBACK","","","","","","","","","","",""
"html-keyboard-response","19","163651","0.0-5.0-1.3","63e554b7631c8ec3ce069e32","bdp_wmem","Mon Mar 13 2023 21:45:58 GMT-0700 (Pacific Daylight Time)","659086","Match,No Match","","null","","","","","","<div class='trialBorder'><div class='vertical-center'><img src='img/fixation2_sml.jpg'</img></div></div>","null","FIX","","","","","","","","","","",""
"html-keyboard-response","20","165153","0.0-5.0-2.3","63e554b7631c8ec3ce069e32","bdp_wmem","Mon Mar 13 2023 21:45:58 GMT-0700 (Pacific Daylight Time)","659086","Match,No Match","","null","","","","","","<div class='trialBorder'><div class='vertical-center'><img style='vertical-align:center; align:center' src='img/fixation2_sml.jpg'></div><div class='arrayDiv1'><div class='tc'><img class='introPic' src='trustrating_stim/white_mw091.bmp'><br><font color='red'><strong>Keep</strong></font></div></div></div>","null","ARRAY","1","trustrating_stim/white_mw091.bmp","0","Match","e","1500","","","","",""
"html-keyboard-response","21","169156","0.0-5.0-3.3","63e554b7631c8ec3ce069e32","bdp_wmem","Mon Mar 13 2023 21:45:58 GMT-0700 (Pacific Daylight Time)","659086","Match,No Match","","null","","","","","","<div class='trialBorder'><div class='vertical-center'><img src='img/fixation2_sml.jpg'</img></div></div>","null","DELAY","","","","","","","","","","",""
"html-keyboard-response","22","170535","0.0-5.0-4.3","63e554b7631c8ec3ce069e32","bdp_wmem","Mon Mar 13 2023 21:45:58 GMT-0700 (Pacific Daylight Time)","659086","Match,No Match","","1376","","","","","","<div class='trialBorder'><div class='targDiv'><div class='tc'><img class='introPic' src='trustrating_stim/white_mw091.bmp'><br><font color='red'><strong>Keep</strong></font></div></div><div class='respDiv'><div class='respDivL'>Match<br>(e)</div><div class='respDivR'>No Match<br>(i)</div></div></div>","e","TARGET","1","trustrating_stim/white_mw091.bmp","0","Match","e","1500","trustrating_stim/white_mw091.bmp","red","Keep","PRACTICE","1"
"html-keyboard-response","23","171036","0.0-5.0-5.3","63e554b7631c8ec3ce069e32","bdp_wmem","Mon Mar 13 2023 21:45:58 GMT-0700 (Pacific Daylight Time)","659086","Match,No Match","","null","","","","","","<div class='trialBorder'><div class='vertical-center'><img src='img/correct.jpg'></div><div class='respDiv'><div class='respDivL'><font style='color:orange'>Match<br>(e)</font></div><div class='respDivR'>No Match<br>(i)</div></div></div>","null","FEEDBACK","","","","","","","","","","",""
"html-keyboard-response","24","171539","0.0-5.0-1.4","63e554b7631c8ec3ce069e32","bdp_wmem","Mon Mar 13 2023 21:45:58 GMT-0700 (Pacific Daylight Time)","659086","Match,No Match","","null","","","","","","<div class='trialBorder'><div class='vertical-center'><img src='img/fixation2_sml.jpg'</img></div></div>","null","FIX","","","","","","","","","","",""
"html-keyboard-response","25","174543","0.0-5.0-2.4","63e554b7631c8ec3ce069e32","bdp_wmem","Mon Mar 13 2023 21:45:58 GMT-0700 (Pacific Daylight Time)","659086","Match,No Match","","null","","","","","","<div class='trialBorder'><div class='vertical-center'><img style='vertical-align:center; align:center' src='img/fixation2_sml.jpg'></div><div class='arrayDiv2'><div class='tl'><img class='introPic' src='trustrating_stim/white_mw038.bmp'><br><font color='green'><strong>Share</strong></font></div><div class='tr'><img class='introPic' src='trustrating_stim/white_mw085.bmp'><br><font color='red'><strong>Keep</strong></font></div></div></div>","null","ARRAY","2","trustrating_stim/white_mw038.bmp,trustrating_stim/white_mw085.bmp","1,0","Match","e","3000","","","","",""
"html-keyboard-response","26","178546","0.0-5.0-3.4","63e554b7631c8ec3ce069e32","bdp_wmem","Mon Mar 13 2023 21:45:58 GMT-0700 (Pacific Daylight Time)","659086","Match,No Match","","null","","","","","","<div class='trialBorder'><div class='vertical-center'><img src='img/fixation2_sml.jpg'</img></div></div>","null","DELAY","","","","","","","","","","",""
"html-keyboard-response","27","180159","0.0-5.0-4.4","63e554b7631c8ec3ce069e32","bdp_wmem","Mon Mar 13 2023 21:45:58 GMT-0700 (Pacific Daylight Time)","659086","Match,No Match","","1610","","","","","","<div class='trialBorder'><div class='targDiv'><div class='tc'><img class='introPic' src='trustrating_stim/white_mw038.bmp'><br><font color='green'><strong>Share</strong></font></div></div><div class='respDiv'><div class='respDivL'>Match<br>(e)</div><div class='respDivR'>No Match<br>(i)</div></div></div>","e","TARGET","2","trustrating_stim/white_mw038.bmp,trustrating_stim/white_mw085.bmp","1,0","Match","e","3000","trustrating_stim/white_mw038.bmp","green","Share","PRACTICE","1"
"html-keyboard-response","28","180662","0.0-5.0-5.4","63e554b7631c8ec3ce069e32","bdp_wmem","Mon Mar 13 2023 21:45:58 GMT-0700 (Pacific Daylight Time)","659086","Match,No Match","","null","","","","","","<div class='trialBorder'><div class='vertical-center'><img src='img/correct.jpg'></div><div class='respDiv'><div class='respDivL'><font style='color:orange'>Match<br>(e)</font></div><div class='respDivR'>No Match<br>(i)</div></div></div>","null","FEEDBACK","","","","","","","","","","",""
"html-keyboard-response","29","181165","0.0-5.0-1.5","63e554b7631c8ec3ce069e32","bdp_wmem","Mon Mar 13 2023 21:45:58 GMT-0700 (Pacific Daylight Time)","659086","Match,No Match","","null","","","","","","<div class='trialBorder'><div class='vertical-center'><img src='img/fixation2_sml.jpg'</img></div></div>","null","FIX","","","","","","","","","","",""
"html-keyboard-response","30","182669","0.0-5.0-2.5","63e554b7631c8ec3ce069e32","bdp_wmem","Mon Mar 13 2023 21:45:58 GMT-0700 (Pacific Daylight Time)","659086","Match,No Match","","null","","","","","","<div class='trialBorder'><div class='vertical-center'><img style='vertical-align:center; align:center' src='img/fixation2_sml.jpg'></div><div class='arrayDiv1'><div class='tc'><img class='introPic' src='trustrating_stim/white_mw092.bmp'><br><font color='green'><strong>Share</strong></font></div></div></div>","null","ARRAY","1","trustrating_stim/white_mw092.bmp","1","noMatchFace","i","1500","","","","",""
"html-keyboard-response","31","186670","0.0-5.0-3.5","63e554b7631c8ec3ce069e32","bdp_wmem","Mon Mar 13 2023 21:45:58 GMT-0700 (Pacific Daylight Time)","659086","Match,No Match","","null","","","","","","<div class='trialBorder'><div class='vertical-center'><img src='img/fixation2_sml.jpg'</img></div></div>","null","DELAY","","","","","","","","","","",""
"html-keyboard-response","32","187661","0.0-5.0-4.5","63e554b7631c8ec3ce069e32","bdp_wmem","Mon Mar 13 2023 21:45:58 GMT-0700 (Pacific Daylight Time)","659086","Match,No Match","","988","","","","","","<div class='trialBorder'><div class='targDiv'><div class='tc'><img class='introPic' src='trustrating_stim/white_mw010.bmp'><br><font color='green'><strong>Share</strong></font></div></div><div class='respDiv'><div class='respDivL'>Match<br>(e)</div><div class='respDivR'>No Match<br>(i)</div></div></div>","i","TARGET","1","trustrating_stim/white_mw092.bmp","1","noMatchFace","i","1500","trustrating_stim/white_mw010.bmp","green","Share","PRACTICE","1"
"html-keyboard-response","33","188164","0.0-5.0-5.5","63e554b7631c8ec3ce069e32","bdp_wmem","Mon Mar 13 2023 21:45:58 GMT-0700 (Pacific Daylight Time)","659086","Match,No Match","","null","","","","","","<div class='trialBorder'><div class='vertical-center'><img src='img/correct.jpg'></div><div class='respDiv'><div class='respDivL'>Match<br>(e)</div><div class='respDivR'><font style='color:orange'>No Match<br>(i)</font></div></div></div>","null","FEEDBACK","","","","","","","","","","",""
"instructions","34","191119","0.0-6.0","63e554b7631c8ec3ce069e32","bdp_wmem","Mon Mar 13 2023 21:45:58 GMT-0700 (Pacific Daylight Time)","659086","Match,No Match","[{""page_index"":0,""viewing_time"":2953}]","2954","","","","","","","","","","","","","","","","","","",""
"html-keyboard-response","35","191621","0.0-7.0-1.0","63e554b7631c8ec3ce069e32","bdp_wmem","Mon Mar 13 2023 21:45:58 GMT-0700 (Pacific Daylight Time)","659086","Match,No Match","","null","","","","","","<div class='trialBorder'><div class='vertical-center'><img src='img/fixation2_sml.jpg'</img></div></div>","null","FIX","","","","","","","","","","",""
"html-keyboard-response","36","196126","0.0-7.0-2.0","63e554b7631c8ec3ce069e32","bdp_wmem","Mon Mar 13 2023 21:45:58 GMT-0700 (Pacific Daylight Time)","659086","Match,No Match","","null","","","","","","<div class='trialBorder'><div class='vertical-center'><img style='vertical-align:center; align:center' src='img/fixation2_sml.jpg'></div><div class='arrayDiv3'><div class='tl'><img class='introPic' src='trustrating_stim/white_mw013.bmp'><br><font color='green'><strong>Share</strong></font></div><div class='tc'><img class='introPic' src='trustrating_stim/white_mw078.bmp'><br><font color='red'><strong>Keep</strong></font></div><div class='tr'><img class='introPic' src='trustrating_stim/white_mw010.bmp'><br><font color='green'><strong>Share</strong></font></div></div></div>","null","ARRAY","3","trustrating_stim/white_mw013.bmp,trustrating_stim/white_mw078.bmp,trustrating_stim/white_mw010.bmp","1,0,1","noMatchFace","i","4500","","","","",""
"html-keyboard-response","37","200128","0.0-7.0-3.0","63e554b7631c8ec3ce069e32","bdp_wmem","Mon Mar 13 2023 21:45:58 GMT-0700 (Pacific Daylight Time)","659086","Match,No Match","","null","","","","","","<div class='trialBorder'><div class='vertical-center'><img src='img/fixation2_sml.jpg'</img></div></div>","null","DELAY","","","","","","","","","","",""
"html-keyboard-response","38","202438","0.0-7.0-4.0","63e554b7631c8ec3ce069e32","bdp_wmem","Mon Mar 13 2023 21:45:58 GMT-0700 (Pacific Daylight Time)","659086","Match,No Match","","2306","","","","","","<div class='trialBorder'><div class='targDiv'><div class='tc'><img class='introPic' src='trustrating_stim/white_mw085.bmp'><br><font color='red'><strong>Keep</strong></font></div></div><div class='respDiv'><div class='respDivL'>Match<br>(e)</div><div class='respDivR'>No Match<br>(i)</div></div></div>","i","TARGET","3","trustrating_stim/white_mw013.bmp,trustrating_stim/white_mw078.bmp,trustrating_stim/white_mw010.bmp","1,0,1","noMatchFace","i","4500","trustrating_stim/white_mw085.bmp","red","Keep","REAL","1"
"html-keyboard-response","39","202942","0.0-7.0-5.0","63e554b7631c8ec3ce069e32","bdp_wmem","Mon Mar 13 2023 21:45:58 GMT-0700 (Pacific Daylight Time)","659086","Match,No Match","","null","","","","","","<div class='trialBorder'><div class='vertical-center'><img src='img/correct.jpg'></div><div class='respDiv'><div class='respDivL'>Match<br>(e)</div><div class='respDivR'><font style='color:orange'>No Match<br>(i)</font></div></div></div>","null","FEEDBACK","","","","","","","","","","",""
"html-keyboard-response","40","203444","0.0-7.0-1.1","63e554b7631c8ec3ce069e32","bdp_wmem","Mon Mar 13 2023 21:45:58 GMT-0700 (Pacific Daylight Time)","659086","Match,No Match","","null","","","","","","<div class='trialBorder'><div class='vertical-center'><img src='img/fixation2_sml.jpg'</img></div></div>","null","FIX","","","","","","","","","","",""
"html-keyboard-response","41","204947","0.0-7.0-2.1","63e554b7631c8ec3ce069e32","bdp_wmem","Mon Mar 13 2023 21:45:58 GMT-0700 (Pacific Daylight Time)","659086","Match,No Match","","null","","","","","","<div class='trialBorder'><div class='vertical-center'><img style='vertical-align:center; align:center' src='img/fixation2_sml.jpg'></div><div class='arrayDiv1'><div class='tc'><img class='introPic' src='trustrating_stim/white_mw042.bmp'><br><font color='green'><strong>Share</strong></font></div></div></div>","null","ARRAY","1","trustrating_stim/white_mw042.bmp","1","Match","e","1500","","","","",""
"html-keyboard-response","42","208950","0.0-7.0-3.1","63e554b7631c8ec3ce069e32","bdp_wmem","Mon Mar 13 2023 21:45:58 GMT-0700 (Pacific Daylight Time)","659086","Match,No Match","","null","","","","","","<div class='trialBorder'><div class='vertical-center'><img src='img/fixation2_sml.jpg'</img></div></div>","null","DELAY","","","","","","","","","","",""
"html-keyboard-response","43","210286","0.0-7.0-4.1","63e554b7631c8ec3ce069e32","bdp_wmem","Mon Mar 13 2023 21:45:58 GMT-0700 (Pacific Daylight Time)","659086","Match,No Match","","1333","","","","","","<div class='trialBorder'><div class='targDiv'><div class='tc'><img class='introPic' src='trustrating_stim/white_mw042.bmp'><br><font color='green'><strong>Share</strong></font></div></div><div class='respDiv'><div class='respDivL'>Match<br>(e)</div><div class='respDivR'>No Match<br>(i)</div></div></div>","e","TARGET","1","trustrating_stim/white_mw042.bmp","1","Match","e","1500","trustrating_stim/white_mw042.bmp","green","Share","REAL","1"
"html-keyboard-response","44","210788","0.0-7.0-5.1","63e554b7631c8ec3ce069e32","bdp_wmem","Mon Mar 13 2023 21:45:58 GMT-0700 (Pacific Daylight Time)","659086","Match,No Match","","null","","","","","","<div class='trialBorder'><div class='vertical-center'><img src='img/correct.jpg'></div><div class='respDiv'><div class='respDivL'><font style='color:orange'>Match<br>(e)</font></div><div class='respDivR'>No Match<br>(i)</div></div></div>","null","FEEDBACK","","","","","","","","","","",""
"html-keyboard-response","45","211290","0.0-7.0-1.2","63e554b7631c8ec3ce069e32","bdp_wmem","Mon Mar 13 2023 21:45:58 GMT-0700 (Pacific Daylight Time)","659086","Match,No Match","","null","","","","","","<div class='trialBorder'><div class='vertical-center'><img src='img/fixation2_sml.jpg'</img></div></div>","null","FIX","","","","","","","","","","",""
"html-keyboard-response","46","214294","0.0-7.0-2.2","63e554b7631c8ec3ce069e32","bdp_wmem","Mon Mar 13 2023 21:45:58 GMT-0700 (Pacific Daylight Time)","659086","Match,No Match","","null","","","","","","<div class='trialBorder'><div class='vertical-center'><img style='vertical-align:center; align:center' src='img/fixation2_sml.jpg'></div><div class='arrayDiv2'><div class='tl'><img class='introPic' src='trustrating_stim/white_mw085.bmp'><br><font color='green'><strong>Share</strong></font></div><div class='tr'><img class='introPic' src='trustrating_stim/white_mw042.bmp'><br><font color='red'><strong>Keep</strong></font></div></div></div>","null","ARRAY","2","trustrating_stim/white_mw085.bmp,trustrating_stim/white_mw042.bmp","1,0","noMatchFace","i","3000","","","","",""
"html-keyboard-response","47","218297","0.0-7.0-3.2","63e554b7631c8ec3ce069e32","bdp_wmem","Mon Mar 13 2023 21:45:58 GMT-0700 (Pacific Daylight Time)","659086","Match,No Match","","null","","","","","","<div class='trialBorder'><div class='vertical-center'><img src='img/fixation2_sml.jpg'</img></div></div>","null","DELAY","","","","","","","","","","",""
"html-keyboard-response","48","220118","0.0-7.0-4.2","63e554b7631c8ec3ce069e32","bdp_wmem","Mon Mar 13 2023 21:45:58 GMT-0700 (Pacific Daylight Time)","659086","Match,No Match","","1819","","","","","","<div class='trialBorder'><div class='targDiv'><div class='tc'><img class='introPic' src='trustrating_stim/white_mw003.bmp'><br><font color='red'><strong>Keep</strong></font></div></div><div class='respDiv'><div class='respDivL'>Match<br>(e)</div><div class='respDivR'>No Match<br>(i)</div></div></div>","i","TARGET","2","trustrating_stim/white_mw085.bmp,trustrating_stim/white_mw042.bmp","1,0","noMatchFace","i","3000","trustrating_stim/white_mw003.bmp","red","Keep","REAL","1"
"html-keyboard-response","49","220621","0.0-7.0-5.2","63e554b7631c8ec3ce069e32","bdp_wmem","Mon Mar 13 2023 21:45:58 GMT-0700 (Pacific Daylight Time)","659086","Match,No Match","","null","","","","","","<div class='trialBorder'><div class='vertical-center'><img src='img/correct.jpg'></div><div class='respDiv'><div class='respDivL'>Match<br>(e)</div><div class='respDivR'><font style='color:orange'>No Match<br>(i)</font></div></div></div>","null","FEEDBACK","","","","","","","","","","",""
"html-keyboard-response","50","221124","0.0-7.0-1.3","63e554b7631c8ec3ce069e32","bdp_wmem","Mon Mar 13 2023 21:45:58 GMT-0700 (Pacific Daylight Time)","659086","Match,No Match","","null","","","","","","<div class='trialBorder'><div class='vertical-center'><img src='img/fixation2_sml.jpg'</img></div></div>","null","FIX","","","","","","","","","","",""
"html-keyboard-response","51","225627","0.0-7.0-2.3","63e554b7631c8ec3ce069e32","bdp_wmem","Mon Mar 13 2023 21:45:58 GMT-0700 (Pacific Daylight Time)","659086","Match,No Match","","null","","","","","","<div class='trialBorder'><div class='vertical-center'><img style='vertical-align:center; align:center' src='img/fixation2_sml.jpg'></div><div class='arrayDiv3'><div class='tl'><img class='introPic' src='trustrating_stim/white_mw085.bmp'><br><font color='green'><strong>Share</strong></font></div><div class='tc'><img class='introPic' src='trustrating_stim/white_mw013.bmp'><br><font color='red'><strong>Keep</strong></font></div><div class='tr'><img class='introPic' src='trustrating_stim/white_mw091.bmp'><br><font color='red'><strong>Keep</strong></font></div></div></div>","null","ARRAY","3","trustrating_stim/white_mw085.bmp,trustrating_stim/white_mw013.bmp,trustrating_stim/white_mw091.bmp","1,0,0","noMatchOutcome","i","4500","","","","",""
"html-keyboard-response","52","229631","0.0-7.0-3.3","63e554b7631c8ec3ce069e32","bdp_wmem","Mon Mar 13 2023 21:45:58 GMT-0700 (Pacific Daylight Time)","659086","Match,No Match","","null","","","","","","<div class='trialBorder'><div class='vertical-center'><img src='img/fixation2_sml.jpg'</img></div></div>","null","DELAY","","","","","","","","","","",""
"html-keyboard-response","53","232205","0.0-7.0-4.3","63e554b7631c8ec3ce069e32","bdp_wmem","Mon Mar 13 2023 21:45:58 GMT-0700 (Pacific Daylight Time)","659086","Match,No Match","","2571","","","","","","<div class='trialBorder'><div class='targDiv'><div class='tc'><img class='introPic' src='trustrating_stim/white_mw091.bmp'><br><font color='green'><strong>Share</strong></font></div></div><div class='respDiv'><div class='respDivL'>Match<br>(e)</div><div class='respDivR'>No Match<br>(i)</div></div></div>","e","TARGET","3","trustrating_stim/white_mw085.bmp,trustrating_stim/white_mw013.bmp,trustrating_stim/white_mw091.bmp","1,0,0","noMatchOutcome","i","4500","trustrating_stim/white_mw091.bmp","green","Share","REAL","0"
"html-keyboard-response","54","232706","0.0-7.0-5.3","63e554b7631c8ec3ce069e32","bdp_wmem","Mon Mar 13 2023 21:45:58 GMT-0700 (Pacific Daylight Time)","659086","Match,No Match","","null","","","","","","<div class='trialBorder'><div class='vertical-center'><img src='img/error.jpg'></div><div class='respDiv'><div class='respDivL'><font style='color:orange'>Match<br>(e)</font></div><div class='respDivR'>No Match<br>(i)</div></div></div>","null","FEEDBACK","","","","","","","","","","",""
"html-keyboard-response","55","233209","0.0-7.0-1.4","63e554b7631c8ec3ce069e32","bdp_wmem","Mon Mar 13 2023 21:45:58 GMT-0700 (Pacific Daylight Time)","659086","Match,No Match","","null","","","","","","<div class='trialBorder'><div class='vertical-center'><img src='img/fixation2_sml.jpg'</img></div></div>","null","FIX","","","","","","","","","","",""
"html-keyboard-response","56","236215","0.0-7.0-2.4","63e554b7631c8ec3ce069e32","bdp_wmem","Mon Mar 13 2023 21:45:58 GMT-0700 (Pacific Daylight Time)","659086","Match,No Match","","null","","","","","","<div class='trialBorder'><div class='vertical-center'><img style='vertical-align:center; align:center' src='img/fixation2_sml.jpg'></div><div class='arrayDiv2'><div class='tl'><img class='introPic' src='trustrating_stim/white_mw070.bmp'><br><font color='green'><strong>Share</strong></font></div><div class='tr'><img class='introPic' src='trustrating_stim/white_mw038.bmp'><br><font color='red'><strong>Keep</strong></font></div></div></div>","null","ARRAY","2","trustrating_stim/white_mw070.bmp,trustrating_stim/white_mw038.bmp","1,0","Match","e","3000","","","","",""
"html-keyboard-response","57","240216","0.0-7.0-3.4","63e554b7631c8ec3ce069e32","bdp_wmem","Mon Mar 13 2023 21:45:58 GMT-0700 (Pacific Daylight Time)","659086","Match,No Match","","null","","","","","","<div class='trialBorder'><div class='vertical-center'><img src='img/fixation2_sml.jpg'</img></div></div>","null","DELAY","","","","","","","","","","",""
"html-keyboard-response","58","241669","0.0-7.0-4.4","63e554b7631c8ec3ce069e32","bdp_wmem","Mon Mar 13 2023 21:45:58 GMT-0700 (Pacific Daylight Time)","659086","Match,No Match","","1450","","","","","","<div class='trialBorder'><div class='targDiv'><div class='tc'><img class='introPic' src='trustrating_stim/white_mw070.bmp'><br><font color='green'><strong>Share</strong></font></div></div><div class='respDiv'><div class='respDivL'>Match<br>(e)</div><div class='respDivR'>No Match<br>(i)</div></div></div>","e","TARGET","2","trustrating_stim/white_mw070.bmp,trustrating_stim/white_mw038.bmp","1,0","Match","e","3000","trustrating_stim/white_mw070.bmp","green","Share","REAL","1"
"html-keyboard-response","59","242172","0.0-7.0-5.4","63e554b7631c8ec3ce069e32","bdp_wmem","Mon Mar 13 2023 21:45:58 GMT-0700 (Pacific Daylight Time)","659086","Match,No Match","","null","","","","","","<div class='trialBorder'><div class='vertical-center'><img src='img/correct.jpg'></div><div class='respDiv'><div class='respDivL'><font style='color:orange'>Match<br>(e)</font></div><div class='respDivR'>No Match<br>(i)</div></div></div>","null","FEEDBACK","","","","","","","","","","",""
"html-keyboard-response","60","242675","0.0-7.0-1.5","63e554b7631c8ec3ce069e32","bdp_wmem","Mon Mar 13 2023 21:45:58 GMT-0700 (Pacific Daylight Time)","659086","Match,No Match","","null","","","","","","<div class='trialBorder'><div class='vertical-center'><img src='img/fixation2_sml.jpg'</img></div></div>","null","FIX","","","","","","","","","","",""
"html-keyboard-response","61","244177","0.0-7.0-2.5","63e554b7631c8ec3ce069e32","bdp_wmem","Mon Mar 13 2023 21:45:58 GMT-0700 (Pacific Daylight Time)","659086","Match,No Match","","null","","","","","","<div class='trialBorder'><div class='vertical-center'><img style='vertical-align:center; align:center' src='img/fixation2_sml.jpg'></div><div class='arrayDiv1'><div class='tc'><img class='introPic' src='trustrating_stim/white_mw091.bmp'><br><font color='red'><strong>Keep</strong></font></div></div></div>","null","ARRAY","1","trustrating_stim/white_mw091.bmp","0","Match","e","1500","","","","",""
"html-keyboard-response","62","248180","0.0-7.0-3.5","63e554b7631c8ec3ce069e32","bdp_wmem","Mon Mar 13 2023 21:45:58 GMT-0700 (Pacific Daylight Time)","659086","Match,No Match","","null","","","","","","<div class='trialBorder'><div class='vertical-center'><img src='img/fixation2_sml.jpg'</img></div></div>","null","DELAY","","","","","","","","","","",""
"html-keyboard-response","63","249918","0.0-7.0-4.5","63e554b7631c8ec3ce069e32","bdp_wmem","Mon Mar 13 2023 21:45:58 GMT-0700 (Pacific Daylight Time)","659086","Match,No Match","","1735","","","","","","<div class='trialBorder'><div class='targDiv'><div class='tc'><img class='introPic' src='trustrating_stim/white_mw091.bmp'><br><font color='red'><strong>Keep</strong></font></div></div><div class='respDiv'><div class='respDivL'>Match<br>(e)</div><div class='respDivR'>No Match<br>(i)</div></div></div>","e","TARGET","1","trustrating_stim/white_mw091.bmp","0","Match","e","1500","trustrating_stim/white_mw091.bmp","red","Keep","REAL","1"
"html-keyboard-response","64","250422","0.0-7.0-5.5","63e554b7631c8ec3ce069e32","bdp_wmem","Mon Mar 13 2023 21:45:58 GMT-0700 (Pacific Daylight Time)","659086","Match,No Match","","null","","","","","","<div class='trialBorder'><div class='vertical-center'><img src='img/correct.jpg'></div><div class='respDiv'><div class='respDivL'><font style='color:orange'>Match<br>(e)</font></div><div class='respDivR'>No Match<br>(i)</div></div></div>","null","FEEDBACK","","","","","","","","","","",""
"html-keyboard-response","65","250924","0.0-7.0-1.6","63e554b7631c8ec3ce069e32","bdp_wmem","Mon Mar 13 2023 21:45:58 GMT-0700 (Pacific Daylight Time)","659086","Match,No Match","","null","","","","","","<div class='trialBorder'><div class='vertical-center'><img src='img/fixation2_sml.jpg'</img></div></div>","null","FIX","","","","","","","","","","",""
"html-keyboard-response","66","252425","0.0-7.0-2.6","63e554b7631c8ec3ce069e32","bdp_wmem","Mon Mar 13 2023 21:45:58 GMT-0700 (Pacific Daylight Time)","659086","Match,No Match","","null","","","","","","<div class='trialBorder'><div class='vertical-center'><img style='vertical-align:center; align:center' src='img/fixation2_sml.jpg'></div><div class='arrayDiv1'><div class='tc'><img class='introPic' src='trustrating_stim/white_mw085.bmp'><br><font color='green'><strong>Share</strong></font></div></div></div>","null","ARRAY","1","trustrating_stim/white_mw085.bmp","1","Match","e","1500","","","","",""
"html-keyboard-response","67","256428","0.0-7.0-3.6","63e554b7631c8ec3ce069e32","bdp_wmem","Mon Mar 13 2023 21:45:58 GMT-0700 (Pacific Daylight Time)","659086","Match,No Match","","null","","","","","","<div class='trialBorder'><div class='vertical-center'><img src='img/fixation2_sml.jpg'</img></div></div>","null","DELAY","","","","","","","","","","",""
"html-keyboard-response","68","257325","0.0-7.0-4.6","63e554b7631c8ec3ce069e32","bdp_wmem","Mon Mar 13 2023 21:45:58 GMT-0700 (Pacific Daylight Time)","659086","Match,No Match","","894","","","","","","<div class='trialBorder'><div class='targDiv'><div class='tc'><img class='introPic' src='trustrating_stim/white_mw085.bmp'><br><font color='green'><strong>Share</strong></font></div></div><div class='respDiv'><div class='respDivL'>Match<br>(e)</div><div class='respDivR'>No Match<br>(i)</div></div></div>","e","TARGET","1","trustrating_stim/white_mw085.bmp","1","Match","e","1500","trustrating_stim/white_mw085.bmp","green","Share","REAL","1"
"html-keyboard-response","69","257827","0.0-7.0-5.6","63e554b7631c8ec3ce069e32","bdp_wmem","Mon Mar 13 2023 21:45:58 GMT-0700 (Pacific Daylight Time)","659086","Match,No Match","","null","","","","","","<div class='trialBorder'><div class='vertical-center'><img src='img/correct.jpg'></div><div class='respDiv'><div class='respDivL'><font style='color:orange'>Match<br>(e)</font></div><div class='respDivR'>No Match<br>(i)</div></div></div>","null","FEEDBACK","","","","","","","","","","",""
"html-keyboard-response","70","258330","0.0-7.0-1.7","63e554b7631c8ec3ce069e32","bdp_wmem","Mon Mar 13 2023 21:45:58 GMT-0700 (Pacific Daylight Time)","659086","Match,No Match","","null","","","","","","<div class='trialBorder'><div class='vertical-center'><img src='img/fixation2_sml.jpg'</img></div></div>","null","FIX","","","","","","","","","","",""
"html-keyboard-response","71","262832","0.0-7.0-2.7","63e554b7631c8ec3ce069e32","bdp_wmem","Mon Mar 13 2023 21:45:58 GMT-0700 (Pacific Daylight Time)","659086","Match,No Match","","null","","","","","","<div class='trialBorder'><div class='vertical-center'><img style='vertical-align:center; align:center' src='img/fixation2_sml.jpg'></div><div class='arrayDiv3'><div class='tl'><img class='introPic' src='trustrating_stim/white_mw040.bmp'><br><font color='green'><strong>Share</strong></font></div><div class='tc'><img class='introPic' src='trustrating_stim/white_mw070.bmp'><br><font color='green'><strong>Share</strong></font></div><div class='tr'><img class='introPic' src='trustrating_stim/white_mw078.bmp'><br><font color='red'><strong>Keep</strong></font></div></div></div>","null","ARRAY","3","trustrating_stim/white_mw040.bmp,trustrating_stim/white_mw070.bmp,trustrating_stim/white_mw078.bmp","1,1,0","noMatchFace","i","4500","","","","",""
"html-keyboard-response","72","266834","0.0-7.0-3.7","63e554b7631c8ec3ce069e32","bdp_wmem","Mon Mar 13 2023 21:45:58 GMT-0700 (Pacific Daylight Time)","659086","Match,No Match","","null","","","","","","<div class='trialBorder'><div class='vertical-center'><img src='img/fixation2_sml.jpg'</img></div></div>","null","DELAY","","","","","","","","","","",""
"html-keyboard-response","73","268701","0.0-7.0-4.7","63e554b7631c8ec3ce069e32","bdp_wmem","Mon Mar 13 2023 21:45:58 GMT-0700 (Pacific Daylight Time)","659086","Match,No Match","","1864","","","","","","<div class='trialBorder'><div class='targDiv'><div class='tc'><img class='introPic' src='trustrating_stim/white_mw013.bmp'><br><font color='red'><strong>Keep</strong></font></div></div><div class='respDiv'><div class='respDivL'>Match<br>(e)</div><div class='respDivR'>No Match<br>(i)</div></div></div>","i","TARGET","3","trustrating_stim/white_mw040.bmp,trustrating_stim/white_mw070.bmp,trustrating_stim/white_mw078.bmp","1,1,0","noMatchFace","i","4500","trustrating_stim/white_mw013.bmp","red","Keep","REAL","1"
"html-keyboard-response","74","269204","0.0-7.0-5.7","63e554b7631c8ec3ce069e32","bdp_wmem","Mon Mar 13 2023 21:45:58 GMT-0700 (Pacific Daylight Time)","659086","Match,No Match","","null","","","","","","<div class='trialBorder'><div class='vertical-center'><img src='img/correct.jpg'></div><div class='respDiv'><div class='respDivL'>Match<br>(e)</div><div class='respDivR'><font style='color:orange'>No Match<br>(i)</font></div></div></div>","null","FEEDBACK","","","","","","","","","","",""
"html-keyboard-response","75","269707","0.0-7.0-1.8","63e554b7631c8ec3ce069e32","bdp_wmem","Mon Mar 13 2023 21:45:58 GMT-0700 (Pacific Daylight Time)","659086","Match,No Match","","null","","","","","","<div class='trialBorder'><div class='vertical-center'><img src='img/fixation2_sml.jpg'</img></div></div>","null","FIX","","","","","","","","","","",""
"html-keyboard-response","76","274211","0.0-7.0-2.8","63e554b7631c8ec3ce069e32","bdp_wmem","Mon Mar 13 2023 21:45:58 GMT-0700 (Pacific Daylight Time)","659086","Match,No Match","","null","","","","","","<div class='trialBorder'><div class='vertical-center'><img style='vertical-align:center; align:center' src='img/fixation2_sml.jpg'></div><div class='arrayDiv3'><div class='tl'><img class='introPic' src='trustrating_stim/white_mw042.bmp'><br><font color='red'><strong>Keep</strong></font></div><div class='tc'><img class='introPic' src='trustrating_stim/white_mw040.bmp'><br><font color='green'><strong>Share</strong></font></div><div class='tr'><img class='introPic' src='trustrating_stim/white_mw078.bmp'><br><font color='green'><strong>Share</strong></font></div></div></div>","null","ARRAY","3","trustrating_stim/white_mw042.bmp,trustrating_stim/white_mw040.bmp,trustrating_stim/white_mw078.bmp","0,1,1","Match","e","4500","","","","",""
"html-keyboard-response","77","278214","0.0-7.0-3.8","63e554b7631c8ec3ce069e32","bdp_wmem","Mon Mar 13 2023 21:45:58 GMT-0700 (Pacific Daylight Time)","659086","Match,No Match","","null","","","","","","<div class='trialBorder'><div class='vertical-center'><img src='img/fixation2_sml.jpg'</img></div></div>","null","DELAY","","","","","","","","","","",""
"html-keyboard-response","78","280206","0.0-7.0-4.8","63e554b7631c8ec3ce069e32","bdp_wmem","Mon Mar 13 2023 21:45:58 GMT-0700 (Pacific Daylight Time)","659086","Match,No Match","","1988","","","","","","<div class='trialBorder'><div class='targDiv'><div class='tc'><img class='introPic' src='trustrating_stim/white_mw042.bmp'><br><font color='red'><strong>Keep</strong></font></div></div><div class='respDiv'><div class='respDivL'>Match<br>(e)</div><div class='respDivR'>No Match<br>(i)</div></div></div>","e","TARGET","3","trustrating_stim/white_mw042.bmp,trustrating_stim/white_mw040.bmp,trustrating_stim/white_mw078.bmp","0,1,1","Match","e","4500","trustrating_stim/white_mw042.bmp","red","Keep","REAL","1"
"html-keyboard-response","79","280709","0.0-7.0-5.8","63e554b7631c8ec3ce069e32","bdp_wmem","Mon Mar 13 2023 21:45:58 GMT-0700 (Pacific Daylight Time)","659086","Match,No Match","","null","","","","","","<div class='trialBorder'><div class='vertical-center'><img src='img/correct.jpg'></div><div class='respDiv'><div class='respDivL'><font style='color:orange'>Match<br>(e)</font></div><div class='respDivR'>No Match<br>(i)</div></div></div>","null","FEEDBACK","","","","","","","","","","",""
"html-keyboard-response","80","281212","0.0-7.0-1.9","63e554b7631c8ec3ce069e32","bdp_wmem","Mon Mar 13 2023 21:45:58 GMT-0700 (Pacific Daylight Time)","659086","Match,No Match","","null","","","","","","<div class='trialBorder'><div class='vertical-center'><img src='img/fixation2_sml.jpg'</img></div></div>","null","FIX","","","","","","","","","","",""
"html-keyboard-response","81","284216","0.0-7.0-2.9","63e554b7631c8ec3ce069e32","bdp_wmem","Mon Mar 13 2023 21:45:58 GMT-0700 (Pacific Daylight Time)","659086","Match,No Match","","null","","","","","","<div class='trialBorder'><div class='vertical-center'><img style='vertical-align:center; align:center' src='img/fixation2_sml.jpg'></div><div class='arrayDiv2'><div class='tl'><img class='introPic' src='trustrating_stim/white_mw091.bmp'><br><font color='red'><strong>Keep</strong></font></div><div class='tr'><img class='introPic' src='trustrating_stim/white_mw003.bmp'><br><font color='green'><strong>Share</strong></font></div></div></div>","null","ARRAY","2","trustrating_stim/white_mw091.bmp,trustrating_stim/white_mw003.bmp","0,1","Match","e","3000","","","","",""
"html-keyboard-response","82","288219","0.0-7.0-3.9","63e554b7631c8ec3ce069e32","bdp_wmem","Mon Mar 13 2023 21:45:58 GMT-0700 (Pacific Daylight Time)","659086","Match,No Match","","null","","","","","","<div class='trialBorder'><div class='vertical-center'><img src='img/fixation2_sml.jpg'</img></div></div>","null","DELAY","","","","","","","","","","",""
"html-keyboard-response","83","289301","0.0-7.0-4.9","63e554b7631c8ec3ce069e32","bdp_wmem","Mon Mar 13 2023 21:45:58 GMT-0700 (Pacific Daylight Time)","659086","Match,No Match","","1079","","","","","","<div class='trialBorder'><div class='targDiv'><div class='tc'><img class='introPic' src='trustrating_stim/white_mw091.bmp'><br><font color='red'><strong>Keep</strong></font></div></div><div class='respDiv'><div class='respDivL'>Match<br>(e)</div><div class='respDivR'>No Match<br>(i)</div></div></div>","e","TARGET","2","trustrating_stim/white_mw091.bmp,trustrating_stim/white_mw003.bmp","0,1","Match","e","3000","trustrating_stim/white_mw091.bmp","red","Keep","REAL","1"
"html-keyboard-response","84","289802","0.0-7.0-5.9","63e554b7631c8ec3ce069e32","bdp_wmem","Mon Mar 13 2023 21:45:58 GMT-0700 (Pacific Daylight Time)","659086","Match,No Match","","null","","","","","","<div class='trialBorder'><div class='vertical-center'><img src='img/correct.jpg'></div><div class='respDiv'><div class='respDivL'><font style='color:orange'>Match<br>(e)</font></div><div class='respDivR'>No Match<br>(i)</div></div></div>","null","FEEDBACK","","","","","","","","","","",""
"html-keyboard-response","85","290306","0.0-7.0-1.10","63e554b7631c8ec3ce069e32","bdp_wmem","Mon Mar 13 2023 21:45:58 GMT-0700 (Pacific Daylight Time)","659086","Match,No Match","","null","","","","","","<div class='trialBorder'><div class='vertical-center'><img src='img/fixation2_sml.jpg'</img></div></div>","null","FIX","","","","","","","","","","",""
"html-keyboard-response","86","293310","0.0-7.0-2.10","63e554b7631c8ec3ce069e32","bdp_wmem","Mon Mar 13 2023 21:45:58 GMT-0700 (Pacific Daylight Time)","659086","Match,No Match","","null","","","","","","<div class='trialBorder'><div class='vertical-center'><img style='vertical-align:center; align:center' src='img/fixation2_sml.jpg'></div><div class='arrayDiv2'><div class='tl'><img class='introPic' src='trustrating_stim/white_mw042.bmp'><br><font color='red'><strong>Keep</strong></font></div><div class='tr'><img class='introPic' src='trustrating_stim/white_mw012.bmp'><br><font color='green'><strong>Share</strong></font></div></div></div>","null","ARRAY","2","trustrating_stim/white_mw042.bmp,trustrating_stim/white_mw012.bmp","0,1","noMatchOutcome","i","3000","","","","",""
"html-keyboard-response","87","297313","0.0-7.0-3.10","63e554b7631c8ec3ce069e32","bdp_wmem","Mon Mar 13 2023 21:45:58 GMT-0700 (Pacific Daylight Time)","659086","Match,No Match","","null","","","","","","<div class='trialBorder'><div class='vertical-center'><img src='img/fixation2_sml.jpg'</img></div></div>","null","DELAY","","","","","","","","","","",""
"html-keyboard-response","88","298926","0.0-7.0-4.10","63e554b7631c8ec3ce069e32","bdp_wmem","Mon Mar 13 2023 21:45:58 GMT-0700 (Pacific Daylight Time)","659086","Match,No Match","","1610","","","","","","<div class='trialBorder'><div class='targDiv'><div class='tc'><img class='introPic' src='trustrating_stim/white_mw042.bmp'><br><font color='green'><strong>Share</strong></font></div></div><div class='respDiv'><div class='respDivL'>Match<br>(e)</div><div class='respDivR'>No Match<br>(i)</div></div></div>","i","TARGET","2","trustrating_stim/white_mw042.bmp,trustrating_stim/white_mw012.bmp","0,1","noMatchOutcome","i","3000","trustrating_stim/white_mw042.bmp","green","Share","REAL","1"
"html-keyboard-response","89","299429","0.0-7.0-5.10","63e554b7631c8ec3ce069e32","bdp_wmem","Mon Mar 13 2023 21:45:58 GMT-0700 (Pacific Daylight Time)","659086","Match,No Match","","null","","","","","","<div class='trialBorder'><div class='vertical-center'><img src='img/correct.jpg'></div><div class='respDiv'><div class='respDivL'>Match<br>(e)</div><div class='respDivR'><font style='color:orange'>No Match<br>(i)</font></div></div></div>","null","FEEDBACK","","","","","","","","","","",""
"html-keyboard-response","90","299932","0.0-7.0-1.11","63e554b7631c8ec3ce069e32","bdp_wmem","Mon Mar 13 2023 21:45:58 GMT-0700 (Pacific Daylight Time)","659086","Match,No Match","","null","","","","","","<div class='trialBorder'><div class='vertical-center'><img src='img/fixation2_sml.jpg'</img></div></div>","null","FIX","","","","","","","","","","",""
"html-keyboard-response","91","301435","0.0-7.0-2.11","63e554b7631c8ec3ce069e32","bdp_wmem","Mon Mar 13 2023 21:45:58 GMT-0700 (Pacific Daylight Time)","659086","Match,No Match","","null","","","","","","<div class='trialBorder'><div class='vertical-center'><img style='vertical-align:center; align:center' src='img/fixation2_sml.jpg'></div><div class='arrayDiv1'><div class='tc'><img class='introPic' src='trustrating_stim/white_mw003.bmp'><br><font color='green'><strong>Share</strong></font></div></div></div>","null","ARRAY","1","trustrating_stim/white_mw003.bmp","1","Match","e","1500","","","","",""
"html-keyboard-response","92","305438","0.0-7.0-3.11","63e554b7631c8ec3ce069e32","bdp_wmem","Mon Mar 13 2023 21:45:58 GMT-0700 (Pacific Daylight Time)","659086","Match,No Match","","null","","","","","","<div class='trialBorder'><div class='vertical-center'><img src='img/fixation2_sml.jpg'</img></div></div>","null","DELAY","","","","","","","","","","",""
"html-keyboard-response","93","306501","0.0-7.0-4.11","63e554b7631c8ec3ce069e32","bdp_wmem","Mon Mar 13 2023 21:45:58 GMT-0700 (Pacific Daylight Time)","659086","Match,No Match","","1060","","","","","","<div class='trialBorder'><div class='targDiv'><div class='tc'><img class='introPic' src='trustrating_stim/white_mw003.bmp'><br><font color='green'><strong>Share</strong></font></div></div><div class='respDiv'><div class='respDivL'>Match<br>(e)</div><div class='respDivR'>No Match<br>(i)</div></div></div>","e","TARGET","1","trustrating_stim/white_mw003.bmp","1","Match","e","1500","trustrating_stim/white_mw003.bmp","green","Share","REAL","1"
"html-keyboard-response","94","307004","0.0-7.0-5.11","63e554b7631c8ec3ce069e32","bdp_wmem","Mon Mar 13 2023 21:45:58 GMT-0700 (Pacific Daylight Time)","659086","Match,No Match","","null","","","","","","<div class='trialBorder'><div class='vertical-center'><img src='img/correct.jpg'></div><div class='respDiv'><div class='respDivL'><font style='color:orange'>Match<br>(e)</font></div><div class='respDivR'>No Match<br>(i)</div></div></div>","null","FEEDBACK","","","","","","","","","","",""
"html-keyboard-response","95","307507","0.0-7.0-1.12","63e554b7631c8ec3ce069e32","bdp_wmem","Mon Mar 13 2023 21:45:58 GMT-0700 (Pacific Daylight Time)","659086","Match,No Match","","null","","","","","","<div class='trialBorder'><div class='vertical-center'><img src='img/fixation2_sml.jpg'</img></div></div>","null","FIX","","","","","","","","","","",""
"html-keyboard-response","96","309010","0.0-7.0-2.12","63e554b7631c8ec3ce069e32","bdp_wmem","Mon Mar 13 2023 21:45:58 GMT-0700 (Pacific Daylight Time)","659086","Match,No Match","","null","","","","","","<div class='trialBorder'><div class='vertical-center'><img style='vertical-align:center; align:center' src='img/fixation2_sml.jpg'></div><div class='arrayDiv1'><div class='tc'><img class='introPic' src='trustrating_stim/white_mw038.bmp'><br><font color='green'><strong>Share</strong></font></div></div></div>","null","ARRAY","1","trustrating_stim/white_mw038.bmp","1","Match","e","1500","","","","",""
"html-keyboard-response","97","313012","0.0-7.0-3.12","63e554b7631c8ec3ce069e32","bdp_wmem","Mon Mar 13 2023 21:45:58 GMT-0700 (Pacific Daylight Time)","659086","Match,No Match","","null","","","","","","<div class='trialBorder'><div class='vertical-center'><img src='img/fixation2_sml.jpg'</img></div></div>","null","DELAY","","","","","","","","","","",""
"html-keyboard-response","98","314022","0.0-7.0-4.12","63e554b7631c8ec3ce069e32","bdp_wmem","Mon Mar 13 2023 21:45:58 GMT-0700 (Pacific Daylight Time)","659086","Match,No Match","","1007","","","","","","<div class='trialBorder'><div class='targDiv'><div class='tc'><img class='introPic' src='trustrating_stim/white_mw038.bmp'><br><font color='green'><strong>Share</strong></font></div></div><div class='respDiv'><div class='respDivL'>Match<br>(e)</div><div class='respDivR'>No Match<br>(i)</div></div></div>","e","TARGET","1","trustrating_stim/white_mw038.bmp","1","Match","e","1500","trustrating_stim/white_mw038.bmp","green","Share","REAL","1"
"html-keyboard-response","99","314525","0.0-7.0-5.12","63e554b7631c8ec3ce069e32","bdp_wmem","Mon Mar 13 2023 21:45:58 GMT-0700 (Pacific Daylight Time)","659086","Match,No Match","","null","","","","","","<div class='trialBorder'><div class='vertical-center'><img src='img/correct.jpg'></div><div class='respDiv'><div class='respDivL'><font style='color:orange'>Match<br>(e)</font></div><div class='respDivR'>No Match<br>(i)</div></div></div>","null","FEEDBACK","","","","","","","","","","",""
"html-keyboard-response","100","315027","0.0-7.0-1.13","63e554b7631c8ec3ce069e32","bdp_wmem","Mon Mar 13 2023 21:45:58 GMT-0700 (Pacific Daylight Time)","659086","Match,No Match","","null","","","","","","<div class='trialBorder'><div class='vertical-center'><img src='img/fixation2_sml.jpg'</img></div></div>","null","FIX","","","","","","","","","","",""
"html-keyboard-response","101","319531","0.0-7.0-2.13","63e554b7631c8ec3ce069e32","bdp_wmem","Mon Mar 13 2023 21:45:58 GMT-0700 (Pacific Daylight Time)","659086","Match,No Match","","null","","","","","","<div class='trialBorder'><div class='vertical-center'><img style='vertical-align:center; align:center' src='img/fixation2_sml.jpg'></div><div class='arrayDiv3'><div class='tl'><img class='introPic' src='trustrating_stim/white_mw038.bmp'><br><font color='red'><strong>Keep</strong></font></div><div class='tc'><img class='introPic' src='trustrating_stim/white_mw012.bmp'><br><font color='red'><strong>Keep</strong></font></div><div class='tr'><img class='introPic' src='trustrating_stim/white_mw091.bmp'><br><font color='green'><strong>Share</strong></font></div></div></div>","null","ARRAY","3","trustrating_stim/white_mw038.bmp,trustrating_stim/white_mw012.bmp,trustrating_stim/white_mw091.bmp","0,0,1","Match","e","4500","","","","",""
"html-keyboard-response","102","323534","0.0-7.0-3.13","63e554b7631c8ec3ce069e32","bdp_wmem","Mon Mar 13 2023 21:45:58 GMT-0700 (Pacific Daylight Time)","659086","Match,No Match","","null","","","","","","<div class='trialBorder'><div class='vertical-center'><img src='img/fixation2_sml.jpg'</img></div></div>","null","DELAY","","","","","","","","","","",""
"html-keyboard-response","103","326110","0.0-7.0-4.13","63e554b7631c8ec3ce069e32","bdp_wmem","Mon Mar 13 2023 21:45:58 GMT-0700 (Pacific Daylight Time)","659086","Match,No Match","","2573","","","","","","<div class='trialBorder'><div class='targDiv'><div class='tc'><img class='introPic' src='trustrating_stim/white_mw012.bmp'><br><font color='red'><strong>Keep</strong></font></div></div><div class='respDiv'><div class='respDivL'>Match<br>(e)</div><div class='respDivR'>No Match<br>(i)</div></div></div>","e","TARGET","3","trustrating_stim/white_mw038.bmp,trustrating_stim/white_mw012.bmp,trustrating_stim/white_mw091.bmp","0,0,1","Match","e","4500","trustrating_stim/white_mw012.bmp","red","Keep","REAL","1"
"html-keyboard-response","104","326613","0.0-7.0-5.13","63e554b7631c8ec3ce069e32","bdp_wmem","Mon Mar 13 2023 21:45:58 GMT-0700 (Pacific Daylight Time)","659086","Match,No Match","","null","","","","","","<div class='trialBorder'><div class='vertical-center'><img src='img/correct.jpg'></div><div class='respDiv'><div class='respDivL'><font style='color:orange'>Match<br>(e)</font></div><div class='respDivR'>No Match<br>(i)</div></div></div>","null","FEEDBACK","","","","","","","","","","",""
"html-keyboard-response","105","327115","0.0-7.0-1.14","63e554b7631c8ec3ce069e32","bdp_wmem","Mon Mar 13 2023 21:45:58 GMT-0700 (Pacific Daylight Time)","659086","Match,No Match","","null","","","","","","<div class='trialBorder'><div class='vertical-center'><img src='img/fixation2_sml.jpg'</img></div></div>","null","FIX","","","","","","","","","","",""
"html-keyboard-response","106","330118","0.0-7.0-2.14","63e554b7631c8ec3ce069e32","bdp_wmem","Mon Mar 13 2023 21:45:58 GMT-0700 (Pacific Daylight Time)","659086","Match,No Match","","null","","","","","","<div class='trialBorder'><div class='vertical-center'><img style='vertical-align:center; align:center' src='img/fixation2_sml.jpg'></div><div class='arrayDiv2'><div class='tl'><img class='introPic' src='trustrating_stim/white_mw040.bmp'><br><font color='green'><strong>Share</strong></font></div><div class='tr'><img class='introPic' src='trustrating_stim/white_mw010.bmp'><br><font color='red'><strong>Keep</strong></font></div></div></div>","null","ARRAY","2","trustrating_stim/white_mw040.bmp,trustrating_stim/white_mw010.bmp","1,0","noMatchFace","i","3000","","","","",""
"html-keyboard-response","107","334120","0.0-7.0-3.14","63e554b7631c8ec3ce069e32","bdp_wmem","Mon Mar 13 2023 21:45:58 GMT-0700 (Pacific Daylight Time)","659086","Match,No Match","","null","","","","","","<div class='trialBorder'><div class='vertical-center'><img src='img/fixation2_sml.jpg'</img></div></div>","null","DELAY","","","","","","","","","","",""
"html-keyboard-response","108","335445","0.0-7.0-4.14","63e554b7631c8ec3ce069e32","bdp_wmem","Mon Mar 13 2023 21:45:58 GMT-0700 (Pacific Daylight Time)","659086","Match,No Match","","1322","","","","","","<div class='trialBorder'><div class='targDiv'><div class='tc'><img class='introPic' src='trustrating_stim/white_mw012.bmp'><br><font color='green'><strong>Share</strong></font></div></div><div class='respDiv'><div class='respDivL'>Match<br>(e)</div><div class='respDivR'>No Match<br>(i)</div></div></div>","e","TARGET","2","trustrating_stim/white_mw040.bmp,trustrating_stim/white_mw010.bmp","1,0","noMatchFace","i","3000","trustrating_stim/white_mw012.bmp","green","Share","REAL","0"
"html-keyboard-response","109","335947","0.0-7.0-5.14","63e554b7631c8ec3ce069e32","bdp_wmem","Mon Mar 13 2023 21:45:58 GMT-0700 (Pacific Daylight Time)","659086","Match,No Match","","null","","","","","","<div class='trialBorder'><div class='vertical-center'><img src='img/error.jpg'></div><div class='respDiv'><div class='respDivL'><font style='color:orange'>Match<br>(e)</font></div><div class='respDivR'>No Match<br>(i)</div></div></div>","null","FEEDBACK","","","","","","","","","","",""
"html-keyboard-response","110","336449","0.0-7.0-1.15","63e554b7631c8ec3ce069e32","bdp_wmem","Mon Mar 13 2023 21:45:58 GMT-0700 (Pacific Daylight Time)","659086","Match,No Match","","null","","","","","","<div class='trialBorder'><div class='vertical-center'><img src='img/fixation2_sml.jpg'</img></div></div>","null","FIX","","","","","","","","","","",""
"html-keyboard-response","111","340953","0.0-7.0-2.15","63e554b7631c8ec3ce069e32","bdp_wmem","Mon Mar 13 2023 21:45:58 GMT-0700 (Pacific Daylight Time)","659086","Match,No Match","","null","","","","","","<div class='trialBorder'><div class='vertical-center'><img style='vertical-align:center; align:center' src='img/fixation2_sml.jpg'></div><div class='arrayDiv3'><div class='tl'><img class='introPic' src='trustrating_stim/white_mw040.bmp'><br><font color='green'><strong>Share</strong></font></div><div class='tc'><img class='introPic' src='trustrating_stim/white_mw070.bmp'><br><font color='red'><strong>Keep</strong></font></div><div class='tr'><img class='introPic' src='trustrating_stim/white_mw038.bmp'><br><font color='red'><strong>Keep</strong></font></div></div></div>","null","ARRAY","3","trustrating_stim/white_mw040.bmp,trustrating_stim/white_mw070.bmp,trustrating_stim/white_mw038.bmp","1,0,0","Match","e","4500","","","","",""
"html-keyboard-response","112","344955","0.0-7.0-3.15","63e554b7631c8ec3ce069e32","bdp_wmem","Mon Mar 13 2023 21:45:58 GMT-0700 (Pacific Daylight Time)","659086","Match,No Match","","null","","","","","","<div class='trialBorder'><div class='vertical-center'><img src='img/fixation2_sml.jpg'</img></div></div>","null","DELAY","","","","","","","","","","",""
"html-keyboard-response","113","346661","0.0-7.0-4.15","63e554b7631c8ec3ce069e32","bdp_wmem","Mon Mar 13 2023 21:45:58 GMT-0700 (Pacific Daylight Time)","659086","Match,No Match","","1704","","","","","","<div class='trialBorder'><div class='targDiv'><div class='tc'><img class='introPic' src='trustrating_stim/white_mw070.bmp'><br><font color='red'><strong>Keep</strong></font></div></div><div class='respDiv'><div class='respDivL'>Match<br>(e)</div><div class='respDivR'>No Match<br>(i)</div></div></div>","e","TARGET","3","trustrating_stim/white_mw040.bmp,trustrating_stim/white_mw070.bmp,trustrating_stim/white_mw038.bmp","1,0,0","Match","e","4500","trustrating_stim/white_mw070.bmp","red","Keep","REAL","1"
"html-keyboard-response","114","347164","0.0-7.0-5.15","63e554b7631c8ec3ce069e32","bdp_wmem","Mon Mar 13 2023 21:45:58 GMT-0700 (Pacific Daylight Time)","659086","Match,No Match","","null","","","","","","<div class='trialBorder'><div class='vertical-center'><img src='img/correct.jpg'></div><div class='respDiv'><div class='respDivL'><font style='color:orange'>Match<br>(e)</font></div><div class='respDivR'>No Match<br>(i)</div></div></div>","null","FEEDBACK","","","","","","","","","","",""
"html-keyboard-response","115","347667","0.0-7.0-1.16","63e554b7631c8ec3ce069e32","bdp_wmem","Mon Mar 13 2023 21:45:58 GMT-0700 (Pacific Daylight Time)","659086","Match,No Match","","null","","","","","","<div class='trialBorder'><div class='vertical-center'><img src='img/fixation2_sml.jpg'</img></div></div>","null","FIX","","","","","","","","","","",""
"html-keyboard-response","116","349170","0.0-7.0-2.16","63e554b7631c8ec3ce069e32","bdp_wmem","Mon Mar 13 2023 21:45:58 GMT-0700 (Pacific Daylight Time)","659086","Match,No Match","","null","","","","","","<div class='trialBorder'><div class='vertical-center'><img style='vertical-align:center; align:center' src='img/fixation2_sml.jpg'></div><div class='arrayDiv1'><div class='tc'><img class='introPic' src='trustrating_stim/white_mw085.bmp'><br><font color='green'><strong>Share</strong></font></div></div></div>","null","ARRAY","1","trustrating_stim/white_mw085.bmp","1","Match","e","1500","","","","",""
"html-keyboard-response","117","353174","0.0-7.0-3.16","63e554b7631c8ec3ce069e32","bdp_wmem","Mon Mar 13 2023 21:45:58 GMT-0700 (Pacific Daylight Time)","659086","Match,No Match","","null","","","","","","<div class='trialBorder'><div class='vertical-center'><img src='img/fixation2_sml.jpg'</img></div></div>","null","DELAY","","","","","","","","","","",""
"html-keyboard-response","118","354397","0.0-7.0-4.16","63e554b7631c8ec3ce069e32","bdp_wmem","Mon Mar 13 2023 21:45:58 GMT-0700 (Pacific Daylight Time)","659086","Match,No Match","","1220","","","","","","<div class='trialBorder'><div class='targDiv'><div class='tc'><img class='introPic' src='trustrating_stim/white_mw085.bmp'><br><font color='green'><strong>Share</strong></font></div></div><div class='respDiv'><div class='respDivL'>Match<br>(e)</div><div class='respDivR'>No Match<br>(i)</div></div></div>","e","TARGET","1","trustrating_stim/white_mw085.bmp","1","Match","e","1500","trustrating_stim/white_mw085.bmp","green","Share","REAL","1"
"html-keyboard-response","119","354899","0.0-7.0-5.16","63e554b7631c8ec3ce069e32","bdp_wmem","Mon Mar 13 2023 21:45:58 GMT-0700 (Pacific Daylight Time)","659086","Match,No Match","","null","","","","","","<div class='trialBorder'><div class='vertical-center'><img src='img/correct.jpg'></div><div class='respDiv'><div class='respDivL'><font style='color:orange'>Match<br>(e)</font></div><div class='respDivR'>No Match<br>(i)</div></div></div>","null","FEEDBACK","","","","","","","","","","",""
"html-keyboard-response","120","355400","0.0-7.0-1.17","63e554b7631c8ec3ce069e32","bdp_wmem","Mon Mar 13 2023 21:45:58 GMT-0700 (Pacific Daylight Time)","659086","Match,No Match","","null","","","","","","<div class='trialBorder'><div class='vertical-center'><img src='img/fixation2_sml.jpg'</img></div></div>","null","FIX","","","","","","","","","","",""
"html-keyboard-response","121","356905","0.0-7.0-2.17","63e554b7631c8ec3ce069e32","bdp_wmem","Mon Mar 13 2023 21:45:58 GMT-0700 (Pacific Daylight Time)","659086","Match,No Match","","null","","","","","","<div class='trialBorder'><div class='vertical-center'><img style='vertical-align:center; align:center' src='img/fixation2_sml.jpg'></div><div class='arrayDiv1'><div class='tc'><img class='introPic' src='trustrating_stim/white_mw038.bmp'><br><font color='green'><strong>Share</strong></font></div></div></div>","null","ARRAY","1","trustrating_stim/white_mw038.bmp","1","noMatchFace","i","1500","","","","",""
"html-keyboard-response","122","360908","0.0-7.0-3.17","63e554b7631c8ec3ce069e32","bdp_wmem","Mon Mar 13 2023 21:45:58 GMT-0700 (Pacific Daylight Time)","659086","Match,No Match","","null","","","","","","<div class='trialBorder'><div class='vertical-center'><img src='img/fixation2_sml.jpg'</img></div></div>","null","DELAY","","","","","","","","","","",""
"html-keyboard-response","123","361846","0.0-7.0-4.17","63e554b7631c8ec3ce069e32","bdp_wmem","Mon Mar 13 2023 21:45:58 GMT-0700 (Pacific Daylight Time)","659086","Match,No Match","","935","","","","","","<div class='trialBorder'><div class='targDiv'><div class='tc'><img class='introPic' src='trustrating_stim/white_mw042.bmp'><br><font color='green'><strong>Share</strong></font></div></div><div class='respDiv'><div class='respDivL'>Match<br>(e)</div><div class='respDivR'>No Match<br>(i)</div></div></div>","i","TARGET","1","trustrating_stim/white_mw038.bmp","1","noMatchFace","i","1500","trustrating_stim/white_mw042.bmp","green","Share","REAL","1"
"html-keyboard-response","124","362348","0.0-7.0-5.17","63e554b7631c8ec3ce069e32","bdp_wmem","Mon Mar 13 2023 21:45:58 GMT-0700 (Pacific Daylight Time)","659086","Match,No Match","","null","","","","","","<div class='trialBorder'><div class='vertical-center'><img src='img/correct.jpg'></div><div class='respDiv'><div class='respDivL'>Match<br>(e)</div><div class='respDivR'><font style='color:orange'>No Match<br>(i)</font></div></div></div>","null","FEEDBACK","","","","","","","","","","",""
"html-keyboard-response","125","362851","0.0-7.0-1.18","63e554b7631c8ec3ce069e32","bdp_wmem","Mon Mar 13 2023 21:45:58 GMT-0700 (Pacific Daylight Time)","659086","Match,No Match","","null","","","","","","<div class='trialBorder'><div class='vertical-center'><img src='img/fixation2_sml.jpg'</img></div></div>","null","FIX","","","","","","","","","","",""
"html-keyboard-response","126","365854","0.0-7.0-2.18","63e554b7631c8ec3ce069e32","bdp_wmem","Mon Mar 13 2023 21:45:58 GMT-0700 (Pacific Daylight Time)","659086","Match,No Match","","null","","","","","","<div class='trialBorder'><div class='vertical-center'><img style='vertical-align:center; align:center' src='img/fixation2_sml.jpg'></div><div class='arrayDiv2'><div class='tl'><img class='introPic' src='trustrating_stim/white_mw070.bmp'><br><font color='green'><strong>Share</strong></font></div><div class='tr'><img class='introPic' src='trustrating_stim/white_mw013.bmp'><br><font color='red'><strong>Keep</strong></font></div></div></div>","null","ARRAY","2","trustrating_stim/white_mw070.bmp,trustrating_stim/white_mw013.bmp","1,0","noMatchFace","i","3000","","","","",""
"html-keyboard-response","127","369856","0.0-7.0-3.18","63e554b7631c8ec3ce069e32","bdp_wmem","Mon Mar 13 2023 21:45:58 GMT-0700 (Pacific Daylight Time)","659086","Match,No Match","","null","","","","","","<div class='trialBorder'><div class='vertical-center'><img src='img/fixation2_sml.jpg'</img></div></div>","null","DELAY","","","","","","","","","","",""
"html-keyboard-response","128","371748","0.0-7.0-4.18","63e554b7631c8ec3ce069e32","bdp_wmem","Mon Mar 13 2023 21:45:58 GMT-0700 (Pacific Daylight Time)","659086","Match,No Match","","1890","","","","","","<div class='trialBorder'><div class='targDiv'><div class='tc'><img class='introPic' src='trustrating_stim/white_mw078.bmp'><br><font color='red'><strong>Keep</strong></font></div></div><div class='respDiv'><div class='respDivL'>Match<br>(e)</div><div class='respDivR'>No Match<br>(i)</div></div></div>","i","TARGET","2","trustrating_stim/white_mw070.bmp,trustrating_stim/white_mw013.bmp","1,0","noMatchFace","i","3000","trustrating_stim/white_mw078.bmp","red","Keep","REAL","1"
"html-keyboard-response","129","372252","0.0-7.0-5.18","63e554b7631c8ec3ce069e32","bdp_wmem","Mon Mar 13 2023 21:45:58 GMT-0700 (Pacific Daylight Time)","659086","Match,No Match","","null","","","","","","<div class='trialBorder'><div class='vertical-center'><img src='img/correct.jpg'></div><div class='respDiv'><div class='respDivL'>Match<br>(e)</div><div class='respDivR'><font style='color:orange'>No Match<br>(i)</font></div></div></div>","null","FEEDBACK","","","","","","","","","","",""
"html-keyboard-response","130","372754","0.0-7.0-1.19","63e554b7631c8ec3ce069e32","bdp_wmem","Mon Mar 13 2023 21:45:58 GMT-0700 (Pacific Daylight Time)","659086","Match,No Match","","null","","","","","","<div class='trialBorder'><div class='vertical-center'><img src='img/fixation2_sml.jpg'</img></div></div>","null","FIX","","","","","","","","","","",""
"html-keyboard-response","131","375757","0.0-7.0-2.19","63e554b7631c8ec3ce069e32","bdp_wmem","Mon Mar 13 2023 21:45:58 GMT-0700 (Pacific Daylight Time)","659086","Match,No Match","","null","","","","","","<div class='trialBorder'><div class='vertical-center'><img style='vertical-align:center; align:center' src='img/fixation2_sml.jpg'></div><div class='arrayDiv2'><div class='tl'><img class='introPic' src='trustrating_stim/white_mw003.bmp'><br><font color='red'><strong>Keep</strong></font></div><div class='tr'><img class='introPic' src='trustrating_stim/white_mw085.bmp'><br><font color='green'><strong>Share</strong></font></div></div></div>","null","ARRAY","2","trustrating_stim/white_mw003.bmp,trustrating_stim/white_mw085.bmp","0,1","noMatchOutcome","i","3000","","","","",""
"html-keyboard-response","132","379758","0.0-7.0-3.19","63e554b7631c8ec3ce069e32","bdp_wmem","Mon Mar 13 2023 21:45:58 GMT-0700 (Pacific Daylight Time)","659086","Match,No Match","","null","","","","","","<div class='trialBorder'><div class='vertical-center'><img src='img/fixation2_sml.jpg'</img></div></div>","null","DELAY","","","","","","","","","","",""
"html-keyboard-response","133","382045","0.0-7.0-4.19","63e554b7631c8ec3ce069e32","bdp_wmem","Mon Mar 13 2023 21:45:58 GMT-0700 (Pacific Daylight Time)","659086","Match,No Match","","2285","","","","","","<div class='trialBorder'><div class='targDiv'><div class='tc'><img class='introPic' src='trustrating_stim/white_mw003.bmp'><br><font color='green'><strong>Share</strong></font></div></div><div class='respDiv'><div class='respDivL'>Match<br>(e)</div><div class='respDivR'>No Match<br>(i)</div></div></div>","i","TARGET","2","trustrating_stim/white_mw003.bmp,trustrating_stim/white_mw085.bmp","0,1","noMatchOutcome","i","3000","trustrating_stim/white_mw003.bmp","green","Share","REAL","1"
"html-keyboard-response","134","382548","0.0-7.0-5.19","63e554b7631c8ec3ce069e32","bdp_wmem","Mon Mar 13 2023 21:45:58 GMT-0700 (Pacific Daylight Time)","659086","Match,No Match","","null","","","","","","<div class='trialBorder'><div class='vertical-center'><img src='img/correct.jpg'></div><div class='respDiv'><div class='respDivL'>Match<br>(e)</div><div class='respDivR'><font style='color:orange'>No Match<br>(i)</font></div></div></div>","null","FEEDBACK","","","","","","","","","","",""
"html-keyboard-response","135","383050","0.0-7.0-1.20","63e554b7631c8ec3ce069e32","bdp_wmem","Mon Mar 13 2023 21:45:58 GMT-0700 (Pacific Daylight Time)","659086","Match,No Match","","null","","","","","","<div class='trialBorder'><div class='vertical-center'><img src='img/fixation2_sml.jpg'</img></div></div>","null","FIX","","","","","","","","","","",""
"html-keyboard-response","136","386053","0.0-7.0-2.20","63e554b7631c8ec3ce069e32","bdp_wmem","Mon Mar 13 2023 21:45:58 GMT-0700 (Pacific Daylight Time)","659086","Match,No Match","","null","","","","","","<div class='trialBorder'><div class='vertical-center'><img style='vertical-align:center; align:center' src='img/fixation2_sml.jpg'></div><div class='arrayDiv2'><div class='tl'><img class='introPic' src='trustrating_stim/white_mw013.bmp'><br><font color='green'><strong>Share</strong></font></div><div class='tr'><img class='introPic' src='trustrating_stim/white_mw092.bmp'><br><font color='red'><strong>Keep</strong></font></div></div></div>","null","ARRAY","2","trustrating_stim/white_mw013.bmp,trustrating_stim/white_mw092.bmp","1,0","Match","e","3000","","","","",""
"html-keyboard-response","137","390056","0.0-7.0-3.20","63e554b7631c8ec3ce069e32","bdp_wmem","Mon Mar 13 2023 21:45:58 GMT-0700 (Pacific Daylight Time)","659086","Match,No Match","","null","","","","","","<div class='trialBorder'><div class='vertical-center'><img src='img/fixation2_sml.jpg'</img></div></div>","null","DELAY","","","","","","","","","","",""
"html-keyboard-response","138","391717","0.0-7.0-4.20","63e554b7631c8ec3ce069e32","bdp_wmem","Mon Mar 13 2023 21:45:58 GMT-0700 (Pacific Daylight Time)","659086","Match,No Match","","1658","","","","","","<div class='trialBorder'><div class='targDiv'><div class='tc'><img class='introPic' src='trustrating_stim/white_mw013.bmp'><br><font color='green'><strong>Share</strong></font></div></div><div class='respDiv'><div class='respDivL'>Match<br>(e)</div><div class='respDivR'>No Match<br>(i)</div></div></div>","e","TARGET","2","trustrating_stim/white_mw013.bmp,trustrating_stim/white_mw092.bmp","1,0","Match","e","3000","trustrating_stim/white_mw013.bmp","green","Share","REAL","1"
"html-keyboard-response","139","392219","0.0-7.0-5.20","63e554b7631c8ec3ce069e32","bdp_wmem","Mon Mar 13 2023 21:45:58 GMT-0700 (Pacific Daylight Time)","659086","Match,No Match","","null","","","","","","<div class='trialBorder'><div class='vertical-center'><img src='img/correct.jpg'></div><div class='respDiv'><div class='respDivL'><font style='color:orange'>Match<br>(e)</font></div><div class='respDivR'>No Match<br>(i)</div></div></div>","null","FEEDBACK","","","","","","","","","","",""
"html-keyboard-response","140","392721","0.0-7.0-1.21","63e554b7631c8ec3ce069e32","bdp_wmem","Mon Mar 13 2023 21:45:58 GMT-0700 (Pacific Daylight Time)","659086","Match,No Match","","null","","","","","","<div class='trialBorder'><div class='vertical-center'><img src='img/fixation2_sml.jpg'</img></div></div>","null","FIX","","","","","","","","","","",""
"html-keyboard-response","141","395725","0.0-7.0-2.21","63e554b7631c8ec3ce069e32","bdp_wmem","Mon Mar 13 2023 21:45:58 GMT-0700 (Pacific Daylight Time)","659086","Match,No Match","","null","","","","","","<div class='trialBorder'><div class='vertical-center'><img style='vertical-align:center; align:center' src='img/fixation2_sml.jpg'></div><div class='arrayDiv2'><div class='tl'><img class='introPic' src='trustrating_stim/white_mw092.bmp'><br><font color='green'><strong>Share</strong></font></div><div class='tr'><img class='introPic' src='trustrating_stim/white_mw012.bmp'><br><font color='red'><strong>Keep</strong></font></div></div></div>","null","ARRAY","2","trustrating_stim/white_mw092.bmp,trustrating_stim/white_mw012.bmp","1,0","Match","e","3000","","","","",""
"html-keyboard-response","142","399728","0.0-7.0-3.21","63e554b7631c8ec3ce069e32","bdp_wmem","Mon Mar 13 2023 21:45:58 GMT-0700 (Pacific Daylight Time)","659086","Match,No Match","","null","","","","","","<div class='trialBorder'><div class='vertical-center'><img src='img/fixation2_sml.jpg'</img></div></div>","null","DELAY","","","","","","","","","","",""
"html-keyboard-response","143","401077","0.0-7.0-4.21","63e554b7631c8ec3ce069e32","bdp_wmem","Mon Mar 13 2023 21:45:58 GMT-0700 (Pacific Daylight Time)","659086","Match,No Match","","1347","","","","","","<div class='trialBorder'><div class='targDiv'><div class='tc'><img class='introPic' src='trustrating_stim/white_mw012.bmp'><br><font color='red'><strong>Keep</strong></font></div></div><div class='respDiv'><div class='respDivL'>Match<br>(e)</div><div class='respDivR'>No Match<br>(i)</div></div></div>","e","TARGET","2","trustrating_stim/white_mw092.bmp,trustrating_stim/white_mw012.bmp","1,0","Match","e","3000","trustrating_stim/white_mw012.bmp","red","Keep","REAL","1"
"html-keyboard-response","144","401579","0.0-7.0-5.21","63e554b7631c8ec3ce069e32","bdp_wmem","Mon Mar 13 2023 21:45:58 GMT-0700 (Pacific Daylight Time)","659086","Match,No Match","","null","","","","","","<div class='trialBorder'><div class='vertical-center'><img src='img/correct.jpg'></div><div class='respDiv'><div class='respDivL'><font style='color:orange'>Match<br>(e)</font></div><div class='respDivR'>No Match<br>(i)</div></div></div>","null","FEEDBACK","","","","","","","","","","",""
"html-keyboard-response","145","402081","0.0-7.0-1.22","63e554b7631c8ec3ce069e32","bdp_wmem","Mon Mar 13 2023 21:45:58 GMT-0700 (Pacific Daylight Time)","659086","Match,No Match","","null","","","","","","<div class='trialBorder'><div class='vertical-center'><img src='img/fixation2_sml.jpg'</img></div></div>","null","FIX","","","","","","","","","","",""
"html-keyboard-response","146","405084","0.0-7.0-2.22","63e554b7631c8ec3ce069e32","bdp_wmem","Mon Mar 13 2023 21:45:58 GMT-0700 (Pacific Daylight Time)","659086","Match,No Match","","null","","","","","","<div class='trialBorder'><div class='vertical-center'><img style='vertical-align:center; align:center' src='img/fixation2_sml.jpg'></div><div class='arrayDiv2'><div class='tl'><img class='introPic' src='trustrating_stim/white_mw085.bmp'><br><font color='green'><strong>Share</strong></font></div><div class='tr'><img class='introPic' src='trustrating_stim/white_mw042.bmp'><br><font color='red'><strong>Keep</strong></font></div></div></div>","null","ARRAY","2","trustrating_stim/white_mw085.bmp,trustrating_stim/white_mw042.bmp","1,0","noMatchOutcome","i","3000","","","","",""
"html-keyboard-response","147","409087","0.0-7.0-3.22","63e554b7631c8ec3ce069e32","bdp_wmem","Mon Mar 13 2023 21:45:58 GMT-0700 (Pacific Daylight Time)","659086","Match,No Match","","null","","","","","","<div class='trialBorder'><div class='vertical-center'><img src='img/fixation2_sml.jpg'</img></div></div>","null","DELAY","","","","","","","","","","",""
"html-keyboard-response","148","411805","0.0-7.0-4.22","63e554b7631c8ec3ce069e32","bdp_wmem","Mon Mar 13 2023 21:45:58 GMT-0700 (Pacific Daylight Time)","659086","Match,No Match","","2715","","","","","","<div class='trialBorder'><div class='targDiv'><div class='tc'><img class='introPic' src='trustrating_stim/white_mw042.bmp'><br><font color='green'><strong>Share</strong></font></div></div><div class='respDiv'><div class='respDivL'>Match<br>(e)</div><div class='respDivR'>No Match<br>(i)</div></div></div>","e","TARGET","2","trustrating_stim/white_mw085.bmp,trustrating_stim/white_mw042.bmp","1,0","noMatchOutcome","i","3000","trustrating_stim/white_mw042.bmp","green","Share","REAL","0"
"html-keyboard-response","149","412308","0.0-7.0-5.22","63e554b7631c8ec3ce069e32","bdp_wmem","Mon Mar 13 2023 21:45:58 GMT-0700 (Pacific Daylight Time)","659086","Match,No Match","","null","","","","","","<div class='trialBorder'><div class='vertical-center'><img src='img/error.jpg'></div><div class='respDiv'><div class='respDivL'><font style='color:orange'>Match<br>(e)</font></div><div class='respDivR'>No Match<br>(i)</div></div></div>","null","FEEDBACK","","","","","","","","","","",""
"html-keyboard-response","150","412811","0.0-7.0-1.23","63e554b7631c8ec3ce069e32","bdp_wmem","Mon Mar 13 2023 21:45:58 GMT-0700 (Pacific Daylight Time)","659086","Match,No Match","","null","","","","","","<div class='trialBorder'><div class='vertical-center'><img src='img/fixation2_sml.jpg'</img></div></div>","null","FIX","","","","","","","","","","",""
"html-keyboard-response","151","415815","0.0-7.0-2.23","63e554b7631c8ec3ce069e32","bdp_wmem","Mon Mar 13 2023 21:45:58 GMT-0700 (Pacific Daylight Time)","659086","Match,No Match","","null","","","","","","<div class='trialBorder'><div class='vertical-center'><img style='vertical-align:center; align:center' src='img/fixation2_sml.jpg'></div><div class='arrayDiv2'><div class='tl'><img class='introPic' src='trustrating_stim/white_mw040.bmp'><br><font color='green'><strong>Share</strong></font></div><div class='tr'><img class='introPic' src='trustrating_stim/white_mw003.bmp'><br><font color='red'><strong>Keep</strong></font></div></div></div>","null","ARRAY","2","trustrating_stim/white_mw040.bmp,trustrating_stim/white_mw003.bmp","1,0","noMatchFace","i","3000","","","","",""
"html-keyboard-response","152","419817","0.0-7.0-3.23","63e554b7631c8ec3ce069e32","bdp_wmem","Mon Mar 13 2023 21:45:58 GMT-0700 (Pacific Daylight Time)","659086","Match,No Match","","null","","","","","","<div class='trialBorder'><div class='vertical-center'><img src='img/fixation2_sml.jpg'</img></div></div>","null","DELAY","","","","","","","","","","",""
"html-keyboard-response","153","421148","0.0-7.0-4.23","63e554b7631c8ec3ce069e32","bdp_wmem","Mon Mar 13 2023 21:45:58 GMT-0700 (Pacific Daylight Time)","659086","Match,No Match","","1329","","","","","","<div class='trialBorder'><div class='targDiv'><div class='tc'><img class='introPic' src='trustrating_stim/white_mw085.bmp'><br><font color='green'><strong>Share</strong></font></div></div><div class='respDiv'><div class='respDivL'>Match<br>(e)</div><div class='respDivR'>No Match<br>(i)</div></div></div>","i","TARGET","2","trustrating_stim/white_mw040.bmp,trustrating_stim/white_mw003.bmp","1,0","noMatchFace","i","3000","trustrating_stim/white_mw085.bmp","green","Share","REAL","1"
"html-keyboard-response","154","421650","0.0-7.0-5.23","63e554b7631c8ec3ce069e32","bdp_wmem","Mon Mar 13 2023 21:45:58 GMT-0700 (Pacific Daylight Time)","659086","Match,No Match","","null","","","","","","<div class='trialBorder'><div class='vertical-center'><img src='img/correct.jpg'></div><div class='respDiv'><div class='respDivL'>Match<br>(e)</div><div class='respDivR'><font style='color:orange'>No Match<br>(i)</font></div></div></div>","null","FEEDBACK","","","","","","","","","","",""
"html-keyboard-response","155","422153","0.0-7.0-1.24","63e554b7631c8ec3ce069e32","bdp_wmem","Mon Mar 13 2023 21:45:58 GMT-0700 (Pacific Daylight Time)","659086","Match,No Match","","null","","","","","","<div class='trialBorder'><div class='vertical-center'><img src='img/fixation2_sml.jpg'</img></div></div>","null","FIX","","","","","","","","","","",""
"html-keyboard-response","156","423657","0.0-7.0-2.24","63e554b7631c8ec3ce069e32","bdp_wmem","Mon Mar 13 2023 21:45:58 GMT-0700 (Pacific Daylight Time)","659086","Match,No Match","","null","","","","","","<div class='trialBorder'><div class='vertical-center'><img style='vertical-align:center; align:center' src='img/fixation2_sml.jpg'></div><div class='arrayDiv1'><div class='tc'><img class='introPic' src='trustrating_stim/white_mw042.bmp'><br><font color='green'><strong>Share</strong></font></div></div></div>","null","ARRAY","1","trustrating_stim/white_mw042.bmp","1","noMatchOutcome","i","1500","","","","",""
"html-keyboard-response","157","427660","0.0-7.0-3.24","63e554b7631c8ec3ce069e32","bdp_wmem","Mon Mar 13 2023 21:45:58 GMT-0700 (Pacific Daylight Time)","659086","Match,No Match","","null","","","","","","<div class='trialBorder'><div class='vertical-center'><img src='img/fixation2_sml.jpg'</img></div></div>","null","DELAY","","","","","","","","","","",""
"html-keyboard-response","158","428789","0.0-7.0-4.24","63e554b7631c8ec3ce069e32","bdp_wmem","Mon Mar 13 2023 21:45:58 GMT-0700 (Pacific Daylight Time)","659086","Match,No Match","","1127","","","","","","<div class='trialBorder'><div class='targDiv'><div class='tc'><img class='introPic' src='trustrating_stim/white_mw042.bmp'><br><font color='red'><strong>Keep</strong></font></div></div><div class='respDiv'><div class='respDivL'>Match<br>(e)</div><div class='respDivR'>No Match<br>(i)</div></div></div>","i","TARGET","1","trustrating_stim/white_mw042.bmp","1","noMatchOutcome","i","1500","trustrating_stim/white_mw042.bmp","red","Keep","REAL","1"
"html-keyboard-response","159","429292","0.0-7.0-5.24","63e554b7631c8ec3ce069e32","bdp_wmem","Mon Mar 13 2023 21:45:58 GMT-0700 (Pacific Daylight Time)","659086","Match,No Match","","null","","","","","","<div class='trialBorder'><div class='vertical-center'><img src='img/correct.jpg'></div><div class='respDiv'><div class='respDivL'>Match<br>(e)</div><div class='respDivR'><font style='color:orange'>No Match<br>(i)</font></div></div></div>","null","FEEDBACK","","","","","","","","","","",""
"html-keyboard-response","160","429795","0.0-7.0-1.25","63e554b7631c8ec3ce069e32","bdp_wmem","Mon Mar 13 2023 21:45:58 GMT-0700 (Pacific Daylight Time)","659086","Match,No Match","","null","","","","","","<div class='trialBorder'><div class='vertical-center'><img src='img/fixation2_sml.jpg'</img></div></div>","null","FIX","","","","","","","","","","",""
"html-keyboard-response","161","432798","0.0-7.0-2.25","63e554b7631c8ec3ce069e32","bdp_wmem","Mon Mar 13 2023 21:45:58 GMT-0700 (Pacific Daylight Time)","659086","Match,No Match","","null","","","","","","<div class='trialBorder'><div class='vertical-center'><img style='vertical-align:center; align:center' src='img/fixation2_sml.jpg'></div><div class='arrayDiv2'><div class='tl'><img class='introPic' src='trustrating_stim/white_mw042.bmp'><br><font color='green'><strong>Share</strong></font></div><div class='tr'><img class='introPic' src='trustrating_stim/white_mw012.bmp'><br><font color='red'><strong>Keep</strong></font></div></div></div>","null","ARRAY","2","trustrating_stim/white_mw042.bmp,trustrating_stim/white_mw012.bmp","1,0","Match","e","3000","","","","",""
"html-keyboard-response","162","436801","0.0-7.0-3.25","63e554b7631c8ec3ce069e32","bdp_wmem","Mon Mar 13 2023 21:45:58 GMT-0700 (Pacific Daylight Time)","659086","Match,No Match","","null","","","","","","<div class='trialBorder'><div class='vertical-center'><img src='img/fixation2_sml.jpg'</img></div></div>","null","DELAY","","","","","","","","","","",""
"html-keyboard-response","163","438380","0.0-7.0-4.25","63e554b7631c8ec3ce069e32","bdp_wmem","Mon Mar 13 2023 21:45:58 GMT-0700 (Pacific Daylight Time)","659086","Match,No Match","","1576","","","","","","<div class='trialBorder'><div class='targDiv'><div class='tc'><img class='introPic' src='trustrating_stim/white_mw042.bmp'><br><font color='green'><strong>Share</strong></font></div></div><div class='respDiv'><div class='respDivL'>Match<br>(e)</div><div class='respDivR'>No Match<br>(i)</div></div></div>","e","TARGET","2","trustrating_stim/white_mw042.bmp,trustrating_stim/white_mw012.bmp","1,0","Match","e","3000","trustrating_stim/white_mw042.bmp","green","Share","REAL","1"
"html-keyboard-response","164","438882","0.0-7.0-5.25","63e554b7631c8ec3ce069e32","bdp_wmem","Mon Mar 13 2023 21:45:58 GMT-0700 (Pacific Daylight Time)","659086","Match,No Match","","null","","","","","","<div class='trialBorder'><div class='vertical-center'><img src='img/correct.jpg'></div><div class='respDiv'><div class='respDivL'><font style='color:orange'>Match<br>(e)</font></div><div class='respDivR'>No Match<br>(i)</div></div></div>","null","FEEDBACK","","","","","","","","","","",""
"html-keyboard-response","165","439384","0.0-7.0-1.26","63e554b7631c8ec3ce069e32","bdp_wmem","Mon Mar 13 2023 21:45:58 GMT-0700 (Pacific Daylight Time)","659086","Match,No Match","","null","","","","","","<div class='trialBorder'><div class='vertical-center'><img src='img/fixation2_sml.jpg'</img></div></div>","null","FIX","","","","","","","","","","",""
"html-keyboard-response","166","440888","0.0-7.0-2.26","63e554b7631c8ec3ce069e32","bdp_wmem","Mon Mar 13 2023 21:45:58 GMT-0700 (Pacific Daylight Time)","659086","Match,No Match","","null","","","","","","<div class='trialBorder'><div class='vertical-center'><img style='vertical-align:center; align:center' src='img/fixation2_sml.jpg'></div><div class='arrayDiv1'><div class='tc'><img class='introPic' src='trustrating_stim/white_mw038.bmp'><br><font color='green'><strong>Share</strong></font></div></div></div>","null","ARRAY","1","trustrating_stim/white_mw038.bmp","1","noMatchFace","i","1500","","","","",""
"html-keyboard-response","167","444890","0.0-7.0-3.26","63e554b7631c8ec3ce069e32","bdp_wmem","Mon Mar 13 2023 21:45:58 GMT-0700 (Pacific Daylight Time)","659086","Match,No Match","","null","","","","","","<div class='trialBorder'><div class='vertical-center'><img src='img/fixation2_sml.jpg'</img></div></div>","null","DELAY","","","","","","","","","","",""
"html-keyboard-response","168","445885","0.0-7.0-4.26","63e554b7631c8ec3ce069e32","bdp_wmem","Mon Mar 13 2023 21:45:58 GMT-0700 (Pacific Daylight Time)","659086","Match,No Match","","991","","","","","","<div class='trialBorder'><div class='targDiv'><div class='tc'><img class='introPic' src='trustrating_stim/white_mw070.bmp'><br><font color='green'><strong>Share</strong></font></div></div><div class='respDiv'><div class='respDivL'>Match<br>(e)</div><div class='respDivR'>No Match<br>(i)</div></div></div>","i","TARGET","1","trustrating_stim/white_mw038.bmp","1","noMatchFace","i","1500","trustrating_stim/white_mw070.bmp","green","Share","REAL","1"
"html-keyboard-response","169","446388","0.0-7.0-5.26","63e554b7631c8ec3ce069e32","bdp_wmem","Mon Mar 13 2023 21:45:58 GMT-0700 (Pacific Daylight Time)","659086","Match,No Match","","null","","","","","","<div class='trialBorder'><div class='vertical-center'><img src='img/correct.jpg'></div><div class='respDiv'><div class='respDivL'>Match<br>(e)</div><div class='respDivR'><font style='color:orange'>No Match<br>(i)</font></div></div></div>","null","FEEDBACK","","","","","","","","","","",""
"html-keyboard-response","170","446891","0.0-7.0-1.27","63e554b7631c8ec3ce069e32","bdp_wmem","Mon Mar 13 2023 21:45:58 GMT-0700 (Pacific Daylight Time)","659086","Match,No Match","","null","","","","","","<div class='trialBorder'><div class='vertical-center'><img src='img/fixation2_sml.jpg'</img></div></div>","null","FIX","","","","","","","","","","",""
"html-keyboard-response","171","451395","0.0-7.0-2.27","63e554b7631c8ec3ce069e32","bdp_wmem","Mon Mar 13 2023 21:45:58 GMT-0700 (Pacific Daylight Time)","659086","Match,No Match","","null","","","","","","<div class='trialBorder'><div class='vertical-center'><img style='vertical-align:center; align:center' src='img/fixation2_sml.jpg'></div><div class='arrayDiv3'><div class='tl'><img class='introPic' src='trustrating_stim/white_mw013.bmp'><br><font color='red'><strong>Keep</strong></font></div><div class='tc'><img class='introPic' src='trustrating_stim/white_mw038.bmp'><br><font color='green'><strong>Share</strong></font></div><div class='tr'><img class='introPic' src='trustrating_stim/white_mw092.bmp'><br><font color='green'><strong>Share</strong></font></div></div></div>","null","ARRAY","3","trustrating_stim/white_mw013.bmp,trustrating_stim/white_mw038.bmp,trustrating_stim/white_mw092.bmp","0,1,1","Match","e","4500","","","","",""
"html-keyboard-response","172","455398","0.0-7.0-3.27","63e554b7631c8ec3ce069e32","bdp_wmem","Mon Mar 13 2023 21:45:58 GMT-0700 (Pacific Daylight Time)","659086","Match,No Match","","null","","","","","","<div class='trialBorder'><div class='vertical-center'><img src='img/fixation2_sml.jpg'</img></div></div>","null","DELAY","","","","","","","","","","",""
"html-keyboard-response","173","457237","0.0-7.0-4.27","63e554b7631c8ec3ce069e32","bdp_wmem","Mon Mar 13 2023 21:45:58 GMT-0700 (Pacific Daylight Time)","659086","Match,No Match","","1835","","","","","","<div class='trialBorder'><div class='targDiv'><div class='tc'><img class='introPic' src='trustrating_stim/white_mw013.bmp'><br><font color='red'><strong>Keep</strong></font></div></div><div class='respDiv'><div class='respDivL'>Match<br>(e)</div><div class='respDivR'>No Match<br>(i)</div></div></div>","e","TARGET","3","trustrating_stim/white_mw013.bmp,trustrating_stim/white_mw038.bmp,trustrating_stim/white_mw092.bmp","0,1,1","Match","e","4500","trustrating_stim/white_mw013.bmp","red","Keep","REAL","1"
"html-keyboard-response","174","457739","0.0-7.0-5.27","63e554b7631c8ec3ce069e32","bdp_wmem","Mon Mar 13 2023 21:45:58 GMT-0700 (Pacific Daylight Time)","659086","Match,No Match","","null","","","","","","<div class='trialBorder'><div class='vertical-center'><img src='img/correct.jpg'></div><div class='respDiv'><div class='respDivL'><font style='color:orange'>Match<br>(e)</font></div><div class='respDivR'>No Match<br>(i)</div></div></div>","null","FEEDBACK","","","","","","","","","","",""
"html-keyboard-response","175","458242","0.0-7.0-1.28","63e554b7631c8ec3ce069e32","bdp_wmem","Mon Mar 13 2023 21:45:58 GMT-0700 (Pacific Daylight Time)","659086","Match,No Match","","null","","","","","","<div class='trialBorder'><div class='vertical-center'><img src='img/fixation2_sml.jpg'</img></div></div>","null","FIX","","","","","","","","","","",""
"html-keyboard-response","176","462745","0.0-7.0-2.28","63e554b7631c8ec3ce069e32","bdp_wmem","Mon Mar 13 2023 21:45:58 GMT-0700 (Pacific Daylight Time)","659086","Match,No Match","","null","","","","","","<div class='trialBorder'><div class='vertical-center'><img style='vertical-align:center; align:center' src='img/fixation2_sml.jpg'></div><div class='arrayDiv3'><div class='tl'><img class='introPic' src='trustrating_stim/white_mw042.bmp'><br><font color='red'><strong>Keep</strong></font></div><div class='tc'><img class='introPic' src='trustrating_stim/white_mw010.bmp'><br><font color='red'><strong>Keep</strong></font></div><div class='tr'><img class='introPic' src='trustrating_stim/white_mw038.bmp'><br><font color='green'><strong>Share</strong></font></div></div></div>","null","ARRAY","3","trustrating_stim/white_mw042.bmp,trustrating_stim/white_mw010.bmp,trustrating_stim/white_mw038.bmp","0,0,1","Match","e","4500","","","","",""
"html-keyboard-response","177","466748","0.0-7.0-3.28","63e554b7631c8ec3ce069e32","bdp_wmem","Mon Mar 13 2023 21:45:58 GMT-0700 (Pacific Daylight Time)","659086","Match,No Match","","null","","","","","","<div class='trialBorder'><div class='vertical-center'><img src='img/fixation2_sml.jpg'</img></div></div>","null","DELAY","","","","","","","","","","",""
"html-keyboard-response","178","467923","0.0-7.0-4.28","63e554b7631c8ec3ce069e32","bdp_wmem","Mon Mar 13 2023 21:45:58 GMT-0700 (Pacific Daylight Time)","659086","Match,No Match","","1173","","","","","","<div class='trialBorder'><div class='targDiv'><div class='tc'><img class='introPic' src='trustrating_stim/white_mw010.bmp'><br><font color='red'><strong>Keep</strong></font></div></div><div class='respDiv'><div class='respDivL'>Match<br>(e)</div><div class='respDivR'>No Match<br>(i)</div></div></div>","e","TARGET","3","trustrating_stim/white_mw042.bmp,trustrating_stim/white_mw010.bmp,trustrating_stim/white_mw038.bmp","0,0,1","Match","e","4500","trustrating_stim/white_mw010.bmp","red","Keep","REAL","1"
"html-keyboard-response","179","468426","0.0-7.0-5.28","63e554b7631c8ec3ce069e32","bdp_wmem","Mon Mar 13 2023 21:45:58 GMT-0700 (Pacific Daylight Time)","659086","Match,No Match","","null","","","","","","<div class='trialBorder'><div class='vertical-center'><img src='img/correct.jpg'></div><div class='respDiv'><div class='respDivL'><font style='color:orange'>Match<br>(e)</font></div><div class='respDivR'>No Match<br>(i)</div></div></div>","null","FEEDBACK","","","","","","","","","","",""
"html-keyboard-response","180","468929","0.0-7.0-1.29","63e554b7631c8ec3ce069e32","bdp_wmem","Mon Mar 13 2023 21:45:58 GMT-0700 (Pacific Daylight Time)","659086","Match,No Match","","null","","","","","","<div class='trialBorder'><div class='vertical-center'><img src='img/fixation2_sml.jpg'</img></div></div>","null","FIX","","","","","","","","","","",""
"html-keyboard-response","181","470433","0.0-7.0-2.29","63e554b7631c8ec3ce069e32","bdp_wmem","Mon Mar 13 2023 21:45:58 GMT-0700 (Pacific Daylight Time)","659086","Match,No Match","","null","","","","","","<div class='trialBorder'><div class='vertical-center'><img style='vertical-align:center; align:center' src='img/fixation2_sml.jpg'></div><div class='arrayDiv1'><div class='tc'><img class='introPic' src='trustrating_stim/white_mw038.bmp'><br><font color='red'><strong>Keep</strong></font></div></div></div>","null","ARRAY","1","trustrating_stim/white_mw038.bmp","0","noMatchOutcome","i","1500","","","","",""
"html-keyboard-response","182","474436","0.0-7.0-3.29","63e554b7631c8ec3ce069e32","bdp_wmem","Mon Mar 13 2023 21:45:58 GMT-0700 (Pacific Daylight Time)","659086","Match,No Match","","null","","","","","","<div class='trialBorder'><div class='vertical-center'><img src='img/fixation2_sml.jpg'</img></div></div>","null","DELAY","","","","","","","","","","",""
"html-keyboard-response","183","479005","0.0-7.0-4.29","63e554b7631c8ec3ce069e32","bdp_wmem","Mon Mar 13 2023 21:45:58 GMT-0700 (Pacific Daylight Time)","659086","Match,No Match","","4566","","","","","","<div class='trialBorder'><div class='targDiv'><div class='tc'><img class='introPic' src='trustrating_stim/white_mw038.bmp'><br><font color='green'><strong>Share</strong></font></div></div><div class='respDiv'><div class='respDivL'>Match<br>(e)</div><div class='respDivR'>No Match<br>(i)</div></div></div>","e","TARGET","1","trustrating_stim/white_mw038.bmp","0","noMatchOutcome","i","1500","trustrating_stim/white_mw038.bmp","green","Share","REAL","0"
"html-keyboard-response","184","479507","0.0-7.0-5.29","63e554b7631c8ec3ce069e32","bdp_wmem","Mon Mar 13 2023 21:45:58 GMT-0700 (Pacific Daylight Time)","659086","Match,No Match","","null","","","","","","<div class='trialBorder'><div class='vertical-center'><img src='img/error.jpg'></div><div class='respDiv'><div class='respDivL'><font style='color:orange'>Match<br>(e)</font></div><div class='respDivR'>No Match<br>(i)</div></div></div>","null","FEEDBACK","","","","","","","","","","",""
"html-keyboard-response","185","480009","0.0-7.0-1.30","63e554b7631c8ec3ce069e32","bdp_wmem","Mon Mar 13 2023 21:45:58 GMT-0700 (Pacific Daylight Time)","659086","Match,No Match","","null","","","","","","<div class='trialBorder'><div class='vertical-center'><img src='img/fixation2_sml.jpg'</img></div></div>","null","FIX","","","","","","","","","","",""
"html-keyboard-response","186","483014","0.0-7.0-2.30","63e554b7631c8ec3ce069e32","bdp_wmem","Mon Mar 13 2023 21:45:58 GMT-0700 (Pacific Daylight Time)","659086","Match,No Match","","null","","","","","","<div class='trialBorder'><div class='vertical-center'><img style='vertical-align:center; align:center' src='img/fixation2_sml.jpg'></div><div class='arrayDiv2'><div class='tl'><img class='introPic' src='trustrating_stim/white_mw040.bmp'><br><font color='green'><strong>Share</strong></font></div><div class='tr'><img class='introPic' src='trustrating_stim/white_mw092.bmp'><br><font color='red'><strong>Keep</strong></font></div></div></div>","null","ARRAY","2","trustrating_stim/white_mw040.bmp,trustrating_stim/white_mw092.bmp","1,0","Match","e","3000","","","","",""
"html-keyboard-response","187","487016","0.0-7.0-3.30","63e554b7631c8ec3ce069e32","bdp_wmem","Mon Mar 13 2023 21:45:58 GMT-0700 (Pacific Daylight Time)","659086","Match,No Match","","null","","","","","","<div class='trialBorder'><div class='vertical-center'><img src='img/fixation2_sml.jpg'</img></div></div>","null","DELAY","","","","","","","","","","",""
"html-keyboard-response","188","488412","0.0-7.0-4.30","63e554b7631c8ec3ce069e32","bdp_wmem","Mon Mar 13 2023 21:45:58 GMT-0700 (Pacific Daylight Time)","659086","Match,No Match","","1392","","","","","","<div class='trialBorder'><div class='targDiv'><div class='tc'><img class='introPic' src='trustrating_stim/white_mw040.bmp'><br><font color='green'><strong>Share</strong></font></div></div><div class='respDiv'><div class='respDivL'>Match<br>(e)</div><div class='respDivR'>No Match<br>(i)</div></div></div>","e","TARGET","2","trustrating_stim/white_mw040.bmp,trustrating_stim/white_mw092.bmp","1,0","Match","e","3000","trustrating_stim/white_mw040.bmp","green","Share","REAL","1"
