"trial_type","trial_index","time_elapsed","internal_node_id","subject_id","task","startTime","totalTime","labels","view_history","rt","event","trial","time","trialtype","success","stimulus","key_press","stimType","arraySize","arrayFaces","arrayOutcomes","matchType","corrResp","arrayDur","targFace","targCol","targOutcome","trialType","corr"
"pavlovia","0","7","0.0-0.0","641ec1a9d9fe8a0941e39862","bdp_wmem","Sat Apr 08 2023 08:16:59 GMT-0700 (Pacific Daylight Time)","591493","Match,No Match","","","","","","","","","","","","","","","","","","","","",""
"instructions","1","4595","0.0-1.0","641ec1a9d9fe8a0941e39862","bdp_wmem","Sat Apr 08 2023 08:16:59 GMT-0700 (Pacific Daylight Time)","591493","Match,No Match","[{""page_index"":0,""viewing_time"":4587}]","4587","","","","","","","","","","","","","","","","","","",""
"","","","","641ec1a9d9fe8a0941e39862","bdp_wmem","Sat Apr 08 2023 08:16:59 GMT-0700 (Pacific Daylight Time)","591493","Match,No Match","","","fullscreenenter","2","8014","fullscreenenter","","","","","","","","","","","","","","",""
"fullscreen","2","9012","0.0-2.0","641ec1a9d9fe8a0941e39862","bdp_wmem","Sat Apr 08 2023 08:16:59 GMT-0700 (Pacific Daylight Time)","591493","Match,No Match","","","","","","","true","","","","","","","","","","","","","",""
"instructions","3","73318","0.0-4.0","641ec1a9d9fe8a0941e39862","bdp_wmem","Sat Apr 08 2023 08:16:59 GMT-0700 (Pacific Daylight Time)","591493","Match,No Match","[{""page_index"":0,""viewing_time"":13647},{""page_index"":1,""viewing_time"":41571},{""page_index"":2,""viewing_time"":6645},{""page_index"":3,""viewing_time"":999},{""page_index"":4,""viewing_time"":1443}]","64305","","","","","","","","","","","","","","","","","","",""
"html-keyboard-response","4","73828","0.0-5.0-1.0","641ec1a9d9fe8a0941e39862","bdp_wmem","Sat Apr 08 2023 08:16:59 GMT-0700 (Pacific Daylight Time)","591493","Match,No Match","","null","","","","","","<div class='trialBorder'><div class='vertical-center'><img src='img/fixation2_sml.jpg'</img></div></div>","null","FIX","","","","","","","","","","",""
"html-keyboard-response","5","76835","0.0-5.0-2.0","641ec1a9d9fe8a0941e39862","bdp_wmem","Sat Apr 08 2023 08:16:59 GMT-0700 (Pacific Daylight Time)","591493","Match,No Match","","null","","","","","","<div class='trialBorder'><div class='vertical-center'><img style='vertical-align:center; align:center' src='img/fixation2_sml.jpg'></div><div class='arrayDiv2'><div class='tl'><img class='introPic' src='trustrating_stim/white_mw070.bmp'><br><font color='green'><strong>Share</strong></font></div><div class='tr'><img class='introPic' src='trustrating_stim/white_mw078.bmp'><br><font color='red'><strong>Keep</strong></font></div></div></div>","null","ARRAY","2","trustrating_stim/white_mw070.bmp,trustrating_stim/white_mw078.bmp","1,0","noMatchOutcome","i","3000","","","","",""
"html-keyboard-response","6","80844","0.0-5.0-3.0","641ec1a9d9fe8a0941e39862","bdp_wmem","Sat Apr 08 2023 08:16:59 GMT-0700 (Pacific Daylight Time)","591493","Match,No Match","","null","","","","","","<div class='trialBorder'><div class='vertical-center'><img src='img/fixation2_sml.jpg'</img></div></div>","null","DELAY","","","","","","","","","","",""
"html-keyboard-response","7","82311","0.0-5.0-4.0","641ec1a9d9fe8a0941e39862","bdp_wmem","Sat Apr 08 2023 08:16:59 GMT-0700 (Pacific Daylight Time)","591493","Match,No Match","","1466","","","","","","<div class='trialBorder'><div class='targDiv'><div class='tc'><img class='introPic' src='trustrating_stim/white_mw078.bmp'><br><font color='green'><strong>Share</strong></font></div></div><div class='respDiv'><div class='respDivL'>Match<br>(e)</div><div class='respDivR'>No Match<br>(i)</div></div></div>","e","TARGET","2","trustrating_stim/white_mw070.bmp,trustrating_stim/white_mw078.bmp","1,0","noMatchOutcome","i","3000","trustrating_stim/white_mw078.bmp","green","Share","PRACTICE","0"
"html-keyboard-response","8","82820","0.0-5.0-5.0","641ec1a9d9fe8a0941e39862","bdp_wmem","Sat Apr 08 2023 08:16:59 GMT-0700 (Pacific Daylight Time)","591493","Match,No Match","","null","","","","","","<div class='trialBorder'><div class='vertical-center'><img src='img/error.jpg'></div><div class='respDiv'><div class='respDivL'><font style='color:orange'>Match<br>(e)</font></div><div class='respDivR'>No Match<br>(i)</div></div></div>","null","FEEDBACK","","","","","","","","","","",""
"html-keyboard-response","9","83324","0.0-5.0-1.1","641ec1a9d9fe8a0941e39862","bdp_wmem","Sat Apr 08 2023 08:16:59 GMT-0700 (Pacific Daylight Time)","591493","Match,No Match","","null","","","","","","<div class='trialBorder'><div class='vertical-center'><img src='img/fixation2_sml.jpg'</img></div></div>","null","FIX","","","","","","","","","","",""
"html-keyboard-response","10","84828","0.0-5.0-2.1","641ec1a9d9fe8a0941e39862","bdp_wmem","Sat Apr 08 2023 08:16:59 GMT-0700 (Pacific Daylight Time)","591493","Match,No Match","","null","","","","","","<div class='trialBorder'><div class='vertical-center'><img style='vertical-align:center; align:center' src='img/fixation2_sml.jpg'></div><div class='arrayDiv1'><div class='tc'><img class='introPic' src='trustrating_stim/white_mw013.bmp'><br><font color='red'><strong>Keep</strong></font></div></div></div>","null","ARRAY","1","trustrating_stim/white_mw013.bmp","0","Match","e","1500","","","","",""
"html-keyboard-response","11","88835","0.0-5.0-3.1","641ec1a9d9fe8a0941e39862","bdp_wmem","Sat Apr 08 2023 08:16:59 GMT-0700 (Pacific Daylight Time)","591493","Match,No Match","","null","","","","","","<div class='trialBorder'><div class='vertical-center'><img src='img/fixation2_sml.jpg'</img></div></div>","null","DELAY","","","","","","","","","","",""
"html-keyboard-response","12","90330","0.0-5.0-4.1","641ec1a9d9fe8a0941e39862","bdp_wmem","Sat Apr 08 2023 08:16:59 GMT-0700 (Pacific Daylight Time)","591493","Match,No Match","","1493","","","","","","<div class='trialBorder'><div class='targDiv'><div class='tc'><img class='introPic' src='trustrating_stim/white_mw013.bmp'><br><font color='red'><strong>Keep</strong></font></div></div><div class='respDiv'><div class='respDivL'>Match<br>(e)</div><div class='respDivR'>No Match<br>(i)</div></div></div>","i","TARGET","1","trustrating_stim/white_mw013.bmp","0","Match","e","1500","trustrating_stim/white_mw013.bmp","red","Keep","PRACTICE","0"
"html-keyboard-response","13","90836","0.0-5.0-5.1","641ec1a9d9fe8a0941e39862","bdp_wmem","Sat Apr 08 2023 08:16:59 GMT-0700 (Pacific Daylight Time)","591493","Match,No Match","","null","","","","","","<div class='trialBorder'><div class='vertical-center'><img src='img/error.jpg'></div><div class='respDiv'><div class='respDivL'>Match<br>(e)</div><div class='respDivR'><font style='color:orange'>No Match<br>(i)</font></div></div></div>","null","FEEDBACK","","","","","","","","","","",""
"html-keyboard-response","14","91340","0.0-5.0-1.2","641ec1a9d9fe8a0941e39862","bdp_wmem","Sat Apr 08 2023 08:16:59 GMT-0700 (Pacific Daylight Time)","591493","Match,No Match","","null","","","","","","<div class='trialBorder'><div class='vertical-center'><img src='img/fixation2_sml.jpg'</img></div></div>","null","FIX","","","","","","","","","","",""
"html-keyboard-response","15","95843","0.0-5.0-2.2","641ec1a9d9fe8a0941e39862","bdp_wmem","Sat Apr 08 2023 08:16:59 GMT-0700 (Pacific Daylight Time)","591493","Match,No Match","","null","","","","","","<div class='trialBorder'><div class='vertical-center'><img style='vertical-align:center; align:center' src='img/fixation2_sml.jpg'></div><div class='arrayDiv3'><div class='tl'><img class='introPic' src='trustrating_stim/white_mw070.bmp'><br><font color='red'><strong>Keep</strong></font></div><div class='tc'><img class='introPic' src='trustrating_stim/white_mw003.bmp'><br><font color='green'><strong>Share</strong></font></div><div class='tr'><img class='introPic' src='trustrating_stim/white_mw010.bmp'><br><font color='red'><strong>Keep</strong></font></div></div></div>","null","ARRAY","3","trustrating_stim/white_mw070.bmp,trustrating_stim/white_mw003.bmp,trustrating_stim/white_mw010.bmp","0,1,0","Match","e","4500","","","","",""
"html-keyboard-response","16","99852","0.0-5.0-3.2","641ec1a9d9fe8a0941e39862","bdp_wmem","Sat Apr 08 2023 08:16:59 GMT-0700 (Pacific Daylight Time)","591493","Match,No Match","","null","","","","","","<div class='trialBorder'><div class='vertical-center'><img src='img/fixation2_sml.jpg'</img></div></div>","null","DELAY","","","","","","","","","","",""
"html-keyboard-response","17","101862","0.0-5.0-4.2","641ec1a9d9fe8a0941e39862","bdp_wmem","Sat Apr 08 2023 08:16:59 GMT-0700 (Pacific Daylight Time)","591493","Match,No Match","","2007","","","","","","<div class='trialBorder'><div class='targDiv'><div class='tc'><img class='introPic' src='trustrating_stim/white_mw010.bmp'><br><font color='red'><strong>Keep</strong></font></div></div><div class='respDiv'><div class='respDivL'>Match<br>(e)</div><div class='respDivR'>No Match<br>(i)</div></div></div>","i","TARGET","3","trustrating_stim/white_mw070.bmp,trustrating_stim/white_mw003.bmp,trustrating_stim/white_mw010.bmp","0,1,0","Match","e","4500","trustrating_stim/white_mw010.bmp","red","Keep","PRACTICE","0"
"html-keyboard-response","18","102364","0.0-5.0-5.2","641ec1a9d9fe8a0941e39862","bdp_wmem","Sat Apr 08 2023 08:16:59 GMT-0700 (Pacific Daylight Time)","591493","Match,No Match","","null","","","","","","<div class='trialBorder'><div class='vertical-center'><img src='img/error.jpg'></div><div class='respDiv'><div class='respDivL'>Match<br>(e)</div><div class='respDivR'><font style='color:orange'>No Match<br>(i)</font></div></div></div>","null","FEEDBACK","","","","","","","","","","",""
"html-keyboard-response","19","102868","0.0-5.0-1.3","641ec1a9d9fe8a0941e39862","bdp_wmem","Sat Apr 08 2023 08:16:59 GMT-0700 (Pacific Daylight Time)","591493","Match,No Match","","null","","","","","","<div class='trialBorder'><div class='vertical-center'><img src='img/fixation2_sml.jpg'</img></div></div>","null","FIX","","","","","","","","","","",""
"html-keyboard-response","20","105876","0.0-5.0-2.3","641ec1a9d9fe8a0941e39862","bdp_wmem","Sat Apr 08 2023 08:16:59 GMT-0700 (Pacific Daylight Time)","591493","Match,No Match","","null","","","","","","<div class='trialBorder'><div class='vertical-center'><img style='vertical-align:center; align:center' src='img/fixation2_sml.jpg'></div><div class='arrayDiv2'><div class='tl'><img class='introPic' src='trustrating_stim/white_mw092.bmp'><br><font color='red'><strong>Keep</strong></font></div><div class='tr'><img class='introPic' src='trustrating_stim/white_mw070.bmp'><br><font color='green'><strong>Share</strong></font></div></div></div>","null","ARRAY","2","trustrating_stim/white_mw092.bmp,trustrating_stim/white_mw070.bmp","0,1","Match","e","3000","","","","",""
"html-keyboard-response","21","109884","0.0-5.0-3.3","641ec1a9d9fe8a0941e39862","bdp_wmem","Sat Apr 08 2023 08:16:59 GMT-0700 (Pacific Daylight Time)","591493","Match,No Match","","null","","","","","","<div class='trialBorder'><div class='vertical-center'><img src='img/fixation2_sml.jpg'</img></div></div>","null","DELAY","","","","","","","","","","",""
"html-keyboard-response","22","112155","0.0-5.0-4.3","641ec1a9d9fe8a0941e39862","bdp_wmem","Sat Apr 08 2023 08:16:59 GMT-0700 (Pacific Daylight Time)","591493","Match,No Match","","2270","","","","","","<div class='trialBorder'><div class='targDiv'><div class='tc'><img class='introPic' src='trustrating_stim/white_mw092.bmp'><br><font color='red'><strong>Keep</strong></font></div></div><div class='respDiv'><div class='respDivL'>Match<br>(e)</div><div class='respDivR'>No Match<br>(i)</div></div></div>","e","TARGET","2","trustrating_stim/white_mw092.bmp,trustrating_stim/white_mw070.bmp","0,1","Match","e","3000","trustrating_stim/white_mw092.bmp","red","Keep","PRACTICE","1"
"html-keyboard-response","23","112660","0.0-5.0-5.3","641ec1a9d9fe8a0941e39862","bdp_wmem","Sat Apr 08 2023 08:16:59 GMT-0700 (Pacific Daylight Time)","591493","Match,No Match","","null","","","","","","<div class='trialBorder'><div class='vertical-center'><img src='img/correct.jpg'></div><div class='respDiv'><div class='respDivL'><font style='color:orange'>Match<br>(e)</font></div><div class='respDivR'>No Match<br>(i)</div></div></div>","null","FEEDBACK","","","","","","","","","","",""
"html-keyboard-response","24","113164","0.0-5.0-1.4","641ec1a9d9fe8a0941e39862","bdp_wmem","Sat Apr 08 2023 08:16:59 GMT-0700 (Pacific Daylight Time)","591493","Match,No Match","","null","","","","","","<div class='trialBorder'><div class='vertical-center'><img src='img/fixation2_sml.jpg'</img></div></div>","null","FIX","","","","","","","","","","",""
"html-keyboard-response","25","114668","0.0-5.0-2.4","641ec1a9d9fe8a0941e39862","bdp_wmem","Sat Apr 08 2023 08:16:59 GMT-0700 (Pacific Daylight Time)","591493","Match,No Match","","null","","","","","","<div class='trialBorder'><div class='vertical-center'><img style='vertical-align:center; align:center' src='img/fixation2_sml.jpg'></div><div class='arrayDiv1'><div class='tc'><img class='introPic' src='trustrating_stim/white_mw040.bmp'><br><font color='red'><strong>Keep</strong></font></div></div></div>","null","ARRAY","1","trustrating_stim/white_mw040.bmp","0","noMatchFace","i","1500","","","","",""
"html-keyboard-response","26","118676","0.0-5.0-3.4","641ec1a9d9fe8a0941e39862","bdp_wmem","Sat Apr 08 2023 08:16:59 GMT-0700 (Pacific Daylight Time)","591493","Match,No Match","","null","","","","","","<div class='trialBorder'><div class='vertical-center'><img src='img/fixation2_sml.jpg'</img></div></div>","null","DELAY","","","","","","","","","","",""
"html-keyboard-response","27","121043","0.0-5.0-4.4","641ec1a9d9fe8a0941e39862","bdp_wmem","Sat Apr 08 2023 08:16:59 GMT-0700 (Pacific Daylight Time)","591493","Match,No Match","","2366","","","","","","<div class='trialBorder'><div class='targDiv'><div class='tc'><img class='introPic' src='trustrating_stim/white_mw003.bmp'><br><font color='red'><strong>Keep</strong></font></div></div><div class='respDiv'><div class='respDivL'>Match<br>(e)</div><div class='respDivR'>No Match<br>(i)</div></div></div>","i","TARGET","1","trustrating_stim/white_mw040.bmp","0","noMatchFace","i","1500","trustrating_stim/white_mw003.bmp","red","Keep","PRACTICE","1"
"html-keyboard-response","28","121548","0.0-5.0-5.4","641ec1a9d9fe8a0941e39862","bdp_wmem","Sat Apr 08 2023 08:16:59 GMT-0700 (Pacific Daylight Time)","591493","Match,No Match","","null","","","","","","<div class='trialBorder'><div class='vertical-center'><img src='img/correct.jpg'></div><div class='respDiv'><div class='respDivL'>Match<br>(e)</div><div class='respDivR'><font style='color:orange'>No Match<br>(i)</font></div></div></div>","null","FEEDBACK","","","","","","","","","","",""
"html-keyboard-response","29","122051","0.0-5.0-1.5","641ec1a9d9fe8a0941e39862","bdp_wmem","Sat Apr 08 2023 08:16:59 GMT-0700 (Pacific Daylight Time)","591493","Match,No Match","","null","","","","","","<div class='trialBorder'><div class='vertical-center'><img src='img/fixation2_sml.jpg'</img></div></div>","null","FIX","","","","","","","","","","",""
"html-keyboard-response","30","126555","0.0-5.0-2.5","641ec1a9d9fe8a0941e39862","bdp_wmem","Sat Apr 08 2023 08:16:59 GMT-0700 (Pacific Daylight Time)","591493","Match,No Match","","null","","","","","","<div class='trialBorder'><div class='vertical-center'><img style='vertical-align:center; align:center' src='img/fixation2_sml.jpg'></div><div class='arrayDiv3'><div class='tl'><img class='introPic' src='trustrating_stim/white_mw042.bmp'><br><font color='green'><strong>Share</strong></font></div><div class='tc'><img class='introPic' src='trustrating_stim/white_mw092.bmp'><br><font color='green'><strong>Share</strong></font></div><div class='tr'><img class='introPic' src='trustrating_stim/white_mw070.bmp'><br><font color='red'><strong>Keep</strong></font></div></div></div>","null","ARRAY","3","trustrating_stim/white_mw042.bmp,trustrating_stim/white_mw092.bmp,trustrating_stim/white_mw070.bmp","1,1,0","noMatchOutcome","i","4500","","","","",""
"html-keyboard-response","31","130563","0.0-5.0-3.5","641ec1a9d9fe8a0941e39862","bdp_wmem","Sat Apr 08 2023 08:16:59 GMT-0700 (Pacific Daylight Time)","591493","Match,No Match","","null","","","","","","<div class='trialBorder'><div class='vertical-center'><img src='img/fixation2_sml.jpg'</img></div></div>","null","DELAY","","","","","","","","","","",""
"html-keyboard-response","32","132806","0.0-5.0-4.5","641ec1a9d9fe8a0941e39862","bdp_wmem","Sat Apr 08 2023 08:16:59 GMT-0700 (Pacific Daylight Time)","591493","Match,No Match","","2241","","","","","","<div class='trialBorder'><div class='targDiv'><div class='tc'><img class='introPic' src='trustrating_stim/white_mw092.bmp'><br><font color='red'><strong>Keep</strong></font></div></div><div class='respDiv'><div class='respDivL'>Match<br>(e)</div><div class='respDivR'>No Match<br>(i)</div></div></div>","e","TARGET","3","trustrating_stim/white_mw042.bmp,trustrating_stim/white_mw092.bmp,trustrating_stim/white_mw070.bmp","1,1,0","noMatchOutcome","i","4500","trustrating_stim/white_mw092.bmp","red","Keep","PRACTICE","0"
"html-keyboard-response","33","133307","0.0-5.0-5.5","641ec1a9d9fe8a0941e39862","bdp_wmem","Sat Apr 08 2023 08:16:59 GMT-0700 (Pacific Daylight Time)","591493","Match,No Match","","null","","","","","","<div class='trialBorder'><div class='vertical-center'><img src='img/error.jpg'></div><div class='respDiv'><div class='respDivL'><font style='color:orange'>Match<br>(e)</font></div><div class='respDivR'>No Match<br>(i)</div></div></div>","null","FEEDBACK","","","","","","","","","","",""
"instructions","34","136247","0.0-6.0","641ec1a9d9fe8a0941e39862","bdp_wmem","Sat Apr 08 2023 08:16:59 GMT-0700 (Pacific Daylight Time)","591493","Match,No Match","[{""page_index"":0,""viewing_time"":2938}]","2938","","","","","","","","","","","","","","","","","","",""
"html-keyboard-response","35","136756","0.0-7.0-1.0","641ec1a9d9fe8a0941e39862","bdp_wmem","Sat Apr 08 2023 08:16:59 GMT-0700 (Pacific Daylight Time)","591493","Match,No Match","","null","","","","","","<div class='trialBorder'><div class='vertical-center'><img src='img/fixation2_sml.jpg'</img></div></div>","null","FIX","","","","","","","","","","",""
"html-keyboard-response","36","141259","0.0-7.0-2.0","641ec1a9d9fe8a0941e39862","bdp_wmem","Sat Apr 08 2023 08:16:59 GMT-0700 (Pacific Daylight Time)","591493","Match,No Match","","null","","","","","","<div class='trialBorder'><div class='vertical-center'><img style='vertical-align:center; align:center' src='img/fixation2_sml.jpg'></div><div class='arrayDiv3'><div class='tl'><img class='introPic' src='trustrating_stim/white_mw091.bmp'><br><font color='green'><strong>Share</strong></font></div><div class='tc'><img class='introPic' src='trustrating_stim/white_mw013.bmp'><br><font color='red'><strong>Keep</strong></font></div><div class='tr'><img class='introPic' src='trustrating_stim/white_mw092.bmp'><br><font color='red'><strong>Keep</strong></font></div></div></div>","null","ARRAY","3","trustrating_stim/white_mw091.bmp,trustrating_stim/white_mw013.bmp,trustrating_stim/white_mw092.bmp","1,0,0","noMatchFace","i","4500","","","","",""
"html-keyboard-response","37","145268","0.0-7.0-3.0","641ec1a9d9fe8a0941e39862","bdp_wmem","Sat Apr 08 2023 08:16:59 GMT-0700 (Pacific Daylight Time)","591493","Match,No Match","","null","","","","","","<div class='trialBorder'><div class='vertical-center'><img src='img/fixation2_sml.jpg'</img></div></div>","null","DELAY","","","","","","","","","","",""
"html-keyboard-response","38","147037","0.0-7.0-4.0","641ec1a9d9fe8a0941e39862","bdp_wmem","Sat Apr 08 2023 08:16:59 GMT-0700 (Pacific Daylight Time)","591493","Match,No Match","","1765","","","","","","<div class='trialBorder'><div class='targDiv'><div class='tc'><img class='introPic' src='trustrating_stim/white_mw078.bmp'><br><font color='red'><strong>Keep</strong></font></div></div><div class='respDiv'><div class='respDivL'>Match<br>(e)</div><div class='respDivR'>No Match<br>(i)</div></div></div>","i","TARGET","3","trustrating_stim/white_mw091.bmp,trustrating_stim/white_mw013.bmp,trustrating_stim/white_mw092.bmp","1,0,0","noMatchFace","i","4500","trustrating_stim/white_mw078.bmp","red","Keep","REAL","1"
"html-keyboard-response","39","147548","0.0-7.0-5.0","641ec1a9d9fe8a0941e39862","bdp_wmem","Sat Apr 08 2023 08:16:59 GMT-0700 (Pacific Daylight Time)","591493","Match,No Match","","null","","","","","","<div class='trialBorder'><div class='vertical-center'><img src='img/correct.jpg'></div><div class='respDiv'><div class='respDivL'>Match<br>(e)</div><div class='respDivR'><font style='color:orange'>No Match<br>(i)</font></div></div></div>","null","FEEDBACK","","","","","","","","","","",""
"html-keyboard-response","40","148052","0.0-7.0-1.1","641ec1a9d9fe8a0941e39862","bdp_wmem","Sat Apr 08 2023 08:16:59 GMT-0700 (Pacific Daylight Time)","591493","Match,No Match","","null","","","","","","<div class='trialBorder'><div class='vertical-center'><img src='img/fixation2_sml.jpg'</img></div></div>","null","FIX","","","","","","","","","","",""
"html-keyboard-response","41","151060","0.0-7.0-2.1","641ec1a9d9fe8a0941e39862","bdp_wmem","Sat Apr 08 2023 08:16:59 GMT-0700 (Pacific Daylight Time)","591493","Match,No Match","","null","","","","","","<div class='trialBorder'><div class='vertical-center'><img style='vertical-align:center; align:center' src='img/fixation2_sml.jpg'></div><div class='arrayDiv2'><div class='tl'><img class='introPic' src='trustrating_stim/white_mw078.bmp'><br><font color='green'><strong>Share</strong></font></div><div class='tr'><img class='introPic' src='trustrating_stim/white_mw085.bmp'><br><font color='red'><strong>Keep</strong></font></div></div></div>","null","ARRAY","2","trustrating_stim/white_mw078.bmp,trustrating_stim/white_mw085.bmp","1,0","noMatchOutcome","i","3000","","","","",""
"html-keyboard-response","42","155068","0.0-7.0-3.1","641ec1a9d9fe8a0941e39862","bdp_wmem","Sat Apr 08 2023 08:16:59 GMT-0700 (Pacific Daylight Time)","591493","Match,No Match","","null","","","","","","<div class='trialBorder'><div class='vertical-center'><img src='img/fixation2_sml.jpg'</img></div></div>","null","DELAY","","","","","","","","","","",""
"html-keyboard-response","43","156435","0.0-7.0-4.1","641ec1a9d9fe8a0941e39862","bdp_wmem","Sat Apr 08 2023 08:16:59 GMT-0700 (Pacific Daylight Time)","591493","Match,No Match","","1365","","","","","","<div class='trialBorder'><div class='targDiv'><div class='tc'><img class='introPic' src='trustrating_stim/white_mw078.bmp'><br><font color='red'><strong>Keep</strong></font></div></div><div class='respDiv'><div class='respDivL'>Match<br>(e)</div><div class='respDivR'>No Match<br>(i)</div></div></div>","i","TARGET","2","trustrating_stim/white_mw078.bmp,trustrating_stim/white_mw085.bmp","1,0","noMatchOutcome","i","3000","trustrating_stim/white_mw078.bmp","red","Keep","REAL","1"
"html-keyboard-response","44","156940","0.0-7.0-5.1","641ec1a9d9fe8a0941e39862","bdp_wmem","Sat Apr 08 2023 08:16:59 GMT-0700 (Pacific Daylight Time)","591493","Match,No Match","","null","","","","","","<div class='trialBorder'><div class='vertical-center'><img src='img/correct.jpg'></div><div class='respDiv'><div class='respDivL'>Match<br>(e)</div><div class='respDivR'><font style='color:orange'>No Match<br>(i)</font></div></div></div>","null","FEEDBACK","","","","","","","","","","",""
"html-keyboard-response","45","157443","0.0-7.0-1.2","641ec1a9d9fe8a0941e39862","bdp_wmem","Sat Apr 08 2023 08:16:59 GMT-0700 (Pacific Daylight Time)","591493","Match,No Match","","null","","","","","","<div class='trialBorder'><div class='vertical-center'><img src='img/fixation2_sml.jpg'</img></div></div>","null","FIX","","","","","","","","","","",""
"html-keyboard-response","46","160452","0.0-7.0-2.2","641ec1a9d9fe8a0941e39862","bdp_wmem","Sat Apr 08 2023 08:16:59 GMT-0700 (Pacific Daylight Time)","591493","Match,No Match","","null","","","","","","<div class='trialBorder'><div class='vertical-center'><img style='vertical-align:center; align:center' src='img/fixation2_sml.jpg'></div><div class='arrayDiv2'><div class='tl'><img class='introPic' src='trustrating_stim/white_mw010.bmp'><br><font color='green'><strong>Share</strong></font></div><div class='tr'><img class='introPic' src='trustrating_stim/white_mw070.bmp'><br><font color='red'><strong>Keep</strong></font></div></div></div>","null","ARRAY","2","trustrating_stim/white_mw010.bmp,trustrating_stim/white_mw070.bmp","1,0","Match","e","3000","","","","",""
"html-keyboard-response","47","164460","0.0-7.0-3.2","641ec1a9d9fe8a0941e39862","bdp_wmem","Sat Apr 08 2023 08:16:59 GMT-0700 (Pacific Daylight Time)","591493","Match,No Match","","null","","","","","","<div class='trialBorder'><div class='vertical-center'><img src='img/fixation2_sml.jpg'</img></div></div>","null","DELAY","","","","","","","","","","",""
"html-keyboard-response","48","165943","0.0-7.0-4.2","641ec1a9d9fe8a0941e39862","bdp_wmem","Sat Apr 08 2023 08:16:59 GMT-0700 (Pacific Daylight Time)","591493","Match,No Match","","1481","","","","","","<div class='trialBorder'><div class='targDiv'><div class='tc'><img class='introPic' src='trustrating_stim/white_mw070.bmp'><br><font color='red'><strong>Keep</strong></font></div></div><div class='respDiv'><div class='respDivL'>Match<br>(e)</div><div class='respDivR'>No Match<br>(i)</div></div></div>","e","TARGET","2","trustrating_stim/white_mw010.bmp,trustrating_stim/white_mw070.bmp","1,0","Match","e","3000","trustrating_stim/white_mw070.bmp","red","Keep","REAL","1"
"html-keyboard-response","49","166451","0.0-7.0-5.2","641ec1a9d9fe8a0941e39862","bdp_wmem","Sat Apr 08 2023 08:16:59 GMT-0700 (Pacific Daylight Time)","591493","Match,No Match","","null","","","","","","<div class='trialBorder'><div class='vertical-center'><img src='img/correct.jpg'></div><div class='respDiv'><div class='respDivL'><font style='color:orange'>Match<br>(e)</font></div><div class='respDivR'>No Match<br>(i)</div></div></div>","null","FEEDBACK","","","","","","","","","","",""
"html-keyboard-response","50","166956","0.0-7.0-1.3","641ec1a9d9fe8a0941e39862","bdp_wmem","Sat Apr 08 2023 08:16:59 GMT-0700 (Pacific Daylight Time)","591493","Match,No Match","","null","","","","","","<div class='trialBorder'><div class='vertical-center'><img src='img/fixation2_sml.jpg'</img></div></div>","null","FIX","","","","","","","","","","",""
"html-keyboard-response","51","168459","0.0-7.0-2.3","641ec1a9d9fe8a0941e39862","bdp_wmem","Sat Apr 08 2023 08:16:59 GMT-0700 (Pacific Daylight Time)","591493","Match,No Match","","null","","","","","","<div class='trialBorder'><div class='vertical-center'><img style='vertical-align:center; align:center' src='img/fixation2_sml.jpg'></div><div class='arrayDiv1'><div class='tc'><img class='introPic' src='trustrating_stim/white_mw070.bmp'><br><font color='red'><strong>Keep</strong></font></div></div></div>","null","ARRAY","1","trustrating_stim/white_mw070.bmp","0","noMatchOutcome","i","1500","","","","",""
"html-keyboard-response","52","172468","0.0-7.0-3.3","641ec1a9d9fe8a0941e39862","bdp_wmem","Sat Apr 08 2023 08:16:59 GMT-0700 (Pacific Daylight Time)","591493","Match,No Match","","null","","","","","","<div class='trialBorder'><div class='vertical-center'><img src='img/fixation2_sml.jpg'</img></div></div>","null","DELAY","","","","","","","","","","",""
"html-keyboard-response","53","175403","0.0-7.0-4.3","641ec1a9d9fe8a0941e39862","bdp_wmem","Sat Apr 08 2023 08:16:59 GMT-0700 (Pacific Daylight Time)","591493","Match,No Match","","2933","","","","","","<div class='trialBorder'><div class='targDiv'><div class='tc'><img class='introPic' src='trustrating_stim/white_mw070.bmp'><br><font color='green'><strong>Share</strong></font></div></div><div class='respDiv'><div class='respDivL'>Match<br>(e)</div><div class='respDivR'>No Match<br>(i)</div></div></div>","i","TARGET","1","trustrating_stim/white_mw070.bmp","0","noMatchOutcome","i","1500","trustrating_stim/white_mw070.bmp","green","Share","REAL","1"
"html-keyboard-response","54","175907","0.0-7.0-5.3","641ec1a9d9fe8a0941e39862","bdp_wmem","Sat Apr 08 2023 08:16:59 GMT-0700 (Pacific Daylight Time)","591493","Match,No Match","","null","","","","","","<div class='trialBorder'><div class='vertical-center'><img src='img/correct.jpg'></div><div class='respDiv'><div class='respDivL'>Match<br>(e)</div><div class='respDivR'><font style='color:orange'>No Match<br>(i)</font></div></div></div>","null","FEEDBACK","","","","","","","","","","",""
"html-keyboard-response","55","176412","0.0-7.0-1.4","641ec1a9d9fe8a0941e39862","bdp_wmem","Sat Apr 08 2023 08:16:59 GMT-0700 (Pacific Daylight Time)","591493","Match,No Match","","null","","","","","","<div class='trialBorder'><div class='vertical-center'><img src='img/fixation2_sml.jpg'</img></div></div>","null","FIX","","","","","","","","","","",""
"html-keyboard-response","56","177924","0.0-7.0-2.4","641ec1a9d9fe8a0941e39862","bdp_wmem","Sat Apr 08 2023 08:16:59 GMT-0700 (Pacific Daylight Time)","591493","Match,No Match","","null","","","","","","<div class='trialBorder'><div class='vertical-center'><img style='vertical-align:center; align:center' src='img/fixation2_sml.jpg'></div><div class='arrayDiv1'><div class='tc'><img class='introPic' src='trustrating_stim/white_mw013.bmp'><br><font color='red'><strong>Keep</strong></font></div></div></div>","null","ARRAY","1","trustrating_stim/white_mw013.bmp","0","noMatchFace","i","1500","","","","",""
"html-keyboard-response","57","181932","0.0-7.0-3.4","641ec1a9d9fe8a0941e39862","bdp_wmem","Sat Apr 08 2023 08:16:59 GMT-0700 (Pacific Daylight Time)","591493","Match,No Match","","null","","","","","","<div class='trialBorder'><div class='vertical-center'><img src='img/fixation2_sml.jpg'</img></div></div>","null","DELAY","","","","","","","","","","",""
"html-keyboard-response","58","183679","0.0-7.0-4.4","641ec1a9d9fe8a0941e39862","bdp_wmem","Sat Apr 08 2023 08:16:59 GMT-0700 (Pacific Daylight Time)","591493","Match,No Match","","1745","","","","","","<div class='trialBorder'><div class='targDiv'><div class='tc'><img class='introPic' src='trustrating_stim/white_mw012.bmp'><br><font color='red'><strong>Keep</strong></font></div></div><div class='respDiv'><div class='respDivL'>Match<br>(e)</div><div class='respDivR'>No Match<br>(i)</div></div></div>","i","TARGET","1","trustrating_stim/white_mw013.bmp","0","noMatchFace","i","1500","trustrating_stim/white_mw012.bmp","red","Keep","REAL","1"
"html-keyboard-response","59","184188","0.0-7.0-5.4","641ec1a9d9fe8a0941e39862","bdp_wmem","Sat Apr 08 2023 08:16:59 GMT-0700 (Pacific Daylight Time)","591493","Match,No Match","","null","","","","","","<div class='trialBorder'><div class='vertical-center'><img src='img/correct.jpg'></div><div class='respDiv'><div class='respDivL'>Match<br>(e)</div><div class='respDivR'><font style='color:orange'>No Match<br>(i)</font></div></div></div>","null","FEEDBACK","","","","","","","","","","",""
"html-keyboard-response","60","184692","0.0-7.0-1.5","641ec1a9d9fe8a0941e39862","bdp_wmem","Sat Apr 08 2023 08:16:59 GMT-0700 (Pacific Daylight Time)","591493","Match,No Match","","null","","","","","","<div class='trialBorder'><div class='vertical-center'><img src='img/fixation2_sml.jpg'</img></div></div>","null","FIX","","","","","","","","","","",""
"html-keyboard-response","61","187700","0.0-7.0-2.5","641ec1a9d9fe8a0941e39862","bdp_wmem","Sat Apr 08 2023 08:16:59 GMT-0700 (Pacific Daylight Time)","591493","Match,No Match","","null","","","","","","<div class='trialBorder'><div class='vertical-center'><img style='vertical-align:center; align:center' src='img/fixation2_sml.jpg'></div><div class='arrayDiv2'><div class='tl'><img class='introPic' src='trustrating_stim/white_mw010.bmp'><br><font color='red'><strong>Keep</strong></font></div><div class='tr'><img class='introPic' src='trustrating_stim/white_mw070.bmp'><br><font color='green'><strong>Share</strong></font></div></div></div>","null","ARRAY","2","trustrating_stim/white_mw010.bmp,trustrating_stim/white_mw070.bmp","0,1","noMatchFace","i","3000","","","","",""
"html-keyboard-response","62","191708","0.0-7.0-3.5","641ec1a9d9fe8a0941e39862","bdp_wmem","Sat Apr 08 2023 08:16:59 GMT-0700 (Pacific Daylight Time)","591493","Match,No Match","","null","","","","","","<div class='trialBorder'><div class='vertical-center'><img src='img/fixation2_sml.jpg'</img></div></div>","null","DELAY","","","","","","","","","","",""
"html-keyboard-response","63","193694","0.0-7.0-4.5","641ec1a9d9fe8a0941e39862","bdp_wmem","Sat Apr 08 2023 08:16:59 GMT-0700 (Pacific Daylight Time)","591493","Match,No Match","","1984","","","","","","<div class='trialBorder'><div class='targDiv'><div class='tc'><img class='introPic' src='trustrating_stim/white_mw085.bmp'><br><font color='red'><strong>Keep</strong></font></div></div><div class='respDiv'><div class='respDivL'>Match<br>(e)</div><div class='respDivR'>No Match<br>(i)</div></div></div>","i","TARGET","2","trustrating_stim/white_mw010.bmp,trustrating_stim/white_mw070.bmp","0,1","noMatchFace","i","3000","trustrating_stim/white_mw085.bmp","red","Keep","REAL","1"
"html-keyboard-response","64","194196","0.0-7.0-5.5","641ec1a9d9fe8a0941e39862","bdp_wmem","Sat Apr 08 2023 08:16:59 GMT-0700 (Pacific Daylight Time)","591493","Match,No Match","","null","","","","","","<div class='trialBorder'><div class='vertical-center'><img src='img/correct.jpg'></div><div class='respDiv'><div class='respDivL'>Match<br>(e)</div><div class='respDivR'><font style='color:orange'>No Match<br>(i)</font></div></div></div>","null","FEEDBACK","","","","","","","","","","",""
"html-keyboard-response","65","194700","0.0-7.0-1.6","641ec1a9d9fe8a0941e39862","bdp_wmem","Sat Apr 08 2023 08:16:59 GMT-0700 (Pacific Daylight Time)","591493","Match,No Match","","null","","","","","","<div class='trialBorder'><div class='vertical-center'><img src='img/fixation2_sml.jpg'</img></div></div>","null","FIX","","","","","","","","","","",""
"html-keyboard-response","66","197708","0.0-7.0-2.6","641ec1a9d9fe8a0941e39862","bdp_wmem","Sat Apr 08 2023 08:16:59 GMT-0700 (Pacific Daylight Time)","591493","Match,No Match","","null","","","","","","<div class='trialBorder'><div class='vertical-center'><img style='vertical-align:center; align:center' src='img/fixation2_sml.jpg'></div><div class='arrayDiv2'><div class='tl'><img class='introPic' src='trustrating_stim/white_mw013.bmp'><br><font color='green'><strong>Share</strong></font></div><div class='tr'><img class='introPic' src='trustrating_stim/white_mw070.bmp'><br><font color='red'><strong>Keep</strong></font></div></div></div>","null","ARRAY","2","trustrating_stim/white_mw013.bmp,trustrating_stim/white_mw070.bmp","1,0","Match","e","3000","","","","",""
"html-keyboard-response","67","201716","0.0-7.0-3.6","641ec1a9d9fe8a0941e39862","bdp_wmem","Sat Apr 08 2023 08:16:59 GMT-0700 (Pacific Daylight Time)","591493","Match,No Match","","null","","","","","","<div class='trialBorder'><div class='vertical-center'><img src='img/fixation2_sml.jpg'</img></div></div>","null","DELAY","","","","","","","","","","",""
"html-keyboard-response","68","203393","0.0-7.0-4.6","641ec1a9d9fe8a0941e39862","bdp_wmem","Sat Apr 08 2023 08:16:59 GMT-0700 (Pacific Daylight Time)","591493","Match,No Match","","1674","","","","","","<div class='trialBorder'><div class='targDiv'><div class='tc'><img class='introPic' src='trustrating_stim/white_mw013.bmp'><br><font color='green'><strong>Share</strong></font></div></div><div class='respDiv'><div class='respDivL'>Match<br>(e)</div><div class='respDivR'>No Match<br>(i)</div></div></div>","e","TARGET","2","trustrating_stim/white_mw013.bmp,trustrating_stim/white_mw070.bmp","1,0","Match","e","3000","trustrating_stim/white_mw013.bmp","green","Share","REAL","1"
"html-keyboard-response","69","203899","0.0-7.0-5.6","641ec1a9d9fe8a0941e39862","bdp_wmem","Sat Apr 08 2023 08:16:59 GMT-0700 (Pacific Daylight Time)","591493","Match,No Match","","null","","","","","","<div class='trialBorder'><div class='vertical-center'><img src='img/correct.jpg'></div><div class='respDiv'><div class='respDivL'><font style='color:orange'>Match<br>(e)</font></div><div class='respDivR'>No Match<br>(i)</div></div></div>","null","FEEDBACK","","","","","","","","","","",""
"html-keyboard-response","70","204404","0.0-7.0-1.7","641ec1a9d9fe8a0941e39862","bdp_wmem","Sat Apr 08 2023 08:16:59 GMT-0700 (Pacific Daylight Time)","591493","Match,No Match","","null","","","","","","<div class='trialBorder'><div class='vertical-center'><img src='img/fixation2_sml.jpg'</img></div></div>","null","FIX","","","","","","","","","","",""
"html-keyboard-response","71","207412","0.0-7.0-2.7","641ec1a9d9fe8a0941e39862","bdp_wmem","Sat Apr 08 2023 08:16:59 GMT-0700 (Pacific Daylight Time)","591493","Match,No Match","","null","","","","","","<div class='trialBorder'><div class='vertical-center'><img style='vertical-align:center; align:center' src='img/fixation2_sml.jpg'></div><div class='arrayDiv2'><div class='tl'><img class='introPic' src='trustrating_stim/white_mw085.bmp'><br><font color='red'><strong>Keep</strong></font></div><div class='tr'><img class='introPic' src='trustrating_stim/white_mw013.bmp'><br><font color='green'><strong>Share</strong></font></div></div></div>","null","ARRAY","2","trustrating_stim/white_mw085.bmp,trustrating_stim/white_mw013.bmp","0,1","Match","e","3000","","","","",""
"html-keyboard-response","72","211420","0.0-7.0-3.7","641ec1a9d9fe8a0941e39862","bdp_wmem","Sat Apr 08 2023 08:16:59 GMT-0700 (Pacific Daylight Time)","591493","Match,No Match","","null","","","","","","<div class='trialBorder'><div class='vertical-center'><img src='img/fixation2_sml.jpg'</img></div></div>","null","DELAY","","","","","","","","","","",""
"html-keyboard-response","73","213231","0.0-7.0-4.7","641ec1a9d9fe8a0941e39862","bdp_wmem","Sat Apr 08 2023 08:16:59 GMT-0700 (Pacific Daylight Time)","591493","Match,No Match","","1810","","","","","","<div class='trialBorder'><div class='targDiv'><div class='tc'><img class='introPic' src='trustrating_stim/white_mw085.bmp'><br><font color='red'><strong>Keep</strong></font></div></div><div class='respDiv'><div class='respDivL'>Match<br>(e)</div><div class='respDivR'>No Match<br>(i)</div></div></div>","i","TARGET","2","trustrating_stim/white_mw085.bmp,trustrating_stim/white_mw013.bmp","0,1","Match","e","3000","trustrating_stim/white_mw085.bmp","red","Keep","REAL","0"
"html-keyboard-response","74","213740","0.0-7.0-5.7","641ec1a9d9fe8a0941e39862","bdp_wmem","Sat Apr 08 2023 08:16:59 GMT-0700 (Pacific Daylight Time)","591493","Match,No Match","","null","","","","","","<div class='trialBorder'><div class='vertical-center'><img src='img/error.jpg'></div><div class='respDiv'><div class='respDivL'>Match<br>(e)</div><div class='respDivR'><font style='color:orange'>No Match<br>(i)</font></div></div></div>","null","FEEDBACK","","","","","","","","","","",""
"html-keyboard-response","75","214243","0.0-7.0-1.8","641ec1a9d9fe8a0941e39862","bdp_wmem","Sat Apr 08 2023 08:16:59 GMT-0700 (Pacific Daylight Time)","591493","Match,No Match","","null","","","","","","<div class='trialBorder'><div class='vertical-center'><img src='img/fixation2_sml.jpg'</img></div></div>","null","FIX","","","","","","","","","","",""
"html-keyboard-response","76","218749","0.0-7.0-2.8","641ec1a9d9fe8a0941e39862","bdp_wmem","Sat Apr 08 2023 08:16:59 GMT-0700 (Pacific Daylight Time)","591493","Match,No Match","","null","","","","","","<div class='trialBorder'><div class='vertical-center'><img style='vertical-align:center; align:center' src='img/fixation2_sml.jpg'></div><div class='arrayDiv3'><div class='tl'><img class='introPic' src='trustrating_stim/white_mw013.bmp'><br><font color='green'><strong>Share</strong></font></div><div class='tc'><img class='introPic' src='trustrating_stim/white_mw085.bmp'><br><font color='red'><strong>Keep</strong></font></div><div class='tr'><img class='introPic' src='trustrating_stim/white_mw040.bmp'><br><font color='red'><strong>Keep</strong></font></div></div></div>","null","ARRAY","3","trustrating_stim/white_mw013.bmp,trustrating_stim/white_mw085.bmp,trustrating_stim/white_mw040.bmp","1,0,0","noMatchOutcome","i","4500","","","","",""
"html-keyboard-response","77","222755","0.0-7.0-3.8","641ec1a9d9fe8a0941e39862","bdp_wmem","Sat Apr 08 2023 08:16:59 GMT-0700 (Pacific Daylight Time)","591493","Match,No Match","","null","","","","","","<div class='trialBorder'><div class='vertical-center'><img src='img/fixation2_sml.jpg'</img></div></div>","null","DELAY","","","","","","","","","","",""
"html-keyboard-response","78","223991","0.0-7.0-4.8","641ec1a9d9fe8a0941e39862","bdp_wmem","Sat Apr 08 2023 08:16:59 GMT-0700 (Pacific Daylight Time)","591493","Match,No Match","","1234","","","","","","<div class='trialBorder'><div class='targDiv'><div class='tc'><img class='introPic' src='trustrating_stim/white_mw085.bmp'><br><font color='green'><strong>Share</strong></font></div></div><div class='respDiv'><div class='respDivL'>Match<br>(e)</div><div class='respDivR'>No Match<br>(i)</div></div></div>","e","TARGET","3","trustrating_stim/white_mw013.bmp,trustrating_stim/white_mw085.bmp,trustrating_stim/white_mw040.bmp","1,0,0","noMatchOutcome","i","4500","trustrating_stim/white_mw085.bmp","green","Share","REAL","0"
"html-keyboard-response","79","224499","0.0-7.0-5.8","641ec1a9d9fe8a0941e39862","bdp_wmem","Sat Apr 08 2023 08:16:59 GMT-0700 (Pacific Daylight Time)","591493","Match,No Match","","null","","","","","","<div class='trialBorder'><div class='vertical-center'><img src='img/error.jpg'></div><div class='respDiv'><div class='respDivL'><font style='color:orange'>Match<br>(e)</font></div><div class='respDivR'>No Match<br>(i)</div></div></div>","null","FEEDBACK","","","","","","","","","","",""
"html-keyboard-response","80","225003","0.0-7.0-1.9","641ec1a9d9fe8a0941e39862","bdp_wmem","Sat Apr 08 2023 08:16:59 GMT-0700 (Pacific Daylight Time)","591493","Match,No Match","","null","","","","","","<div class='trialBorder'><div class='vertical-center'><img src='img/fixation2_sml.jpg'</img></div></div>","null","FIX","","","","","","","","","","",""
"html-keyboard-response","81","228012","0.0-7.0-2.9","641ec1a9d9fe8a0941e39862","bdp_wmem","Sat Apr 08 2023 08:16:59 GMT-0700 (Pacific Daylight Time)","591493","Match,No Match","","null","","","","","","<div class='trialBorder'><div class='vertical-center'><img style='vertical-align:center; align:center' src='img/fixation2_sml.jpg'></div><div class='arrayDiv2'><div class='tl'><img class='introPic' src='trustrating_stim/white_mw085.bmp'><br><font color='red'><strong>Keep</strong></font></div><div class='tr'><img class='introPic' src='trustrating_stim/white_mw013.bmp'><br><font color='green'><strong>Share</strong></font></div></div></div>","null","ARRAY","2","trustrating_stim/white_mw085.bmp,trustrating_stim/white_mw013.bmp","0,1","noMatchFace","i","3000","","","","",""
"html-keyboard-response","82","232019","0.0-7.0-3.9","641ec1a9d9fe8a0941e39862","bdp_wmem","Sat Apr 08 2023 08:16:59 GMT-0700 (Pacific Daylight Time)","591493","Match,No Match","","null","","","","","","<div class='trialBorder'><div class='vertical-center'><img src='img/fixation2_sml.jpg'</img></div></div>","null","DELAY","","","","","","","","","","",""
"html-keyboard-response","83","233676","0.0-7.0-4.9","641ec1a9d9fe8a0941e39862","bdp_wmem","Sat Apr 08 2023 08:16:59 GMT-0700 (Pacific Daylight Time)","591493","Match,No Match","","1655","","","","","","<div class='trialBorder'><div class='targDiv'><div class='tc'><img class='introPic' src='trustrating_stim/white_mw010.bmp'><br><font color='green'><strong>Share</strong></font></div></div><div class='respDiv'><div class='respDivL'>Match<br>(e)</div><div class='respDivR'>No Match<br>(i)</div></div></div>","i","TARGET","2","trustrating_stim/white_mw085.bmp,trustrating_stim/white_mw013.bmp","0,1","noMatchFace","i","3000","trustrating_stim/white_mw010.bmp","green","Share","REAL","1"
"html-keyboard-response","84","234180","0.0-7.0-5.9","641ec1a9d9fe8a0941e39862","bdp_wmem","Sat Apr 08 2023 08:16:59 GMT-0700 (Pacific Daylight Time)","591493","Match,No Match","","null","","","","","","<div class='trialBorder'><div class='vertical-center'><img src='img/correct.jpg'></div><div class='respDiv'><div class='respDivL'>Match<br>(e)</div><div class='respDivR'><font style='color:orange'>No Match<br>(i)</font></div></div></div>","null","FEEDBACK","","","","","","","","","","",""
"html-keyboard-response","85","234683","0.0-7.0-1.10","641ec1a9d9fe8a0941e39862","bdp_wmem","Sat Apr 08 2023 08:16:59 GMT-0700 (Pacific Daylight Time)","591493","Match,No Match","","null","","","","","","<div class='trialBorder'><div class='vertical-center'><img src='img/fixation2_sml.jpg'</img></div></div>","null","FIX","","","","","","","","","","",""
"html-keyboard-response","86","239187","0.0-7.0-2.10","641ec1a9d9fe8a0941e39862","bdp_wmem","Sat Apr 08 2023 08:16:59 GMT-0700 (Pacific Daylight Time)","591493","Match,No Match","","null","","","","","","<div class='trialBorder'><div class='vertical-center'><img style='vertical-align:center; align:center' src='img/fixation2_sml.jpg'></div><div class='arrayDiv3'><div class='tl'><img class='introPic' src='trustrating_stim/white_mw070.bmp'><br><font color='green'><strong>Share</strong></font></div><div class='tc'><img class='introPic' src='trustrating_stim/white_mw078.bmp'><br><font color='green'><strong>Share</strong></font></div><div class='tr'><img class='introPic' src='trustrating_stim/white_mw040.bmp'><br><font color='red'><strong>Keep</strong></font></div></div></div>","null","ARRAY","3","trustrating_stim/white_mw070.bmp,trustrating_stim/white_mw078.bmp,trustrating_stim/white_mw040.bmp","1,1,0","Match","e","4500","","","","",""
"html-keyboard-response","87","243195","0.0-7.0-3.10","641ec1a9d9fe8a0941e39862","bdp_wmem","Sat Apr 08 2023 08:16:59 GMT-0700 (Pacific Daylight Time)","591493","Match,No Match","","null","","","","","","<div class='trialBorder'><div class='vertical-center'><img src='img/fixation2_sml.jpg'</img></div></div>","null","DELAY","","","","","","","","","","",""
"html-keyboard-response","88","244631","0.0-7.0-4.10","641ec1a9d9fe8a0941e39862","bdp_wmem","Sat Apr 08 2023 08:16:59 GMT-0700 (Pacific Daylight Time)","591493","Match,No Match","","1434","","","","","","<div class='trialBorder'><div class='targDiv'><div class='tc'><img class='introPic' src='trustrating_stim/white_mw040.bmp'><br><font color='red'><strong>Keep</strong></font></div></div><div class='respDiv'><div class='respDivL'>Match<br>(e)</div><div class='respDivR'>No Match<br>(i)</div></div></div>","e","TARGET","3","trustrating_stim/white_mw070.bmp,trustrating_stim/white_mw078.bmp,trustrating_stim/white_mw040.bmp","1,1,0","Match","e","4500","trustrating_stim/white_mw040.bmp","red","Keep","REAL","1"
"html-keyboard-response","89","245139","0.0-7.0-5.10","641ec1a9d9fe8a0941e39862","bdp_wmem","Sat Apr 08 2023 08:16:59 GMT-0700 (Pacific Daylight Time)","591493","Match,No Match","","null","","","","","","<div class='trialBorder'><div class='vertical-center'><img src='img/correct.jpg'></div><div class='respDiv'><div class='respDivL'><font style='color:orange'>Match<br>(e)</font></div><div class='respDivR'>No Match<br>(i)</div></div></div>","null","FEEDBACK","","","","","","","","","","",""
"html-keyboard-response","90","245644","0.0-7.0-1.11","641ec1a9d9fe8a0941e39862","bdp_wmem","Sat Apr 08 2023 08:16:59 GMT-0700 (Pacific Daylight Time)","591493","Match,No Match","","null","","","","","","<div class='trialBorder'><div class='vertical-center'><img src='img/fixation2_sml.jpg'</img></div></div>","null","FIX","","","","","","","","","","",""
"html-keyboard-response","91","248651","0.0-7.0-2.11","641ec1a9d9fe8a0941e39862","bdp_wmem","Sat Apr 08 2023 08:16:59 GMT-0700 (Pacific Daylight Time)","591493","Match,No Match","","null","","","","","","<div class='trialBorder'><div class='vertical-center'><img style='vertical-align:center; align:center' src='img/fixation2_sml.jpg'></div><div class='arrayDiv2'><div class='tl'><img class='introPic' src='trustrating_stim/white_mw010.bmp'><br><font color='green'><strong>Share</strong></font></div><div class='tr'><img class='introPic' src='trustrating_stim/white_mw040.bmp'><br><font color='red'><strong>Keep</strong></font></div></div></div>","null","ARRAY","2","trustrating_stim/white_mw010.bmp,trustrating_stim/white_mw040.bmp","1,0","Match","e","3000","","","","",""
"html-keyboard-response","92","252660","0.0-7.0-3.11","641ec1a9d9fe8a0941e39862","bdp_wmem","Sat Apr 08 2023 08:16:59 GMT-0700 (Pacific Daylight Time)","591493","Match,No Match","","null","","","","","","<div class='trialBorder'><div class='vertical-center'><img src='img/fixation2_sml.jpg'</img></div></div>","null","DELAY","","","","","","","","","","",""
"html-keyboard-response","93","254240","0.0-7.0-4.11","641ec1a9d9fe8a0941e39862","bdp_wmem","Sat Apr 08 2023 08:16:59 GMT-0700 (Pacific Daylight Time)","591493","Match,No Match","","1578","","","","","","<div class='trialBorder'><div class='targDiv'><div class='tc'><img class='introPic' src='trustrating_stim/white_mw010.bmp'><br><font color='green'><strong>Share</strong></font></div></div><div class='respDiv'><div class='respDivL'>Match<br>(e)</div><div class='respDivR'>No Match<br>(i)</div></div></div>","e","TARGET","2","trustrating_stim/white_mw010.bmp,trustrating_stim/white_mw040.bmp","1,0","Match","e","3000","trustrating_stim/white_mw010.bmp","green","Share","REAL","1"
"html-keyboard-response","94","254748","0.0-7.0-5.11","641ec1a9d9fe8a0941e39862","bdp_wmem","Sat Apr 08 2023 08:16:59 GMT-0700 (Pacific Daylight Time)","591493","Match,No Match","","null","","","","","","<div class='trialBorder'><div class='vertical-center'><img src='img/correct.jpg'></div><div class='respDiv'><div class='respDivL'><font style='color:orange'>Match<br>(e)</font></div><div class='respDivR'>No Match<br>(i)</div></div></div>","null","FEEDBACK","","","","","","","","","","",""
"html-keyboard-response","95","255251","0.0-7.0-1.12","641ec1a9d9fe8a0941e39862","bdp_wmem","Sat Apr 08 2023 08:16:59 GMT-0700 (Pacific Daylight Time)","591493","Match,No Match","","null","","","","","","<div class='trialBorder'><div class='vertical-center'><img src='img/fixation2_sml.jpg'</img></div></div>","null","FIX","","","","","","","","","","",""
"html-keyboard-response","96","256755","0.0-7.0-2.12","641ec1a9d9fe8a0941e39862","bdp_wmem","Sat Apr 08 2023 08:16:59 GMT-0700 (Pacific Daylight Time)","591493","Match,No Match","","null","","","","","","<div class='trialBorder'><div class='vertical-center'><img style='vertical-align:center; align:center' src='img/fixation2_sml.jpg'></div><div class='arrayDiv1'><div class='tc'><img class='introPic' src='trustrating_stim/white_mw091.bmp'><br><font color='red'><strong>Keep</strong></font></div></div></div>","null","ARRAY","1","trustrating_stim/white_mw091.bmp","0","Match","e","1500","","","","",""
"html-keyboard-response","97","260763","0.0-7.0-3.12","641ec1a9d9fe8a0941e39862","bdp_wmem","Sat Apr 08 2023 08:16:59 GMT-0700 (Pacific Daylight Time)","591493","Match,No Match","","null","","","","","","<div class='trialBorder'><div class='vertical-center'><img src='img/fixation2_sml.jpg'</img></div></div>","null","DELAY","","","","","","","","","","",""
"html-keyboard-response","98","261704","0.0-7.0-4.12","641ec1a9d9fe8a0941e39862","bdp_wmem","Sat Apr 08 2023 08:16:59 GMT-0700 (Pacific Daylight Time)","591493","Match,No Match","","939","","","","","","<div class='trialBorder'><div class='targDiv'><div class='tc'><img class='introPic' src='trustrating_stim/white_mw091.bmp'><br><font color='red'><strong>Keep</strong></font></div></div><div class='respDiv'><div class='respDivL'>Match<br>(e)</div><div class='respDivR'>No Match<br>(i)</div></div></div>","e","TARGET","1","trustrating_stim/white_mw091.bmp","0","Match","e","1500","trustrating_stim/white_mw091.bmp","red","Keep","REAL","1"
"html-keyboard-response","99","262211","0.0-7.0-5.12","641ec1a9d9fe8a0941e39862","bdp_wmem","Sat Apr 08 2023 08:16:59 GMT-0700 (Pacific Daylight Time)","591493","Match,No Match","","null","","","","","","<div class='trialBorder'><div class='vertical-center'><img src='img/correct.jpg'></div><div class='respDiv'><div class='respDivL'><font style='color:orange'>Match<br>(e)</font></div><div class='respDivR'>No Match<br>(i)</div></div></div>","null","FEEDBACK","","","","","","","","","","",""
"html-keyboard-response","100","262716","0.0-7.0-1.13","641ec1a9d9fe8a0941e39862","bdp_wmem","Sat Apr 08 2023 08:16:59 GMT-0700 (Pacific Daylight Time)","591493","Match,No Match","","null","","","","","","<div class='trialBorder'><div class='vertical-center'><img src='img/fixation2_sml.jpg'</img></div></div>","null","FIX","","","","","","","","","","",""
"html-keyboard-response","101","265723","0.0-7.0-2.13","641ec1a9d9fe8a0941e39862","bdp_wmem","Sat Apr 08 2023 08:16:59 GMT-0700 (Pacific Daylight Time)","591493","Match,No Match","","null","","","","","","<div class='trialBorder'><div class='vertical-center'><img style='vertical-align:center; align:center' src='img/fixation2_sml.jpg'></div><div class='arrayDiv2'><div class='tl'><img class='introPic' src='trustrating_stim/white_mw092.bmp'><br><font color='green'><strong>Share</strong></font></div><div class='tr'><img class='introPic' src='trustrating_stim/white_mw013.bmp'><br><font color='red'><strong>Keep</strong></font></div></div></div>","null","ARRAY","2","trustrating_stim/white_mw092.bmp,trustrating_stim/white_mw013.bmp","1,0","noMatchOutcome","i","3000","","","","",""
"html-keyboard-response","102","269731","0.0-7.0-3.13","641ec1a9d9fe8a0941e39862","bdp_wmem","Sat Apr 08 2023 08:16:59 GMT-0700 (Pacific Daylight Time)","591493","Match,No Match","","null","","","","","","<div class='trialBorder'><div class='vertical-center'><img src='img/fixation2_sml.jpg'</img></div></div>","null","DELAY","","","","","","","","","","",""
"html-keyboard-response","103","271281","0.0-7.0-4.13","641ec1a9d9fe8a0941e39862","bdp_wmem","Sat Apr 08 2023 08:16:59 GMT-0700 (Pacific Daylight Time)","591493","Match,No Match","","1547","","","","","","<div class='trialBorder'><div class='targDiv'><div class='tc'><img class='introPic' src='trustrating_stim/white_mw013.bmp'><br><font color='green'><strong>Share</strong></font></div></div><div class='respDiv'><div class='respDivL'>Match<br>(e)</div><div class='respDivR'>No Match<br>(i)</div></div></div>","e","TARGET","2","trustrating_stim/white_mw092.bmp,trustrating_stim/white_mw013.bmp","1,0","noMatchOutcome","i","3000","trustrating_stim/white_mw013.bmp","green","Share","REAL","0"
"html-keyboard-response","104","271787","0.0-7.0-5.13","641ec1a9d9fe8a0941e39862","bdp_wmem","Sat Apr 08 2023 08:16:59 GMT-0700 (Pacific Daylight Time)","591493","Match,No Match","","null","","","","","","<div class='trialBorder'><div class='vertical-center'><img src='img/error.jpg'></div><div class='respDiv'><div class='respDivL'><font style='color:orange'>Match<br>(e)</font></div><div class='respDivR'>No Match<br>(i)</div></div></div>","null","FEEDBACK","","","","","","","","","","",""
"html-keyboard-response","105","272291","0.0-7.0-1.14","641ec1a9d9fe8a0941e39862","bdp_wmem","Sat Apr 08 2023 08:16:59 GMT-0700 (Pacific Daylight Time)","591493","Match,No Match","","null","","","","","","<div class='trialBorder'><div class='vertical-center'><img src='img/fixation2_sml.jpg'</img></div></div>","null","FIX","","","","","","","","","","",""
"html-keyboard-response","106","273795","0.0-7.0-2.14","641ec1a9d9fe8a0941e39862","bdp_wmem","Sat Apr 08 2023 08:16:59 GMT-0700 (Pacific Daylight Time)","591493","Match,No Match","","null","","","","","","<div class='trialBorder'><div class='vertical-center'><img style='vertical-align:center; align:center' src='img/fixation2_sml.jpg'></div><div class='arrayDiv1'><div class='tc'><img class='introPic' src='trustrating_stim/white_mw042.bmp'><br><font color='red'><strong>Keep</strong></font></div></div></div>","null","ARRAY","1","trustrating_stim/white_mw042.bmp","0","Match","e","1500","","","","",""
"html-keyboard-response","107","277804","0.0-7.0-3.14","641ec1a9d9fe8a0941e39862","bdp_wmem","Sat Apr 08 2023 08:16:59 GMT-0700 (Pacific Daylight Time)","591493","Match,No Match","","null","","","","","","<div class='trialBorder'><div class='vertical-center'><img src='img/fixation2_sml.jpg'</img></div></div>","null","DELAY","","","","","","","","","","",""
"html-keyboard-response","108","278898","0.0-7.0-4.14","641ec1a9d9fe8a0941e39862","bdp_wmem","Sat Apr 08 2023 08:16:59 GMT-0700 (Pacific Daylight Time)","591493","Match,No Match","","1093","","","","","","<div class='trialBorder'><div class='targDiv'><div class='tc'><img class='introPic' src='trustrating_stim/white_mw042.bmp'><br><font color='red'><strong>Keep</strong></font></div></div><div class='respDiv'><div class='respDivL'>Match<br>(e)</div><div class='respDivR'>No Match<br>(i)</div></div></div>","e","TARGET","1","trustrating_stim/white_mw042.bmp","0","Match","e","1500","trustrating_stim/white_mw042.bmp","red","Keep","REAL","1"
"html-keyboard-response","109","279404","0.0-7.0-5.14","641ec1a9d9fe8a0941e39862","bdp_wmem","Sat Apr 08 2023 08:16:59 GMT-0700 (Pacific Daylight Time)","591493","Match,No Match","","null","","","","","","<div class='trialBorder'><div class='vertical-center'><img src='img/correct.jpg'></div><div class='respDiv'><div class='respDivL'><font style='color:orange'>Match<br>(e)</font></div><div class='respDivR'>No Match<br>(i)</div></div></div>","null","FEEDBACK","","","","","","","","","","",""
"html-keyboard-response","110","279907","0.0-7.0-1.15","641ec1a9d9fe8a0941e39862","bdp_wmem","Sat Apr 08 2023 08:16:59 GMT-0700 (Pacific Daylight Time)","591493","Match,No Match","","null","","","","","","<div class='trialBorder'><div class='vertical-center'><img src='img/fixation2_sml.jpg'</img></div></div>","null","FIX","","","","","","","","","","",""
"html-keyboard-response","111","284411","0.0-7.0-2.15","641ec1a9d9fe8a0941e39862","bdp_wmem","Sat Apr 08 2023 08:16:59 GMT-0700 (Pacific Daylight Time)","591493","Match,No Match","","null","","","","","","<div class='trialBorder'><div class='vertical-center'><img style='vertical-align:center; align:center' src='img/fixation2_sml.jpg'></div><div class='arrayDiv3'><div class='tl'><img class='introPic' src='trustrating_stim/white_mw078.bmp'><br><font color='red'><strong>Keep</strong></font></div><div class='tc'><img class='introPic' src='trustrating_stim/white_mw042.bmp'><br><font color='green'><strong>Share</strong></font></div><div class='tr'><img class='introPic' src='trustrating_stim/white_mw040.bmp'><br><font color='red'><strong>Keep</strong></font></div></div></div>","null","ARRAY","3","trustrating_stim/white_mw078.bmp,trustrating_stim/white_mw042.bmp,trustrating_stim/white_mw040.bmp","0,1,0","Match","e","4500","","","","",""
"html-keyboard-response","112","288419","0.0-7.0-3.15","641ec1a9d9fe8a0941e39862","bdp_wmem","Sat Apr 08 2023 08:16:59 GMT-0700 (Pacific Daylight Time)","591493","Match,No Match","","null","","","","","","<div class='trialBorder'><div class='vertical-center'><img src='img/fixation2_sml.jpg'</img></div></div>","null","DELAY","","","","","","","","","","",""
"html-keyboard-response","113","290734","0.0-7.0-4.15","641ec1a9d9fe8a0941e39862","bdp_wmem","Sat Apr 08 2023 08:16:59 GMT-0700 (Pacific Daylight Time)","591493","Match,No Match","","2313","","","","","","<div class='trialBorder'><div class='targDiv'><div class='tc'><img class='introPic' src='trustrating_stim/white_mw040.bmp'><br><font color='red'><strong>Keep</strong></font></div></div><div class='respDiv'><div class='respDivL'>Match<br>(e)</div><div class='respDivR'>No Match<br>(i)</div></div></div>","i","TARGET","3","trustrating_stim/white_mw078.bmp,trustrating_stim/white_mw042.bmp,trustrating_stim/white_mw040.bmp","0,1,0","Match","e","4500","trustrating_stim/white_mw040.bmp","red","Keep","REAL","0"
"html-keyboard-response","114","291243","0.0-7.0-5.15","641ec1a9d9fe8a0941e39862","bdp_wmem","Sat Apr 08 2023 08:16:59 GMT-0700 (Pacific Daylight Time)","591493","Match,No Match","","null","","","","","","<div class='trialBorder'><div class='vertical-center'><img src='img/error.jpg'></div><div class='respDiv'><div class='respDivL'>Match<br>(e)</div><div class='respDivR'><font style='color:orange'>No Match<br>(i)</font></div></div></div>","null","FEEDBACK","","","","","","","","","","",""
"html-keyboard-response","115","291747","0.0-7.0-1.16","641ec1a9d9fe8a0941e39862","bdp_wmem","Sat Apr 08 2023 08:16:59 GMT-0700 (Pacific Daylight Time)","591493","Match,No Match","","null","","","","","","<div class='trialBorder'><div class='vertical-center'><img src='img/fixation2_sml.jpg'</img></div></div>","null","FIX","","","","","","","","","","",""
"html-keyboard-response","116","293252","0.0-7.0-2.16","641ec1a9d9fe8a0941e39862","bdp_wmem","Sat Apr 08 2023 08:16:59 GMT-0700 (Pacific Daylight Time)","591493","Match,No Match","","null","","","","","","<div class='trialBorder'><div class='vertical-center'><img style='vertical-align:center; align:center' src='img/fixation2_sml.jpg'></div><div class='arrayDiv1'><div class='tc'><img class='introPic' src='trustrating_stim/white_mw010.bmp'><br><font color='red'><strong>Keep</strong></font></div></div></div>","null","ARRAY","1","trustrating_stim/white_mw010.bmp","0","noMatchFace","i","1500","","","","",""
"html-keyboard-response","117","297259","0.0-7.0-3.16","641ec1a9d9fe8a0941e39862","bdp_wmem","Sat Apr 08 2023 08:16:59 GMT-0700 (Pacific Daylight Time)","591493","Match,No Match","","null","","","","","","<div class='trialBorder'><div class='vertical-center'><img src='img/fixation2_sml.jpg'</img></div></div>","null","DELAY","","","","","","","","","","",""
"html-keyboard-response","118","298645","0.0-7.0-4.16","641ec1a9d9fe8a0941e39862","bdp_wmem","Sat Apr 08 2023 08:16:59 GMT-0700 (Pacific Daylight Time)","591493","Match,No Match","","1384","","","","","","<div class='trialBorder'><div class='targDiv'><div class='tc'><img class='introPic' src='trustrating_stim/white_mw092.bmp'><br><font color='red'><strong>Keep</strong></font></div></div><div class='respDiv'><div class='respDivL'>Match<br>(e)</div><div class='respDivR'>No Match<br>(i)</div></div></div>","i","TARGET","1","trustrating_stim/white_mw010.bmp","0","noMatchFace","i","1500","trustrating_stim/white_mw092.bmp","red","Keep","REAL","1"
"html-keyboard-response","119","299148","0.0-7.0-5.16","641ec1a9d9fe8a0941e39862","bdp_wmem","Sat Apr 08 2023 08:16:59 GMT-0700 (Pacific Daylight Time)","591493","Match,No Match","","null","","","","","","<div class='trialBorder'><div class='vertical-center'><img src='img/correct.jpg'></div><div class='respDiv'><div class='respDivL'>Match<br>(e)</div><div class='respDivR'><font style='color:orange'>No Match<br>(i)</font></div></div></div>","null","FEEDBACK","","","","","","","","","","",""
"html-keyboard-response","120","299652","0.0-7.0-1.17","641ec1a9d9fe8a0941e39862","bdp_wmem","Sat Apr 08 2023 08:16:59 GMT-0700 (Pacific Daylight Time)","591493","Match,No Match","","null","","","","","","<div class='trialBorder'><div class='vertical-center'><img src='img/fixation2_sml.jpg'</img></div></div>","null","FIX","","","","","","","","","","",""
"html-keyboard-response","121","301155","0.0-7.0-2.17","641ec1a9d9fe8a0941e39862","bdp_wmem","Sat Apr 08 2023 08:16:59 GMT-0700 (Pacific Daylight Time)","591493","Match,No Match","","null","","","","","","<div class='trialBorder'><div class='vertical-center'><img style='vertical-align:center; align:center' src='img/fixation2_sml.jpg'></div><div class='arrayDiv1'><div class='tc'><img class='introPic' src='trustrating_stim/white_mw013.bmp'><br><font color='green'><strong>Share</strong></font></div></div></div>","null","ARRAY","1","trustrating_stim/white_mw013.bmp","1","noMatchFace","i","1500","","","","",""
"html-keyboard-response","122","305164","0.0-7.0-3.17","641ec1a9d9fe8a0941e39862","bdp_wmem","Sat Apr 08 2023 08:16:59 GMT-0700 (Pacific Daylight Time)","591493","Match,No Match","","null","","","","","","<div class='trialBorder'><div class='vertical-center'><img src='img/fixation2_sml.jpg'</img></div></div>","null","DELAY","","","","","","","","","","",""
"html-keyboard-response","123","306818","0.0-7.0-4.17","641ec1a9d9fe8a0941e39862","bdp_wmem","Sat Apr 08 2023 08:16:59 GMT-0700 (Pacific Daylight Time)","591493","Match,No Match","","1653","","","","","","<div class='trialBorder'><div class='targDiv'><div class='tc'><img class='introPic' src='trustrating_stim/white_mw040.bmp'><br><font color='green'><strong>Share</strong></font></div></div><div class='respDiv'><div class='respDivL'>Match<br>(e)</div><div class='respDivR'>No Match<br>(i)</div></div></div>","i","TARGET","1","trustrating_stim/white_mw013.bmp","1","noMatchFace","i","1500","trustrating_stim/white_mw040.bmp","green","Share","REAL","1"
"html-keyboard-response","124","307323","0.0-7.0-5.17","641ec1a9d9fe8a0941e39862","bdp_wmem","Sat Apr 08 2023 08:16:59 GMT-0700 (Pacific Daylight Time)","591493","Match,No Match","","null","","","","","","<div class='trialBorder'><div class='vertical-center'><img src='img/correct.jpg'></div><div class='respDiv'><div class='respDivL'>Match<br>(e)</div><div class='respDivR'><font style='color:orange'>No Match<br>(i)</font></div></div></div>","null","FEEDBACK","","","","","","","","","","",""
"html-keyboard-response","125","307828","0.0-7.0-1.18","641ec1a9d9fe8a0941e39862","bdp_wmem","Sat Apr 08 2023 08:16:59 GMT-0700 (Pacific Daylight Time)","591493","Match,No Match","","null","","","","","","<div class='trialBorder'><div class='vertical-center'><img src='img/fixation2_sml.jpg'</img></div></div>","null","FIX","","","","","","","","","","",""
"html-keyboard-response","126","312331","0.0-7.0-2.18","641ec1a9d9fe8a0941e39862","bdp_wmem","Sat Apr 08 2023 08:16:59 GMT-0700 (Pacific Daylight Time)","591493","Match,No Match","","null","","","","","","<div class='trialBorder'><div class='vertical-center'><img style='vertical-align:center; align:center' src='img/fixation2_sml.jpg'></div><div class='arrayDiv3'><div class='tl'><img class='introPic' src='trustrating_stim/white_mw085.bmp'><br><font color='green'><strong>Share</strong></font></div><div class='tc'><img class='introPic' src='trustrating_stim/white_mw013.bmp'><br><font color='red'><strong>Keep</strong></font></div><div class='tr'><img class='introPic' src='trustrating_stim/white_mw012.bmp'><br><font color='red'><strong>Keep</strong></font></div></div></div>","null","ARRAY","3","trustrating_stim/white_mw085.bmp,trustrating_stim/white_mw013.bmp,trustrating_stim/white_mw012.bmp","1,0,0","noMatchOutcome","i","4500","","","","",""
"html-keyboard-response","127","316340","0.0-7.0-3.18","641ec1a9d9fe8a0941e39862","bdp_wmem","Sat Apr 08 2023 08:16:59 GMT-0700 (Pacific Daylight Time)","591493","Match,No Match","","null","","","","","","<div class='trialBorder'><div class='vertical-center'><img src='img/fixation2_sml.jpg'</img></div></div>","null","DELAY","","","","","","","","","","",""
"html-keyboard-response","128","318363","0.0-7.0-4.18","641ec1a9d9fe8a0941e39862","bdp_wmem","Sat Apr 08 2023 08:16:59 GMT-0700 (Pacific Daylight Time)","591493","Match,No Match","","2021","","","","","","<div class='trialBorder'><div class='targDiv'><div class='tc'><img class='introPic' src='trustrating_stim/white_mw012.bmp'><br><font color='green'><strong>Share</strong></font></div></div><div class='respDiv'><div class='respDivL'>Match<br>(e)</div><div class='respDivR'>No Match<br>(i)</div></div></div>","i","TARGET","3","trustrating_stim/white_mw085.bmp,trustrating_stim/white_mw013.bmp,trustrating_stim/white_mw012.bmp","1,0,0","noMatchOutcome","i","4500","trustrating_stim/white_mw012.bmp","green","Share","REAL","1"
"html-keyboard-response","129","318868","0.0-7.0-5.18","641ec1a9d9fe8a0941e39862","bdp_wmem","Sat Apr 08 2023 08:16:59 GMT-0700 (Pacific Daylight Time)","591493","Match,No Match","","null","","","","","","<div class='trialBorder'><div class='vertical-center'><img src='img/correct.jpg'></div><div class='respDiv'><div class='respDivL'>Match<br>(e)</div><div class='respDivR'><font style='color:orange'>No Match<br>(i)</font></div></div></div>","null","FEEDBACK","","","","","","","","","","",""
"html-keyboard-response","130","319372","0.0-7.0-1.19","641ec1a9d9fe8a0941e39862","bdp_wmem","Sat Apr 08 2023 08:16:59 GMT-0700 (Pacific Daylight Time)","591493","Match,No Match","","null","","","","","","<div class='trialBorder'><div class='vertical-center'><img src='img/fixation2_sml.jpg'</img></div></div>","null","FIX","","","","","","","","","","",""
"html-keyboard-response","131","323876","0.0-7.0-2.19","641ec1a9d9fe8a0941e39862","bdp_wmem","Sat Apr 08 2023 08:16:59 GMT-0700 (Pacific Daylight Time)","591493","Match,No Match","","null","","","","","","<div class='trialBorder'><div class='vertical-center'><img style='vertical-align:center; align:center' src='img/fixation2_sml.jpg'></div><div class='arrayDiv3'><div class='tl'><img class='introPic' src='trustrating_stim/white_mw092.bmp'><br><font color='red'><strong>Keep</strong></font></div><div class='tc'><img class='introPic' src='trustrating_stim/white_mw013.bmp'><br><font color='green'><strong>Share</strong></font></div><div class='tr'><img class='introPic' src='trustrating_stim/white_mw038.bmp'><br><font color='red'><strong>Keep</strong></font></div></div></div>","null","ARRAY","3","trustrating_stim/white_mw092.bmp,trustrating_stim/white_mw013.bmp,trustrating_stim/white_mw038.bmp","0,1,0","Match","e","4500","","","","",""
"html-keyboard-response","132","327883","0.0-7.0-3.19","641ec1a9d9fe8a0941e39862","bdp_wmem","Sat Apr 08 2023 08:16:59 GMT-0700 (Pacific Daylight Time)","591493","Match,No Match","","null","","","","","","<div class='trialBorder'><div class='vertical-center'><img src='img/fixation2_sml.jpg'</img></div></div>","null","DELAY","","","","","","","","","","",""
"html-keyboard-response","133","329300","0.0-7.0-4.19","641ec1a9d9fe8a0941e39862","bdp_wmem","Sat Apr 08 2023 08:16:59 GMT-0700 (Pacific Daylight Time)","591493","Match,No Match","","1415","","","","","","<div class='trialBorder'><div class='targDiv'><div class='tc'><img class='introPic' src='trustrating_stim/white_mw038.bmp'><br><font color='red'><strong>Keep</strong></font></div></div><div class='respDiv'><div class='respDivL'>Match<br>(e)</div><div class='respDivR'>No Match<br>(i)</div></div></div>","e","TARGET","3","trustrating_stim/white_mw092.bmp,trustrating_stim/white_mw013.bmp,trustrating_stim/white_mw038.bmp","0,1,0","Match","e","4500","trustrating_stim/white_mw038.bmp","red","Keep","REAL","1"
"html-keyboard-response","134","329803","0.0-7.0-5.19","641ec1a9d9fe8a0941e39862","bdp_wmem","Sat Apr 08 2023 08:16:59 GMT-0700 (Pacific Daylight Time)","591493","Match,No Match","","null","","","","","","<div class='trialBorder'><div class='vertical-center'><img src='img/correct.jpg'></div><div class='respDiv'><div class='respDivL'><font style='color:orange'>Match<br>(e)</font></div><div class='respDivR'>No Match<br>(i)</div></div></div>","null","FEEDBACK","","","","","","","","","","",""
"html-keyboard-response","135","330307","0.0-7.0-1.20","641ec1a9d9fe8a0941e39862","bdp_wmem","Sat Apr 08 2023 08:16:59 GMT-0700 (Pacific Daylight Time)","591493","Match,No Match","","null","","","","","","<div class='trialBorder'><div class='vertical-center'><img src='img/fixation2_sml.jpg'</img></div></div>","null","FIX","","","","","","","","","","",""
"html-keyboard-response","136","331811","0.0-7.0-2.20","641ec1a9d9fe8a0941e39862","bdp_wmem","Sat Apr 08 2023 08:16:59 GMT-0700 (Pacific Daylight Time)","591493","Match,No Match","","null","","","","","","<div class='trialBorder'><div class='vertical-center'><img style='vertical-align:center; align:center' src='img/fixation2_sml.jpg'></div><div class='arrayDiv1'><div class='tc'><img class='introPic' src='trustrating_stim/white_mw085.bmp'><br><font color='red'><strong>Keep</strong></font></div></div></div>","null","ARRAY","1","trustrating_stim/white_mw085.bmp","0","Match","e","1500","","","","",""
"html-keyboard-response","137","335819","0.0-7.0-3.20","641ec1a9d9fe8a0941e39862","bdp_wmem","Sat Apr 08 2023 08:16:59 GMT-0700 (Pacific Daylight Time)","591493","Match,No Match","","null","","","","","","<div class='trialBorder'><div class='vertical-center'><img src='img/fixation2_sml.jpg'</img></div></div>","null","DELAY","","","","","","","","","","",""
"html-keyboard-response","138","336847","0.0-7.0-4.20","641ec1a9d9fe8a0941e39862","bdp_wmem","Sat Apr 08 2023 08:16:59 GMT-0700 (Pacific Daylight Time)","591493","Match,No Match","","1026","","","","","","<div class='trialBorder'><div class='targDiv'><div class='tc'><img class='introPic' src='trustrating_stim/white_mw085.bmp'><br><font color='red'><strong>Keep</strong></font></div></div><div class='respDiv'><div class='respDivL'>Match<br>(e)</div><div class='respDivR'>No Match<br>(i)</div></div></div>","e","TARGET","1","trustrating_stim/white_mw085.bmp","0","Match","e","1500","trustrating_stim/white_mw085.bmp","red","Keep","REAL","1"
"html-keyboard-response","139","337356","0.0-7.0-5.20","641ec1a9d9fe8a0941e39862","bdp_wmem","Sat Apr 08 2023 08:16:59 GMT-0700 (Pacific Daylight Time)","591493","Match,No Match","","null","","","","","","<div class='trialBorder'><div class='vertical-center'><img src='img/correct.jpg'></div><div class='respDiv'><div class='respDivL'><font style='color:orange'>Match<br>(e)</font></div><div class='respDivR'>No Match<br>(i)</div></div></div>","null","FEEDBACK","","","","","","","","","","",""
"html-keyboard-response","140","337860","0.0-7.0-1.21","641ec1a9d9fe8a0941e39862","bdp_wmem","Sat Apr 08 2023 08:16:59 GMT-0700 (Pacific Daylight Time)","591493","Match,No Match","","null","","","","","","<div class='trialBorder'><div class='vertical-center'><img src='img/fixation2_sml.jpg'</img></div></div>","null","FIX","","","","","","","","","","",""
"html-keyboard-response","141","339363","0.0-7.0-2.21","641ec1a9d9fe8a0941e39862","bdp_wmem","Sat Apr 08 2023 08:16:59 GMT-0700 (Pacific Daylight Time)","591493","Match,No Match","","null","","","","","","<div class='trialBorder'><div class='vertical-center'><img style='vertical-align:center; align:center' src='img/fixation2_sml.jpg'></div><div class='arrayDiv1'><div class='tc'><img class='introPic' src='trustrating_stim/white_mw012.bmp'><br><font color='red'><strong>Keep</strong></font></div></div></div>","null","ARRAY","1","trustrating_stim/white_mw012.bmp","0","noMatchOutcome","i","1500","","","","",""
"html-keyboard-response","142","343372","0.0-7.0-3.21","641ec1a9d9fe8a0941e39862","bdp_wmem","Sat Apr 08 2023 08:16:59 GMT-0700 (Pacific Daylight Time)","591493","Match,No Match","","null","","","","","","<div class='trialBorder'><div class='vertical-center'><img src='img/fixation2_sml.jpg'</img></div></div>","null","DELAY","","","","","","","","","","",""
"html-keyboard-response","143","344295","0.0-7.0-4.21","641ec1a9d9fe8a0941e39862","bdp_wmem","Sat Apr 08 2023 08:16:59 GMT-0700 (Pacific Daylight Time)","591493","Match,No Match","","922","","","","","","<div class='trialBorder'><div class='targDiv'><div class='tc'><img class='introPic' src='trustrating_stim/white_mw012.bmp'><br><font color='green'><strong>Share</strong></font></div></div><div class='respDiv'><div class='respDivL'>Match<br>(e)</div><div class='respDivR'>No Match<br>(i)</div></div></div>","e","TARGET","1","trustrating_stim/white_mw012.bmp","0","noMatchOutcome","i","1500","trustrating_stim/white_mw012.bmp","green","Share","REAL","0"
"html-keyboard-response","144","344803","0.0-7.0-5.21","641ec1a9d9fe8a0941e39862","bdp_wmem","Sat Apr 08 2023 08:16:59 GMT-0700 (Pacific Daylight Time)","591493","Match,No Match","","null","","","","","","<div class='trialBorder'><div class='vertical-center'><img src='img/error.jpg'></div><div class='respDiv'><div class='respDivL'><font style='color:orange'>Match<br>(e)</font></div><div class='respDivR'>No Match<br>(i)</div></div></div>","null","FEEDBACK","","","","","","","","","","",""
"html-keyboard-response","145","345307","0.0-7.0-1.22","641ec1a9d9fe8a0941e39862","bdp_wmem","Sat Apr 08 2023 08:16:59 GMT-0700 (Pacific Daylight Time)","591493","Match,No Match","","null","","","","","","<div class='trialBorder'><div class='vertical-center'><img src='img/fixation2_sml.jpg'</img></div></div>","null","FIX","","","","","","","","","","",""
"html-keyboard-response","146","348316","0.0-7.0-2.22","641ec1a9d9fe8a0941e39862","bdp_wmem","Sat Apr 08 2023 08:16:59 GMT-0700 (Pacific Daylight Time)","591493","Match,No Match","","null","","","","","","<div class='trialBorder'><div class='vertical-center'><img style='vertical-align:center; align:center' src='img/fixation2_sml.jpg'></div><div class='arrayDiv2'><div class='tl'><img class='introPic' src='trustrating_stim/white_mw010.bmp'><br><font color='green'><strong>Share</strong></font></div><div class='tr'><img class='introPic' src='trustrating_stim/white_mw070.bmp'><br><font color='red'><strong>Keep</strong></font></div></div></div>","null","ARRAY","2","trustrating_stim/white_mw010.bmp,trustrating_stim/white_mw070.bmp","1,0","noMatchFace","i","3000","","","","",""
"html-keyboard-response","147","352324","0.0-7.0-3.22","641ec1a9d9fe8a0941e39862","bdp_wmem","Sat Apr 08 2023 08:16:59 GMT-0700 (Pacific Daylight Time)","591493","Match,No Match","","null","","","","","","<div class='trialBorder'><div class='vertical-center'><img src='img/fixation2_sml.jpg'</img></div></div>","null","DELAY","","","","","","","","","","",""
"html-keyboard-response","148","353864","0.0-7.0-4.22","641ec1a9d9fe8a0941e39862","bdp_wmem","Sat Apr 08 2023 08:16:59 GMT-0700 (Pacific Daylight Time)","591493","Match,No Match","","1538","","","","","","<div class='trialBorder'><div class='targDiv'><div class='tc'><img class='introPic' src='trustrating_stim/white_mw012.bmp'><br><font color='red'><strong>Keep</strong></font></div></div><div class='respDiv'><div class='respDivL'>Match<br>(e)</div><div class='respDivR'>No Match<br>(i)</div></div></div>","e","TARGET","2","trustrating_stim/white_mw010.bmp,trustrating_stim/white_mw070.bmp","1,0","noMatchFace","i","3000","trustrating_stim/white_mw012.bmp","red","Keep","REAL","0"
"html-keyboard-response","149","354372","0.0-7.0-5.22","641ec1a9d9fe8a0941e39862","bdp_wmem","Sat Apr 08 2023 08:16:59 GMT-0700 (Pacific Daylight Time)","591493","Match,No Match","","null","","","","","","<div class='trialBorder'><div class='vertical-center'><img src='img/error.jpg'></div><div class='respDiv'><div class='respDivL'><font style='color:orange'>Match<br>(e)</font></div><div class='respDivR'>No Match<br>(i)</div></div></div>","null","FEEDBACK","","","","","","","","","","",""
"html-keyboard-response","150","354876","0.0-7.0-1.23","641ec1a9d9fe8a0941e39862","bdp_wmem","Sat Apr 08 2023 08:16:59 GMT-0700 (Pacific Daylight Time)","591493","Match,No Match","","null","","","","","","<div class='trialBorder'><div class='vertical-center'><img src='img/fixation2_sml.jpg'</img></div></div>","null","FIX","","","","","","","","","","",""
"html-keyboard-response","151","357884","0.0-7.0-2.23","641ec1a9d9fe8a0941e39862","bdp_wmem","Sat Apr 08 2023 08:16:59 GMT-0700 (Pacific Daylight Time)","591493","Match,No Match","","null","","","","","","<div class='trialBorder'><div class='vertical-center'><img style='vertical-align:center; align:center' src='img/fixation2_sml.jpg'></div><div class='arrayDiv2'><div class='tl'><img class='introPic' src='trustrating_stim/white_mw038.bmp'><br><font color='red'><strong>Keep</strong></font></div><div class='tr'><img class='introPic' src='trustrating_stim/white_mw092.bmp'><br><font color='green'><strong>Share</strong></font></div></div></div>","null","ARRAY","2","trustrating_stim/white_mw038.bmp,trustrating_stim/white_mw092.bmp","0,1","Match","e","3000","","","","",""
"html-keyboard-response","152","361891","0.0-7.0-3.23","641ec1a9d9fe8a0941e39862","bdp_wmem","Sat Apr 08 2023 08:16:59 GMT-0700 (Pacific Daylight Time)","591493","Match,No Match","","null","","","","","","<div class='trialBorder'><div class='vertical-center'><img src='img/fixation2_sml.jpg'</img></div></div>","null","DELAY","","","","","","","","","","",""
"html-keyboard-response","153","363086","0.0-7.0-4.23","641ec1a9d9fe8a0941e39862","bdp_wmem","Sat Apr 08 2023 08:16:59 GMT-0700 (Pacific Daylight Time)","591493","Match,No Match","","1192","","","","","","<div class='trialBorder'><div class='targDiv'><div class='tc'><img class='introPic' src='trustrating_stim/white_mw092.bmp'><br><font color='green'><strong>Share</strong></font></div></div><div class='respDiv'><div class='respDivL'>Match<br>(e)</div><div class='respDivR'>No Match<br>(i)</div></div></div>","e","TARGET","2","trustrating_stim/white_mw038.bmp,trustrating_stim/white_mw092.bmp","0,1","Match","e","3000","trustrating_stim/white_mw092.bmp","green","Share","REAL","1"
"html-keyboard-response","154","363588","0.0-7.0-5.23","641ec1a9d9fe8a0941e39862","bdp_wmem","Sat Apr 08 2023 08:16:59 GMT-0700 (Pacific Daylight Time)","591493","Match,No Match","","null","","","","","","<div class='trialBorder'><div class='vertical-center'><img src='img/correct.jpg'></div><div class='respDiv'><div class='respDivL'><font style='color:orange'>Match<br>(e)</font></div><div class='respDivR'>No Match<br>(i)</div></div></div>","null","FEEDBACK","","","","","","","","","","",""
"html-keyboard-response","155","364092","0.0-7.0-1.24","641ec1a9d9fe8a0941e39862","bdp_wmem","Sat Apr 08 2023 08:16:59 GMT-0700 (Pacific Daylight Time)","591493","Match,No Match","","null","","","","","","<div class='trialBorder'><div class='vertical-center'><img src='img/fixation2_sml.jpg'</img></div></div>","null","FIX","","","","","","","","","","",""
"html-keyboard-response","156","368596","0.0-7.0-2.24","641ec1a9d9fe8a0941e39862","bdp_wmem","Sat Apr 08 2023 08:16:59 GMT-0700 (Pacific Daylight Time)","591493","Match,No Match","","null","","","","","","<div class='trialBorder'><div class='vertical-center'><img style='vertical-align:center; align:center' src='img/fixation2_sml.jpg'></div><div class='arrayDiv3'><div class='tl'><img class='introPic' src='trustrating_stim/white_mw042.bmp'><br><font color='red'><strong>Keep</strong></font></div><div class='tc'><img class='introPic' src='trustrating_stim/white_mw010.bmp'><br><font color='green'><strong>Share</strong></font></div><div class='tr'><img class='introPic' src='trustrating_stim/white_mw078.bmp'><br><font color='green'><strong>Share</strong></font></div></div></div>","null","ARRAY","3","trustrating_stim/white_mw042.bmp,trustrating_stim/white_mw010.bmp,trustrating_stim/white_mw078.bmp","0,1,1","Match","e","4500","","","","",""
"html-keyboard-response","157","372603","0.0-7.0-3.24","641ec1a9d9fe8a0941e39862","bdp_wmem","Sat Apr 08 2023 08:16:59 GMT-0700 (Pacific Daylight Time)","591493","Match,No Match","","null","","","","","","<div class='trialBorder'><div class='vertical-center'><img src='img/fixation2_sml.jpg'</img></div></div>","null","DELAY","","","","","","","","","","",""
"html-keyboard-response","158","373696","0.0-7.0-4.24","641ec1a9d9fe8a0941e39862","bdp_wmem","Sat Apr 08 2023 08:16:59 GMT-0700 (Pacific Daylight Time)","591493","Match,No Match","","1090","","","","","","<div class='trialBorder'><div class='targDiv'><div class='tc'><img class='introPic' src='trustrating_stim/white_mw042.bmp'><br><font color='red'><strong>Keep</strong></font></div></div><div class='respDiv'><div class='respDivL'>Match<br>(e)</div><div class='respDivR'>No Match<br>(i)</div></div></div>","e","TARGET","3","trustrating_stim/white_mw042.bmp,trustrating_stim/white_mw010.bmp,trustrating_stim/white_mw078.bmp","0,1,1","Match","e","4500","trustrating_stim/white_mw042.bmp","red","Keep","REAL","1"
"html-keyboard-response","159","374203","0.0-7.0-5.24","641ec1a9d9fe8a0941e39862","bdp_wmem","Sat Apr 08 2023 08:16:59 GMT-0700 (Pacific Daylight Time)","591493","Match,No Match","","null","","","","","","<div class='trialBorder'><div class='vertical-center'><img src='img/correct.jpg'></div><div class='respDiv'><div class='respDivL'><font style='color:orange'>Match<br>(e)</font></div><div class='respDivR'>No Match<br>(i)</div></div></div>","null","FEEDBACK","","","","","","","","","","",""
"html-keyboard-response","160","374708","0.0-7.0-1.25","641ec1a9d9fe8a0941e39862","bdp_wmem","Sat Apr 08 2023 08:16:59 GMT-0700 (Pacific Daylight Time)","591493","Match,No Match","","null","","","","","","<div class='trialBorder'><div class='vertical-center'><img src='img/fixation2_sml.jpg'</img></div></div>","null","FIX","","","","","","","","","","",""
"html-keyboard-response","161","377715","0.0-7.0-2.25","641ec1a9d9fe8a0941e39862","bdp_wmem","Sat Apr 08 2023 08:16:59 GMT-0700 (Pacific Daylight Time)","591493","Match,No Match","","null","","","","","","<div class='trialBorder'><div class='vertical-center'><img style='vertical-align:center; align:center' src='img/fixation2_sml.jpg'></div><div class='arrayDiv2'><div class='tl'><img class='introPic' src='trustrating_stim/white_mw042.bmp'><br><font color='green'><strong>Share</strong></font></div><div class='tr'><img class='introPic' src='trustrating_stim/white_mw012.bmp'><br><font color='red'><strong>Keep</strong></font></div></div></div>","null","ARRAY","2","trustrating_stim/white_mw042.bmp,trustrating_stim/white_mw012.bmp","1,0","Match","e","3000","","","","",""
"html-keyboard-response","162","381723","0.0-7.0-3.25","641ec1a9d9fe8a0941e39862","bdp_wmem","Sat Apr 08 2023 08:16:59 GMT-0700 (Pacific Daylight Time)","591493","Match,No Match","","null","","","","","","<div class='trialBorder'><div class='vertical-center'><img src='img/fixation2_sml.jpg'</img></div></div>","null","DELAY","","","","","","","","","","",""
"html-keyboard-response","163","382512","0.0-7.0-4.25","641ec1a9d9fe8a0941e39862","bdp_wmem","Sat Apr 08 2023 08:16:59 GMT-0700 (Pacific Daylight Time)","591493","Match,No Match","","787","","","","","","<div class='trialBorder'><div class='targDiv'><div class='tc'><img class='introPic' src='trustrating_stim/white_mw012.bmp'><br><font color='red'><strong>Keep</strong></font></div></div><div class='respDiv'><div class='respDivL'>Match<br>(e)</div><div class='respDivR'>No Match<br>(i)</div></div></div>","e","TARGET","2","trustrating_stim/white_mw042.bmp,trustrating_stim/white_mw012.bmp","1,0","Match","e","3000","trustrating_stim/white_mw012.bmp","red","Keep","REAL","1"
"html-keyboard-response","164","383020","0.0-7.0-5.25","641ec1a9d9fe8a0941e39862","bdp_wmem","Sat Apr 08 2023 08:16:59 GMT-0700 (Pacific Daylight Time)","591493","Match,No Match","","null","","","","","","<div class='trialBorder'><div class='vertical-center'><img src='img/correct.jpg'></div><div class='respDiv'><div class='respDivL'><font style='color:orange'>Match<br>(e)</font></div><div class='respDivR'>No Match<br>(i)</div></div></div>","null","FEEDBACK","","","","","","","","","","",""
"html-keyboard-response","165","383524","0.0-7.0-1.26","641ec1a9d9fe8a0941e39862","bdp_wmem","Sat Apr 08 2023 08:16:59 GMT-0700 (Pacific Daylight Time)","591493","Match,No Match","","null","","","","","","<div class='trialBorder'><div class='vertical-center'><img src='img/fixation2_sml.jpg'</img></div></div>","null","FIX","","","","","","","","","","",""
"html-keyboard-response","166","386531","0.0-7.0-2.26","641ec1a9d9fe8a0941e39862","bdp_wmem","Sat Apr 08 2023 08:16:59 GMT-0700 (Pacific Daylight Time)","591493","Match,No Match","","null","","","","","","<div class='trialBorder'><div class='vertical-center'><img style='vertical-align:center; align:center' src='img/fixation2_sml.jpg'></div><div class='arrayDiv2'><div class='tl'><img class='introPic' src='trustrating_stim/white_mw070.bmp'><br><font color='green'><strong>Share</strong></font></div><div class='tr'><img class='introPic' src='trustrating_stim/white_mw013.bmp'><br><font color='red'><strong>Keep</strong></font></div></div></div>","null","ARRAY","2","trustrating_stim/white_mw070.bmp,trustrating_stim/white_mw013.bmp","1,0","Match","e","3000","","","","",""
"html-keyboard-response","167","390539","0.0-7.0-3.26","641ec1a9d9fe8a0941e39862","bdp_wmem","Sat Apr 08 2023 08:16:59 GMT-0700 (Pacific Daylight Time)","591493","Match,No Match","","null","","","","","","<div class='trialBorder'><div class='vertical-center'><img src='img/fixation2_sml.jpg'</img></div></div>","null","DELAY","","","","","","","","","","",""
"html-keyboard-response","168","391931","0.0-7.0-4.26","641ec1a9d9fe8a0941e39862","bdp_wmem","Sat Apr 08 2023 08:16:59 GMT-0700 (Pacific Daylight Time)","591493","Match,No Match","","1390","","","","","","<div class='trialBorder'><div class='targDiv'><div class='tc'><img class='introPic' src='trustrating_stim/white_mw013.bmp'><br><font color='red'><strong>Keep</strong></font></div></div><div class='respDiv'><div class='respDivL'>Match<br>(e)</div><div class='respDivR'>No Match<br>(i)</div></div></div>","e","TARGET","2","trustrating_stim/white_mw070.bmp,trustrating_stim/white_mw013.bmp","1,0","Match","e","3000","trustrating_stim/white_mw013.bmp","red","Keep","REAL","1"
"html-keyboard-response","169","392435","0.0-7.0-5.26","641ec1a9d9fe8a0941e39862","bdp_wmem","Sat Apr 08 2023 08:16:59 GMT-0700 (Pacific Daylight Time)","591493","Match,No Match","","null","","","","","","<div class='trialBorder'><div class='vertical-center'><img src='img/correct.jpg'></div><div class='respDiv'><div class='respDivL'><font style='color:orange'>Match<br>(e)</font></div><div class='respDivR'>No Match<br>(i)</div></div></div>","null","FEEDBACK","","","","","","","","","","",""
"html-keyboard-response","170","392939","0.0-7.0-1.27","641ec1a9d9fe8a0941e39862","bdp_wmem","Sat Apr 08 2023 08:16:59 GMT-0700 (Pacific Daylight Time)","591493","Match,No Match","","null","","","","","","<div class='trialBorder'><div class='vertical-center'><img src='img/fixation2_sml.jpg'</img></div></div>","null","FIX","","","","","","","","","","",""
"html-keyboard-response","171","397443","0.0-7.0-2.27","641ec1a9d9fe8a0941e39862","bdp_wmem","Sat Apr 08 2023 08:16:59 GMT-0700 (Pacific Daylight Time)","591493","Match,No Match","","null","","","","","","<div class='trialBorder'><div class='vertical-center'><img style='vertical-align:center; align:center' src='img/fixation2_sml.jpg'></div><div class='arrayDiv3'><div class='tl'><img class='introPic' src='trustrating_stim/white_mw070.bmp'><br><font color='red'><strong>Keep</strong></font></div><div class='tc'><img class='introPic' src='trustrating_stim/white_mw012.bmp'><br><font color='green'><strong>Share</strong></font></div><div class='tr'><img class='introPic' src='trustrating_stim/white_mw003.bmp'><br><font color='red'><strong>Keep</strong></font></div></div></div>","null","ARRAY","3","trustrating_stim/white_mw070.bmp,trustrating_stim/white_mw012.bmp,trustrating_stim/white_mw003.bmp","0,1,0","Match","e","4500","","","","",""
"html-keyboard-response","172","401452","0.0-7.0-3.27","641ec1a9d9fe8a0941e39862","bdp_wmem","Sat Apr 08 2023 08:16:59 GMT-0700 (Pacific Daylight Time)","591493","Match,No Match","","null","","","","","","<div class='trialBorder'><div class='vertical-center'><img src='img/fixation2_sml.jpg'</img></div></div>","null","DELAY","","","","","","","","","","",""
"html-keyboard-response","173","402651","0.0-7.0-4.27","641ec1a9d9fe8a0941e39862","bdp_wmem","Sat Apr 08 2023 08:16:59 GMT-0700 (Pacific Daylight Time)","591493","Match,No Match","","1196","","","","","","<div class='trialBorder'><div class='targDiv'><div class='tc'><img class='introPic' src='trustrating_stim/white_mw070.bmp'><br><font color='red'><strong>Keep</strong></font></div></div><div class='respDiv'><div class='respDivL'>Match<br>(e)</div><div class='respDivR'>No Match<br>(i)</div></div></div>","e","TARGET","3","trustrating_stim/white_mw070.bmp,trustrating_stim/white_mw012.bmp,trustrating_stim/white_mw003.bmp","0,1,0","Match","e","4500","trustrating_stim/white_mw070.bmp","red","Keep","REAL","1"
"html-keyboard-response","174","403155","0.0-7.0-5.27","641ec1a9d9fe8a0941e39862","bdp_wmem","Sat Apr 08 2023 08:16:59 GMT-0700 (Pacific Daylight Time)","591493","Match,No Match","","null","","","","","","<div class='trialBorder'><div class='vertical-center'><img src='img/correct.jpg'></div><div class='respDiv'><div class='respDivL'><font style='color:orange'>Match<br>(e)</font></div><div class='respDivR'>No Match<br>(i)</div></div></div>","null","FEEDBACK","","","","","","","","","","",""
"html-keyboard-response","175","403659","0.0-7.0-1.28","641ec1a9d9fe8a0941e39862","bdp_wmem","Sat Apr 08 2023 08:16:59 GMT-0700 (Pacific Daylight Time)","591493","Match,No Match","","null","","","","","","<div class='trialBorder'><div class='vertical-center'><img src='img/fixation2_sml.jpg'</img></div></div>","null","FIX","","","","","","","","","","",""
"html-keyboard-response","176","405163","0.0-7.0-2.28","641ec1a9d9fe8a0941e39862","bdp_wmem","Sat Apr 08 2023 08:16:59 GMT-0700 (Pacific Daylight Time)","591493","Match,No Match","","null","","","","","","<div class='trialBorder'><div class='vertical-center'><img style='vertical-align:center; align:center' src='img/fixation2_sml.jpg'></div><div class='arrayDiv1'><div class='tc'><img class='introPic' src='trustrating_stim/white_mw042.bmp'><br><font color='green'><strong>Share</strong></font></div></div></div>","null","ARRAY","1","trustrating_stim/white_mw042.bmp","1","Match","e","1500","","","","",""
"html-keyboard-response","177","409171","0.0-7.0-3.28","641ec1a9d9fe8a0941e39862","bdp_wmem","Sat Apr 08 2023 08:16:59 GMT-0700 (Pacific Daylight Time)","591493","Match,No Match","","null","","","","","","<div class='trialBorder'><div class='vertical-center'><img src='img/fixation2_sml.jpg'</img></div></div>","null","DELAY","","","","","","","","","","",""
"html-keyboard-response","178","410216","0.0-7.0-4.28","641ec1a9d9fe8a0941e39862","bdp_wmem","Sat Apr 08 2023 08:16:59 GMT-0700 (Pacific Daylight Time)","591493","Match,No Match","","1042","","","","","","<div class='trialBorder'><div class='targDiv'><div class='tc'><img class='introPic' src='trustrating_stim/white_mw042.bmp'><br><font color='green'><strong>Share</strong></font></div></div><div class='respDiv'><div class='respDivL'>Match<br>(e)</div><div class='respDivR'>No Match<br>(i)</div></div></div>","e","TARGET","1","trustrating_stim/white_mw042.bmp","1","Match","e","1500","trustrating_stim/white_mw042.bmp","green","Share","REAL","1"
"html-keyboard-response","179","410723","0.0-7.0-5.28","641ec1a9d9fe8a0941e39862","bdp_wmem","Sat Apr 08 2023 08:16:59 GMT-0700 (Pacific Daylight Time)","591493","Match,No Match","","null","","","","","","<div class='trialBorder'><div class='vertical-center'><img src='img/correct.jpg'></div><div class='respDiv'><div class='respDivL'><font style='color:orange'>Match<br>(e)</font></div><div class='respDivR'>No Match<br>(i)</div></div></div>","null","FEEDBACK","","","","","","","","","","",""
"html-keyboard-response","180","411228","0.0-7.0-1.29","641ec1a9d9fe8a0941e39862","bdp_wmem","Sat Apr 08 2023 08:16:59 GMT-0700 (Pacific Daylight Time)","591493","Match,No Match","","null","","","","","","<div class='trialBorder'><div class='vertical-center'><img src='img/fixation2_sml.jpg'</img></div></div>","null","FIX","","","","","","","","","","",""
"html-keyboard-response","181","412731","0.0-7.0-2.29","641ec1a9d9fe8a0941e39862","bdp_wmem","Sat Apr 08 2023 08:16:59 GMT-0700 (Pacific Daylight Time)","591493","Match,No Match","","null","","","","","","<div class='trialBorder'><div class='vertical-center'><img style='vertical-align:center; align:center' src='img/fixation2_sml.jpg'></div><div class='arrayDiv1'><div class='tc'><img class='introPic' src='trustrating_stim/white_mw010.bmp'><br><font color='green'><strong>Share</strong></font></div></div></div>","null","ARRAY","1","trustrating_stim/white_mw010.bmp","1","Match","e","1500","","","","",""
"html-keyboard-response","182","416739","0.0-7.0-3.29","641ec1a9d9fe8a0941e39862","bdp_wmem","Sat Apr 08 2023 08:16:59 GMT-0700 (Pacific Daylight Time)","591493","Match,No Match","","null","","","","","","<div class='trialBorder'><div class='vertical-center'><img src='img/fixation2_sml.jpg'</img></div></div>","null","DELAY","","","","","","","","","","",""
"html-keyboard-response","183","417695","0.0-7.0-4.29","641ec1a9d9fe8a0941e39862","bdp_wmem","Sat Apr 08 2023 08:16:59 GMT-0700 (Pacific Daylight Time)","591493","Match,No Match","","953","","","","","","<div class='trialBorder'><div class='targDiv'><div class='tc'><img class='introPic' src='trustrating_stim/white_mw010.bmp'><br><font color='green'><strong>Share</strong></font></div></div><div class='respDiv'><div class='respDivL'>Match<br>(e)</div><div class='respDivR'>No Match<br>(i)</div></div></div>","e","TARGET","1","trustrating_stim/white_mw010.bmp","1","Match","e","1500","trustrating_stim/white_mw010.bmp","green","Share","REAL","1"
"html-keyboard-response","184","418204","0.0-7.0-5.29","641ec1a9d9fe8a0941e39862","bdp_wmem","Sat Apr 08 2023 08:16:59 GMT-0700 (Pacific Daylight Time)","591493","Match,No Match","","null","","","","","","<div class='trialBorder'><div class='vertical-center'><img src='img/correct.jpg'></div><div class='respDiv'><div class='respDivL'><font style='color:orange'>Match<br>(e)</font></div><div class='respDivR'>No Match<br>(i)</div></div></div>","null","FEEDBACK","","","","","","","","","","",""
"html-keyboard-response","185","418707","0.0-7.0-1.30","641ec1a9d9fe8a0941e39862","bdp_wmem","Sat Apr 08 2023 08:16:59 GMT-0700 (Pacific Daylight Time)","591493","Match,No Match","","null","","","","","","<div class='trialBorder'><div class='vertical-center'><img src='img/fixation2_sml.jpg'</img></div></div>","null","FIX","","","","","","","","","","",""
"html-keyboard-response","186","421716","0.0-7.0-2.30","641ec1a9d9fe8a0941e39862","bdp_wmem","Sat Apr 08 2023 08:16:59 GMT-0700 (Pacific Daylight Time)","591493","Match,No Match","","null","","","","","","<div class='trialBorder'><div class='vertical-center'><img style='vertical-align:center; align:center' src='img/fixation2_sml.jpg'></div><div class='arrayDiv2'><div class='tl'><img class='introPic' src='trustrating_stim/white_mw003.bmp'><br><font color='green'><strong>Share</strong></font></div><div class='tr'><img class='introPic' src='trustrating_stim/white_mw012.bmp'><br><font color='red'><strong>Keep</strong></font></div></div></div>","null","ARRAY","2","trustrating_stim/white_mw003.bmp,trustrating_stim/white_mw012.bmp","1,0","noMatchOutcome","i","3000","","","","",""
"html-keyboard-response","187","425723","0.0-7.0-3.30","641ec1a9d9fe8a0941e39862","bdp_wmem","Sat Apr 08 2023 08:16:59 GMT-0700 (Pacific Daylight Time)","591493","Match,No Match","","null","","","","","","<div class='trialBorder'><div class='vertical-center'><img src='img/fixation2_sml.jpg'</img></div></div>","null","DELAY","","","","","","","","","","",""
"html-keyboard-response","188","426948","0.0-7.0-4.30","641ec1a9d9fe8a0941e39862","bdp_wmem","Sat Apr 08 2023 08:16:59 GMT-0700 (Pacific Daylight Time)","591493","Match,No Match","","1222","","","","","","<div class='trialBorder'><div class='targDiv'><div class='tc'><img class='introPic' src='trustrating_stim/white_mw012.bmp'><br><font color='green'><strong>Share</strong></font></div></div><div class='respDiv'><div class='respDivL'>Match<br>(e)</div><div class='respDivR'>No Match<br>(i)</div></div></div>","e","TARGET","2","trustrating_stim/white_mw003.bmp,trustrating_stim/white_mw012.bmp","1,0","noMatchOutcome","i","3000","trustrating_stim/white_mw012.bmp","green","Share","REAL","0"
