"trial_type","trial_index","time_elapsed","internal_node_id","subject_id","task","startTime","totalTime","labels","view_history","rt","event","trial","time","trialtype","success","stimulus","key_press","stimType","arraySize","arrayFaces","arrayOutcomes","matchType","corrResp","arrayDur","targFace","targCol","targOutcome","trialType","corr"
"pavlovia","0","1","0.0-0.0","63034df51d918e1e3b97e5ce","bdp_wmem","Thu Mar 16 2023 00:03:52 GMT-0400 (Eastern Daylight Time)","669390","Match,No Match","","","","","","","","","","","","","","","","","","","","",""
"instructions","1","3393","0.0-1.0","63034df51d918e1e3b97e5ce","bdp_wmem","Thu Mar 16 2023 00:03:52 GMT-0400 (Eastern Daylight Time)","669390","Match,No Match","[{""page_index"":0,""viewing_time"":3392}]","3392","","","","","","","","","","","","","","","","","","",""
"","","","","63034df51d918e1e3b97e5ce","bdp_wmem","Thu Mar 16 2023 00:03:52 GMT-0400 (Eastern Daylight Time)","669390","Match,No Match","","","fullscreenenter","2","4991","fullscreenenter","","","","","","","","","","","","","","",""
"fullscreen","2","5981","0.0-2.0","63034df51d918e1e3b97e5ce","bdp_wmem","Thu Mar 16 2023 00:03:52 GMT-0400 (Eastern Daylight Time)","669390","Match,No Match","","","","","","","true","","","","","","","","","","","","","",""
"instructions","3","139860","0.0-4.0","63034df51d918e1e3b97e5ce","bdp_wmem","Thu Mar 16 2023 00:03:52 GMT-0400 (Eastern Daylight Time)","669390","Match,No Match","[{""page_index"":0,""viewing_time"":22148},{""page_index"":1,""viewing_time"":54310},{""page_index"":2,""viewing_time"":36084},{""page_index"":3,""viewing_time"":9699},{""page_index"":4,""viewing_time"":11637}]","133878","","","","","","","","","","","","","","","","","","",""
"html-keyboard-response","4","140375","0.0-5.0-1.0","63034df51d918e1e3b97e5ce","bdp_wmem","Thu Mar 16 2023 00:03:52 GMT-0400 (Eastern Daylight Time)","669390","Match,No Match","","null","","","","","","<div class='trialBorder'><div class='vertical-center'><img src='img/fixation2_sml.jpg'</img></div></div>","null","FIX","","","","","","","","","","",""
"html-keyboard-response","5","143377","0.0-5.0-2.0","63034df51d918e1e3b97e5ce","bdp_wmem","Thu Mar 16 2023 00:03:52 GMT-0400 (Eastern Daylight Time)","669390","Match,No Match","","null","","","","","","<div class='trialBorder'><div class='vertical-center'><img style='vertical-align:center; align:center' src='img/fixation2_sml.jpg'></div><div class='arrayDiv2'><div class='tl'><img class='introPic' src='trustrating_stim/white_mw040.bmp'><br><font color='red'><strong>Keep</strong></font></div><div class='tr'><img class='introPic' src='trustrating_stim/white_mw003.bmp'><br><font color='green'><strong>Share</strong></font></div></div></div>","null","ARRAY","2","trustrating_stim/white_mw040.bmp,trustrating_stim/white_mw003.bmp","0,1","noMatchOutcome","i","3000","","","","",""
"html-keyboard-response","6","147379","0.0-5.0-3.0","63034df51d918e1e3b97e5ce","bdp_wmem","Thu Mar 16 2023 00:03:52 GMT-0400 (Eastern Daylight Time)","669390","Match,No Match","","null","","","","","","<div class='trialBorder'><div class='vertical-center'><img src='img/fixation2_sml.jpg'</img></div></div>","null","DELAY","","","","","","","","","","",""
"html-keyboard-response","7","150308","0.0-5.0-4.0","63034df51d918e1e3b97e5ce","bdp_wmem","Thu Mar 16 2023 00:03:52 GMT-0400 (Eastern Daylight Time)","669390","Match,No Match","","2928","","","","","","<div class='trialBorder'><div class='targDiv'><div class='tc'><img class='introPic' src='trustrating_stim/white_mw040.bmp'><br><font color='green'><strong>Share</strong></font></div></div><div class='respDiv'><div class='respDivL'>Match<br>(e)</div><div class='respDivR'>No Match<br>(i)</div></div></div>","i","TARGET","2","trustrating_stim/white_mw040.bmp,trustrating_stim/white_mw003.bmp","0,1","noMatchOutcome","i","3000","trustrating_stim/white_mw040.bmp","green","Share","PRACTICE","1"
"html-keyboard-response","8","150809","0.0-5.0-5.0","63034df51d918e1e3b97e5ce","bdp_wmem","Thu Mar 16 2023 00:03:52 GMT-0400 (Eastern Daylight Time)","669390","Match,No Match","","null","","","","","","<div class='trialBorder'><div class='vertical-center'><img src='img/correct.jpg'></div><div class='respDiv'><div class='respDivL'>Match<br>(e)</div><div class='respDivR'><font style='color:orange'>No Match<br>(i)</font></div></div></div>","null","FEEDBACK","","","","","","","","","","",""
"html-keyboard-response","9","151310","0.0-5.0-1.1","63034df51d918e1e3b97e5ce","bdp_wmem","Thu Mar 16 2023 00:03:52 GMT-0400 (Eastern Daylight Time)","669390","Match,No Match","","null","","","","","","<div class='trialBorder'><div class='vertical-center'><img src='img/fixation2_sml.jpg'</img></div></div>","null","FIX","","","","","","","","","","",""
"html-keyboard-response","10","152812","0.0-5.0-2.1","63034df51d918e1e3b97e5ce","bdp_wmem","Thu Mar 16 2023 00:03:52 GMT-0400 (Eastern Daylight Time)","669390","Match,No Match","","null","","","","","","<div class='trialBorder'><div class='vertical-center'><img style='vertical-align:center; align:center' src='img/fixation2_sml.jpg'></div><div class='arrayDiv1'><div class='tc'><img class='introPic' src='trustrating_stim/white_mw078.bmp'><br><font color='green'><strong>Share</strong></font></div></div></div>","null","ARRAY","1","trustrating_stim/white_mw078.bmp","1","Match","e","1500","","","","",""
"html-keyboard-response","11","156813","0.0-5.0-3.1","63034df51d918e1e3b97e5ce","bdp_wmem","Thu Mar 16 2023 00:03:52 GMT-0400 (Eastern Daylight Time)","669390","Match,No Match","","null","","","","","","<div class='trialBorder'><div class='vertical-center'><img src='img/fixation2_sml.jpg'</img></div></div>","null","DELAY","","","","","","","","","","",""
"html-keyboard-response","12","158277","0.0-5.0-4.1","63034df51d918e1e3b97e5ce","bdp_wmem","Thu Mar 16 2023 00:03:52 GMT-0400 (Eastern Daylight Time)","669390","Match,No Match","","1463","","","","","","<div class='trialBorder'><div class='targDiv'><div class='tc'><img class='introPic' src='trustrating_stim/white_mw078.bmp'><br><font color='green'><strong>Share</strong></font></div></div><div class='respDiv'><div class='respDivL'>Match<br>(e)</div><div class='respDivR'>No Match<br>(i)</div></div></div>","e","TARGET","1","trustrating_stim/white_mw078.bmp","1","Match","e","1500","trustrating_stim/white_mw078.bmp","green","Share","PRACTICE","1"
"html-keyboard-response","13","158778","0.0-5.0-5.1","63034df51d918e1e3b97e5ce","bdp_wmem","Thu Mar 16 2023 00:03:52 GMT-0400 (Eastern Daylight Time)","669390","Match,No Match","","null","","","","","","<div class='trialBorder'><div class='vertical-center'><img src='img/correct.jpg'></div><div class='respDiv'><div class='respDivL'><font style='color:orange'>Match<br>(e)</font></div><div class='respDivR'>No Match<br>(i)</div></div></div>","null","FEEDBACK","","","","","","","","","","",""
"html-keyboard-response","14","159280","0.0-5.0-1.2","63034df51d918e1e3b97e5ce","bdp_wmem","Thu Mar 16 2023 00:03:52 GMT-0400 (Eastern Daylight Time)","669390","Match,No Match","","null","","","","","","<div class='trialBorder'><div class='vertical-center'><img src='img/fixation2_sml.jpg'</img></div></div>","null","FIX","","","","","","","","","","",""
"html-keyboard-response","15","163781","0.0-5.0-2.2","63034df51d918e1e3b97e5ce","bdp_wmem","Thu Mar 16 2023 00:03:52 GMT-0400 (Eastern Daylight Time)","669390","Match,No Match","","null","","","","","","<div class='trialBorder'><div class='vertical-center'><img style='vertical-align:center; align:center' src='img/fixation2_sml.jpg'></div><div class='arrayDiv3'><div class='tl'><img class='introPic' src='trustrating_stim/white_mw042.bmp'><br><font color='red'><strong>Keep</strong></font></div><div class='tc'><img class='introPic' src='trustrating_stim/white_mw013.bmp'><br><font color='green'><strong>Share</strong></font></div><div class='tr'><img class='introPic' src='trustrating_stim/white_mw038.bmp'><br><font color='red'><strong>Keep</strong></font></div></div></div>","null","ARRAY","3","trustrating_stim/white_mw042.bmp,trustrating_stim/white_mw013.bmp,trustrating_stim/white_mw038.bmp","0,1,0","Match","e","4500","","","","",""
"html-keyboard-response","16","167783","0.0-5.0-3.2","63034df51d918e1e3b97e5ce","bdp_wmem","Thu Mar 16 2023 00:03:52 GMT-0400 (Eastern Daylight Time)","669390","Match,No Match","","null","","","","","","<div class='trialBorder'><div class='vertical-center'><img src='img/fixation2_sml.jpg'</img></div></div>","null","DELAY","","","","","","","","","","",""
"html-keyboard-response","17","170136","0.0-5.0-4.2","63034df51d918e1e3b97e5ce","bdp_wmem","Thu Mar 16 2023 00:03:52 GMT-0400 (Eastern Daylight Time)","669390","Match,No Match","","2352","","","","","","<div class='trialBorder'><div class='targDiv'><div class='tc'><img class='introPic' src='trustrating_stim/white_mw038.bmp'><br><font color='red'><strong>Keep</strong></font></div></div><div class='respDiv'><div class='respDivL'>Match<br>(e)</div><div class='respDivR'>No Match<br>(i)</div></div></div>","e","TARGET","3","trustrating_stim/white_mw042.bmp,trustrating_stim/white_mw013.bmp,trustrating_stim/white_mw038.bmp","0,1,0","Match","e","4500","trustrating_stim/white_mw038.bmp","red","Keep","PRACTICE","1"
"html-keyboard-response","18","170637","0.0-5.0-5.2","63034df51d918e1e3b97e5ce","bdp_wmem","Thu Mar 16 2023 00:03:52 GMT-0400 (Eastern Daylight Time)","669390","Match,No Match","","null","","","","","","<div class='trialBorder'><div class='vertical-center'><img src='img/correct.jpg'></div><div class='respDiv'><div class='respDivL'><font style='color:orange'>Match<br>(e)</font></div><div class='respDivR'>No Match<br>(i)</div></div></div>","null","FEEDBACK","","","","","","","","","","",""
"html-keyboard-response","19","171139","0.0-5.0-1.3","63034df51d918e1e3b97e5ce","bdp_wmem","Thu Mar 16 2023 00:03:52 GMT-0400 (Eastern Daylight Time)","669390","Match,No Match","","null","","","","","","<div class='trialBorder'><div class='vertical-center'><img src='img/fixation2_sml.jpg'</img></div></div>","null","FIX","","","","","","","","","","",""
"html-keyboard-response","20","172640","0.0-5.0-2.3","63034df51d918e1e3b97e5ce","bdp_wmem","Thu Mar 16 2023 00:03:52 GMT-0400 (Eastern Daylight Time)","669390","Match,No Match","","null","","","","","","<div class='trialBorder'><div class='vertical-center'><img style='vertical-align:center; align:center' src='img/fixation2_sml.jpg'></div><div class='arrayDiv1'><div class='tc'><img class='introPic' src='trustrating_stim/white_mw010.bmp'><br><font color='green'><strong>Share</strong></font></div></div></div>","null","ARRAY","1","trustrating_stim/white_mw010.bmp","1","noMatchFace","i","1500","","","","",""
"html-keyboard-response","21","176641","0.0-5.0-3.3","63034df51d918e1e3b97e5ce","bdp_wmem","Thu Mar 16 2023 00:03:52 GMT-0400 (Eastern Daylight Time)","669390","Match,No Match","","null","","","","","","<div class='trialBorder'><div class='vertical-center'><img src='img/fixation2_sml.jpg'</img></div></div>","null","DELAY","","","","","","","","","","",""
"html-keyboard-response","22","178359","0.0-5.0-4.3","63034df51d918e1e3b97e5ce","bdp_wmem","Thu Mar 16 2023 00:03:52 GMT-0400 (Eastern Daylight Time)","669390","Match,No Match","","1718","","","","","","<div class='trialBorder'><div class='targDiv'><div class='tc'><img class='introPic' src='trustrating_stim/white_mw012.bmp'><br><font color='green'><strong>Share</strong></font></div></div><div class='respDiv'><div class='respDivL'>Match<br>(e)</div><div class='respDivR'>No Match<br>(i)</div></div></div>","i","TARGET","1","trustrating_stim/white_mw010.bmp","1","noMatchFace","i","1500","trustrating_stim/white_mw012.bmp","green","Share","PRACTICE","1"
"html-keyboard-response","23","178861","0.0-5.0-5.3","63034df51d918e1e3b97e5ce","bdp_wmem","Thu Mar 16 2023 00:03:52 GMT-0400 (Eastern Daylight Time)","669390","Match,No Match","","null","","","","","","<div class='trialBorder'><div class='vertical-center'><img src='img/correct.jpg'></div><div class='respDiv'><div class='respDivL'>Match<br>(e)</div><div class='respDivR'><font style='color:orange'>No Match<br>(i)</font></div></div></div>","null","FEEDBACK","","","","","","","","","","",""
"html-keyboard-response","24","179363","0.0-5.0-1.4","63034df51d918e1e3b97e5ce","bdp_wmem","Thu Mar 16 2023 00:03:52 GMT-0400 (Eastern Daylight Time)","669390","Match,No Match","","null","","","","","","<div class='trialBorder'><div class='vertical-center'><img src='img/fixation2_sml.jpg'</img></div></div>","null","FIX","","","","","","","","","","",""
"html-keyboard-response","25","183864","0.0-5.0-2.4","63034df51d918e1e3b97e5ce","bdp_wmem","Thu Mar 16 2023 00:03:52 GMT-0400 (Eastern Daylight Time)","669390","Match,No Match","","null","","","","","","<div class='trialBorder'><div class='vertical-center'><img style='vertical-align:center; align:center' src='img/fixation2_sml.jpg'></div><div class='arrayDiv3'><div class='tl'><img class='introPic' src='trustrating_stim/white_mw085.bmp'><br><font color='red'><strong>Keep</strong></font></div><div class='tc'><img class='introPic' src='trustrating_stim/white_mw038.bmp'><br><font color='red'><strong>Keep</strong></font></div><div class='tr'><img class='introPic' src='trustrating_stim/white_mw042.bmp'><br><font color='green'><strong>Share</strong></font></div></div></div>","null","ARRAY","3","trustrating_stim/white_mw085.bmp,trustrating_stim/white_mw038.bmp,trustrating_stim/white_mw042.bmp","0,0,1","noMatchOutcome","i","4500","","","","",""
"html-keyboard-response","26","187878","0.0-5.0-3.4","63034df51d918e1e3b97e5ce","bdp_wmem","Thu Mar 16 2023 00:03:52 GMT-0400 (Eastern Daylight Time)","669390","Match,No Match","","null","","","","","","<div class='trialBorder'><div class='vertical-center'><img src='img/fixation2_sml.jpg'</img></div></div>","null","DELAY","","","","","","","","","","",""
"html-keyboard-response","27","190257","0.0-5.0-4.4","63034df51d918e1e3b97e5ce","bdp_wmem","Thu Mar 16 2023 00:03:52 GMT-0400 (Eastern Daylight Time)","669390","Match,No Match","","2378","","","","","","<div class='trialBorder'><div class='targDiv'><div class='tc'><img class='introPic' src='trustrating_stim/white_mw085.bmp'><br><font color='green'><strong>Share</strong></font></div></div><div class='respDiv'><div class='respDivL'>Match<br>(e)</div><div class='respDivR'>No Match<br>(i)</div></div></div>","i","TARGET","3","trustrating_stim/white_mw085.bmp,trustrating_stim/white_mw038.bmp,trustrating_stim/white_mw042.bmp","0,0,1","noMatchOutcome","i","4500","trustrating_stim/white_mw085.bmp","green","Share","PRACTICE","1"
"html-keyboard-response","28","190758","0.0-5.0-5.4","63034df51d918e1e3b97e5ce","bdp_wmem","Thu Mar 16 2023 00:03:52 GMT-0400 (Eastern Daylight Time)","669390","Match,No Match","","null","","","","","","<div class='trialBorder'><div class='vertical-center'><img src='img/correct.jpg'></div><div class='respDiv'><div class='respDivL'>Match<br>(e)</div><div class='respDivR'><font style='color:orange'>No Match<br>(i)</font></div></div></div>","null","FEEDBACK","","","","","","","","","","",""
"html-keyboard-response","29","191259","0.0-5.0-1.5","63034df51d918e1e3b97e5ce","bdp_wmem","Thu Mar 16 2023 00:03:52 GMT-0400 (Eastern Daylight Time)","669390","Match,No Match","","null","","","","","","<div class='trialBorder'><div class='vertical-center'><img src='img/fixation2_sml.jpg'</img></div></div>","null","FIX","","","","","","","","","","",""
"html-keyboard-response","30","194260","0.0-5.0-2.5","63034df51d918e1e3b97e5ce","bdp_wmem","Thu Mar 16 2023 00:03:52 GMT-0400 (Eastern Daylight Time)","669390","Match,No Match","","null","","","","","","<div class='trialBorder'><div class='vertical-center'><img style='vertical-align:center; align:center' src='img/fixation2_sml.jpg'></div><div class='arrayDiv2'><div class='tl'><img class='introPic' src='trustrating_stim/white_mw042.bmp'><br><font color='red'><strong>Keep</strong></font></div><div class='tr'><img class='introPic' src='trustrating_stim/white_mw010.bmp'><br><font color='green'><strong>Share</strong></font></div></div></div>","null","ARRAY","2","trustrating_stim/white_mw042.bmp,trustrating_stim/white_mw010.bmp","0,1","Match","e","3000","","","","",""
"html-keyboard-response","31","198261","0.0-5.0-3.5","63034df51d918e1e3b97e5ce","bdp_wmem","Thu Mar 16 2023 00:03:52 GMT-0400 (Eastern Daylight Time)","669390","Match,No Match","","null","","","","","","<div class='trialBorder'><div class='vertical-center'><img src='img/fixation2_sml.jpg'</img></div></div>","null","DELAY","","","","","","","","","","",""
"html-keyboard-response","32","199800","0.0-5.0-4.5","63034df51d918e1e3b97e5ce","bdp_wmem","Thu Mar 16 2023 00:03:52 GMT-0400 (Eastern Daylight Time)","669390","Match,No Match","","1538","","","","","","<div class='trialBorder'><div class='targDiv'><div class='tc'><img class='introPic' src='trustrating_stim/white_mw042.bmp'><br><font color='red'><strong>Keep</strong></font></div></div><div class='respDiv'><div class='respDivL'>Match<br>(e)</div><div class='respDivR'>No Match<br>(i)</div></div></div>","e","TARGET","2","trustrating_stim/white_mw042.bmp,trustrating_stim/white_mw010.bmp","0,1","Match","e","3000","trustrating_stim/white_mw042.bmp","red","Keep","PRACTICE","1"
"html-keyboard-response","33","200301","0.0-5.0-5.5","63034df51d918e1e3b97e5ce","bdp_wmem","Thu Mar 16 2023 00:03:52 GMT-0400 (Eastern Daylight Time)","669390","Match,No Match","","null","","","","","","<div class='trialBorder'><div class='vertical-center'><img src='img/correct.jpg'></div><div class='respDiv'><div class='respDivL'><font style='color:orange'>Match<br>(e)</font></div><div class='respDivR'>No Match<br>(i)</div></div></div>","null","FEEDBACK","","","","","","","","","","",""
"instructions","34","205640","0.0-6.0","63034df51d918e1e3b97e5ce","bdp_wmem","Thu Mar 16 2023 00:03:52 GMT-0400 (Eastern Daylight Time)","669390","Match,No Match","[{""page_index"":0,""viewing_time"":5339}]","5339","","","","","","","","","","","","","","","","","","",""
"html-keyboard-response","35","206141","0.0-7.0-1.0","63034df51d918e1e3b97e5ce","bdp_wmem","Thu Mar 16 2023 00:03:52 GMT-0400 (Eastern Daylight Time)","669390","Match,No Match","","null","","","","","","<div class='trialBorder'><div class='vertical-center'><img src='img/fixation2_sml.jpg'</img></div></div>","null","FIX","","","","","","","","","","",""
"html-keyboard-response","36","210642","0.0-7.0-2.0","63034df51d918e1e3b97e5ce","bdp_wmem","Thu Mar 16 2023 00:03:52 GMT-0400 (Eastern Daylight Time)","669390","Match,No Match","","null","","","","","","<div class='trialBorder'><div class='vertical-center'><img style='vertical-align:center; align:center' src='img/fixation2_sml.jpg'></div><div class='arrayDiv3'><div class='tl'><img class='introPic' src='trustrating_stim/white_mw078.bmp'><br><font color='green'><strong>Share</strong></font></div><div class='tc'><img class='introPic' src='trustrating_stim/white_mw040.bmp'><br><font color='red'><strong>Keep</strong></font></div><div class='tr'><img class='introPic' src='trustrating_stim/white_mw085.bmp'><br><font color='green'><strong>Share</strong></font></div></div></div>","null","ARRAY","3","trustrating_stim/white_mw078.bmp,trustrating_stim/white_mw040.bmp,trustrating_stim/white_mw085.bmp","1,0,1","noMatchFace","i","4500","","","","",""
"html-keyboard-response","37","214645","0.0-7.0-3.0","63034df51d918e1e3b97e5ce","bdp_wmem","Thu Mar 16 2023 00:03:52 GMT-0400 (Eastern Daylight Time)","669390","Match,No Match","","null","","","","","","<div class='trialBorder'><div class='vertical-center'><img src='img/fixation2_sml.jpg'</img></div></div>","null","DELAY","","","","","","","","","","",""
"html-keyboard-response","38","216512","0.0-7.0-4.0","63034df51d918e1e3b97e5ce","bdp_wmem","Thu Mar 16 2023 00:03:52 GMT-0400 (Eastern Daylight Time)","669390","Match,No Match","","1867","","","","","","<div class='trialBorder'><div class='targDiv'><div class='tc'><img class='introPic' src='trustrating_stim/white_mw003.bmp'><br><font color='green'><strong>Share</strong></font></div></div><div class='respDiv'><div class='respDivL'>Match<br>(e)</div><div class='respDivR'>No Match<br>(i)</div></div></div>","e","TARGET","3","trustrating_stim/white_mw078.bmp,trustrating_stim/white_mw040.bmp,trustrating_stim/white_mw085.bmp","1,0,1","noMatchFace","i","4500","trustrating_stim/white_mw003.bmp","green","Share","REAL","0"
"html-keyboard-response","39","217022","0.0-7.0-5.0","63034df51d918e1e3b97e5ce","bdp_wmem","Thu Mar 16 2023 00:03:52 GMT-0400 (Eastern Daylight Time)","669390","Match,No Match","","null","","","","","","<div class='trialBorder'><div class='vertical-center'><img src='img/error.jpg'></div><div class='respDiv'><div class='respDivL'><font style='color:orange'>Match<br>(e)</font></div><div class='respDivR'>No Match<br>(i)</div></div></div>","null","FEEDBACK","","","","","","","","","","",""
"html-keyboard-response","40","217524","0.0-7.0-1.1","63034df51d918e1e3b97e5ce","bdp_wmem","Thu Mar 16 2023 00:03:52 GMT-0400 (Eastern Daylight Time)","669390","Match,No Match","","null","","","","","","<div class='trialBorder'><div class='vertical-center'><img src='img/fixation2_sml.jpg'</img></div></div>","null","FIX","","","","","","","","","","",""
"html-keyboard-response","41","219026","0.0-7.0-2.1","63034df51d918e1e3b97e5ce","bdp_wmem","Thu Mar 16 2023 00:03:52 GMT-0400 (Eastern Daylight Time)","669390","Match,No Match","","null","","","","","","<div class='trialBorder'><div class='vertical-center'><img style='vertical-align:center; align:center' src='img/fixation2_sml.jpg'></div><div class='arrayDiv1'><div class='tc'><img class='introPic' src='trustrating_stim/white_mw078.bmp'><br><font color='red'><strong>Keep</strong></font></div></div></div>","null","ARRAY","1","trustrating_stim/white_mw078.bmp","0","Match","e","1500","","","","",""
"html-keyboard-response","42","223035","0.0-7.0-3.1","63034df51d918e1e3b97e5ce","bdp_wmem","Thu Mar 16 2023 00:03:52 GMT-0400 (Eastern Daylight Time)","669390","Match,No Match","","null","","","","","","<div class='trialBorder'><div class='vertical-center'><img src='img/fixation2_sml.jpg'</img></div></div>","null","DELAY","","","","","","","","","","",""
"html-keyboard-response","43","224416","0.0-7.0-4.1","63034df51d918e1e3b97e5ce","bdp_wmem","Thu Mar 16 2023 00:03:52 GMT-0400 (Eastern Daylight Time)","669390","Match,No Match","","1381","","","","","","<div class='trialBorder'><div class='targDiv'><div class='tc'><img class='introPic' src='trustrating_stim/white_mw078.bmp'><br><font color='red'><strong>Keep</strong></font></div></div><div class='respDiv'><div class='respDivL'>Match<br>(e)</div><div class='respDivR'>No Match<br>(i)</div></div></div>","e","TARGET","1","trustrating_stim/white_mw078.bmp","0","Match","e","1500","trustrating_stim/white_mw078.bmp","red","Keep","REAL","1"
"html-keyboard-response","44","224918","0.0-7.0-5.1","63034df51d918e1e3b97e5ce","bdp_wmem","Thu Mar 16 2023 00:03:52 GMT-0400 (Eastern Daylight Time)","669390","Match,No Match","","null","","","","","","<div class='trialBorder'><div class='vertical-center'><img src='img/correct.jpg'></div><div class='respDiv'><div class='respDivL'><font style='color:orange'>Match<br>(e)</font></div><div class='respDivR'>No Match<br>(i)</div></div></div>","null","FEEDBACK","","","","","","","","","","",""
"html-keyboard-response","45","225419","0.0-7.0-1.2","63034df51d918e1e3b97e5ce","bdp_wmem","Thu Mar 16 2023 00:03:52 GMT-0400 (Eastern Daylight Time)","669390","Match,No Match","","null","","","","","","<div class='trialBorder'><div class='vertical-center'><img src='img/fixation2_sml.jpg'</img></div></div>","null","FIX","","","","","","","","","","",""
"html-keyboard-response","46","229921","0.0-7.0-2.2","63034df51d918e1e3b97e5ce","bdp_wmem","Thu Mar 16 2023 00:03:52 GMT-0400 (Eastern Daylight Time)","669390","Match,No Match","","null","","","","","","<div class='trialBorder'><div class='vertical-center'><img style='vertical-align:center; align:center' src='img/fixation2_sml.jpg'></div><div class='arrayDiv3'><div class='tl'><img class='introPic' src='trustrating_stim/white_mw013.bmp'><br><font color='red'><strong>Keep</strong></font></div><div class='tc'><img class='introPic' src='trustrating_stim/white_mw038.bmp'><br><font color='red'><strong>Keep</strong></font></div><div class='tr'><img class='introPic' src='trustrating_stim/white_mw040.bmp'><br><font color='green'><strong>Share</strong></font></div></div></div>","null","ARRAY","3","trustrating_stim/white_mw013.bmp,trustrating_stim/white_mw038.bmp,trustrating_stim/white_mw040.bmp","0,0,1","Match","e","4500","","","","",""
"html-keyboard-response","47","233923","0.0-7.0-3.2","63034df51d918e1e3b97e5ce","bdp_wmem","Thu Mar 16 2023 00:03:52 GMT-0400 (Eastern Daylight Time)","669390","Match,No Match","","null","","","","","","<div class='trialBorder'><div class='vertical-center'><img src='img/fixation2_sml.jpg'</img></div></div>","null","DELAY","","","","","","","","","","",""
"html-keyboard-response","48","235796","0.0-7.0-4.2","63034df51d918e1e3b97e5ce","bdp_wmem","Thu Mar 16 2023 00:03:52 GMT-0400 (Eastern Daylight Time)","669390","Match,No Match","","1873","","","","","","<div class='trialBorder'><div class='targDiv'><div class='tc'><img class='introPic' src='trustrating_stim/white_mw040.bmp'><br><font color='green'><strong>Share</strong></font></div></div><div class='respDiv'><div class='respDivL'>Match<br>(e)</div><div class='respDivR'>No Match<br>(i)</div></div></div>","i","TARGET","3","trustrating_stim/white_mw013.bmp,trustrating_stim/white_mw038.bmp,trustrating_stim/white_mw040.bmp","0,0,1","Match","e","4500","trustrating_stim/white_mw040.bmp","green","Share","REAL","0"
"html-keyboard-response","49","236297","0.0-7.0-5.2","63034df51d918e1e3b97e5ce","bdp_wmem","Thu Mar 16 2023 00:03:52 GMT-0400 (Eastern Daylight Time)","669390","Match,No Match","","null","","","","","","<div class='trialBorder'><div class='vertical-center'><img src='img/error.jpg'></div><div class='respDiv'><div class='respDivL'>Match<br>(e)</div><div class='respDivR'><font style='color:orange'>No Match<br>(i)</font></div></div></div>","null","FEEDBACK","","","","","","","","","","",""
"html-keyboard-response","50","236798","0.0-7.0-1.3","63034df51d918e1e3b97e5ce","bdp_wmem","Thu Mar 16 2023 00:03:52 GMT-0400 (Eastern Daylight Time)","669390","Match,No Match","","null","","","","","","<div class='trialBorder'><div class='vertical-center'><img src='img/fixation2_sml.jpg'</img></div></div>","null","FIX","","","","","","","","","","",""
"html-keyboard-response","51","241308","0.0-7.0-2.3","63034df51d918e1e3b97e5ce","bdp_wmem","Thu Mar 16 2023 00:03:52 GMT-0400 (Eastern Daylight Time)","669390","Match,No Match","","null","","","","","","<div class='trialBorder'><div class='vertical-center'><img style='vertical-align:center; align:center' src='img/fixation2_sml.jpg'></div><div class='arrayDiv3'><div class='tl'><img class='introPic' src='trustrating_stim/white_mw013.bmp'><br><font color='green'><strong>Share</strong></font></div><div class='tc'><img class='introPic' src='trustrating_stim/white_mw038.bmp'><br><font color='green'><strong>Share</strong></font></div><div class='tr'><img class='introPic' src='trustrating_stim/white_mw091.bmp'><br><font color='red'><strong>Keep</strong></font></div></div></div>","null","ARRAY","3","trustrating_stim/white_mw013.bmp,trustrating_stim/white_mw038.bmp,trustrating_stim/white_mw091.bmp","1,1,0","Match","e","4500","","","","",""
"html-keyboard-response","52","245310","0.0-7.0-3.3","63034df51d918e1e3b97e5ce","bdp_wmem","Thu Mar 16 2023 00:03:52 GMT-0400 (Eastern Daylight Time)","669390","Match,No Match","","null","","","","","","<div class='trialBorder'><div class='vertical-center'><img src='img/fixation2_sml.jpg'</img></div></div>","null","DELAY","","","","","","","","","","",""
"html-keyboard-response","53","246585","0.0-7.0-4.3","63034df51d918e1e3b97e5ce","bdp_wmem","Thu Mar 16 2023 00:03:52 GMT-0400 (Eastern Daylight Time)","669390","Match,No Match","","1275","","","","","","<div class='trialBorder'><div class='targDiv'><div class='tc'><img class='introPic' src='trustrating_stim/white_mw038.bmp'><br><font color='green'><strong>Share</strong></font></div></div><div class='respDiv'><div class='respDivL'>Match<br>(e)</div><div class='respDivR'>No Match<br>(i)</div></div></div>","e","TARGET","3","trustrating_stim/white_mw013.bmp,trustrating_stim/white_mw038.bmp,trustrating_stim/white_mw091.bmp","1,1,0","Match","e","4500","trustrating_stim/white_mw038.bmp","green","Share","REAL","1"
"html-keyboard-response","54","247086","0.0-7.0-5.3","63034df51d918e1e3b97e5ce","bdp_wmem","Thu Mar 16 2023 00:03:52 GMT-0400 (Eastern Daylight Time)","669390","Match,No Match","","null","","","","","","<div class='trialBorder'><div class='vertical-center'><img src='img/correct.jpg'></div><div class='respDiv'><div class='respDivL'><font style='color:orange'>Match<br>(e)</font></div><div class='respDivR'>No Match<br>(i)</div></div></div>","null","FEEDBACK","","","","","","","","","","",""
"html-keyboard-response","55","247587","0.0-7.0-1.4","63034df51d918e1e3b97e5ce","bdp_wmem","Thu Mar 16 2023 00:03:52 GMT-0400 (Eastern Daylight Time)","669390","Match,No Match","","null","","","","","","<div class='trialBorder'><div class='vertical-center'><img src='img/fixation2_sml.jpg'</img></div></div>","null","FIX","","","","","","","","","","",""
"html-keyboard-response","56","250589","0.0-7.0-2.4","63034df51d918e1e3b97e5ce","bdp_wmem","Thu Mar 16 2023 00:03:52 GMT-0400 (Eastern Daylight Time)","669390","Match,No Match","","null","","","","","","<div class='trialBorder'><div class='vertical-center'><img style='vertical-align:center; align:center' src='img/fixation2_sml.jpg'></div><div class='arrayDiv2'><div class='tl'><img class='introPic' src='trustrating_stim/white_mw010.bmp'><br><font color='red'><strong>Keep</strong></font></div><div class='tr'><img class='introPic' src='trustrating_stim/white_mw003.bmp'><br><font color='green'><strong>Share</strong></font></div></div></div>","null","ARRAY","2","trustrating_stim/white_mw010.bmp,trustrating_stim/white_mw003.bmp","0,1","noMatchFace","i","3000","","","","",""
"html-keyboard-response","57","254591","0.0-7.0-3.4","63034df51d918e1e3b97e5ce","bdp_wmem","Thu Mar 16 2023 00:03:52 GMT-0400 (Eastern Daylight Time)","669390","Match,No Match","","null","","","","","","<div class='trialBorder'><div class='vertical-center'><img src='img/fixation2_sml.jpg'</img></div></div>","null","DELAY","","","","","","","","","","",""
"html-keyboard-response","58","256472","0.0-7.0-4.4","63034df51d918e1e3b97e5ce","bdp_wmem","Thu Mar 16 2023 00:03:52 GMT-0400 (Eastern Daylight Time)","669390","Match,No Match","","1880","","","","","","<div class='trialBorder'><div class='targDiv'><div class='tc'><img class='introPic' src='trustrating_stim/white_mw070.bmp'><br><font color='green'><strong>Share</strong></font></div></div><div class='respDiv'><div class='respDivL'>Match<br>(e)</div><div class='respDivR'>No Match<br>(i)</div></div></div>","i","TARGET","2","trustrating_stim/white_mw010.bmp,trustrating_stim/white_mw003.bmp","0,1","noMatchFace","i","3000","trustrating_stim/white_mw070.bmp","green","Share","REAL","1"
"html-keyboard-response","59","256973","0.0-7.0-5.4","63034df51d918e1e3b97e5ce","bdp_wmem","Thu Mar 16 2023 00:03:52 GMT-0400 (Eastern Daylight Time)","669390","Match,No Match","","null","","","","","","<div class='trialBorder'><div class='vertical-center'><img src='img/correct.jpg'></div><div class='respDiv'><div class='respDivL'>Match<br>(e)</div><div class='respDivR'><font style='color:orange'>No Match<br>(i)</font></div></div></div>","null","FEEDBACK","","","","","","","","","","",""
"html-keyboard-response","60","257475","0.0-7.0-1.5","63034df51d918e1e3b97e5ce","bdp_wmem","Thu Mar 16 2023 00:03:52 GMT-0400 (Eastern Daylight Time)","669390","Match,No Match","","null","","","","","","<div class='trialBorder'><div class='vertical-center'><img src='img/fixation2_sml.jpg'</img></div></div>","null","FIX","","","","","","","","","","",""
"html-keyboard-response","61","260476","0.0-7.0-2.5","63034df51d918e1e3b97e5ce","bdp_wmem","Thu Mar 16 2023 00:03:52 GMT-0400 (Eastern Daylight Time)","669390","Match,No Match","","null","","","","","","<div class='trialBorder'><div class='vertical-center'><img style='vertical-align:center; align:center' src='img/fixation2_sml.jpg'></div><div class='arrayDiv2'><div class='tl'><img class='introPic' src='trustrating_stim/white_mw085.bmp'><br><font color='green'><strong>Share</strong></font></div><div class='tr'><img class='introPic' src='trustrating_stim/white_mw042.bmp'><br><font color='red'><strong>Keep</strong></font></div></div></div>","null","ARRAY","2","trustrating_stim/white_mw085.bmp,trustrating_stim/white_mw042.bmp","1,0","noMatchFace","i","3000","","","","",""
"html-keyboard-response","62","264477","0.0-7.0-3.5","63034df51d918e1e3b97e5ce","bdp_wmem","Thu Mar 16 2023 00:03:52 GMT-0400 (Eastern Daylight Time)","669390","Match,No Match","","null","","","","","","<div class='trialBorder'><div class='vertical-center'><img src='img/fixation2_sml.jpg'</img></div></div>","null","DELAY","","","","","","","","","","",""
"html-keyboard-response","63","265665","0.0-7.0-4.5","63034df51d918e1e3b97e5ce","bdp_wmem","Thu Mar 16 2023 00:03:52 GMT-0400 (Eastern Daylight Time)","669390","Match,No Match","","1188","","","","","","<div class='trialBorder'><div class='targDiv'><div class='tc'><img class='introPic' src='trustrating_stim/white_mw013.bmp'><br><font color='green'><strong>Share</strong></font></div></div><div class='respDiv'><div class='respDivL'>Match<br>(e)</div><div class='respDivR'>No Match<br>(i)</div></div></div>","i","TARGET","2","trustrating_stim/white_mw085.bmp,trustrating_stim/white_mw042.bmp","1,0","noMatchFace","i","3000","trustrating_stim/white_mw013.bmp","green","Share","REAL","1"
"html-keyboard-response","64","266167","0.0-7.0-5.5","63034df51d918e1e3b97e5ce","bdp_wmem","Thu Mar 16 2023 00:03:52 GMT-0400 (Eastern Daylight Time)","669390","Match,No Match","","null","","","","","","<div class='trialBorder'><div class='vertical-center'><img src='img/correct.jpg'></div><div class='respDiv'><div class='respDivL'>Match<br>(e)</div><div class='respDivR'><font style='color:orange'>No Match<br>(i)</font></div></div></div>","null","FEEDBACK","","","","","","","","","","",""
"html-keyboard-response","65","266669","0.0-7.0-1.6","63034df51d918e1e3b97e5ce","bdp_wmem","Thu Mar 16 2023 00:03:52 GMT-0400 (Eastern Daylight Time)","669390","Match,No Match","","null","","","","","","<div class='trialBorder'><div class='vertical-center'><img src='img/fixation2_sml.jpg'</img></div></div>","null","FIX","","","","","","","","","","",""
"html-keyboard-response","66","269670","0.0-7.0-2.6","63034df51d918e1e3b97e5ce","bdp_wmem","Thu Mar 16 2023 00:03:52 GMT-0400 (Eastern Daylight Time)","669390","Match,No Match","","null","","","","","","<div class='trialBorder'><div class='vertical-center'><img style='vertical-align:center; align:center' src='img/fixation2_sml.jpg'></div><div class='arrayDiv2'><div class='tl'><img class='introPic' src='trustrating_stim/white_mw078.bmp'><br><font color='green'><strong>Share</strong></font></div><div class='tr'><img class='introPic' src='trustrating_stim/white_mw040.bmp'><br><font color='red'><strong>Keep</strong></font></div></div></div>","null","ARRAY","2","trustrating_stim/white_mw078.bmp,trustrating_stim/white_mw040.bmp","1,0","noMatchOutcome","i","3000","","","","",""
"html-keyboard-response","67","273672","0.0-7.0-3.6","63034df51d918e1e3b97e5ce","bdp_wmem","Thu Mar 16 2023 00:03:52 GMT-0400 (Eastern Daylight Time)","669390","Match,No Match","","null","","","","","","<div class='trialBorder'><div class='vertical-center'><img src='img/fixation2_sml.jpg'</img></div></div>","null","DELAY","","","","","","","","","","",""
"html-keyboard-response","68","275778","0.0-7.0-4.6","63034df51d918e1e3b97e5ce","bdp_wmem","Thu Mar 16 2023 00:03:52 GMT-0400 (Eastern Daylight Time)","669390","Match,No Match","","2105","","","","","","<div class='trialBorder'><div class='targDiv'><div class='tc'><img class='introPic' src='trustrating_stim/white_mw040.bmp'><br><font color='green'><strong>Share</strong></font></div></div><div class='respDiv'><div class='respDivL'>Match<br>(e)</div><div class='respDivR'>No Match<br>(i)</div></div></div>","i","TARGET","2","trustrating_stim/white_mw078.bmp,trustrating_stim/white_mw040.bmp","1,0","noMatchOutcome","i","3000","trustrating_stim/white_mw040.bmp","green","Share","REAL","1"
"html-keyboard-response","69","276279","0.0-7.0-5.6","63034df51d918e1e3b97e5ce","bdp_wmem","Thu Mar 16 2023 00:03:52 GMT-0400 (Eastern Daylight Time)","669390","Match,No Match","","null","","","","","","<div class='trialBorder'><div class='vertical-center'><img src='img/correct.jpg'></div><div class='respDiv'><div class='respDivL'>Match<br>(e)</div><div class='respDivR'><font style='color:orange'>No Match<br>(i)</font></div></div></div>","null","FEEDBACK","","","","","","","","","","",""
"html-keyboard-response","70","276781","0.0-7.0-1.7","63034df51d918e1e3b97e5ce","bdp_wmem","Thu Mar 16 2023 00:03:52 GMT-0400 (Eastern Daylight Time)","669390","Match,No Match","","null","","","","","","<div class='trialBorder'><div class='vertical-center'><img src='img/fixation2_sml.jpg'</img></div></div>","null","FIX","","","","","","","","","","",""
"html-keyboard-response","71","278292","0.0-7.0-2.7","63034df51d918e1e3b97e5ce","bdp_wmem","Thu Mar 16 2023 00:03:52 GMT-0400 (Eastern Daylight Time)","669390","Match,No Match","","null","","","","","","<div class='trialBorder'><div class='vertical-center'><img style='vertical-align:center; align:center' src='img/fixation2_sml.jpg'></div><div class='arrayDiv1'><div class='tc'><img class='introPic' src='trustrating_stim/white_mw070.bmp'><br><font color='red'><strong>Keep</strong></font></div></div></div>","null","ARRAY","1","trustrating_stim/white_mw070.bmp","0","Match","e","1500","","","","",""
"html-keyboard-response","72","282294","0.0-7.0-3.7","63034df51d918e1e3b97e5ce","bdp_wmem","Thu Mar 16 2023 00:03:52 GMT-0400 (Eastern Daylight Time)","669390","Match,No Match","","null","","","","","","<div class='trialBorder'><div class='vertical-center'><img src='img/fixation2_sml.jpg'</img></div></div>","null","DELAY","","","","","","","","","","",""
"html-keyboard-response","73","284035","0.0-7.0-4.7","63034df51d918e1e3b97e5ce","bdp_wmem","Thu Mar 16 2023 00:03:52 GMT-0400 (Eastern Daylight Time)","669390","Match,No Match","","1740","","","","","","<div class='trialBorder'><div class='targDiv'><div class='tc'><img class='introPic' src='trustrating_stim/white_mw070.bmp'><br><font color='red'><strong>Keep</strong></font></div></div><div class='respDiv'><div class='respDivL'>Match<br>(e)</div><div class='respDivR'>No Match<br>(i)</div></div></div>","e","TARGET","1","trustrating_stim/white_mw070.bmp","0","Match","e","1500","trustrating_stim/white_mw070.bmp","red","Keep","REAL","1"
"html-keyboard-response","74","284536","0.0-7.0-5.7","63034df51d918e1e3b97e5ce","bdp_wmem","Thu Mar 16 2023 00:03:52 GMT-0400 (Eastern Daylight Time)","669390","Match,No Match","","null","","","","","","<div class='trialBorder'><div class='vertical-center'><img src='img/correct.jpg'></div><div class='respDiv'><div class='respDivL'><font style='color:orange'>Match<br>(e)</font></div><div class='respDivR'>No Match<br>(i)</div></div></div>","null","FEEDBACK","","","","","","","","","","",""
"html-keyboard-response","75","285037","0.0-7.0-1.8","63034df51d918e1e3b97e5ce","bdp_wmem","Thu Mar 16 2023 00:03:52 GMT-0400 (Eastern Daylight Time)","669390","Match,No Match","","null","","","","","","<div class='trialBorder'><div class='vertical-center'><img src='img/fixation2_sml.jpg'</img></div></div>","null","FIX","","","","","","","","","","",""
"html-keyboard-response","76","288039","0.0-7.0-2.8","63034df51d918e1e3b97e5ce","bdp_wmem","Thu Mar 16 2023 00:03:52 GMT-0400 (Eastern Daylight Time)","669390","Match,No Match","","null","","","","","","<div class='trialBorder'><div class='vertical-center'><img style='vertical-align:center; align:center' src='img/fixation2_sml.jpg'></div><div class='arrayDiv2'><div class='tl'><img class='introPic' src='trustrating_stim/white_mw042.bmp'><br><font color='red'><strong>Keep</strong></font></div><div class='tr'><img class='introPic' src='trustrating_stim/white_mw078.bmp'><br><font color='green'><strong>Share</strong></font></div></div></div>","null","ARRAY","2","trustrating_stim/white_mw042.bmp,trustrating_stim/white_mw078.bmp","0,1","Match","e","3000","","","","",""
"html-keyboard-response","77","292041","0.0-7.0-3.8","63034df51d918e1e3b97e5ce","bdp_wmem","Thu Mar 16 2023 00:03:52 GMT-0400 (Eastern Daylight Time)","669390","Match,No Match","","null","","","","","","<div class='trialBorder'><div class='vertical-center'><img src='img/fixation2_sml.jpg'</img></div></div>","null","DELAY","","","","","","","","","","",""
"html-keyboard-response","78","293622","0.0-7.0-4.8","63034df51d918e1e3b97e5ce","bdp_wmem","Thu Mar 16 2023 00:03:52 GMT-0400 (Eastern Daylight Time)","669390","Match,No Match","","1580","","","","","","<div class='trialBorder'><div class='targDiv'><div class='tc'><img class='introPic' src='trustrating_stim/white_mw078.bmp'><br><font color='green'><strong>Share</strong></font></div></div><div class='respDiv'><div class='respDivL'>Match<br>(e)</div><div class='respDivR'>No Match<br>(i)</div></div></div>","e","TARGET","2","trustrating_stim/white_mw042.bmp,trustrating_stim/white_mw078.bmp","0,1","Match","e","3000","trustrating_stim/white_mw078.bmp","green","Share","REAL","1"
"html-keyboard-response","79","294123","0.0-7.0-5.8","63034df51d918e1e3b97e5ce","bdp_wmem","Thu Mar 16 2023 00:03:52 GMT-0400 (Eastern Daylight Time)","669390","Match,No Match","","null","","","","","","<div class='trialBorder'><div class='vertical-center'><img src='img/correct.jpg'></div><div class='respDiv'><div class='respDivL'><font style='color:orange'>Match<br>(e)</font></div><div class='respDivR'>No Match<br>(i)</div></div></div>","null","FEEDBACK","","","","","","","","","","",""
"html-keyboard-response","80","294625","0.0-7.0-1.9","63034df51d918e1e3b97e5ce","bdp_wmem","Thu Mar 16 2023 00:03:52 GMT-0400 (Eastern Daylight Time)","669390","Match,No Match","","null","","","","","","<div class='trialBorder'><div class='vertical-center'><img src='img/fixation2_sml.jpg'</img></div></div>","null","FIX","","","","","","","","","","",""
"html-keyboard-response","81","297626","0.0-7.0-2.9","63034df51d918e1e3b97e5ce","bdp_wmem","Thu Mar 16 2023 00:03:52 GMT-0400 (Eastern Daylight Time)","669390","Match,No Match","","null","","","","","","<div class='trialBorder'><div class='vertical-center'><img style='vertical-align:center; align:center' src='img/fixation2_sml.jpg'></div><div class='arrayDiv2'><div class='tl'><img class='introPic' src='trustrating_stim/white_mw078.bmp'><br><font color='red'><strong>Keep</strong></font></div><div class='tr'><img class='introPic' src='trustrating_stim/white_mw003.bmp'><br><font color='green'><strong>Share</strong></font></div></div></div>","null","ARRAY","2","trustrating_stim/white_mw078.bmp,trustrating_stim/white_mw003.bmp","0,1","noMatchOutcome","i","3000","","","","",""
"html-keyboard-response","82","301627","0.0-7.0-3.9","63034df51d918e1e3b97e5ce","bdp_wmem","Thu Mar 16 2023 00:03:52 GMT-0400 (Eastern Daylight Time)","669390","Match,No Match","","null","","","","","","<div class='trialBorder'><div class='vertical-center'><img src='img/fixation2_sml.jpg'</img></div></div>","null","DELAY","","","","","","","","","","",""
"html-keyboard-response","83","303565","0.0-7.0-4.9","63034df51d918e1e3b97e5ce","bdp_wmem","Thu Mar 16 2023 00:03:52 GMT-0400 (Eastern Daylight Time)","669390","Match,No Match","","1937","","","","","","<div class='trialBorder'><div class='targDiv'><div class='tc'><img class='introPic' src='trustrating_stim/white_mw003.bmp'><br><font color='red'><strong>Keep</strong></font></div></div><div class='respDiv'><div class='respDivL'>Match<br>(e)</div><div class='respDivR'>No Match<br>(i)</div></div></div>","i","TARGET","2","trustrating_stim/white_mw078.bmp,trustrating_stim/white_mw003.bmp","0,1","noMatchOutcome","i","3000","trustrating_stim/white_mw003.bmp","red","Keep","REAL","1"
"html-keyboard-response","84","304067","0.0-7.0-5.9","63034df51d918e1e3b97e5ce","bdp_wmem","Thu Mar 16 2023 00:03:52 GMT-0400 (Eastern Daylight Time)","669390","Match,No Match","","null","","","","","","<div class='trialBorder'><div class='vertical-center'><img src='img/correct.jpg'></div><div class='respDiv'><div class='respDivL'>Match<br>(e)</div><div class='respDivR'><font style='color:orange'>No Match<br>(i)</font></div></div></div>","null","FEEDBACK","","","","","","","","","","",""
"html-keyboard-response","85","304568","0.0-7.0-1.10","63034df51d918e1e3b97e5ce","bdp_wmem","Thu Mar 16 2023 00:03:52 GMT-0400 (Eastern Daylight Time)","669390","Match,No Match","","null","","","","","","<div class='trialBorder'><div class='vertical-center'><img src='img/fixation2_sml.jpg'</img></div></div>","null","FIX","","","","","","","","","","",""
"html-keyboard-response","86","306069","0.0-7.0-2.10","63034df51d918e1e3b97e5ce","bdp_wmem","Thu Mar 16 2023 00:03:52 GMT-0400 (Eastern Daylight Time)","669390","Match,No Match","","null","","","","","","<div class='trialBorder'><div class='vertical-center'><img style='vertical-align:center; align:center' src='img/fixation2_sml.jpg'></div><div class='arrayDiv1'><div class='tc'><img class='introPic' src='trustrating_stim/white_mw078.bmp'><br><font color='green'><strong>Share</strong></font></div></div></div>","null","ARRAY","1","trustrating_stim/white_mw078.bmp","1","Match","e","1500","","","","",""
"html-keyboard-response","87","310077","0.0-7.0-3.10","63034df51d918e1e3b97e5ce","bdp_wmem","Thu Mar 16 2023 00:03:52 GMT-0400 (Eastern Daylight Time)","669390","Match,No Match","","null","","","","","","<div class='trialBorder'><div class='vertical-center'><img src='img/fixation2_sml.jpg'</img></div></div>","null","DELAY","","","","","","","","","","",""
"html-keyboard-response","88","312348","0.0-7.0-4.10","63034df51d918e1e3b97e5ce","bdp_wmem","Thu Mar 16 2023 00:03:52 GMT-0400 (Eastern Daylight Time)","669390","Match,No Match","","2270","","","","","","<div class='trialBorder'><div class='targDiv'><div class='tc'><img class='introPic' src='trustrating_stim/white_mw078.bmp'><br><font color='green'><strong>Share</strong></font></div></div><div class='respDiv'><div class='respDivL'>Match<br>(e)</div><div class='respDivR'>No Match<br>(i)</div></div></div>","e","TARGET","1","trustrating_stim/white_mw078.bmp","1","Match","e","1500","trustrating_stim/white_mw078.bmp","green","Share","REAL","1"
"html-keyboard-response","89","312849","0.0-7.0-5.10","63034df51d918e1e3b97e5ce","bdp_wmem","Thu Mar 16 2023 00:03:52 GMT-0400 (Eastern Daylight Time)","669390","Match,No Match","","null","","","","","","<div class='trialBorder'><div class='vertical-center'><img src='img/correct.jpg'></div><div class='respDiv'><div class='respDivL'><font style='color:orange'>Match<br>(e)</font></div><div class='respDivR'>No Match<br>(i)</div></div></div>","null","FEEDBACK","","","","","","","","","","",""
"html-keyboard-response","90","313350","0.0-7.0-1.11","63034df51d918e1e3b97e5ce","bdp_wmem","Thu Mar 16 2023 00:03:52 GMT-0400 (Eastern Daylight Time)","669390","Match,No Match","","null","","","","","","<div class='trialBorder'><div class='vertical-center'><img src='img/fixation2_sml.jpg'</img></div></div>","null","FIX","","","","","","","","","","",""
"html-keyboard-response","91","316352","0.0-7.0-2.11","63034df51d918e1e3b97e5ce","bdp_wmem","Thu Mar 16 2023 00:03:52 GMT-0400 (Eastern Daylight Time)","669390","Match,No Match","","null","","","","","","<div class='trialBorder'><div class='vertical-center'><img style='vertical-align:center; align:center' src='img/fixation2_sml.jpg'></div><div class='arrayDiv2'><div class='tl'><img class='introPic' src='trustrating_stim/white_mw010.bmp'><br><font color='green'><strong>Share</strong></font></div><div class='tr'><img class='introPic' src='trustrating_stim/white_mw012.bmp'><br><font color='red'><strong>Keep</strong></font></div></div></div>","null","ARRAY","2","trustrating_stim/white_mw010.bmp,trustrating_stim/white_mw012.bmp","1,0","Match","e","3000","","","","",""
"html-keyboard-response","92","320353","0.0-7.0-3.11","63034df51d918e1e3b97e5ce","bdp_wmem","Thu Mar 16 2023 00:03:52 GMT-0400 (Eastern Daylight Time)","669390","Match,No Match","","null","","","","","","<div class='trialBorder'><div class='vertical-center'><img src='img/fixation2_sml.jpg'</img></div></div>","null","DELAY","","","","","","","","","","",""
"html-keyboard-response","93","322059","0.0-7.0-4.11","63034df51d918e1e3b97e5ce","bdp_wmem","Thu Mar 16 2023 00:03:52 GMT-0400 (Eastern Daylight Time)","669390","Match,No Match","","1705","","","","","","<div class='trialBorder'><div class='targDiv'><div class='tc'><img class='introPic' src='trustrating_stim/white_mw012.bmp'><br><font color='red'><strong>Keep</strong></font></div></div><div class='respDiv'><div class='respDivL'>Match<br>(e)</div><div class='respDivR'>No Match<br>(i)</div></div></div>","i","TARGET","2","trustrating_stim/white_mw010.bmp,trustrating_stim/white_mw012.bmp","1,0","Match","e","3000","trustrating_stim/white_mw012.bmp","red","Keep","REAL","0"
"html-keyboard-response","94","322560","0.0-7.0-5.11","63034df51d918e1e3b97e5ce","bdp_wmem","Thu Mar 16 2023 00:03:52 GMT-0400 (Eastern Daylight Time)","669390","Match,No Match","","null","","","","","","<div class='trialBorder'><div class='vertical-center'><img src='img/error.jpg'></div><div class='respDiv'><div class='respDivL'>Match<br>(e)</div><div class='respDivR'><font style='color:orange'>No Match<br>(i)</font></div></div></div>","null","FEEDBACK","","","","","","","","","","",""
"html-keyboard-response","95","323062","0.0-7.0-1.12","63034df51d918e1e3b97e5ce","bdp_wmem","Thu Mar 16 2023 00:03:52 GMT-0400 (Eastern Daylight Time)","669390","Match,No Match","","null","","","","","","<div class='trialBorder'><div class='vertical-center'><img src='img/fixation2_sml.jpg'</img></div></div>","null","FIX","","","","","","","","","","",""
"html-keyboard-response","96","327564","0.0-7.0-2.12","63034df51d918e1e3b97e5ce","bdp_wmem","Thu Mar 16 2023 00:03:52 GMT-0400 (Eastern Daylight Time)","669390","Match,No Match","","null","","","","","","<div class='trialBorder'><div class='vertical-center'><img style='vertical-align:center; align:center' src='img/fixation2_sml.jpg'></div><div class='arrayDiv3'><div class='tl'><img class='introPic' src='trustrating_stim/white_mw003.bmp'><br><font color='red'><strong>Keep</strong></font></div><div class='tc'><img class='introPic' src='trustrating_stim/white_mw078.bmp'><br><font color='red'><strong>Keep</strong></font></div><div class='tr'><img class='introPic' src='trustrating_stim/white_mw085.bmp'><br><font color='green'><strong>Share</strong></font></div></div></div>","null","ARRAY","3","trustrating_stim/white_mw003.bmp,trustrating_stim/white_mw078.bmp,trustrating_stim/white_mw085.bmp","0,0,1","noMatchFace","i","4500","","","","",""
"html-keyboard-response","97","331565","0.0-7.0-3.12","63034df51d918e1e3b97e5ce","bdp_wmem","Thu Mar 16 2023 00:03:52 GMT-0400 (Eastern Daylight Time)","669390","Match,No Match","","null","","","","","","<div class='trialBorder'><div class='vertical-center'><img src='img/fixation2_sml.jpg'</img></div></div>","null","DELAY","","","","","","","","","","",""
"html-keyboard-response","98","333041","0.0-7.0-4.12","63034df51d918e1e3b97e5ce","bdp_wmem","Thu Mar 16 2023 00:03:52 GMT-0400 (Eastern Daylight Time)","669390","Match,No Match","","1475","","","","","","<div class='trialBorder'><div class='targDiv'><div class='tc'><img class='introPic' src='trustrating_stim/white_mw012.bmp'><br><font color='red'><strong>Keep</strong></font></div></div><div class='respDiv'><div class='respDivL'>Match<br>(e)</div><div class='respDivR'>No Match<br>(i)</div></div></div>","i","TARGET","3","trustrating_stim/white_mw003.bmp,trustrating_stim/white_mw078.bmp,trustrating_stim/white_mw085.bmp","0,0,1","noMatchFace","i","4500","trustrating_stim/white_mw012.bmp","red","Keep","REAL","1"
"html-keyboard-response","99","333543","0.0-7.0-5.12","63034df51d918e1e3b97e5ce","bdp_wmem","Thu Mar 16 2023 00:03:52 GMT-0400 (Eastern Daylight Time)","669390","Match,No Match","","null","","","","","","<div class='trialBorder'><div class='vertical-center'><img src='img/correct.jpg'></div><div class='respDiv'><div class='respDivL'>Match<br>(e)</div><div class='respDivR'><font style='color:orange'>No Match<br>(i)</font></div></div></div>","null","FEEDBACK","","","","","","","","","","",""
"html-keyboard-response","100","334044","0.0-7.0-1.13","63034df51d918e1e3b97e5ce","bdp_wmem","Thu Mar 16 2023 00:03:52 GMT-0400 (Eastern Daylight Time)","669390","Match,No Match","","null","","","","","","<div class='trialBorder'><div class='vertical-center'><img src='img/fixation2_sml.jpg'</img></div></div>","null","FIX","","","","","","","","","","",""
"html-keyboard-response","101","338556","0.0-7.0-2.13","63034df51d918e1e3b97e5ce","bdp_wmem","Thu Mar 16 2023 00:03:52 GMT-0400 (Eastern Daylight Time)","669390","Match,No Match","","null","","","","","","<div class='trialBorder'><div class='vertical-center'><img style='vertical-align:center; align:center' src='img/fixation2_sml.jpg'></div><div class='arrayDiv3'><div class='tl'><img class='introPic' src='trustrating_stim/white_mw042.bmp'><br><font color='green'><strong>Share</strong></font></div><div class='tc'><img class='introPic' src='trustrating_stim/white_mw091.bmp'><br><font color='green'><strong>Share</strong></font></div><div class='tr'><img class='introPic' src='trustrating_stim/white_mw003.bmp'><br><font color='red'><strong>Keep</strong></font></div></div></div>","null","ARRAY","3","trustrating_stim/white_mw042.bmp,trustrating_stim/white_mw091.bmp,trustrating_stim/white_mw003.bmp","1,1,0","Match","e","4500","","","","",""
"html-keyboard-response","102","342558","0.0-7.0-3.13","63034df51d918e1e3b97e5ce","bdp_wmem","Thu Mar 16 2023 00:03:52 GMT-0400 (Eastern Daylight Time)","669390","Match,No Match","","null","","","","","","<div class='trialBorder'><div class='vertical-center'><img src='img/fixation2_sml.jpg'</img></div></div>","null","DELAY","","","","","","","","","","",""
"html-keyboard-response","103","344530","0.0-7.0-4.13","63034df51d918e1e3b97e5ce","bdp_wmem","Thu Mar 16 2023 00:03:52 GMT-0400 (Eastern Daylight Time)","669390","Match,No Match","","1971","","","","","","<div class='trialBorder'><div class='targDiv'><div class='tc'><img class='introPic' src='trustrating_stim/white_mw003.bmp'><br><font color='red'><strong>Keep</strong></font></div></div><div class='respDiv'><div class='respDivL'>Match<br>(e)</div><div class='respDivR'>No Match<br>(i)</div></div></div>","i","TARGET","3","trustrating_stim/white_mw042.bmp,trustrating_stim/white_mw091.bmp,trustrating_stim/white_mw003.bmp","1,1,0","Match","e","4500","trustrating_stim/white_mw003.bmp","red","Keep","REAL","0"
"html-keyboard-response","104","345031","0.0-7.0-5.13","63034df51d918e1e3b97e5ce","bdp_wmem","Thu Mar 16 2023 00:03:52 GMT-0400 (Eastern Daylight Time)","669390","Match,No Match","","null","","","","","","<div class='trialBorder'><div class='vertical-center'><img src='img/error.jpg'></div><div class='respDiv'><div class='respDivL'>Match<br>(e)</div><div class='respDivR'><font style='color:orange'>No Match<br>(i)</font></div></div></div>","null","FEEDBACK","","","","","","","","","","",""
"html-keyboard-response","105","345532","0.0-7.0-1.14","63034df51d918e1e3b97e5ce","bdp_wmem","Thu Mar 16 2023 00:03:52 GMT-0400 (Eastern Daylight Time)","669390","Match,No Match","","null","","","","","","<div class='trialBorder'><div class='vertical-center'><img src='img/fixation2_sml.jpg'</img></div></div>","null","FIX","","","","","","","","","","",""
"html-keyboard-response","106","347038","0.0-7.0-2.14","63034df51d918e1e3b97e5ce","bdp_wmem","Thu Mar 16 2023 00:03:52 GMT-0400 (Eastern Daylight Time)","669390","Match,No Match","","null","","","","","","<div class='trialBorder'><div class='vertical-center'><img style='vertical-align:center; align:center' src='img/fixation2_sml.jpg'></div><div class='arrayDiv1'><div class='tc'><img class='introPic' src='trustrating_stim/white_mw012.bmp'><br><font color='green'><strong>Share</strong></font></div></div></div>","null","ARRAY","1","trustrating_stim/white_mw012.bmp","1","Match","e","1500","","","","",""
"html-keyboard-response","107","351039","0.0-7.0-3.14","63034df51d918e1e3b97e5ce","bdp_wmem","Thu Mar 16 2023 00:03:52 GMT-0400 (Eastern Daylight Time)","669390","Match,No Match","","null","","","","","","<div class='trialBorder'><div class='vertical-center'><img src='img/fixation2_sml.jpg'</img></div></div>","null","DELAY","","","","","","","","","","",""
"html-keyboard-response","108","352817","0.0-7.0-4.14","63034df51d918e1e3b97e5ce","bdp_wmem","Thu Mar 16 2023 00:03:52 GMT-0400 (Eastern Daylight Time)","669390","Match,No Match","","1777","","","","","","<div class='trialBorder'><div class='targDiv'><div class='tc'><img class='introPic' src='trustrating_stim/white_mw012.bmp'><br><font color='green'><strong>Share</strong></font></div></div><div class='respDiv'><div class='respDivL'>Match<br>(e)</div><div class='respDivR'>No Match<br>(i)</div></div></div>","e","TARGET","1","trustrating_stim/white_mw012.bmp","1","Match","e","1500","trustrating_stim/white_mw012.bmp","green","Share","REAL","1"
"html-keyboard-response","109","353319","0.0-7.0-5.14","63034df51d918e1e3b97e5ce","bdp_wmem","Thu Mar 16 2023 00:03:52 GMT-0400 (Eastern Daylight Time)","669390","Match,No Match","","null","","","","","","<div class='trialBorder'><div class='vertical-center'><img src='img/correct.jpg'></div><div class='respDiv'><div class='respDivL'><font style='color:orange'>Match<br>(e)</font></div><div class='respDivR'>No Match<br>(i)</div></div></div>","null","FEEDBACK","","","","","","","","","","",""
"html-keyboard-response","110","353820","0.0-7.0-1.15","63034df51d918e1e3b97e5ce","bdp_wmem","Thu Mar 16 2023 00:03:52 GMT-0400 (Eastern Daylight Time)","669390","Match,No Match","","null","","","","","","<div class='trialBorder'><div class='vertical-center'><img src='img/fixation2_sml.jpg'</img></div></div>","null","FIX","","","","","","","","","","",""
"html-keyboard-response","111","358322","0.0-7.0-2.15","63034df51d918e1e3b97e5ce","bdp_wmem","Thu Mar 16 2023 00:03:52 GMT-0400 (Eastern Daylight Time)","669390","Match,No Match","","null","","","","","","<div class='trialBorder'><div class='vertical-center'><img style='vertical-align:center; align:center' src='img/fixation2_sml.jpg'></div><div class='arrayDiv3'><div class='tl'><img class='introPic' src='trustrating_stim/white_mw078.bmp'><br><font color='red'><strong>Keep</strong></font></div><div class='tc'><img class='introPic' src='trustrating_stim/white_mw085.bmp'><br><font color='green'><strong>Share</strong></font></div><div class='tr'><img class='introPic' src='trustrating_stim/white_mw040.bmp'><br><font color='red'><strong>Keep</strong></font></div></div></div>","null","ARRAY","3","trustrating_stim/white_mw078.bmp,trustrating_stim/white_mw085.bmp,trustrating_stim/white_mw040.bmp","0,1,0","Match","e","4500","","","","",""
"html-keyboard-response","112","362324","0.0-7.0-3.15","63034df51d918e1e3b97e5ce","bdp_wmem","Thu Mar 16 2023 00:03:52 GMT-0400 (Eastern Daylight Time)","669390","Match,No Match","","null","","","","","","<div class='trialBorder'><div class='vertical-center'><img src='img/fixation2_sml.jpg'</img></div></div>","null","DELAY","","","","","","","","","","",""
"html-keyboard-response","113","364248","0.0-7.0-4.15","63034df51d918e1e3b97e5ce","bdp_wmem","Thu Mar 16 2023 00:03:52 GMT-0400 (Eastern Daylight Time)","669390","Match,No Match","","1923","","","","","","<div class='trialBorder'><div class='targDiv'><div class='tc'><img class='introPic' src='trustrating_stim/white_mw078.bmp'><br><font color='red'><strong>Keep</strong></font></div></div><div class='respDiv'><div class='respDivL'>Match<br>(e)</div><div class='respDivR'>No Match<br>(i)</div></div></div>","e","TARGET","3","trustrating_stim/white_mw078.bmp,trustrating_stim/white_mw085.bmp,trustrating_stim/white_mw040.bmp","0,1,0","Match","e","4500","trustrating_stim/white_mw078.bmp","red","Keep","REAL","1"
"html-keyboard-response","114","364750","0.0-7.0-5.15","63034df51d918e1e3b97e5ce","bdp_wmem","Thu Mar 16 2023 00:03:52 GMT-0400 (Eastern Daylight Time)","669390","Match,No Match","","null","","","","","","<div class='trialBorder'><div class='vertical-center'><img src='img/correct.jpg'></div><div class='respDiv'><div class='respDivL'><font style='color:orange'>Match<br>(e)</font></div><div class='respDivR'>No Match<br>(i)</div></div></div>","null","FEEDBACK","","","","","","","","","","",""
"html-keyboard-response","115","365251","0.0-7.0-1.16","63034df51d918e1e3b97e5ce","bdp_wmem","Thu Mar 16 2023 00:03:52 GMT-0400 (Eastern Daylight Time)","669390","Match,No Match","","null","","","","","","<div class='trialBorder'><div class='vertical-center'><img src='img/fixation2_sml.jpg'</img></div></div>","null","FIX","","","","","","","","","","",""
"html-keyboard-response","116","369753","0.0-7.0-2.16","63034df51d918e1e3b97e5ce","bdp_wmem","Thu Mar 16 2023 00:03:52 GMT-0400 (Eastern Daylight Time)","669390","Match,No Match","","null","","","","","","<div class='trialBorder'><div class='vertical-center'><img style='vertical-align:center; align:center' src='img/fixation2_sml.jpg'></div><div class='arrayDiv3'><div class='tl'><img class='introPic' src='trustrating_stim/white_mw010.bmp'><br><font color='green'><strong>Share</strong></font></div><div class='tc'><img class='introPic' src='trustrating_stim/white_mw085.bmp'><br><font color='green'><strong>Share</strong></font></div><div class='tr'><img class='introPic' src='trustrating_stim/white_mw038.bmp'><br><font color='red'><strong>Keep</strong></font></div></div></div>","null","ARRAY","3","trustrating_stim/white_mw010.bmp,trustrating_stim/white_mw085.bmp,trustrating_stim/white_mw038.bmp","1,1,0","Match","e","4500","","","","",""
"html-keyboard-response","117","373755","0.0-7.0-3.16","63034df51d918e1e3b97e5ce","bdp_wmem","Thu Mar 16 2023 00:03:52 GMT-0400 (Eastern Daylight Time)","669390","Match,No Match","","null","","","","","","<div class='trialBorder'><div class='vertical-center'><img src='img/fixation2_sml.jpg'</img></div></div>","null","DELAY","","","","","","","","","","",""
"html-keyboard-response","118","375635","0.0-7.0-4.16","63034df51d918e1e3b97e5ce","bdp_wmem","Thu Mar 16 2023 00:03:52 GMT-0400 (Eastern Daylight Time)","669390","Match,No Match","","1879","","","","","","<div class='trialBorder'><div class='targDiv'><div class='tc'><img class='introPic' src='trustrating_stim/white_mw085.bmp'><br><font color='green'><strong>Share</strong></font></div></div><div class='respDiv'><div class='respDivL'>Match<br>(e)</div><div class='respDivR'>No Match<br>(i)</div></div></div>","e","TARGET","3","trustrating_stim/white_mw010.bmp,trustrating_stim/white_mw085.bmp,trustrating_stim/white_mw038.bmp","1,1,0","Match","e","4500","trustrating_stim/white_mw085.bmp","green","Share","REAL","1"
"html-keyboard-response","119","376136","0.0-7.0-5.16","63034df51d918e1e3b97e5ce","bdp_wmem","Thu Mar 16 2023 00:03:52 GMT-0400 (Eastern Daylight Time)","669390","Match,No Match","","null","","","","","","<div class='trialBorder'><div class='vertical-center'><img src='img/correct.jpg'></div><div class='respDiv'><div class='respDivL'><font style='color:orange'>Match<br>(e)</font></div><div class='respDivR'>No Match<br>(i)</div></div></div>","null","FEEDBACK","","","","","","","","","","",""
"html-keyboard-response","120","376637","0.0-7.0-1.17","63034df51d918e1e3b97e5ce","bdp_wmem","Thu Mar 16 2023 00:03:52 GMT-0400 (Eastern Daylight Time)","669390","Match,No Match","","null","","","","","","<div class='trialBorder'><div class='vertical-center'><img src='img/fixation2_sml.jpg'</img></div></div>","null","FIX","","","","","","","","","","",""
"html-keyboard-response","121","378139","0.0-7.0-2.17","63034df51d918e1e3b97e5ce","bdp_wmem","Thu Mar 16 2023 00:03:52 GMT-0400 (Eastern Daylight Time)","669390","Match,No Match","","null","","","","","","<div class='trialBorder'><div class='vertical-center'><img style='vertical-align:center; align:center' src='img/fixation2_sml.jpg'></div><div class='arrayDiv1'><div class='tc'><img class='introPic' src='trustrating_stim/white_mw010.bmp'><br><font color='red'><strong>Keep</strong></font></div></div></div>","null","ARRAY","1","trustrating_stim/white_mw010.bmp","0","Match","e","1500","","","","",""
"html-keyboard-response","122","382140","0.0-7.0-3.17","63034df51d918e1e3b97e5ce","bdp_wmem","Thu Mar 16 2023 00:03:52 GMT-0400 (Eastern Daylight Time)","669390","Match,No Match","","null","","","","","","<div class='trialBorder'><div class='vertical-center'><img src='img/fixation2_sml.jpg'</img></div></div>","null","DELAY","","","","","","","","","","",""
"html-keyboard-response","123","384387","0.0-7.0-4.17","63034df51d918e1e3b97e5ce","bdp_wmem","Thu Mar 16 2023 00:03:52 GMT-0400 (Eastern Daylight Time)","669390","Match,No Match","","2245","","","","","","<div class='trialBorder'><div class='targDiv'><div class='tc'><img class='introPic' src='trustrating_stim/white_mw010.bmp'><br><font color='red'><strong>Keep</strong></font></div></div><div class='respDiv'><div class='respDivL'>Match<br>(e)</div><div class='respDivR'>No Match<br>(i)</div></div></div>","e","TARGET","1","trustrating_stim/white_mw010.bmp","0","Match","e","1500","trustrating_stim/white_mw010.bmp","red","Keep","REAL","1"
"html-keyboard-response","124","384888","0.0-7.0-5.17","63034df51d918e1e3b97e5ce","bdp_wmem","Thu Mar 16 2023 00:03:52 GMT-0400 (Eastern Daylight Time)","669390","Match,No Match","","null","","","","","","<div class='trialBorder'><div class='vertical-center'><img src='img/correct.jpg'></div><div class='respDiv'><div class='respDivL'><font style='color:orange'>Match<br>(e)</font></div><div class='respDivR'>No Match<br>(i)</div></div></div>","null","FEEDBACK","","","","","","","","","","",""
"html-keyboard-response","125","385390","0.0-7.0-1.18","63034df51d918e1e3b97e5ce","bdp_wmem","Thu Mar 16 2023 00:03:52 GMT-0400 (Eastern Daylight Time)","669390","Match,No Match","","null","","","","","","<div class='trialBorder'><div class='vertical-center'><img src='img/fixation2_sml.jpg'</img></div></div>","null","FIX","","","","","","","","","","",""
"html-keyboard-response","126","389892","0.0-7.0-2.18","63034df51d918e1e3b97e5ce","bdp_wmem","Thu Mar 16 2023 00:03:52 GMT-0400 (Eastern Daylight Time)","669390","Match,No Match","","null","","","","","","<div class='trialBorder'><div class='vertical-center'><img style='vertical-align:center; align:center' src='img/fixation2_sml.jpg'></div><div class='arrayDiv3'><div class='tl'><img class='introPic' src='trustrating_stim/white_mw085.bmp'><br><font color='green'><strong>Share</strong></font></div><div class='tc'><img class='introPic' src='trustrating_stim/white_mw012.bmp'><br><font color='red'><strong>Keep</strong></font></div><div class='tr'><img class='introPic' src='trustrating_stim/white_mw003.bmp'><br><font color='red'><strong>Keep</strong></font></div></div></div>","null","ARRAY","3","trustrating_stim/white_mw085.bmp,trustrating_stim/white_mw012.bmp,trustrating_stim/white_mw003.bmp","1,0,0","Match","e","4500","","","","",""
"html-keyboard-response","127","393893","0.0-7.0-3.18","63034df51d918e1e3b97e5ce","bdp_wmem","Thu Mar 16 2023 00:03:52 GMT-0400 (Eastern Daylight Time)","669390","Match,No Match","","null","","","","","","<div class='trialBorder'><div class='vertical-center'><img src='img/fixation2_sml.jpg'</img></div></div>","null","DELAY","","","","","","","","","","",""
"html-keyboard-response","128","395444","0.0-7.0-4.18","63034df51d918e1e3b97e5ce","bdp_wmem","Thu Mar 16 2023 00:03:52 GMT-0400 (Eastern Daylight Time)","669390","Match,No Match","","1550","","","","","","<div class='trialBorder'><div class='targDiv'><div class='tc'><img class='introPic' src='trustrating_stim/white_mw003.bmp'><br><font color='red'><strong>Keep</strong></font></div></div><div class='respDiv'><div class='respDivL'>Match<br>(e)</div><div class='respDivR'>No Match<br>(i)</div></div></div>","e","TARGET","3","trustrating_stim/white_mw085.bmp,trustrating_stim/white_mw012.bmp,trustrating_stim/white_mw003.bmp","1,0,0","Match","e","4500","trustrating_stim/white_mw003.bmp","red","Keep","REAL","1"
"html-keyboard-response","129","395945","0.0-7.0-5.18","63034df51d918e1e3b97e5ce","bdp_wmem","Thu Mar 16 2023 00:03:52 GMT-0400 (Eastern Daylight Time)","669390","Match,No Match","","null","","","","","","<div class='trialBorder'><div class='vertical-center'><img src='img/correct.jpg'></div><div class='respDiv'><div class='respDivL'><font style='color:orange'>Match<br>(e)</font></div><div class='respDivR'>No Match<br>(i)</div></div></div>","null","FEEDBACK","","","","","","","","","","",""
"html-keyboard-response","130","396446","0.0-7.0-1.19","63034df51d918e1e3b97e5ce","bdp_wmem","Thu Mar 16 2023 00:03:52 GMT-0400 (Eastern Daylight Time)","669390","Match,No Match","","null","","","","","","<div class='trialBorder'><div class='vertical-center'><img src='img/fixation2_sml.jpg'</img></div></div>","null","FIX","","","","","","","","","","",""
"html-keyboard-response","131","399447","0.0-7.0-2.19","63034df51d918e1e3b97e5ce","bdp_wmem","Thu Mar 16 2023 00:03:52 GMT-0400 (Eastern Daylight Time)","669390","Match,No Match","","null","","","","","","<div class='trialBorder'><div class='vertical-center'><img style='vertical-align:center; align:center' src='img/fixation2_sml.jpg'></div><div class='arrayDiv2'><div class='tl'><img class='introPic' src='trustrating_stim/white_mw012.bmp'><br><font color='red'><strong>Keep</strong></font></div><div class='tr'><img class='introPic' src='trustrating_stim/white_mw003.bmp'><br><font color='green'><strong>Share</strong></font></div></div></div>","null","ARRAY","2","trustrating_stim/white_mw012.bmp,trustrating_stim/white_mw003.bmp","0,1","Match","e","3000","","","","",""
"html-keyboard-response","132","403448","0.0-7.0-3.19","63034df51d918e1e3b97e5ce","bdp_wmem","Thu Mar 16 2023 00:03:52 GMT-0400 (Eastern Daylight Time)","669390","Match,No Match","","null","","","","","","<div class='trialBorder'><div class='vertical-center'><img src='img/fixation2_sml.jpg'</img></div></div>","null","DELAY","","","","","","","","","","",""
"html-keyboard-response","133","404696","0.0-7.0-4.19","63034df51d918e1e3b97e5ce","bdp_wmem","Thu Mar 16 2023 00:03:52 GMT-0400 (Eastern Daylight Time)","669390","Match,No Match","","1247","","","","","","<div class='trialBorder'><div class='targDiv'><div class='tc'><img class='introPic' src='trustrating_stim/white_mw003.bmp'><br><font color='green'><strong>Share</strong></font></div></div><div class='respDiv'><div class='respDivL'>Match<br>(e)</div><div class='respDivR'>No Match<br>(i)</div></div></div>","e","TARGET","2","trustrating_stim/white_mw012.bmp,trustrating_stim/white_mw003.bmp","0,1","Match","e","3000","trustrating_stim/white_mw003.bmp","green","Share","REAL","1"
"html-keyboard-response","134","405197","0.0-7.0-5.19","63034df51d918e1e3b97e5ce","bdp_wmem","Thu Mar 16 2023 00:03:52 GMT-0400 (Eastern Daylight Time)","669390","Match,No Match","","null","","","","","","<div class='trialBorder'><div class='vertical-center'><img src='img/correct.jpg'></div><div class='respDiv'><div class='respDivL'><font style='color:orange'>Match<br>(e)</font></div><div class='respDivR'>No Match<br>(i)</div></div></div>","null","FEEDBACK","","","","","","","","","","",""
"html-keyboard-response","135","405699","0.0-7.0-1.20","63034df51d918e1e3b97e5ce","bdp_wmem","Thu Mar 16 2023 00:03:52 GMT-0400 (Eastern Daylight Time)","669390","Match,No Match","","null","","","","","","<div class='trialBorder'><div class='vertical-center'><img src='img/fixation2_sml.jpg'</img></div></div>","null","FIX","","","","","","","","","","",""
"html-keyboard-response","136","408701","0.0-7.0-2.20","63034df51d918e1e3b97e5ce","bdp_wmem","Thu Mar 16 2023 00:03:52 GMT-0400 (Eastern Daylight Time)","669390","Match,No Match","","null","","","","","","<div class='trialBorder'><div class='vertical-center'><img style='vertical-align:center; align:center' src='img/fixation2_sml.jpg'></div><div class='arrayDiv2'><div class='tl'><img class='introPic' src='trustrating_stim/white_mw042.bmp'><br><font color='red'><strong>Keep</strong></font></div><div class='tr'><img class='introPic' src='trustrating_stim/white_mw091.bmp'><br><font color='green'><strong>Share</strong></font></div></div></div>","null","ARRAY","2","trustrating_stim/white_mw042.bmp,trustrating_stim/white_mw091.bmp","0,1","Match","e","3000","","","","",""
"html-keyboard-response","137","412702","0.0-7.0-3.20","63034df51d918e1e3b97e5ce","bdp_wmem","Thu Mar 16 2023 00:03:52 GMT-0400 (Eastern Daylight Time)","669390","Match,No Match","","null","","","","","","<div class='trialBorder'><div class='vertical-center'><img src='img/fixation2_sml.jpg'</img></div></div>","null","DELAY","","","","","","","","","","",""
"html-keyboard-response","138","414674","0.0-7.0-4.20","63034df51d918e1e3b97e5ce","bdp_wmem","Thu Mar 16 2023 00:03:52 GMT-0400 (Eastern Daylight Time)","669390","Match,No Match","","1971","","","","","","<div class='trialBorder'><div class='targDiv'><div class='tc'><img class='introPic' src='trustrating_stim/white_mw042.bmp'><br><font color='red'><strong>Keep</strong></font></div></div><div class='respDiv'><div class='respDivL'>Match<br>(e)</div><div class='respDivR'>No Match<br>(i)</div></div></div>","e","TARGET","2","trustrating_stim/white_mw042.bmp,trustrating_stim/white_mw091.bmp","0,1","Match","e","3000","trustrating_stim/white_mw042.bmp","red","Keep","REAL","1"
"html-keyboard-response","139","415176","0.0-7.0-5.20","63034df51d918e1e3b97e5ce","bdp_wmem","Thu Mar 16 2023 00:03:52 GMT-0400 (Eastern Daylight Time)","669390","Match,No Match","","null","","","","","","<div class='trialBorder'><div class='vertical-center'><img src='img/correct.jpg'></div><div class='respDiv'><div class='respDivL'><font style='color:orange'>Match<br>(e)</font></div><div class='respDivR'>No Match<br>(i)</div></div></div>","null","FEEDBACK","","","","","","","","","","",""
"html-keyboard-response","140","415677","0.0-7.0-1.21","63034df51d918e1e3b97e5ce","bdp_wmem","Thu Mar 16 2023 00:03:52 GMT-0400 (Eastern Daylight Time)","669390","Match,No Match","","null","","","","","","<div class='trialBorder'><div class='vertical-center'><img src='img/fixation2_sml.jpg'</img></div></div>","null","FIX","","","","","","","","","","",""
"html-keyboard-response","141","420179","0.0-7.0-2.21","63034df51d918e1e3b97e5ce","bdp_wmem","Thu Mar 16 2023 00:03:52 GMT-0400 (Eastern Daylight Time)","669390","Match,No Match","","null","","","","","","<div class='trialBorder'><div class='vertical-center'><img style='vertical-align:center; align:center' src='img/fixation2_sml.jpg'></div><div class='arrayDiv3'><div class='tl'><img class='introPic' src='trustrating_stim/white_mw003.bmp'><br><font color='green'><strong>Share</strong></font></div><div class='tc'><img class='introPic' src='trustrating_stim/white_mw085.bmp'><br><font color='red'><strong>Keep</strong></font></div><div class='tr'><img class='introPic' src='trustrating_stim/white_mw040.bmp'><br><font color='green'><strong>Share</strong></font></div></div></div>","null","ARRAY","3","trustrating_stim/white_mw003.bmp,trustrating_stim/white_mw085.bmp,trustrating_stim/white_mw040.bmp","1,0,1","noMatchFace","i","4500","","","","",""
"html-keyboard-response","142","424181","0.0-7.0-3.21","63034df51d918e1e3b97e5ce","bdp_wmem","Thu Mar 16 2023 00:03:52 GMT-0400 (Eastern Daylight Time)","669390","Match,No Match","","null","","","","","","<div class='trialBorder'><div class='vertical-center'><img src='img/fixation2_sml.jpg'</img></div></div>","null","DELAY","","","","","","","","","","",""
"html-keyboard-response","143","425693","0.0-7.0-4.21","63034df51d918e1e3b97e5ce","bdp_wmem","Thu Mar 16 2023 00:03:52 GMT-0400 (Eastern Daylight Time)","669390","Match,No Match","","1511","","","","","","<div class='trialBorder'><div class='targDiv'><div class='tc'><img class='introPic' src='trustrating_stim/white_mw042.bmp'><br><font color='green'><strong>Share</strong></font></div></div><div class='respDiv'><div class='respDivL'>Match<br>(e)</div><div class='respDivR'>No Match<br>(i)</div></div></div>","e","TARGET","3","trustrating_stim/white_mw003.bmp,trustrating_stim/white_mw085.bmp,trustrating_stim/white_mw040.bmp","1,0,1","noMatchFace","i","4500","trustrating_stim/white_mw042.bmp","green","Share","REAL","0"
"html-keyboard-response","144","426194","0.0-7.0-5.21","63034df51d918e1e3b97e5ce","bdp_wmem","Thu Mar 16 2023 00:03:52 GMT-0400 (Eastern Daylight Time)","669390","Match,No Match","","null","","","","","","<div class='trialBorder'><div class='vertical-center'><img src='img/error.jpg'></div><div class='respDiv'><div class='respDivL'><font style='color:orange'>Match<br>(e)</font></div><div class='respDivR'>No Match<br>(i)</div></div></div>","null","FEEDBACK","","","","","","","","","","",""
"html-keyboard-response","145","426695","0.0-7.0-1.22","63034df51d918e1e3b97e5ce","bdp_wmem","Thu Mar 16 2023 00:03:52 GMT-0400 (Eastern Daylight Time)","669390","Match,No Match","","null","","","","","","<div class='trialBorder'><div class='vertical-center'><img src='img/fixation2_sml.jpg'</img></div></div>","null","FIX","","","","","","","","","","",""
"html-keyboard-response","146","431197","0.0-7.0-2.22","63034df51d918e1e3b97e5ce","bdp_wmem","Thu Mar 16 2023 00:03:52 GMT-0400 (Eastern Daylight Time)","669390","Match,No Match","","null","","","","","","<div class='trialBorder'><div class='vertical-center'><img style='vertical-align:center; align:center' src='img/fixation2_sml.jpg'></div><div class='arrayDiv3'><div class='tl'><img class='introPic' src='trustrating_stim/white_mw092.bmp'><br><font color='green'><strong>Share</strong></font></div><div class='tc'><img class='introPic' src='trustrating_stim/white_mw040.bmp'><br><font color='red'><strong>Keep</strong></font></div><div class='tr'><img class='introPic' src='trustrating_stim/white_mw042.bmp'><br><font color='red'><strong>Keep</strong></font></div></div></div>","null","ARRAY","3","trustrating_stim/white_mw092.bmp,trustrating_stim/white_mw040.bmp,trustrating_stim/white_mw042.bmp","1,0,0","noMatchOutcome","i","4500","","","","",""
"html-keyboard-response","147","435199","0.0-7.0-3.22","63034df51d918e1e3b97e5ce","bdp_wmem","Thu Mar 16 2023 00:03:52 GMT-0400 (Eastern Daylight Time)","669390","Match,No Match","","null","","","","","","<div class='trialBorder'><div class='vertical-center'><img src='img/fixation2_sml.jpg'</img></div></div>","null","DELAY","","","","","","","","","","",""
"html-keyboard-response","148","437810","0.0-7.0-4.22","63034df51d918e1e3b97e5ce","bdp_wmem","Thu Mar 16 2023 00:03:52 GMT-0400 (Eastern Daylight Time)","669390","Match,No Match","","2610","","","","","","<div class='trialBorder'><div class='targDiv'><div class='tc'><img class='introPic' src='trustrating_stim/white_mw092.bmp'><br><font color='red'><strong>Keep</strong></font></div></div><div class='respDiv'><div class='respDivL'>Match<br>(e)</div><div class='respDivR'>No Match<br>(i)</div></div></div>","i","TARGET","3","trustrating_stim/white_mw092.bmp,trustrating_stim/white_mw040.bmp,trustrating_stim/white_mw042.bmp","1,0,0","noMatchOutcome","i","4500","trustrating_stim/white_mw092.bmp","red","Keep","REAL","1"
"html-keyboard-response","149","438312","0.0-7.0-5.22","63034df51d918e1e3b97e5ce","bdp_wmem","Thu Mar 16 2023 00:03:52 GMT-0400 (Eastern Daylight Time)","669390","Match,No Match","","null","","","","","","<div class='trialBorder'><div class='vertical-center'><img src='img/correct.jpg'></div><div class='respDiv'><div class='respDivL'>Match<br>(e)</div><div class='respDivR'><font style='color:orange'>No Match<br>(i)</font></div></div></div>","null","FEEDBACK","","","","","","","","","","",""
"html-keyboard-response","150","438813","0.0-7.0-1.23","63034df51d918e1e3b97e5ce","bdp_wmem","Thu Mar 16 2023 00:03:52 GMT-0400 (Eastern Daylight Time)","669390","Match,No Match","","null","","","","","","<div class='trialBorder'><div class='vertical-center'><img src='img/fixation2_sml.jpg'</img></div></div>","null","FIX","","","","","","","","","","",""
"html-keyboard-response","151","440315","0.0-7.0-2.23","63034df51d918e1e3b97e5ce","bdp_wmem","Thu Mar 16 2023 00:03:52 GMT-0400 (Eastern Daylight Time)","669390","Match,No Match","","null","","","","","","<div class='trialBorder'><div class='vertical-center'><img style='vertical-align:center; align:center' src='img/fixation2_sml.jpg'></div><div class='arrayDiv1'><div class='tc'><img class='introPic' src='trustrating_stim/white_mw013.bmp'><br><font color='green'><strong>Share</strong></font></div></div></div>","null","ARRAY","1","trustrating_stim/white_mw013.bmp","1","noMatchFace","i","1500","","","","",""
"html-keyboard-response","152","444317","0.0-7.0-3.23","63034df51d918e1e3b97e5ce","bdp_wmem","Thu Mar 16 2023 00:03:52 GMT-0400 (Eastern Daylight Time)","669390","Match,No Match","","null","","","","","","<div class='trialBorder'><div class='vertical-center'><img src='img/fixation2_sml.jpg'</img></div></div>","null","DELAY","","","","","","","","","","",""
"html-keyboard-response","153","445649","0.0-7.0-4.23","63034df51d918e1e3b97e5ce","bdp_wmem","Thu Mar 16 2023 00:03:52 GMT-0400 (Eastern Daylight Time)","669390","Match,No Match","","1331","","","","","","<div class='trialBorder'><div class='targDiv'><div class='tc'><img class='introPic' src='trustrating_stim/white_mw040.bmp'><br><font color='green'><strong>Share</strong></font></div></div><div class='respDiv'><div class='respDivL'>Match<br>(e)</div><div class='respDivR'>No Match<br>(i)</div></div></div>","i","TARGET","1","trustrating_stim/white_mw013.bmp","1","noMatchFace","i","1500","trustrating_stim/white_mw040.bmp","green","Share","REAL","1"
"html-keyboard-response","154","446150","0.0-7.0-5.23","63034df51d918e1e3b97e5ce","bdp_wmem","Thu Mar 16 2023 00:03:52 GMT-0400 (Eastern Daylight Time)","669390","Match,No Match","","null","","","","","","<div class='trialBorder'><div class='vertical-center'><img src='img/correct.jpg'></div><div class='respDiv'><div class='respDivL'>Match<br>(e)</div><div class='respDivR'><font style='color:orange'>No Match<br>(i)</font></div></div></div>","null","FEEDBACK","","","","","","","","","","",""
"html-keyboard-response","155","446651","0.0-7.0-1.24","63034df51d918e1e3b97e5ce","bdp_wmem","Thu Mar 16 2023 00:03:52 GMT-0400 (Eastern Daylight Time)","669390","Match,No Match","","null","","","","","","<div class='trialBorder'><div class='vertical-center'><img src='img/fixation2_sml.jpg'</img></div></div>","null","FIX","","","","","","","","","","",""
"html-keyboard-response","156","449653","0.0-7.0-2.24","63034df51d918e1e3b97e5ce","bdp_wmem","Thu Mar 16 2023 00:03:52 GMT-0400 (Eastern Daylight Time)","669390","Match,No Match","","null","","","","","","<div class='trialBorder'><div class='vertical-center'><img style='vertical-align:center; align:center' src='img/fixation2_sml.jpg'></div><div class='arrayDiv2'><div class='tl'><img class='introPic' src='trustrating_stim/white_mw012.bmp'><br><font color='red'><strong>Keep</strong></font></div><div class='tr'><img class='introPic' src='trustrating_stim/white_mw042.bmp'><br><font color='green'><strong>Share</strong></font></div></div></div>","null","ARRAY","2","trustrating_stim/white_mw012.bmp,trustrating_stim/white_mw042.bmp","0,1","noMatchFace","i","3000","","","","",""
"html-keyboard-response","157","453655","0.0-7.0-3.24","63034df51d918e1e3b97e5ce","bdp_wmem","Thu Mar 16 2023 00:03:52 GMT-0400 (Eastern Daylight Time)","669390","Match,No Match","","null","","","","","","<div class='trialBorder'><div class='vertical-center'><img src='img/fixation2_sml.jpg'</img></div></div>","null","DELAY","","","","","","","","","","",""
"html-keyboard-response","158","455013","0.0-7.0-4.24","63034df51d918e1e3b97e5ce","bdp_wmem","Thu Mar 16 2023 00:03:52 GMT-0400 (Eastern Daylight Time)","669390","Match,No Match","","1356","","","","","","<div class='trialBorder'><div class='targDiv'><div class='tc'><img class='introPic' src='trustrating_stim/white_mw038.bmp'><br><font color='red'><strong>Keep</strong></font></div></div><div class='respDiv'><div class='respDivL'>Match<br>(e)</div><div class='respDivR'>No Match<br>(i)</div></div></div>","i","TARGET","2","trustrating_stim/white_mw012.bmp,trustrating_stim/white_mw042.bmp","0,1","noMatchFace","i","3000","trustrating_stim/white_mw038.bmp","red","Keep","REAL","1"
"html-keyboard-response","159","455514","0.0-7.0-5.24","63034df51d918e1e3b97e5ce","bdp_wmem","Thu Mar 16 2023 00:03:52 GMT-0400 (Eastern Daylight Time)","669390","Match,No Match","","null","","","","","","<div class='trialBorder'><div class='vertical-center'><img src='img/correct.jpg'></div><div class='respDiv'><div class='respDivL'>Match<br>(e)</div><div class='respDivR'><font style='color:orange'>No Match<br>(i)</font></div></div></div>","null","FEEDBACK","","","","","","","","","","",""
"html-keyboard-response","160","456016","0.0-7.0-1.25","63034df51d918e1e3b97e5ce","bdp_wmem","Thu Mar 16 2023 00:03:52 GMT-0400 (Eastern Daylight Time)","669390","Match,No Match","","null","","","","","","<div class='trialBorder'><div class='vertical-center'><img src='img/fixation2_sml.jpg'</img></div></div>","null","FIX","","","","","","","","","","",""
"html-keyboard-response","161","459018","0.0-7.0-2.25","63034df51d918e1e3b97e5ce","bdp_wmem","Thu Mar 16 2023 00:03:52 GMT-0400 (Eastern Daylight Time)","669390","Match,No Match","","null","","","","","","<div class='trialBorder'><div class='vertical-center'><img style='vertical-align:center; align:center' src='img/fixation2_sml.jpg'></div><div class='arrayDiv2'><div class='tl'><img class='introPic' src='trustrating_stim/white_mw040.bmp'><br><font color='green'><strong>Share</strong></font></div><div class='tr'><img class='introPic' src='trustrating_stim/white_mw091.bmp'><br><font color='red'><strong>Keep</strong></font></div></div></div>","null","ARRAY","2","trustrating_stim/white_mw040.bmp,trustrating_stim/white_mw091.bmp","1,0","Match","e","3000","","","","",""
"html-keyboard-response","162","463020","0.0-7.0-3.25","63034df51d918e1e3b97e5ce","bdp_wmem","Thu Mar 16 2023 00:03:52 GMT-0400 (Eastern Daylight Time)","669390","Match,No Match","","null","","","","","","<div class='trialBorder'><div class='vertical-center'><img src='img/fixation2_sml.jpg'</img></div></div>","null","DELAY","","","","","","","","","","",""
"html-keyboard-response","163","464931","0.0-7.0-4.25","63034df51d918e1e3b97e5ce","bdp_wmem","Thu Mar 16 2023 00:03:52 GMT-0400 (Eastern Daylight Time)","669390","Match,No Match","","1911","","","","","","<div class='trialBorder'><div class='targDiv'><div class='tc'><img class='introPic' src='trustrating_stim/white_mw091.bmp'><br><font color='red'><strong>Keep</strong></font></div></div><div class='respDiv'><div class='respDivL'>Match<br>(e)</div><div class='respDivR'>No Match<br>(i)</div></div></div>","e","TARGET","2","trustrating_stim/white_mw040.bmp,trustrating_stim/white_mw091.bmp","1,0","Match","e","3000","trustrating_stim/white_mw091.bmp","red","Keep","REAL","1"
"html-keyboard-response","164","465437","0.0-7.0-5.25","63034df51d918e1e3b97e5ce","bdp_wmem","Thu Mar 16 2023 00:03:52 GMT-0400 (Eastern Daylight Time)","669390","Match,No Match","","null","","","","","","<div class='trialBorder'><div class='vertical-center'><img src='img/correct.jpg'></div><div class='respDiv'><div class='respDivL'><font style='color:orange'>Match<br>(e)</font></div><div class='respDivR'>No Match<br>(i)</div></div></div>","null","FEEDBACK","","","","","","","","","","",""
"html-keyboard-response","165","465938","0.0-7.0-1.26","63034df51d918e1e3b97e5ce","bdp_wmem","Thu Mar 16 2023 00:03:52 GMT-0400 (Eastern Daylight Time)","669390","Match,No Match","","null","","","","","","<div class='trialBorder'><div class='vertical-center'><img src='img/fixation2_sml.jpg'</img></div></div>","null","FIX","","","","","","","","","","",""
"html-keyboard-response","166","467439","0.0-7.0-2.26","63034df51d918e1e3b97e5ce","bdp_wmem","Thu Mar 16 2023 00:03:52 GMT-0400 (Eastern Daylight Time)","669390","Match,No Match","","null","","","","","","<div class='trialBorder'><div class='vertical-center'><img style='vertical-align:center; align:center' src='img/fixation2_sml.jpg'></div><div class='arrayDiv1'><div class='tc'><img class='introPic' src='trustrating_stim/white_mw091.bmp'><br><font color='green'><strong>Share</strong></font></div></div></div>","null","ARRAY","1","trustrating_stim/white_mw091.bmp","1","noMatchOutcome","i","1500","","","","",""
"html-keyboard-response","167","471439","0.0-7.0-3.26","63034df51d918e1e3b97e5ce","bdp_wmem","Thu Mar 16 2023 00:03:52 GMT-0400 (Eastern Daylight Time)","669390","Match,No Match","","null","","","","","","<div class='trialBorder'><div class='vertical-center'><img src='img/fixation2_sml.jpg'</img></div></div>","null","DELAY","","","","","","","","","","",""
"html-keyboard-response","168","472520","0.0-7.0-4.26","63034df51d918e1e3b97e5ce","bdp_wmem","Thu Mar 16 2023 00:03:52 GMT-0400 (Eastern Daylight Time)","669390","Match,No Match","","1080","","","","","","<div class='trialBorder'><div class='targDiv'><div class='tc'><img class='introPic' src='trustrating_stim/white_mw091.bmp'><br><font color='red'><strong>Keep</strong></font></div></div><div class='respDiv'><div class='respDivL'>Match<br>(e)</div><div class='respDivR'>No Match<br>(i)</div></div></div>","i","TARGET","1","trustrating_stim/white_mw091.bmp","1","noMatchOutcome","i","1500","trustrating_stim/white_mw091.bmp","red","Keep","REAL","1"
"html-keyboard-response","169","473025","0.0-7.0-5.26","63034df51d918e1e3b97e5ce","bdp_wmem","Thu Mar 16 2023 00:03:52 GMT-0400 (Eastern Daylight Time)","669390","Match,No Match","","null","","","","","","<div class='trialBorder'><div class='vertical-center'><img src='img/correct.jpg'></div><div class='respDiv'><div class='respDivL'>Match<br>(e)</div><div class='respDivR'><font style='color:orange'>No Match<br>(i)</font></div></div></div>","null","FEEDBACK","","","","","","","","","","",""
"html-keyboard-response","170","473527","0.0-7.0-1.27","63034df51d918e1e3b97e5ce","bdp_wmem","Thu Mar 16 2023 00:03:52 GMT-0400 (Eastern Daylight Time)","669390","Match,No Match","","null","","","","","","<div class='trialBorder'><div class='vertical-center'><img src='img/fixation2_sml.jpg'</img></div></div>","null","FIX","","","","","","","","","","",""
"html-keyboard-response","171","476528","0.0-7.0-2.27","63034df51d918e1e3b97e5ce","bdp_wmem","Thu Mar 16 2023 00:03:52 GMT-0400 (Eastern Daylight Time)","669390","Match,No Match","","null","","","","","","<div class='trialBorder'><div class='vertical-center'><img style='vertical-align:center; align:center' src='img/fixation2_sml.jpg'></div><div class='arrayDiv2'><div class='tl'><img class='introPic' src='trustrating_stim/white_mw085.bmp'><br><font color='red'><strong>Keep</strong></font></div><div class='tr'><img class='introPic' src='trustrating_stim/white_mw092.bmp'><br><font color='green'><strong>Share</strong></font></div></div></div>","null","ARRAY","2","trustrating_stim/white_mw085.bmp,trustrating_stim/white_mw092.bmp","0,1","noMatchOutcome","i","3000","","","","",""
"html-keyboard-response","172","480530","0.0-7.0-3.27","63034df51d918e1e3b97e5ce","bdp_wmem","Thu Mar 16 2023 00:03:52 GMT-0400 (Eastern Daylight Time)","669390","Match,No Match","","null","","","","","","<div class='trialBorder'><div class='vertical-center'><img src='img/fixation2_sml.jpg'</img></div></div>","null","DELAY","","","","","","","","","","",""
"html-keyboard-response","173","482703","0.0-7.0-4.27","63034df51d918e1e3b97e5ce","bdp_wmem","Thu Mar 16 2023 00:03:52 GMT-0400 (Eastern Daylight Time)","669390","Match,No Match","","2172","","","","","","<div class='trialBorder'><div class='targDiv'><div class='tc'><img class='introPic' src='trustrating_stim/white_mw085.bmp'><br><font color='green'><strong>Share</strong></font></div></div><div class='respDiv'><div class='respDivL'>Match<br>(e)</div><div class='respDivR'>No Match<br>(i)</div></div></div>","i","TARGET","2","trustrating_stim/white_mw085.bmp,trustrating_stim/white_mw092.bmp","0,1","noMatchOutcome","i","3000","trustrating_stim/white_mw085.bmp","green","Share","REAL","1"
"html-keyboard-response","174","483204","0.0-7.0-5.27","63034df51d918e1e3b97e5ce","bdp_wmem","Thu Mar 16 2023 00:03:52 GMT-0400 (Eastern Daylight Time)","669390","Match,No Match","","null","","","","","","<div class='trialBorder'><div class='vertical-center'><img src='img/correct.jpg'></div><div class='respDiv'><div class='respDivL'>Match<br>(e)</div><div class='respDivR'><font style='color:orange'>No Match<br>(i)</font></div></div></div>","null","FEEDBACK","","","","","","","","","","",""
"html-keyboard-response","175","483706","0.0-7.0-1.28","63034df51d918e1e3b97e5ce","bdp_wmem","Thu Mar 16 2023 00:03:52 GMT-0400 (Eastern Daylight Time)","669390","Match,No Match","","null","","","","","","<div class='trialBorder'><div class='vertical-center'><img src='img/fixation2_sml.jpg'</img></div></div>","null","FIX","","","","","","","","","","",""
"html-keyboard-response","176","486707","0.0-7.0-2.28","63034df51d918e1e3b97e5ce","bdp_wmem","Thu Mar 16 2023 00:03:52 GMT-0400 (Eastern Daylight Time)","669390","Match,No Match","","null","","","","","","<div class='trialBorder'><div class='vertical-center'><img style='vertical-align:center; align:center' src='img/fixation2_sml.jpg'></div><div class='arrayDiv2'><div class='tl'><img class='introPic' src='trustrating_stim/white_mw042.bmp'><br><font color='green'><strong>Share</strong></font></div><div class='tr'><img class='introPic' src='trustrating_stim/white_mw078.bmp'><br><font color='red'><strong>Keep</strong></font></div></div></div>","null","ARRAY","2","trustrating_stim/white_mw042.bmp,trustrating_stim/white_mw078.bmp","1,0","Match","e","3000","","","","",""
"html-keyboard-response","177","490709","0.0-7.0-3.28","63034df51d918e1e3b97e5ce","bdp_wmem","Thu Mar 16 2023 00:03:52 GMT-0400 (Eastern Daylight Time)","669390","Match,No Match","","null","","","","","","<div class='trialBorder'><div class='vertical-center'><img src='img/fixation2_sml.jpg'</img></div></div>","null","DELAY","","","","","","","","","","",""
"html-keyboard-response","178","491844","0.0-7.0-4.28","63034df51d918e1e3b97e5ce","bdp_wmem","Thu Mar 16 2023 00:03:52 GMT-0400 (Eastern Daylight Time)","669390","Match,No Match","","1134","","","","","","<div class='trialBorder'><div class='targDiv'><div class='tc'><img class='introPic' src='trustrating_stim/white_mw042.bmp'><br><font color='green'><strong>Share</strong></font></div></div><div class='respDiv'><div class='respDivL'>Match<br>(e)</div><div class='respDivR'>No Match<br>(i)</div></div></div>","e","TARGET","2","trustrating_stim/white_mw042.bmp,trustrating_stim/white_mw078.bmp","1,0","Match","e","3000","trustrating_stim/white_mw042.bmp","green","Share","REAL","1"
"html-keyboard-response","179","492345","0.0-7.0-5.28","63034df51d918e1e3b97e5ce","bdp_wmem","Thu Mar 16 2023 00:03:52 GMT-0400 (Eastern Daylight Time)","669390","Match,No Match","","null","","","","","","<div class='trialBorder'><div class='vertical-center'><img src='img/correct.jpg'></div><div class='respDiv'><div class='respDivL'><font style='color:orange'>Match<br>(e)</font></div><div class='respDivR'>No Match<br>(i)</div></div></div>","null","FEEDBACK","","","","","","","","","","",""
"html-keyboard-response","180","492847","0.0-7.0-1.29","63034df51d918e1e3b97e5ce","bdp_wmem","Thu Mar 16 2023 00:03:52 GMT-0400 (Eastern Daylight Time)","669390","Match,No Match","","null","","","","","","<div class='trialBorder'><div class='vertical-center'><img src='img/fixation2_sml.jpg'</img></div></div>","null","FIX","","","","","","","","","","",""
"html-keyboard-response","181","497349","0.0-7.0-2.29","63034df51d918e1e3b97e5ce","bdp_wmem","Thu Mar 16 2023 00:03:52 GMT-0400 (Eastern Daylight Time)","669390","Match,No Match","","null","","","","","","<div class='trialBorder'><div class='vertical-center'><img style='vertical-align:center; align:center' src='img/fixation2_sml.jpg'></div><div class='arrayDiv3'><div class='tl'><img class='introPic' src='trustrating_stim/white_mw070.bmp'><br><font color='green'><strong>Share</strong></font></div><div class='tc'><img class='introPic' src='trustrating_stim/white_mw085.bmp'><br><font color='red'><strong>Keep</strong></font></div><div class='tr'><img class='introPic' src='trustrating_stim/white_mw013.bmp'><br><font color='red'><strong>Keep</strong></font></div></div></div>","null","ARRAY","3","trustrating_stim/white_mw070.bmp,trustrating_stim/white_mw085.bmp,trustrating_stim/white_mw013.bmp","1,0,0","noMatchOutcome","i","4500","","","","",""
"html-keyboard-response","182","501357","0.0-7.0-3.29","63034df51d918e1e3b97e5ce","bdp_wmem","Thu Mar 16 2023 00:03:52 GMT-0400 (Eastern Daylight Time)","669390","Match,No Match","","null","","","","","","<div class='trialBorder'><div class='vertical-center'><img src='img/fixation2_sml.jpg'</img></div></div>","null","DELAY","","","","","","","","","","",""
"html-keyboard-response","183","504470","0.0-7.0-4.29","63034df51d918e1e3b97e5ce","bdp_wmem","Thu Mar 16 2023 00:03:52 GMT-0400 (Eastern Daylight Time)","669390","Match,No Match","","3112","","","","","","<div class='trialBorder'><div class='targDiv'><div class='tc'><img class='introPic' src='trustrating_stim/white_mw085.bmp'><br><font color='green'><strong>Share</strong></font></div></div><div class='respDiv'><div class='respDivL'>Match<br>(e)</div><div class='respDivR'>No Match<br>(i)</div></div></div>","i","TARGET","3","trustrating_stim/white_mw070.bmp,trustrating_stim/white_mw085.bmp,trustrating_stim/white_mw013.bmp","1,0,0","noMatchOutcome","i","4500","trustrating_stim/white_mw085.bmp","green","Share","REAL","1"
"html-keyboard-response","184","504971","0.0-7.0-5.29","63034df51d918e1e3b97e5ce","bdp_wmem","Thu Mar 16 2023 00:03:52 GMT-0400 (Eastern Daylight Time)","669390","Match,No Match","","null","","","","","","<div class='trialBorder'><div class='vertical-center'><img src='img/correct.jpg'></div><div class='respDiv'><div class='respDivL'>Match<br>(e)</div><div class='respDivR'><font style='color:orange'>No Match<br>(i)</font></div></div></div>","null","FEEDBACK","","","","","","","","","","",""
"html-keyboard-response","185","505472","0.0-7.0-1.30","63034df51d918e1e3b97e5ce","bdp_wmem","Thu Mar 16 2023 00:03:52 GMT-0400 (Eastern Daylight Time)","669390","Match,No Match","","null","","","","","","<div class='trialBorder'><div class='vertical-center'><img src='img/fixation2_sml.jpg'</img></div></div>","null","FIX","","","","","","","","","","",""
