"trial_type","trial_index","time_elapsed","internal_node_id","subject_id","task","startTime","totalTime","labels","view_history","rt","event","trial","time","trialtype","success","stimulus","key_press","stimType","arraySize","arrayFaces","arrayOutcomes","matchType","corrResp","arrayDur","targFace","targCol","targOutcome","trialType","corr"
"pavlovia","0","2","0.0-0.0","63fac97f0d4e8f6bfd753d90","bdp_wmem","Wed Mar 15 2023 21:08:16 GMT-0700 (Pacific Daylight Time)","582059","Match,No Match","","","","","","","","","","","","","","","","","","","","",""
"instructions","1","8714","0.0-1.0","63fac97f0d4e8f6bfd753d90","bdp_wmem","Wed Mar 15 2023 21:08:16 GMT-0700 (Pacific Daylight Time)","582059","Match,No Match","[{""page_index"":0,""viewing_time"":8712}]","8712","","","","","","","","","","","","","","","","","","",""
"","","","","63fac97f0d4e8f6bfd753d90","bdp_wmem","Wed Mar 15 2023 21:08:16 GMT-0700 (Pacific Daylight Time)","582059","Match,No Match","","","fullscreenenter","2","10473","fullscreenenter","","","","","","","","","","","","","","",""
"fullscreen","2","11456","0.0-2.0","63fac97f0d4e8f6bfd753d90","bdp_wmem","Wed Mar 15 2023 21:08:16 GMT-0700 (Pacific Daylight Time)","582059","Match,No Match","","","","","","","true","","","","","","","","","","","","","",""
"instructions","3","78084","0.0-4.0","63fac97f0d4e8f6bfd753d90","bdp_wmem","Wed Mar 15 2023 21:08:16 GMT-0700 (Pacific Daylight Time)","582059","Match,No Match","[{""page_index"":0,""viewing_time"":24734},{""page_index"":1,""viewing_time"":23297},{""page_index"":2,""viewing_time"":10219},{""page_index"":3,""viewing_time"":3379},{""page_index"":4,""viewing_time"":4999}]","66628","","","","","","","","","","","","","","","","","","",""
"html-keyboard-response","4","78586","0.0-5.0-1.0","63fac97f0d4e8f6bfd753d90","bdp_wmem","Wed Mar 15 2023 21:08:16 GMT-0700 (Pacific Daylight Time)","582059","Match,No Match","","null","","","","","","<div class='trialBorder'><div class='vertical-center'><img src='img/fixation2_sml.jpg'</img></div></div>","null","FIX","","","","","","","","","","",""
"html-keyboard-response","5","83088","0.0-5.0-2.0","63fac97f0d4e8f6bfd753d90","bdp_wmem","Wed Mar 15 2023 21:08:16 GMT-0700 (Pacific Daylight Time)","582059","Match,No Match","","null","","","","","","<div class='trialBorder'><div class='vertical-center'><img style='vertical-align:center; align:center' src='img/fixation2_sml.jpg'></div><div class='arrayDiv3'><div class='tl'><img class='introPic' src='trustrating_stim/white_mw012.bmp'><br><font color='green'><strong>Share</strong></font></div><div class='tc'><img class='introPic' src='trustrating_stim/white_mw042.bmp'><br><font color='green'><strong>Share</strong></font></div><div class='tr'><img class='introPic' src='trustrating_stim/white_mw070.bmp'><br><font color='red'><strong>Keep</strong></font></div></div></div>","null","ARRAY","3","trustrating_stim/white_mw012.bmp,trustrating_stim/white_mw042.bmp,trustrating_stim/white_mw070.bmp","1,1,0","noMatchOutcome","i","4500","","","","",""
"html-keyboard-response","6","87089","0.0-5.0-3.0","63fac97f0d4e8f6bfd753d90","bdp_wmem","Wed Mar 15 2023 21:08:16 GMT-0700 (Pacific Daylight Time)","582059","Match,No Match","","null","","","","","","<div class='trialBorder'><div class='vertical-center'><img src='img/fixation2_sml.jpg'</img></div></div>","null","DELAY","","","","","","","","","","",""
"html-keyboard-response","7","89283","0.0-5.0-4.0","63fac97f0d4e8f6bfd753d90","bdp_wmem","Wed Mar 15 2023 21:08:16 GMT-0700 (Pacific Daylight Time)","582059","Match,No Match","","2193","","","","","","<div class='trialBorder'><div class='targDiv'><div class='tc'><img class='introPic' src='trustrating_stim/white_mw012.bmp'><br><font color='red'><strong>Keep</strong></font></div></div><div class='respDiv'><div class='respDivL'>Match<br>(e)</div><div class='respDivR'>No Match<br>(i)</div></div></div>","i","TARGET","3","trustrating_stim/white_mw012.bmp,trustrating_stim/white_mw042.bmp,trustrating_stim/white_mw070.bmp","1,1,0","noMatchOutcome","i","4500","trustrating_stim/white_mw012.bmp","red","Keep","PRACTICE","1"
"html-keyboard-response","8","89784","0.0-5.0-5.0","63fac97f0d4e8f6bfd753d90","bdp_wmem","Wed Mar 15 2023 21:08:16 GMT-0700 (Pacific Daylight Time)","582059","Match,No Match","","null","","","","","","<div class='trialBorder'><div class='vertical-center'><img src='img/correct.jpg'></div><div class='respDiv'><div class='respDivL'>Match<br>(e)</div><div class='respDivR'><font style='color:orange'>No Match<br>(i)</font></div></div></div>","null","FEEDBACK","","","","","","","","","","",""
"html-keyboard-response","9","90286","0.0-5.0-1.1","63fac97f0d4e8f6bfd753d90","bdp_wmem","Wed Mar 15 2023 21:08:16 GMT-0700 (Pacific Daylight Time)","582059","Match,No Match","","null","","","","","","<div class='trialBorder'><div class='vertical-center'><img src='img/fixation2_sml.jpg'</img></div></div>","null","FIX","","","","","","","","","","",""
"html-keyboard-response","10","94788","0.0-5.0-2.1","63fac97f0d4e8f6bfd753d90","bdp_wmem","Wed Mar 15 2023 21:08:16 GMT-0700 (Pacific Daylight Time)","582059","Match,No Match","","null","","","","","","<div class='trialBorder'><div class='vertical-center'><img style='vertical-align:center; align:center' src='img/fixation2_sml.jpg'></div><div class='arrayDiv3'><div class='tl'><img class='introPic' src='trustrating_stim/white_mw012.bmp'><br><font color='red'><strong>Keep</strong></font></div><div class='tc'><img class='introPic' src='trustrating_stim/white_mw010.bmp'><br><font color='red'><strong>Keep</strong></font></div><div class='tr'><img class='introPic' src='trustrating_stim/white_mw070.bmp'><br><font color='green'><strong>Share</strong></font></div></div></div>","null","ARRAY","3","trustrating_stim/white_mw012.bmp,trustrating_stim/white_mw010.bmp,trustrating_stim/white_mw070.bmp","0,0,1","Match","e","4500","","","","",""
"html-keyboard-response","11","98789","0.0-5.0-3.1","63fac97f0d4e8f6bfd753d90","bdp_wmem","Wed Mar 15 2023 21:08:16 GMT-0700 (Pacific Daylight Time)","582059","Match,No Match","","null","","","","","","<div class='trialBorder'><div class='vertical-center'><img src='img/fixation2_sml.jpg'</img></div></div>","null","DELAY","","","","","","","","","","",""
"html-keyboard-response","12","100472","0.0-5.0-4.1","63fac97f0d4e8f6bfd753d90","bdp_wmem","Wed Mar 15 2023 21:08:16 GMT-0700 (Pacific Daylight Time)","582059","Match,No Match","","1682","","","","","","<div class='trialBorder'><div class='targDiv'><div class='tc'><img class='introPic' src='trustrating_stim/white_mw010.bmp'><br><font color='red'><strong>Keep</strong></font></div></div><div class='respDiv'><div class='respDivL'>Match<br>(e)</div><div class='respDivR'>No Match<br>(i)</div></div></div>","e","TARGET","3","trustrating_stim/white_mw012.bmp,trustrating_stim/white_mw010.bmp,trustrating_stim/white_mw070.bmp","0,0,1","Match","e","4500","trustrating_stim/white_mw010.bmp","red","Keep","PRACTICE","1"
"html-keyboard-response","13","100973","0.0-5.0-5.1","63fac97f0d4e8f6bfd753d90","bdp_wmem","Wed Mar 15 2023 21:08:16 GMT-0700 (Pacific Daylight Time)","582059","Match,No Match","","null","","","","","","<div class='trialBorder'><div class='vertical-center'><img src='img/correct.jpg'></div><div class='respDiv'><div class='respDivL'><font style='color:orange'>Match<br>(e)</font></div><div class='respDivR'>No Match<br>(i)</div></div></div>","null","FEEDBACK","","","","","","","","","","",""
"html-keyboard-response","14","101475","0.0-5.0-1.2","63fac97f0d4e8f6bfd753d90","bdp_wmem","Wed Mar 15 2023 21:08:16 GMT-0700 (Pacific Daylight Time)","582059","Match,No Match","","null","","","","","","<div class='trialBorder'><div class='vertical-center'><img src='img/fixation2_sml.jpg'</img></div></div>","null","FIX","","","","","","","","","","",""
"html-keyboard-response","15","102976","0.0-5.0-2.2","63fac97f0d4e8f6bfd753d90","bdp_wmem","Wed Mar 15 2023 21:08:16 GMT-0700 (Pacific Daylight Time)","582059","Match,No Match","","null","","","","","","<div class='trialBorder'><div class='vertical-center'><img style='vertical-align:center; align:center' src='img/fixation2_sml.jpg'></div><div class='arrayDiv1'><div class='tc'><img class='introPic' src='trustrating_stim/white_mw010.bmp'><br><font color='green'><strong>Share</strong></font></div></div></div>","null","ARRAY","1","trustrating_stim/white_mw010.bmp","1","noMatchFace","i","1500","","","","",""
"html-keyboard-response","16","106977","0.0-5.0-3.2","63fac97f0d4e8f6bfd753d90","bdp_wmem","Wed Mar 15 2023 21:08:16 GMT-0700 (Pacific Daylight Time)","582059","Match,No Match","","null","","","","","","<div class='trialBorder'><div class='vertical-center'><img src='img/fixation2_sml.jpg'</img></div></div>","null","DELAY","","","","","","","","","","",""
"html-keyboard-response","17","108720","0.0-5.0-4.2","63fac97f0d4e8f6bfd753d90","bdp_wmem","Wed Mar 15 2023 21:08:16 GMT-0700 (Pacific Daylight Time)","582059","Match,No Match","","1743","","","","","","<div class='trialBorder'><div class='targDiv'><div class='tc'><img class='introPic' src='trustrating_stim/white_mw085.bmp'><br><font color='green'><strong>Share</strong></font></div></div><div class='respDiv'><div class='respDivL'>Match<br>(e)</div><div class='respDivR'>No Match<br>(i)</div></div></div>","i","TARGET","1","trustrating_stim/white_mw010.bmp","1","noMatchFace","i","1500","trustrating_stim/white_mw085.bmp","green","Share","PRACTICE","1"
"html-keyboard-response","18","109221","0.0-5.0-5.2","63fac97f0d4e8f6bfd753d90","bdp_wmem","Wed Mar 15 2023 21:08:16 GMT-0700 (Pacific Daylight Time)","582059","Match,No Match","","null","","","","","","<div class='trialBorder'><div class='vertical-center'><img src='img/correct.jpg'></div><div class='respDiv'><div class='respDivL'>Match<br>(e)</div><div class='respDivR'><font style='color:orange'>No Match<br>(i)</font></div></div></div>","null","FEEDBACK","","","","","","","","","","",""
"html-keyboard-response","19","109722","0.0-5.0-1.3","63fac97f0d4e8f6bfd753d90","bdp_wmem","Wed Mar 15 2023 21:08:16 GMT-0700 (Pacific Daylight Time)","582059","Match,No Match","","null","","","","","","<div class='trialBorder'><div class='vertical-center'><img src='img/fixation2_sml.jpg'</img></div></div>","null","FIX","","","","","","","","","","",""
"html-keyboard-response","20","112724","0.0-5.0-2.3","63fac97f0d4e8f6bfd753d90","bdp_wmem","Wed Mar 15 2023 21:08:16 GMT-0700 (Pacific Daylight Time)","582059","Match,No Match","","null","","","","","","<div class='trialBorder'><div class='vertical-center'><img style='vertical-align:center; align:center' src='img/fixation2_sml.jpg'></div><div class='arrayDiv2'><div class='tl'><img class='introPic' src='trustrating_stim/white_mw042.bmp'><br><font color='green'><strong>Share</strong></font></div><div class='tr'><img class='introPic' src='trustrating_stim/white_mw040.bmp'><br><font color='red'><strong>Keep</strong></font></div></div></div>","null","ARRAY","2","trustrating_stim/white_mw042.bmp,trustrating_stim/white_mw040.bmp","1,0","Match","e","3000","","","","",""
"html-keyboard-response","21","116727","0.0-5.0-3.3","63fac97f0d4e8f6bfd753d90","bdp_wmem","Wed Mar 15 2023 21:08:16 GMT-0700 (Pacific Daylight Time)","582059","Match,No Match","","null","","","","","","<div class='trialBorder'><div class='vertical-center'><img src='img/fixation2_sml.jpg'</img></div></div>","null","DELAY","","","","","","","","","","",""
"html-keyboard-response","22","119100","0.0-5.0-4.3","63fac97f0d4e8f6bfd753d90","bdp_wmem","Wed Mar 15 2023 21:08:16 GMT-0700 (Pacific Daylight Time)","582059","Match,No Match","","2372","","","","","","<div class='trialBorder'><div class='targDiv'><div class='tc'><img class='introPic' src='trustrating_stim/white_mw040.bmp'><br><font color='red'><strong>Keep</strong></font></div></div><div class='respDiv'><div class='respDivL'>Match<br>(e)</div><div class='respDivR'>No Match<br>(i)</div></div></div>","i","TARGET","2","trustrating_stim/white_mw042.bmp,trustrating_stim/white_mw040.bmp","1,0","Match","e","3000","trustrating_stim/white_mw040.bmp","red","Keep","PRACTICE","0"
"html-keyboard-response","23","119601","0.0-5.0-5.3","63fac97f0d4e8f6bfd753d90","bdp_wmem","Wed Mar 15 2023 21:08:16 GMT-0700 (Pacific Daylight Time)","582059","Match,No Match","","null","","","","","","<div class='trialBorder'><div class='vertical-center'><img src='img/error.jpg'></div><div class='respDiv'><div class='respDivL'>Match<br>(e)</div><div class='respDivR'><font style='color:orange'>No Match<br>(i)</font></div></div></div>","null","FEEDBACK","","","","","","","","","","",""
"html-keyboard-response","24","120103","0.0-5.0-1.4","63fac97f0d4e8f6bfd753d90","bdp_wmem","Wed Mar 15 2023 21:08:16 GMT-0700 (Pacific Daylight Time)","582059","Match,No Match","","null","","","","","","<div class='trialBorder'><div class='vertical-center'><img src='img/fixation2_sml.jpg'</img></div></div>","null","FIX","","","","","","","","","","",""
"html-keyboard-response","25","123104","0.0-5.0-2.4","63fac97f0d4e8f6bfd753d90","bdp_wmem","Wed Mar 15 2023 21:08:16 GMT-0700 (Pacific Daylight Time)","582059","Match,No Match","","null","","","","","","<div class='trialBorder'><div class='vertical-center'><img style='vertical-align:center; align:center' src='img/fixation2_sml.jpg'></div><div class='arrayDiv2'><div class='tl'><img class='introPic' src='trustrating_stim/white_mw038.bmp'><br><font color='green'><strong>Share</strong></font></div><div class='tr'><img class='introPic' src='trustrating_stim/white_mw012.bmp'><br><font color='red'><strong>Keep</strong></font></div></div></div>","null","ARRAY","2","trustrating_stim/white_mw038.bmp,trustrating_stim/white_mw012.bmp","1,0","noMatchOutcome","i","3000","","","","",""
"html-keyboard-response","26","127106","0.0-5.0-3.4","63fac97f0d4e8f6bfd753d90","bdp_wmem","Wed Mar 15 2023 21:08:16 GMT-0700 (Pacific Daylight Time)","582059","Match,No Match","","null","","","","","","<div class='trialBorder'><div class='vertical-center'><img src='img/fixation2_sml.jpg'</img></div></div>","null","DELAY","","","","","","","","","","",""
"html-keyboard-response","27","128188","0.0-5.0-4.4","63fac97f0d4e8f6bfd753d90","bdp_wmem","Wed Mar 15 2023 21:08:16 GMT-0700 (Pacific Daylight Time)","582059","Match,No Match","","1081","","","","","","<div class='trialBorder'><div class='targDiv'><div class='tc'><img class='introPic' src='trustrating_stim/white_mw038.bmp'><br><font color='red'><strong>Keep</strong></font></div></div><div class='respDiv'><div class='respDivL'>Match<br>(e)</div><div class='respDivR'>No Match<br>(i)</div></div></div>","i","TARGET","2","trustrating_stim/white_mw038.bmp,trustrating_stim/white_mw012.bmp","1,0","noMatchOutcome","i","3000","trustrating_stim/white_mw038.bmp","red","Keep","PRACTICE","1"
"html-keyboard-response","28","128688","0.0-5.0-5.4","63fac97f0d4e8f6bfd753d90","bdp_wmem","Wed Mar 15 2023 21:08:16 GMT-0700 (Pacific Daylight Time)","582059","Match,No Match","","null","","","","","","<div class='trialBorder'><div class='vertical-center'><img src='img/correct.jpg'></div><div class='respDiv'><div class='respDivL'>Match<br>(e)</div><div class='respDivR'><font style='color:orange'>No Match<br>(i)</font></div></div></div>","null","FEEDBACK","","","","","","","","","","",""
"html-keyboard-response","29","129190","0.0-5.0-1.5","63fac97f0d4e8f6bfd753d90","bdp_wmem","Wed Mar 15 2023 21:08:16 GMT-0700 (Pacific Daylight Time)","582059","Match,No Match","","null","","","","","","<div class='trialBorder'><div class='vertical-center'><img src='img/fixation2_sml.jpg'</img></div></div>","null","FIX","","","","","","","","","","",""
"html-keyboard-response","30","130691","0.0-5.0-2.5","63fac97f0d4e8f6bfd753d90","bdp_wmem","Wed Mar 15 2023 21:08:16 GMT-0700 (Pacific Daylight Time)","582059","Match,No Match","","null","","","","","","<div class='trialBorder'><div class='vertical-center'><img style='vertical-align:center; align:center' src='img/fixation2_sml.jpg'></div><div class='arrayDiv1'><div class='tc'><img class='introPic' src='trustrating_stim/white_mw038.bmp'><br><font color='red'><strong>Keep</strong></font></div></div></div>","null","ARRAY","1","trustrating_stim/white_mw038.bmp","0","Match","e","1500","","","","",""
"html-keyboard-response","31","134692","0.0-5.0-3.5","63fac97f0d4e8f6bfd753d90","bdp_wmem","Wed Mar 15 2023 21:08:16 GMT-0700 (Pacific Daylight Time)","582059","Match,No Match","","null","","","","","","<div class='trialBorder'><div class='vertical-center'><img src='img/fixation2_sml.jpg'</img></div></div>","null","DELAY","","","","","","","","","","",""
"html-keyboard-response","32","135777","0.0-5.0-4.5","63fac97f0d4e8f6bfd753d90","bdp_wmem","Wed Mar 15 2023 21:08:16 GMT-0700 (Pacific Daylight Time)","582059","Match,No Match","","1084","","","","","","<div class='trialBorder'><div class='targDiv'><div class='tc'><img class='introPic' src='trustrating_stim/white_mw038.bmp'><br><font color='red'><strong>Keep</strong></font></div></div><div class='respDiv'><div class='respDivL'>Match<br>(e)</div><div class='respDivR'>No Match<br>(i)</div></div></div>","e","TARGET","1","trustrating_stim/white_mw038.bmp","0","Match","e","1500","trustrating_stim/white_mw038.bmp","red","Keep","PRACTICE","1"
"html-keyboard-response","33","136279","0.0-5.0-5.5","63fac97f0d4e8f6bfd753d90","bdp_wmem","Wed Mar 15 2023 21:08:16 GMT-0700 (Pacific Daylight Time)","582059","Match,No Match","","null","","","","","","<div class='trialBorder'><div class='vertical-center'><img src='img/correct.jpg'></div><div class='respDiv'><div class='respDivL'><font style='color:orange'>Match<br>(e)</font></div><div class='respDivR'>No Match<br>(i)</div></div></div>","null","FEEDBACK","","","","","","","","","","",""
"instructions","34","145545","0.0-6.0","63fac97f0d4e8f6bfd753d90","bdp_wmem","Wed Mar 15 2023 21:08:16 GMT-0700 (Pacific Daylight Time)","582059","Match,No Match","[{""page_index"":0,""viewing_time"":9266}]","9266","","","","","","","","","","","","","","","","","","",""
"html-keyboard-response","35","146046","0.0-7.0-1.0","63fac97f0d4e8f6bfd753d90","bdp_wmem","Wed Mar 15 2023 21:08:16 GMT-0700 (Pacific Daylight Time)","582059","Match,No Match","","null","","","","","","<div class='trialBorder'><div class='vertical-center'><img src='img/fixation2_sml.jpg'</img></div></div>","null","FIX","","","","","","","","","","",""
"html-keyboard-response","36","150547","0.0-7.0-2.0","63fac97f0d4e8f6bfd753d90","bdp_wmem","Wed Mar 15 2023 21:08:16 GMT-0700 (Pacific Daylight Time)","582059","Match,No Match","","null","","","","","","<div class='trialBorder'><div class='vertical-center'><img style='vertical-align:center; align:center' src='img/fixation2_sml.jpg'></div><div class='arrayDiv3'><div class='tl'><img class='introPic' src='trustrating_stim/white_mw091.bmp'><br><font color='red'><strong>Keep</strong></font></div><div class='tc'><img class='introPic' src='trustrating_stim/white_mw042.bmp'><br><font color='red'><strong>Keep</strong></font></div><div class='tr'><img class='introPic' src='trustrating_stim/white_mw013.bmp'><br><font color='green'><strong>Share</strong></font></div></div></div>","null","ARRAY","3","trustrating_stim/white_mw091.bmp,trustrating_stim/white_mw042.bmp,trustrating_stim/white_mw013.bmp","0,0,1","Match","e","4500","","","","",""
"html-keyboard-response","37","154548","0.0-7.0-3.0","63fac97f0d4e8f6bfd753d90","bdp_wmem","Wed Mar 15 2023 21:08:16 GMT-0700 (Pacific Daylight Time)","582059","Match,No Match","","null","","","","","","<div class='trialBorder'><div class='vertical-center'><img src='img/fixation2_sml.jpg'</img></div></div>","null","DELAY","","","","","","","","","","",""
"html-keyboard-response","38","155654","0.0-7.0-4.0","63fac97f0d4e8f6bfd753d90","bdp_wmem","Wed Mar 15 2023 21:08:16 GMT-0700 (Pacific Daylight Time)","582059","Match,No Match","","1105","","","","","","<div class='trialBorder'><div class='targDiv'><div class='tc'><img class='introPic' src='trustrating_stim/white_mw091.bmp'><br><font color='red'><strong>Keep</strong></font></div></div><div class='respDiv'><div class='respDivL'>Match<br>(e)</div><div class='respDivR'>No Match<br>(i)</div></div></div>","e","TARGET","3","trustrating_stim/white_mw091.bmp,trustrating_stim/white_mw042.bmp,trustrating_stim/white_mw013.bmp","0,0,1","Match","e","4500","trustrating_stim/white_mw091.bmp","red","Keep","REAL","1"
"html-keyboard-response","39","156155","0.0-7.0-5.0","63fac97f0d4e8f6bfd753d90","bdp_wmem","Wed Mar 15 2023 21:08:16 GMT-0700 (Pacific Daylight Time)","582059","Match,No Match","","null","","","","","","<div class='trialBorder'><div class='vertical-center'><img src='img/correct.jpg'></div><div class='respDiv'><div class='respDivL'><font style='color:orange'>Match<br>(e)</font></div><div class='respDivR'>No Match<br>(i)</div></div></div>","null","FEEDBACK","","","","","","","","","","",""
"html-keyboard-response","40","156657","0.0-7.0-1.1","63fac97f0d4e8f6bfd753d90","bdp_wmem","Wed Mar 15 2023 21:08:16 GMT-0700 (Pacific Daylight Time)","582059","Match,No Match","","null","","","","","","<div class='trialBorder'><div class='vertical-center'><img src='img/fixation2_sml.jpg'</img></div></div>","null","FIX","","","","","","","","","","",""
"html-keyboard-response","41","161158","0.0-7.0-2.1","63fac97f0d4e8f6bfd753d90","bdp_wmem","Wed Mar 15 2023 21:08:16 GMT-0700 (Pacific Daylight Time)","582059","Match,No Match","","null","","","","","","<div class='trialBorder'><div class='vertical-center'><img style='vertical-align:center; align:center' src='img/fixation2_sml.jpg'></div><div class='arrayDiv3'><div class='tl'><img class='introPic' src='trustrating_stim/white_mw078.bmp'><br><font color='green'><strong>Share</strong></font></div><div class='tc'><img class='introPic' src='trustrating_stim/white_mw038.bmp'><br><font color='green'><strong>Share</strong></font></div><div class='tr'><img class='introPic' src='trustrating_stim/white_mw085.bmp'><br><font color='red'><strong>Keep</strong></font></div></div></div>","null","ARRAY","3","trustrating_stim/white_mw078.bmp,trustrating_stim/white_mw038.bmp,trustrating_stim/white_mw085.bmp","1,1,0","noMatchOutcome","i","4500","","","","",""
"html-keyboard-response","42","165159","0.0-7.0-3.1","63fac97f0d4e8f6bfd753d90","bdp_wmem","Wed Mar 15 2023 21:08:16 GMT-0700 (Pacific Daylight Time)","582059","Match,No Match","","null","","","","","","<div class='trialBorder'><div class='vertical-center'><img src='img/fixation2_sml.jpg'</img></div></div>","null","DELAY","","","","","","","","","","",""
"html-keyboard-response","43","166373","0.0-7.0-4.1","63fac97f0d4e8f6bfd753d90","bdp_wmem","Wed Mar 15 2023 21:08:16 GMT-0700 (Pacific Daylight Time)","582059","Match,No Match","","1213","","","","","","<div class='trialBorder'><div class='targDiv'><div class='tc'><img class='introPic' src='trustrating_stim/white_mw085.bmp'><br><font color='green'><strong>Share</strong></font></div></div><div class='respDiv'><div class='respDivL'>Match<br>(e)</div><div class='respDivR'>No Match<br>(i)</div></div></div>","i","TARGET","3","trustrating_stim/white_mw078.bmp,trustrating_stim/white_mw038.bmp,trustrating_stim/white_mw085.bmp","1,1,0","noMatchOutcome","i","4500","trustrating_stim/white_mw085.bmp","green","Share","REAL","1"
"html-keyboard-response","44","166874","0.0-7.0-5.1","63fac97f0d4e8f6bfd753d90","bdp_wmem","Wed Mar 15 2023 21:08:16 GMT-0700 (Pacific Daylight Time)","582059","Match,No Match","","null","","","","","","<div class='trialBorder'><div class='vertical-center'><img src='img/correct.jpg'></div><div class='respDiv'><div class='respDivL'>Match<br>(e)</div><div class='respDivR'><font style='color:orange'>No Match<br>(i)</font></div></div></div>","null","FEEDBACK","","","","","","","","","","",""
"html-keyboard-response","45","167375","0.0-7.0-1.2","63fac97f0d4e8f6bfd753d90","bdp_wmem","Wed Mar 15 2023 21:08:16 GMT-0700 (Pacific Daylight Time)","582059","Match,No Match","","null","","","","","","<div class='trialBorder'><div class='vertical-center'><img src='img/fixation2_sml.jpg'</img></div></div>","null","FIX","","","","","","","","","","",""
"html-keyboard-response","46","171876","0.0-7.0-2.2","63fac97f0d4e8f6bfd753d90","bdp_wmem","Wed Mar 15 2023 21:08:16 GMT-0700 (Pacific Daylight Time)","582059","Match,No Match","","null","","","","","","<div class='trialBorder'><div class='vertical-center'><img style='vertical-align:center; align:center' src='img/fixation2_sml.jpg'></div><div class='arrayDiv3'><div class='tl'><img class='introPic' src='trustrating_stim/white_mw085.bmp'><br><font color='red'><strong>Keep</strong></font></div><div class='tc'><img class='introPic' src='trustrating_stim/white_mw070.bmp'><br><font color='red'><strong>Keep</strong></font></div><div class='tr'><img class='introPic' src='trustrating_stim/white_mw003.bmp'><br><font color='green'><strong>Share</strong></font></div></div></div>","null","ARRAY","3","trustrating_stim/white_mw085.bmp,trustrating_stim/white_mw070.bmp,trustrating_stim/white_mw003.bmp","0,0,1","Match","e","4500","","","","",""
"html-keyboard-response","47","175877","0.0-7.0-3.2","63fac97f0d4e8f6bfd753d90","bdp_wmem","Wed Mar 15 2023 21:08:16 GMT-0700 (Pacific Daylight Time)","582059","Match,No Match","","null","","","","","","<div class='trialBorder'><div class='vertical-center'><img src='img/fixation2_sml.jpg'</img></div></div>","null","DELAY","","","","","","","","","","",""
"html-keyboard-response","48","177141","0.0-7.0-4.2","63fac97f0d4e8f6bfd753d90","bdp_wmem","Wed Mar 15 2023 21:08:16 GMT-0700 (Pacific Daylight Time)","582059","Match,No Match","","1263","","","","","","<div class='trialBorder'><div class='targDiv'><div class='tc'><img class='introPic' src='trustrating_stim/white_mw085.bmp'><br><font color='red'><strong>Keep</strong></font></div></div><div class='respDiv'><div class='respDivL'>Match<br>(e)</div><div class='respDivR'>No Match<br>(i)</div></div></div>","e","TARGET","3","trustrating_stim/white_mw085.bmp,trustrating_stim/white_mw070.bmp,trustrating_stim/white_mw003.bmp","0,0,1","Match","e","4500","trustrating_stim/white_mw085.bmp","red","Keep","REAL","1"
"html-keyboard-response","49","177642","0.0-7.0-5.2","63fac97f0d4e8f6bfd753d90","bdp_wmem","Wed Mar 15 2023 21:08:16 GMT-0700 (Pacific Daylight Time)","582059","Match,No Match","","null","","","","","","<div class='trialBorder'><div class='vertical-center'><img src='img/correct.jpg'></div><div class='respDiv'><div class='respDivL'><font style='color:orange'>Match<br>(e)</font></div><div class='respDivR'>No Match<br>(i)</div></div></div>","null","FEEDBACK","","","","","","","","","","",""
"html-keyboard-response","50","178143","0.0-7.0-1.3","63fac97f0d4e8f6bfd753d90","bdp_wmem","Wed Mar 15 2023 21:08:16 GMT-0700 (Pacific Daylight Time)","582059","Match,No Match","","null","","","","","","<div class='trialBorder'><div class='vertical-center'><img src='img/fixation2_sml.jpg'</img></div></div>","null","FIX","","","","","","","","","","",""
"html-keyboard-response","51","181143","0.0-7.0-2.3","63fac97f0d4e8f6bfd753d90","bdp_wmem","Wed Mar 15 2023 21:08:16 GMT-0700 (Pacific Daylight Time)","582059","Match,No Match","","null","","","","","","<div class='trialBorder'><div class='vertical-center'><img style='vertical-align:center; align:center' src='img/fixation2_sml.jpg'></div><div class='arrayDiv2'><div class='tl'><img class='introPic' src='trustrating_stim/white_mw003.bmp'><br><font color='green'><strong>Share</strong></font></div><div class='tr'><img class='introPic' src='trustrating_stim/white_mw040.bmp'><br><font color='red'><strong>Keep</strong></font></div></div></div>","null","ARRAY","2","trustrating_stim/white_mw003.bmp,trustrating_stim/white_mw040.bmp","1,0","Match","e","3000","","","","",""
"html-keyboard-response","52","185145","0.0-7.0-3.3","63fac97f0d4e8f6bfd753d90","bdp_wmem","Wed Mar 15 2023 21:08:16 GMT-0700 (Pacific Daylight Time)","582059","Match,No Match","","null","","","","","","<div class='trialBorder'><div class='vertical-center'><img src='img/fixation2_sml.jpg'</img></div></div>","null","DELAY","","","","","","","","","","",""
"html-keyboard-response","53","185980","0.0-7.0-4.3","63fac97f0d4e8f6bfd753d90","bdp_wmem","Wed Mar 15 2023 21:08:16 GMT-0700 (Pacific Daylight Time)","582059","Match,No Match","","835","","","","","","<div class='trialBorder'><div class='targDiv'><div class='tc'><img class='introPic' src='trustrating_stim/white_mw040.bmp'><br><font color='red'><strong>Keep</strong></font></div></div><div class='respDiv'><div class='respDivL'>Match<br>(e)</div><div class='respDivR'>No Match<br>(i)</div></div></div>","i","TARGET","2","trustrating_stim/white_mw003.bmp,trustrating_stim/white_mw040.bmp","1,0","Match","e","3000","trustrating_stim/white_mw040.bmp","red","Keep","REAL","0"
"html-keyboard-response","54","186481","0.0-7.0-5.3","63fac97f0d4e8f6bfd753d90","bdp_wmem","Wed Mar 15 2023 21:08:16 GMT-0700 (Pacific Daylight Time)","582059","Match,No Match","","null","","","","","","<div class='trialBorder'><div class='vertical-center'><img src='img/error.jpg'></div><div class='respDiv'><div class='respDivL'>Match<br>(e)</div><div class='respDivR'><font style='color:orange'>No Match<br>(i)</font></div></div></div>","null","FEEDBACK","","","","","","","","","","",""
"html-keyboard-response","55","186982","0.0-7.0-1.4","63fac97f0d4e8f6bfd753d90","bdp_wmem","Wed Mar 15 2023 21:08:16 GMT-0700 (Pacific Daylight Time)","582059","Match,No Match","","null","","","","","","<div class='trialBorder'><div class='vertical-center'><img src='img/fixation2_sml.jpg'</img></div></div>","null","FIX","","","","","","","","","","",""
"html-keyboard-response","56","191485","0.0-7.0-2.4","63fac97f0d4e8f6bfd753d90","bdp_wmem","Wed Mar 15 2023 21:08:16 GMT-0700 (Pacific Daylight Time)","582059","Match,No Match","","null","","","","","","<div class='trialBorder'><div class='vertical-center'><img style='vertical-align:center; align:center' src='img/fixation2_sml.jpg'></div><div class='arrayDiv3'><div class='tl'><img class='introPic' src='trustrating_stim/white_mw010.bmp'><br><font color='red'><strong>Keep</strong></font></div><div class='tc'><img class='introPic' src='trustrating_stim/white_mw012.bmp'><br><font color='green'><strong>Share</strong></font></div><div class='tr'><img class='introPic' src='trustrating_stim/white_mw078.bmp'><br><font color='red'><strong>Keep</strong></font></div></div></div>","null","ARRAY","3","trustrating_stim/white_mw010.bmp,trustrating_stim/white_mw012.bmp,trustrating_stim/white_mw078.bmp","0,1,0","Match","e","4500","","","","",""
"html-keyboard-response","57","195486","0.0-7.0-3.4","63fac97f0d4e8f6bfd753d90","bdp_wmem","Wed Mar 15 2023 21:08:16 GMT-0700 (Pacific Daylight Time)","582059","Match,No Match","","null","","","","","","<div class='trialBorder'><div class='vertical-center'><img src='img/fixation2_sml.jpg'</img></div></div>","null","DELAY","","","","","","","","","","",""
"html-keyboard-response","58","196549","0.0-7.0-4.4","63fac97f0d4e8f6bfd753d90","bdp_wmem","Wed Mar 15 2023 21:08:16 GMT-0700 (Pacific Daylight Time)","582059","Match,No Match","","1063","","","","","","<div class='trialBorder'><div class='targDiv'><div class='tc'><img class='introPic' src='trustrating_stim/white_mw010.bmp'><br><font color='red'><strong>Keep</strong></font></div></div><div class='respDiv'><div class='respDivL'>Match<br>(e)</div><div class='respDivR'>No Match<br>(i)</div></div></div>","e","TARGET","3","trustrating_stim/white_mw010.bmp,trustrating_stim/white_mw012.bmp,trustrating_stim/white_mw078.bmp","0,1,0","Match","e","4500","trustrating_stim/white_mw010.bmp","red","Keep","REAL","1"
"html-keyboard-response","59","197050","0.0-7.0-5.4","63fac97f0d4e8f6bfd753d90","bdp_wmem","Wed Mar 15 2023 21:08:16 GMT-0700 (Pacific Daylight Time)","582059","Match,No Match","","null","","","","","","<div class='trialBorder'><div class='vertical-center'><img src='img/correct.jpg'></div><div class='respDiv'><div class='respDivL'><font style='color:orange'>Match<br>(e)</font></div><div class='respDivR'>No Match<br>(i)</div></div></div>","null","FEEDBACK","","","","","","","","","","",""
"html-keyboard-response","60","197551","0.0-7.0-1.5","63fac97f0d4e8f6bfd753d90","bdp_wmem","Wed Mar 15 2023 21:08:16 GMT-0700 (Pacific Daylight Time)","582059","Match,No Match","","null","","","","","","<div class='trialBorder'><div class='vertical-center'><img src='img/fixation2_sml.jpg'</img></div></div>","null","FIX","","","","","","","","","","",""
"html-keyboard-response","61","200552","0.0-7.0-2.5","63fac97f0d4e8f6bfd753d90","bdp_wmem","Wed Mar 15 2023 21:08:16 GMT-0700 (Pacific Daylight Time)","582059","Match,No Match","","null","","","","","","<div class='trialBorder'><div class='vertical-center'><img style='vertical-align:center; align:center' src='img/fixation2_sml.jpg'></div><div class='arrayDiv2'><div class='tl'><img class='introPic' src='trustrating_stim/white_mw003.bmp'><br><font color='green'><strong>Share</strong></font></div><div class='tr'><img class='introPic' src='trustrating_stim/white_mw085.bmp'><br><font color='red'><strong>Keep</strong></font></div></div></div>","null","ARRAY","2","trustrating_stim/white_mw003.bmp,trustrating_stim/white_mw085.bmp","1,0","noMatchFace","i","3000","","","","",""
"html-keyboard-response","62","204554","0.0-7.0-3.5","63fac97f0d4e8f6bfd753d90","bdp_wmem","Wed Mar 15 2023 21:08:16 GMT-0700 (Pacific Daylight Time)","582059","Match,No Match","","null","","","","","","<div class='trialBorder'><div class='vertical-center'><img src='img/fixation2_sml.jpg'</img></div></div>","null","DELAY","","","","","","","","","","",""
"html-keyboard-response","63","205578","0.0-7.0-4.5","63fac97f0d4e8f6bfd753d90","bdp_wmem","Wed Mar 15 2023 21:08:16 GMT-0700 (Pacific Daylight Time)","582059","Match,No Match","","1024","","","","","","<div class='trialBorder'><div class='targDiv'><div class='tc'><img class='introPic' src='trustrating_stim/white_mw092.bmp'><br><font color='red'><strong>Keep</strong></font></div></div><div class='respDiv'><div class='respDivL'>Match<br>(e)</div><div class='respDivR'>No Match<br>(i)</div></div></div>","e","TARGET","2","trustrating_stim/white_mw003.bmp,trustrating_stim/white_mw085.bmp","1,0","noMatchFace","i","3000","trustrating_stim/white_mw092.bmp","red","Keep","REAL","0"
"html-keyboard-response","64","206079","0.0-7.0-5.5","63fac97f0d4e8f6bfd753d90","bdp_wmem","Wed Mar 15 2023 21:08:16 GMT-0700 (Pacific Daylight Time)","582059","Match,No Match","","null","","","","","","<div class='trialBorder'><div class='vertical-center'><img src='img/error.jpg'></div><div class='respDiv'><div class='respDivL'><font style='color:orange'>Match<br>(e)</font></div><div class='respDivR'>No Match<br>(i)</div></div></div>","null","FEEDBACK","","","","","","","","","","",""
"html-keyboard-response","65","206580","0.0-7.0-1.6","63fac97f0d4e8f6bfd753d90","bdp_wmem","Wed Mar 15 2023 21:08:16 GMT-0700 (Pacific Daylight Time)","582059","Match,No Match","","null","","","","","","<div class='trialBorder'><div class='vertical-center'><img src='img/fixation2_sml.jpg'</img></div></div>","null","FIX","","","","","","","","","","",""
"html-keyboard-response","66","211081","0.0-7.0-2.6","63fac97f0d4e8f6bfd753d90","bdp_wmem","Wed Mar 15 2023 21:08:16 GMT-0700 (Pacific Daylight Time)","582059","Match,No Match","","null","","","","","","<div class='trialBorder'><div class='vertical-center'><img style='vertical-align:center; align:center' src='img/fixation2_sml.jpg'></div><div class='arrayDiv3'><div class='tl'><img class='introPic' src='trustrating_stim/white_mw003.bmp'><br><font color='red'><strong>Keep</strong></font></div><div class='tc'><img class='introPic' src='trustrating_stim/white_mw042.bmp'><br><font color='green'><strong>Share</strong></font></div><div class='tr'><img class='introPic' src='trustrating_stim/white_mw013.bmp'><br><font color='green'><strong>Share</strong></font></div></div></div>","null","ARRAY","3","trustrating_stim/white_mw003.bmp,trustrating_stim/white_mw042.bmp,trustrating_stim/white_mw013.bmp","0,1,1","Match","e","4500","","","","",""
"html-keyboard-response","67","215083","0.0-7.0-3.6","63fac97f0d4e8f6bfd753d90","bdp_wmem","Wed Mar 15 2023 21:08:16 GMT-0700 (Pacific Daylight Time)","582059","Match,No Match","","null","","","","","","<div class='trialBorder'><div class='vertical-center'><img src='img/fixation2_sml.jpg'</img></div></div>","null","DELAY","","","","","","","","","","",""
"html-keyboard-response","68","216416","0.0-7.0-4.6","63fac97f0d4e8f6bfd753d90","bdp_wmem","Wed Mar 15 2023 21:08:16 GMT-0700 (Pacific Daylight Time)","582059","Match,No Match","","1332","","","","","","<div class='trialBorder'><div class='targDiv'><div class='tc'><img class='introPic' src='trustrating_stim/white_mw042.bmp'><br><font color='green'><strong>Share</strong></font></div></div><div class='respDiv'><div class='respDivL'>Match<br>(e)</div><div class='respDivR'>No Match<br>(i)</div></div></div>","e","TARGET","3","trustrating_stim/white_mw003.bmp,trustrating_stim/white_mw042.bmp,trustrating_stim/white_mw013.bmp","0,1,1","Match","e","4500","trustrating_stim/white_mw042.bmp","green","Share","REAL","1"
"html-keyboard-response","69","216917","0.0-7.0-5.6","63fac97f0d4e8f6bfd753d90","bdp_wmem","Wed Mar 15 2023 21:08:16 GMT-0700 (Pacific Daylight Time)","582059","Match,No Match","","null","","","","","","<div class='trialBorder'><div class='vertical-center'><img src='img/correct.jpg'></div><div class='respDiv'><div class='respDivL'><font style='color:orange'>Match<br>(e)</font></div><div class='respDivR'>No Match<br>(i)</div></div></div>","null","FEEDBACK","","","","","","","","","","",""
"html-keyboard-response","70","217418","0.0-7.0-1.7","63fac97f0d4e8f6bfd753d90","bdp_wmem","Wed Mar 15 2023 21:08:16 GMT-0700 (Pacific Daylight Time)","582059","Match,No Match","","null","","","","","","<div class='trialBorder'><div class='vertical-center'><img src='img/fixation2_sml.jpg'</img></div></div>","null","FIX","","","","","","","","","","",""
"html-keyboard-response","71","220419","0.0-7.0-2.7","63fac97f0d4e8f6bfd753d90","bdp_wmem","Wed Mar 15 2023 21:08:16 GMT-0700 (Pacific Daylight Time)","582059","Match,No Match","","null","","","","","","<div class='trialBorder'><div class='vertical-center'><img style='vertical-align:center; align:center' src='img/fixation2_sml.jpg'></div><div class='arrayDiv2'><div class='tl'><img class='introPic' src='trustrating_stim/white_mw003.bmp'><br><font color='red'><strong>Keep</strong></font></div><div class='tr'><img class='introPic' src='trustrating_stim/white_mw012.bmp'><br><font color='green'><strong>Share</strong></font></div></div></div>","null","ARRAY","2","trustrating_stim/white_mw003.bmp,trustrating_stim/white_mw012.bmp","0,1","noMatchFace","i","3000","","","","",""
"html-keyboard-response","72","224421","0.0-7.0-3.7","63fac97f0d4e8f6bfd753d90","bdp_wmem","Wed Mar 15 2023 21:08:16 GMT-0700 (Pacific Daylight Time)","582059","Match,No Match","","null","","","","","","<div class='trialBorder'><div class='vertical-center'><img src='img/fixation2_sml.jpg'</img></div></div>","null","DELAY","","","","","","","","","","",""
"html-keyboard-response","73","225535","0.0-7.0-4.7","63fac97f0d4e8f6bfd753d90","bdp_wmem","Wed Mar 15 2023 21:08:16 GMT-0700 (Pacific Daylight Time)","582059","Match,No Match","","1113","","","","","","<div class='trialBorder'><div class='targDiv'><div class='tc'><img class='introPic' src='trustrating_stim/white_mw078.bmp'><br><font color='red'><strong>Keep</strong></font></div></div><div class='respDiv'><div class='respDivL'>Match<br>(e)</div><div class='respDivR'>No Match<br>(i)</div></div></div>","e","TARGET","2","trustrating_stim/white_mw003.bmp,trustrating_stim/white_mw012.bmp","0,1","noMatchFace","i","3000","trustrating_stim/white_mw078.bmp","red","Keep","REAL","0"
"html-keyboard-response","74","226036","0.0-7.0-5.7","63fac97f0d4e8f6bfd753d90","bdp_wmem","Wed Mar 15 2023 21:08:16 GMT-0700 (Pacific Daylight Time)","582059","Match,No Match","","null","","","","","","<div class='trialBorder'><div class='vertical-center'><img src='img/error.jpg'></div><div class='respDiv'><div class='respDivL'><font style='color:orange'>Match<br>(e)</font></div><div class='respDivR'>No Match<br>(i)</div></div></div>","null","FEEDBACK","","","","","","","","","","",""
"html-keyboard-response","75","226537","0.0-7.0-1.8","63fac97f0d4e8f6bfd753d90","bdp_wmem","Wed Mar 15 2023 21:08:16 GMT-0700 (Pacific Daylight Time)","582059","Match,No Match","","null","","","","","","<div class='trialBorder'><div class='vertical-center'><img src='img/fixation2_sml.jpg'</img></div></div>","null","FIX","","","","","","","","","","",""
"html-keyboard-response","76","229539","0.0-7.0-2.8","63fac97f0d4e8f6bfd753d90","bdp_wmem","Wed Mar 15 2023 21:08:16 GMT-0700 (Pacific Daylight Time)","582059","Match,No Match","","null","","","","","","<div class='trialBorder'><div class='vertical-center'><img style='vertical-align:center; align:center' src='img/fixation2_sml.jpg'></div><div class='arrayDiv2'><div class='tl'><img class='introPic' src='trustrating_stim/white_mw085.bmp'><br><font color='green'><strong>Share</strong></font></div><div class='tr'><img class='introPic' src='trustrating_stim/white_mw013.bmp'><br><font color='red'><strong>Keep</strong></font></div></div></div>","null","ARRAY","2","trustrating_stim/white_mw085.bmp,trustrating_stim/white_mw013.bmp","1,0","Match","e","3000","","","","",""
"html-keyboard-response","77","233540","0.0-7.0-3.8","63fac97f0d4e8f6bfd753d90","bdp_wmem","Wed Mar 15 2023 21:08:16 GMT-0700 (Pacific Daylight Time)","582059","Match,No Match","","null","","","","","","<div class='trialBorder'><div class='vertical-center'><img src='img/fixation2_sml.jpg'</img></div></div>","null","DELAY","","","","","","","","","","",""
"html-keyboard-response","78","234624","0.0-7.0-4.8","63fac97f0d4e8f6bfd753d90","bdp_wmem","Wed Mar 15 2023 21:08:16 GMT-0700 (Pacific Daylight Time)","582059","Match,No Match","","1083","","","","","","<div class='trialBorder'><div class='targDiv'><div class='tc'><img class='introPic' src='trustrating_stim/white_mw013.bmp'><br><font color='red'><strong>Keep</strong></font></div></div><div class='respDiv'><div class='respDivL'>Match<br>(e)</div><div class='respDivR'>No Match<br>(i)</div></div></div>","e","TARGET","2","trustrating_stim/white_mw085.bmp,trustrating_stim/white_mw013.bmp","1,0","Match","e","3000","trustrating_stim/white_mw013.bmp","red","Keep","REAL","1"
"html-keyboard-response","79","235126","0.0-7.0-5.8","63fac97f0d4e8f6bfd753d90","bdp_wmem","Wed Mar 15 2023 21:08:16 GMT-0700 (Pacific Daylight Time)","582059","Match,No Match","","null","","","","","","<div class='trialBorder'><div class='vertical-center'><img src='img/correct.jpg'></div><div class='respDiv'><div class='respDivL'><font style='color:orange'>Match<br>(e)</font></div><div class='respDivR'>No Match<br>(i)</div></div></div>","null","FEEDBACK","","","","","","","","","","",""
"html-keyboard-response","80","235627","0.0-7.0-1.9","63fac97f0d4e8f6bfd753d90","bdp_wmem","Wed Mar 15 2023 21:08:16 GMT-0700 (Pacific Daylight Time)","582059","Match,No Match","","null","","","","","","<div class='trialBorder'><div class='vertical-center'><img src='img/fixation2_sml.jpg'</img></div></div>","null","FIX","","","","","","","","","","",""
"html-keyboard-response","81","237128","0.0-7.0-2.9","63fac97f0d4e8f6bfd753d90","bdp_wmem","Wed Mar 15 2023 21:08:16 GMT-0700 (Pacific Daylight Time)","582059","Match,No Match","","null","","","","","","<div class='trialBorder'><div class='vertical-center'><img style='vertical-align:center; align:center' src='img/fixation2_sml.jpg'></div><div class='arrayDiv1'><div class='tc'><img class='introPic' src='trustrating_stim/white_mw012.bmp'><br><font color='green'><strong>Share</strong></font></div></div></div>","null","ARRAY","1","trustrating_stim/white_mw012.bmp","1","Match","e","1500","","","","",""
"html-keyboard-response","82","241129","0.0-7.0-3.9","63fac97f0d4e8f6bfd753d90","bdp_wmem","Wed Mar 15 2023 21:08:16 GMT-0700 (Pacific Daylight Time)","582059","Match,No Match","","null","","","","","","<div class='trialBorder'><div class='vertical-center'><img src='img/fixation2_sml.jpg'</img></div></div>","null","DELAY","","","","","","","","","","",""
"html-keyboard-response","83","241603","0.0-7.0-4.9","63fac97f0d4e8f6bfd753d90","bdp_wmem","Wed Mar 15 2023 21:08:16 GMT-0700 (Pacific Daylight Time)","582059","Match,No Match","","473","","","","","","<div class='trialBorder'><div class='targDiv'><div class='tc'><img class='introPic' src='trustrating_stim/white_mw012.bmp'><br><font color='green'><strong>Share</strong></font></div></div><div class='respDiv'><div class='respDivL'>Match<br>(e)</div><div class='respDivR'>No Match<br>(i)</div></div></div>","e","TARGET","1","trustrating_stim/white_mw012.bmp","1","Match","e","1500","trustrating_stim/white_mw012.bmp","green","Share","REAL","1"
"html-keyboard-response","84","242103","0.0-7.0-5.9","63fac97f0d4e8f6bfd753d90","bdp_wmem","Wed Mar 15 2023 21:08:16 GMT-0700 (Pacific Daylight Time)","582059","Match,No Match","","null","","","","","","<div class='trialBorder'><div class='vertical-center'><img src='img/correct.jpg'></div><div class='respDiv'><div class='respDivL'><font style='color:orange'>Match<br>(e)</font></div><div class='respDivR'>No Match<br>(i)</div></div></div>","null","FEEDBACK","","","","","","","","","","",""
"html-keyboard-response","85","242604","0.0-7.0-1.10","63fac97f0d4e8f6bfd753d90","bdp_wmem","Wed Mar 15 2023 21:08:16 GMT-0700 (Pacific Daylight Time)","582059","Match,No Match","","null","","","","","","<div class='trialBorder'><div class='vertical-center'><img src='img/fixation2_sml.jpg'</img></div></div>","null","FIX","","","","","","","","","","",""
"html-keyboard-response","86","244106","0.0-7.0-2.10","63fac97f0d4e8f6bfd753d90","bdp_wmem","Wed Mar 15 2023 21:08:16 GMT-0700 (Pacific Daylight Time)","582059","Match,No Match","","null","","","","","","<div class='trialBorder'><div class='vertical-center'><img style='vertical-align:center; align:center' src='img/fixation2_sml.jpg'></div><div class='arrayDiv1'><div class='tc'><img class='introPic' src='trustrating_stim/white_mw003.bmp'><br><font color='green'><strong>Share</strong></font></div></div></div>","null","ARRAY","1","trustrating_stim/white_mw003.bmp","1","noMatchOutcome","i","1500","","","","",""
"html-keyboard-response","87","248107","0.0-7.0-3.10","63fac97f0d4e8f6bfd753d90","bdp_wmem","Wed Mar 15 2023 21:08:16 GMT-0700 (Pacific Daylight Time)","582059","Match,No Match","","null","","","","","","<div class='trialBorder'><div class='vertical-center'><img src='img/fixation2_sml.jpg'</img></div></div>","null","DELAY","","","","","","","","","","",""
"html-keyboard-response","88","248682","0.0-7.0-4.10","63fac97f0d4e8f6bfd753d90","bdp_wmem","Wed Mar 15 2023 21:08:16 GMT-0700 (Pacific Daylight Time)","582059","Match,No Match","","574","","","","","","<div class='trialBorder'><div class='targDiv'><div class='tc'><img class='introPic' src='trustrating_stim/white_mw003.bmp'><br><font color='red'><strong>Keep</strong></font></div></div><div class='respDiv'><div class='respDivL'>Match<br>(e)</div><div class='respDivR'>No Match<br>(i)</div></div></div>","i","TARGET","1","trustrating_stim/white_mw003.bmp","1","noMatchOutcome","i","1500","trustrating_stim/white_mw003.bmp","red","Keep","REAL","1"
"html-keyboard-response","89","249183","0.0-7.0-5.10","63fac97f0d4e8f6bfd753d90","bdp_wmem","Wed Mar 15 2023 21:08:16 GMT-0700 (Pacific Daylight Time)","582059","Match,No Match","","null","","","","","","<div class='trialBorder'><div class='vertical-center'><img src='img/correct.jpg'></div><div class='respDiv'><div class='respDivL'>Match<br>(e)</div><div class='respDivR'><font style='color:orange'>No Match<br>(i)</font></div></div></div>","null","FEEDBACK","","","","","","","","","","",""
"html-keyboard-response","90","249684","0.0-7.0-1.11","63fac97f0d4e8f6bfd753d90","bdp_wmem","Wed Mar 15 2023 21:08:16 GMT-0700 (Pacific Daylight Time)","582059","Match,No Match","","null","","","","","","<div class='trialBorder'><div class='vertical-center'><img src='img/fixation2_sml.jpg'</img></div></div>","null","FIX","","","","","","","","","","",""
"html-keyboard-response","91","252685","0.0-7.0-2.11","63fac97f0d4e8f6bfd753d90","bdp_wmem","Wed Mar 15 2023 21:08:16 GMT-0700 (Pacific Daylight Time)","582059","Match,No Match","","null","","","","","","<div class='trialBorder'><div class='vertical-center'><img style='vertical-align:center; align:center' src='img/fixation2_sml.jpg'></div><div class='arrayDiv2'><div class='tl'><img class='introPic' src='trustrating_stim/white_mw070.bmp'><br><font color='red'><strong>Keep</strong></font></div><div class='tr'><img class='introPic' src='trustrating_stim/white_mw085.bmp'><br><font color='green'><strong>Share</strong></font></div></div></div>","null","ARRAY","2","trustrating_stim/white_mw070.bmp,trustrating_stim/white_mw085.bmp","0,1","Match","e","3000","","","","",""
"html-keyboard-response","92","256687","0.0-7.0-3.11","63fac97f0d4e8f6bfd753d90","bdp_wmem","Wed Mar 15 2023 21:08:16 GMT-0700 (Pacific Daylight Time)","582059","Match,No Match","","null","","","","","","<div class='trialBorder'><div class='vertical-center'><img src='img/fixation2_sml.jpg'</img></div></div>","null","DELAY","","","","","","","","","","",""
"html-keyboard-response","93","257670","0.0-7.0-4.11","63fac97f0d4e8f6bfd753d90","bdp_wmem","Wed Mar 15 2023 21:08:16 GMT-0700 (Pacific Daylight Time)","582059","Match,No Match","","983","","","","","","<div class='trialBorder'><div class='targDiv'><div class='tc'><img class='introPic' src='trustrating_stim/white_mw085.bmp'><br><font color='green'><strong>Share</strong></font></div></div><div class='respDiv'><div class='respDivL'>Match<br>(e)</div><div class='respDivR'>No Match<br>(i)</div></div></div>","e","TARGET","2","trustrating_stim/white_mw070.bmp,trustrating_stim/white_mw085.bmp","0,1","Match","e","3000","trustrating_stim/white_mw085.bmp","green","Share","REAL","1"
"html-keyboard-response","94","258171","0.0-7.0-5.11","63fac97f0d4e8f6bfd753d90","bdp_wmem","Wed Mar 15 2023 21:08:16 GMT-0700 (Pacific Daylight Time)","582059","Match,No Match","","null","","","","","","<div class='trialBorder'><div class='vertical-center'><img src='img/correct.jpg'></div><div class='respDiv'><div class='respDivL'><font style='color:orange'>Match<br>(e)</font></div><div class='respDivR'>No Match<br>(i)</div></div></div>","null","FEEDBACK","","","","","","","","","","",""
"html-keyboard-response","95","258672","0.0-7.0-1.12","63fac97f0d4e8f6bfd753d90","bdp_wmem","Wed Mar 15 2023 21:08:16 GMT-0700 (Pacific Daylight Time)","582059","Match,No Match","","null","","","","","","<div class='trialBorder'><div class='vertical-center'><img src='img/fixation2_sml.jpg'</img></div></div>","null","FIX","","","","","","","","","","",""
"html-keyboard-response","96","260173","0.0-7.0-2.12","63fac97f0d4e8f6bfd753d90","bdp_wmem","Wed Mar 15 2023 21:08:16 GMT-0700 (Pacific Daylight Time)","582059","Match,No Match","","null","","","","","","<div class='trialBorder'><div class='vertical-center'><img style='vertical-align:center; align:center' src='img/fixation2_sml.jpg'></div><div class='arrayDiv1'><div class='tc'><img class='introPic' src='trustrating_stim/white_mw038.bmp'><br><font color='green'><strong>Share</strong></font></div></div></div>","null","ARRAY","1","trustrating_stim/white_mw038.bmp","1","noMatchFace","i","1500","","","","",""
"html-keyboard-response","97","264174","0.0-7.0-3.12","63fac97f0d4e8f6bfd753d90","bdp_wmem","Wed Mar 15 2023 21:08:16 GMT-0700 (Pacific Daylight Time)","582059","Match,No Match","","null","","","","","","<div class='trialBorder'><div class='vertical-center'><img src='img/fixation2_sml.jpg'</img></div></div>","null","DELAY","","","","","","","","","","",""
"html-keyboard-response","98","265760","0.0-7.0-4.12","63fac97f0d4e8f6bfd753d90","bdp_wmem","Wed Mar 15 2023 21:08:16 GMT-0700 (Pacific Daylight Time)","582059","Match,No Match","","1584","","","","","","<div class='trialBorder'><div class='targDiv'><div class='tc'><img class='introPic' src='trustrating_stim/white_mw078.bmp'><br><font color='green'><strong>Share</strong></font></div></div><div class='respDiv'><div class='respDivL'>Match<br>(e)</div><div class='respDivR'>No Match<br>(i)</div></div></div>","i","TARGET","1","trustrating_stim/white_mw038.bmp","1","noMatchFace","i","1500","trustrating_stim/white_mw078.bmp","green","Share","REAL","1"
"html-keyboard-response","99","266261","0.0-7.0-5.12","63fac97f0d4e8f6bfd753d90","bdp_wmem","Wed Mar 15 2023 21:08:16 GMT-0700 (Pacific Daylight Time)","582059","Match,No Match","","null","","","","","","<div class='trialBorder'><div class='vertical-center'><img src='img/correct.jpg'></div><div class='respDiv'><div class='respDivL'>Match<br>(e)</div><div class='respDivR'><font style='color:orange'>No Match<br>(i)</font></div></div></div>","null","FEEDBACK","","","","","","","","","","",""
"html-keyboard-response","100","266762","0.0-7.0-1.13","63fac97f0d4e8f6bfd753d90","bdp_wmem","Wed Mar 15 2023 21:08:16 GMT-0700 (Pacific Daylight Time)","582059","Match,No Match","","null","","","","","","<div class='trialBorder'><div class='vertical-center'><img src='img/fixation2_sml.jpg'</img></div></div>","null","FIX","","","","","","","","","","",""
"html-keyboard-response","101","268263","0.0-7.0-2.13","63fac97f0d4e8f6bfd753d90","bdp_wmem","Wed Mar 15 2023 21:08:16 GMT-0700 (Pacific Daylight Time)","582059","Match,No Match","","null","","","","","","<div class='trialBorder'><div class='vertical-center'><img style='vertical-align:center; align:center' src='img/fixation2_sml.jpg'></div><div class='arrayDiv1'><div class='tc'><img class='introPic' src='trustrating_stim/white_mw013.bmp'><br><font color='red'><strong>Keep</strong></font></div></div></div>","null","ARRAY","1","trustrating_stim/white_mw013.bmp","0","Match","e","1500","","","","",""
"html-keyboard-response","102","272265","0.0-7.0-3.13","63fac97f0d4e8f6bfd753d90","bdp_wmem","Wed Mar 15 2023 21:08:16 GMT-0700 (Pacific Daylight Time)","582059","Match,No Match","","null","","","","","","<div class='trialBorder'><div class='vertical-center'><img src='img/fixation2_sml.jpg'</img></div></div>","null","DELAY","","","","","","","","","","",""
"html-keyboard-response","103","273109","0.0-7.0-4.13","63fac97f0d4e8f6bfd753d90","bdp_wmem","Wed Mar 15 2023 21:08:16 GMT-0700 (Pacific Daylight Time)","582059","Match,No Match","","843","","","","","","<div class='trialBorder'><div class='targDiv'><div class='tc'><img class='introPic' src='trustrating_stim/white_mw013.bmp'><br><font color='red'><strong>Keep</strong></font></div></div><div class='respDiv'><div class='respDivL'>Match<br>(e)</div><div class='respDivR'>No Match<br>(i)</div></div></div>","e","TARGET","1","trustrating_stim/white_mw013.bmp","0","Match","e","1500","trustrating_stim/white_mw013.bmp","red","Keep","REAL","1"
"html-keyboard-response","104","273610","0.0-7.0-5.13","63fac97f0d4e8f6bfd753d90","bdp_wmem","Wed Mar 15 2023 21:08:16 GMT-0700 (Pacific Daylight Time)","582059","Match,No Match","","null","","","","","","<div class='trialBorder'><div class='vertical-center'><img src='img/correct.jpg'></div><div class='respDiv'><div class='respDivL'><font style='color:orange'>Match<br>(e)</font></div><div class='respDivR'>No Match<br>(i)</div></div></div>","null","FEEDBACK","","","","","","","","","","",""
"html-keyboard-response","105","274111","0.0-7.0-1.14","63fac97f0d4e8f6bfd753d90","bdp_wmem","Wed Mar 15 2023 21:08:16 GMT-0700 (Pacific Daylight Time)","582059","Match,No Match","","null","","","","","","<div class='trialBorder'><div class='vertical-center'><img src='img/fixation2_sml.jpg'</img></div></div>","null","FIX","","","","","","","","","","",""
"html-keyboard-response","106","278612","0.0-7.0-2.14","63fac97f0d4e8f6bfd753d90","bdp_wmem","Wed Mar 15 2023 21:08:16 GMT-0700 (Pacific Daylight Time)","582059","Match,No Match","","null","","","","","","<div class='trialBorder'><div class='vertical-center'><img style='vertical-align:center; align:center' src='img/fixation2_sml.jpg'></div><div class='arrayDiv3'><div class='tl'><img class='introPic' src='trustrating_stim/white_mw078.bmp'><br><font color='green'><strong>Share</strong></font></div><div class='tc'><img class='introPic' src='trustrating_stim/white_mw013.bmp'><br><font color='green'><strong>Share</strong></font></div><div class='tr'><img class='introPic' src='trustrating_stim/white_mw040.bmp'><br><font color='red'><strong>Keep</strong></font></div></div></div>","null","ARRAY","3","trustrating_stim/white_mw078.bmp,trustrating_stim/white_mw013.bmp,trustrating_stim/white_mw040.bmp","1,1,0","noMatchFace","i","4500","","","","",""
"html-keyboard-response","107","282613","0.0-7.0-3.14","63fac97f0d4e8f6bfd753d90","bdp_wmem","Wed Mar 15 2023 21:08:16 GMT-0700 (Pacific Daylight Time)","582059","Match,No Match","","null","","","","","","<div class='trialBorder'><div class='vertical-center'><img src='img/fixation2_sml.jpg'</img></div></div>","null","DELAY","","","","","","","","","","",""
"html-keyboard-response","108","284147","0.0-7.0-4.14","63fac97f0d4e8f6bfd753d90","bdp_wmem","Wed Mar 15 2023 21:08:16 GMT-0700 (Pacific Daylight Time)","582059","Match,No Match","","1533","","","","","","<div class='trialBorder'><div class='targDiv'><div class='tc'><img class='introPic' src='trustrating_stim/white_mw085.bmp'><br><font color='green'><strong>Share</strong></font></div></div><div class='respDiv'><div class='respDivL'>Match<br>(e)</div><div class='respDivR'>No Match<br>(i)</div></div></div>","i","TARGET","3","trustrating_stim/white_mw078.bmp,trustrating_stim/white_mw013.bmp,trustrating_stim/white_mw040.bmp","1,1,0","noMatchFace","i","4500","trustrating_stim/white_mw085.bmp","green","Share","REAL","1"
"html-keyboard-response","109","284648","0.0-7.0-5.14","63fac97f0d4e8f6bfd753d90","bdp_wmem","Wed Mar 15 2023 21:08:16 GMT-0700 (Pacific Daylight Time)","582059","Match,No Match","","null","","","","","","<div class='trialBorder'><div class='vertical-center'><img src='img/correct.jpg'></div><div class='respDiv'><div class='respDivL'>Match<br>(e)</div><div class='respDivR'><font style='color:orange'>No Match<br>(i)</font></div></div></div>","null","FEEDBACK","","","","","","","","","","",""
"html-keyboard-response","110","285150","0.0-7.0-1.15","63fac97f0d4e8f6bfd753d90","bdp_wmem","Wed Mar 15 2023 21:08:16 GMT-0700 (Pacific Daylight Time)","582059","Match,No Match","","null","","","","","","<div class='trialBorder'><div class='vertical-center'><img src='img/fixation2_sml.jpg'</img></div></div>","null","FIX","","","","","","","","","","",""
"html-keyboard-response","111","286651","0.0-7.0-2.15","63fac97f0d4e8f6bfd753d90","bdp_wmem","Wed Mar 15 2023 21:08:16 GMT-0700 (Pacific Daylight Time)","582059","Match,No Match","","null","","","","","","<div class='trialBorder'><div class='vertical-center'><img style='vertical-align:center; align:center' src='img/fixation2_sml.jpg'></div><div class='arrayDiv1'><div class='tc'><img class='introPic' src='trustrating_stim/white_mw012.bmp'><br><font color='green'><strong>Share</strong></font></div></div></div>","null","ARRAY","1","trustrating_stim/white_mw012.bmp","1","Match","e","1500","","","","",""
"html-keyboard-response","112","290653","0.0-7.0-3.15","63fac97f0d4e8f6bfd753d90","bdp_wmem","Wed Mar 15 2023 21:08:16 GMT-0700 (Pacific Daylight Time)","582059","Match,No Match","","null","","","","","","<div class='trialBorder'><div class='vertical-center'><img src='img/fixation2_sml.jpg'</img></div></div>","null","DELAY","","","","","","","","","","",""
"html-keyboard-response","113","291516","0.0-7.0-4.15","63fac97f0d4e8f6bfd753d90","bdp_wmem","Wed Mar 15 2023 21:08:16 GMT-0700 (Pacific Daylight Time)","582059","Match,No Match","","863","","","","","","<div class='trialBorder'><div class='targDiv'><div class='tc'><img class='introPic' src='trustrating_stim/white_mw012.bmp'><br><font color='green'><strong>Share</strong></font></div></div><div class='respDiv'><div class='respDivL'>Match<br>(e)</div><div class='respDivR'>No Match<br>(i)</div></div></div>","e","TARGET","1","trustrating_stim/white_mw012.bmp","1","Match","e","1500","trustrating_stim/white_mw012.bmp","green","Share","REAL","1"
"html-keyboard-response","114","292017","0.0-7.0-5.15","63fac97f0d4e8f6bfd753d90","bdp_wmem","Wed Mar 15 2023 21:08:16 GMT-0700 (Pacific Daylight Time)","582059","Match,No Match","","null","","","","","","<div class='trialBorder'><div class='vertical-center'><img src='img/correct.jpg'></div><div class='respDiv'><div class='respDivL'><font style='color:orange'>Match<br>(e)</font></div><div class='respDivR'>No Match<br>(i)</div></div></div>","null","FEEDBACK","","","","","","","","","","",""
"html-keyboard-response","115","292518","0.0-7.0-1.16","63fac97f0d4e8f6bfd753d90","bdp_wmem","Wed Mar 15 2023 21:08:16 GMT-0700 (Pacific Daylight Time)","582059","Match,No Match","","null","","","","","","<div class='trialBorder'><div class='vertical-center'><img src='img/fixation2_sml.jpg'</img></div></div>","null","FIX","","","","","","","","","","",""
"html-keyboard-response","116","295519","0.0-7.0-2.16","63fac97f0d4e8f6bfd753d90","bdp_wmem","Wed Mar 15 2023 21:08:16 GMT-0700 (Pacific Daylight Time)","582059","Match,No Match","","null","","","","","","<div class='trialBorder'><div class='vertical-center'><img style='vertical-align:center; align:center' src='img/fixation2_sml.jpg'></div><div class='arrayDiv2'><div class='tl'><img class='introPic' src='trustrating_stim/white_mw003.bmp'><br><font color='red'><strong>Keep</strong></font></div><div class='tr'><img class='introPic' src='trustrating_stim/white_mw070.bmp'><br><font color='green'><strong>Share</strong></font></div></div></div>","null","ARRAY","2","trustrating_stim/white_mw003.bmp,trustrating_stim/white_mw070.bmp","0,1","noMatchFace","i","3000","","","","",""
"html-keyboard-response","117","299521","0.0-7.0-3.16","63fac97f0d4e8f6bfd753d90","bdp_wmem","Wed Mar 15 2023 21:08:16 GMT-0700 (Pacific Daylight Time)","582059","Match,No Match","","null","","","","","","<div class='trialBorder'><div class='vertical-center'><img src='img/fixation2_sml.jpg'</img></div></div>","null","DELAY","","","","","","","","","","",""
"html-keyboard-response","118","300655","0.0-7.0-4.16","63fac97f0d4e8f6bfd753d90","bdp_wmem","Wed Mar 15 2023 21:08:16 GMT-0700 (Pacific Daylight Time)","582059","Match,No Match","","1133","","","","","","<div class='trialBorder'><div class='targDiv'><div class='tc'><img class='introPic' src='trustrating_stim/white_mw040.bmp'><br><font color='red'><strong>Keep</strong></font></div></div><div class='respDiv'><div class='respDivL'>Match<br>(e)</div><div class='respDivR'>No Match<br>(i)</div></div></div>","e","TARGET","2","trustrating_stim/white_mw003.bmp,trustrating_stim/white_mw070.bmp","0,1","noMatchFace","i","3000","trustrating_stim/white_mw040.bmp","red","Keep","REAL","0"
"html-keyboard-response","119","301155","0.0-7.0-5.16","63fac97f0d4e8f6bfd753d90","bdp_wmem","Wed Mar 15 2023 21:08:16 GMT-0700 (Pacific Daylight Time)","582059","Match,No Match","","null","","","","","","<div class='trialBorder'><div class='vertical-center'><img src='img/error.jpg'></div><div class='respDiv'><div class='respDivL'><font style='color:orange'>Match<br>(e)</font></div><div class='respDivR'>No Match<br>(i)</div></div></div>","null","FEEDBACK","","","","","","","","","","",""
"html-keyboard-response","120","301657","0.0-7.0-1.17","63fac97f0d4e8f6bfd753d90","bdp_wmem","Wed Mar 15 2023 21:08:16 GMT-0700 (Pacific Daylight Time)","582059","Match,No Match","","null","","","","","","<div class='trialBorder'><div class='vertical-center'><img src='img/fixation2_sml.jpg'</img></div></div>","null","FIX","","","","","","","","","","",""
"html-keyboard-response","121","303159","0.0-7.0-2.17","63fac97f0d4e8f6bfd753d90","bdp_wmem","Wed Mar 15 2023 21:08:16 GMT-0700 (Pacific Daylight Time)","582059","Match,No Match","","null","","","","","","<div class='trialBorder'><div class='vertical-center'><img style='vertical-align:center; align:center' src='img/fixation2_sml.jpg'></div><div class='arrayDiv1'><div class='tc'><img class='introPic' src='trustrating_stim/white_mw085.bmp'><br><font color='red'><strong>Keep</strong></font></div></div></div>","null","ARRAY","1","trustrating_stim/white_mw085.bmp","0","Match","e","1500","","","","",""
"html-keyboard-response","122","307160","0.0-7.0-3.17","63fac97f0d4e8f6bfd753d90","bdp_wmem","Wed Mar 15 2023 21:08:16 GMT-0700 (Pacific Daylight Time)","582059","Match,No Match","","null","","","","","","<div class='trialBorder'><div class='vertical-center'><img src='img/fixation2_sml.jpg'</img></div></div>","null","DELAY","","","","","","","","","","",""
"html-keyboard-response","123","308063","0.0-7.0-4.17","63fac97f0d4e8f6bfd753d90","bdp_wmem","Wed Mar 15 2023 21:08:16 GMT-0700 (Pacific Daylight Time)","582059","Match,No Match","","902","","","","","","<div class='trialBorder'><div class='targDiv'><div class='tc'><img class='introPic' src='trustrating_stim/white_mw085.bmp'><br><font color='red'><strong>Keep</strong></font></div></div><div class='respDiv'><div class='respDivL'>Match<br>(e)</div><div class='respDivR'>No Match<br>(i)</div></div></div>","e","TARGET","1","trustrating_stim/white_mw085.bmp","0","Match","e","1500","trustrating_stim/white_mw085.bmp","red","Keep","REAL","1"
"html-keyboard-response","124","308565","0.0-7.0-5.17","63fac97f0d4e8f6bfd753d90","bdp_wmem","Wed Mar 15 2023 21:08:16 GMT-0700 (Pacific Daylight Time)","582059","Match,No Match","","null","","","","","","<div class='trialBorder'><div class='vertical-center'><img src='img/correct.jpg'></div><div class='respDiv'><div class='respDivL'><font style='color:orange'>Match<br>(e)</font></div><div class='respDivR'>No Match<br>(i)</div></div></div>","null","FEEDBACK","","","","","","","","","","",""
"html-keyboard-response","125","309066","0.0-7.0-1.18","63fac97f0d4e8f6bfd753d90","bdp_wmem","Wed Mar 15 2023 21:08:16 GMT-0700 (Pacific Daylight Time)","582059","Match,No Match","","null","","","","","","<div class='trialBorder'><div class='vertical-center'><img src='img/fixation2_sml.jpg'</img></div></div>","null","FIX","","","","","","","","","","",""
"html-keyboard-response","126","313568","0.0-7.0-2.18","63fac97f0d4e8f6bfd753d90","bdp_wmem","Wed Mar 15 2023 21:08:16 GMT-0700 (Pacific Daylight Time)","582059","Match,No Match","","null","","","","","","<div class='trialBorder'><div class='vertical-center'><img style='vertical-align:center; align:center' src='img/fixation2_sml.jpg'></div><div class='arrayDiv3'><div class='tl'><img class='introPic' src='trustrating_stim/white_mw038.bmp'><br><font color='red'><strong>Keep</strong></font></div><div class='tc'><img class='introPic' src='trustrating_stim/white_mw013.bmp'><br><font color='red'><strong>Keep</strong></font></div><div class='tr'><img class='introPic' src='trustrating_stim/white_mw042.bmp'><br><font color='green'><strong>Share</strong></font></div></div></div>","null","ARRAY","3","trustrating_stim/white_mw038.bmp,trustrating_stim/white_mw013.bmp,trustrating_stim/white_mw042.bmp","0,0,1","noMatchOutcome","i","4500","","","","",""
"html-keyboard-response","127","317569","0.0-7.0-3.18","63fac97f0d4e8f6bfd753d90","bdp_wmem","Wed Mar 15 2023 21:08:16 GMT-0700 (Pacific Daylight Time)","582059","Match,No Match","","null","","","","","","<div class='trialBorder'><div class='vertical-center'><img src='img/fixation2_sml.jpg'</img></div></div>","null","DELAY","","","","","","","","","","",""
"html-keyboard-response","128","318892","0.0-7.0-4.18","63fac97f0d4e8f6bfd753d90","bdp_wmem","Wed Mar 15 2023 21:08:16 GMT-0700 (Pacific Daylight Time)","582059","Match,No Match","","1322","","","","","","<div class='trialBorder'><div class='targDiv'><div class='tc'><img class='introPic' src='trustrating_stim/white_mw013.bmp'><br><font color='green'><strong>Share</strong></font></div></div><div class='respDiv'><div class='respDivL'>Match<br>(e)</div><div class='respDivR'>No Match<br>(i)</div></div></div>","i","TARGET","3","trustrating_stim/white_mw038.bmp,trustrating_stim/white_mw013.bmp,trustrating_stim/white_mw042.bmp","0,0,1","noMatchOutcome","i","4500","trustrating_stim/white_mw013.bmp","green","Share","REAL","1"
"html-keyboard-response","129","319393","0.0-7.0-5.18","63fac97f0d4e8f6bfd753d90","bdp_wmem","Wed Mar 15 2023 21:08:16 GMT-0700 (Pacific Daylight Time)","582059","Match,No Match","","null","","","","","","<div class='trialBorder'><div class='vertical-center'><img src='img/correct.jpg'></div><div class='respDiv'><div class='respDivL'>Match<br>(e)</div><div class='respDivR'><font style='color:orange'>No Match<br>(i)</font></div></div></div>","null","FEEDBACK","","","","","","","","","","",""
"html-keyboard-response","130","319895","0.0-7.0-1.19","63fac97f0d4e8f6bfd753d90","bdp_wmem","Wed Mar 15 2023 21:08:16 GMT-0700 (Pacific Daylight Time)","582059","Match,No Match","","null","","","","","","<div class='trialBorder'><div class='vertical-center'><img src='img/fixation2_sml.jpg'</img></div></div>","null","FIX","","","","","","","","","","",""
"html-keyboard-response","131","324397","0.0-7.0-2.19","63fac97f0d4e8f6bfd753d90","bdp_wmem","Wed Mar 15 2023 21:08:16 GMT-0700 (Pacific Daylight Time)","582059","Match,No Match","","null","","","","","","<div class='trialBorder'><div class='vertical-center'><img style='vertical-align:center; align:center' src='img/fixation2_sml.jpg'></div><div class='arrayDiv3'><div class='tl'><img class='introPic' src='trustrating_stim/white_mw013.bmp'><br><font color='green'><strong>Share</strong></font></div><div class='tc'><img class='introPic' src='trustrating_stim/white_mw010.bmp'><br><font color='red'><strong>Keep</strong></font></div><div class='tr'><img class='introPic' src='trustrating_stim/white_mw040.bmp'><br><font color='red'><strong>Keep</strong></font></div></div></div>","null","ARRAY","3","trustrating_stim/white_mw013.bmp,trustrating_stim/white_mw010.bmp,trustrating_stim/white_mw040.bmp","1,0,0","Match","e","4500","","","","",""
"html-keyboard-response","132","328398","0.0-7.0-3.19","63fac97f0d4e8f6bfd753d90","bdp_wmem","Wed Mar 15 2023 21:08:16 GMT-0700 (Pacific Daylight Time)","582059","Match,No Match","","null","","","","","","<div class='trialBorder'><div class='vertical-center'><img src='img/fixation2_sml.jpg'</img></div></div>","null","DELAY","","","","","","","","","","",""
"html-keyboard-response","133","329531","0.0-7.0-4.19","63fac97f0d4e8f6bfd753d90","bdp_wmem","Wed Mar 15 2023 21:08:16 GMT-0700 (Pacific Daylight Time)","582059","Match,No Match","","1132","","","","","","<div class='trialBorder'><div class='targDiv'><div class='tc'><img class='introPic' src='trustrating_stim/white_mw010.bmp'><br><font color='red'><strong>Keep</strong></font></div></div><div class='respDiv'><div class='respDivL'>Match<br>(e)</div><div class='respDivR'>No Match<br>(i)</div></div></div>","e","TARGET","3","trustrating_stim/white_mw013.bmp,trustrating_stim/white_mw010.bmp,trustrating_stim/white_mw040.bmp","1,0,0","Match","e","4500","trustrating_stim/white_mw010.bmp","red","Keep","REAL","1"
"html-keyboard-response","134","330032","0.0-7.0-5.19","63fac97f0d4e8f6bfd753d90","bdp_wmem","Wed Mar 15 2023 21:08:16 GMT-0700 (Pacific Daylight Time)","582059","Match,No Match","","null","","","","","","<div class='trialBorder'><div class='vertical-center'><img src='img/correct.jpg'></div><div class='respDiv'><div class='respDivL'><font style='color:orange'>Match<br>(e)</font></div><div class='respDivR'>No Match<br>(i)</div></div></div>","null","FEEDBACK","","","","","","","","","","",""
"html-keyboard-response","135","330533","0.0-7.0-1.20","63fac97f0d4e8f6bfd753d90","bdp_wmem","Wed Mar 15 2023 21:08:16 GMT-0700 (Pacific Daylight Time)","582059","Match,No Match","","null","","","","","","<div class='trialBorder'><div class='vertical-center'><img src='img/fixation2_sml.jpg'</img></div></div>","null","FIX","","","","","","","","","","",""
"html-keyboard-response","136","332035","0.0-7.0-2.20","63fac97f0d4e8f6bfd753d90","bdp_wmem","Wed Mar 15 2023 21:08:16 GMT-0700 (Pacific Daylight Time)","582059","Match,No Match","","null","","","","","","<div class='trialBorder'><div class='vertical-center'><img style='vertical-align:center; align:center' src='img/fixation2_sml.jpg'></div><div class='arrayDiv1'><div class='tc'><img class='introPic' src='trustrating_stim/white_mw078.bmp'><br><font color='red'><strong>Keep</strong></font></div></div></div>","null","ARRAY","1","trustrating_stim/white_mw078.bmp","0","Match","e","1500","","","","",""
"html-keyboard-response","137","336036","0.0-7.0-3.20","63fac97f0d4e8f6bfd753d90","bdp_wmem","Wed Mar 15 2023 21:08:16 GMT-0700 (Pacific Daylight Time)","582059","Match,No Match","","null","","","","","","<div class='trialBorder'><div class='vertical-center'><img src='img/fixation2_sml.jpg'</img></div></div>","null","DELAY","","","","","","","","","","",""
"html-keyboard-response","138","336970","0.0-7.0-4.20","63fac97f0d4e8f6bfd753d90","bdp_wmem","Wed Mar 15 2023 21:08:16 GMT-0700 (Pacific Daylight Time)","582059","Match,No Match","","933","","","","","","<div class='trialBorder'><div class='targDiv'><div class='tc'><img class='introPic' src='trustrating_stim/white_mw078.bmp'><br><font color='red'><strong>Keep</strong></font></div></div><div class='respDiv'><div class='respDivL'>Match<br>(e)</div><div class='respDivR'>No Match<br>(i)</div></div></div>","e","TARGET","1","trustrating_stim/white_mw078.bmp","0","Match","e","1500","trustrating_stim/white_mw078.bmp","red","Keep","REAL","1"
"html-keyboard-response","139","337471","0.0-7.0-5.20","63fac97f0d4e8f6bfd753d90","bdp_wmem","Wed Mar 15 2023 21:08:16 GMT-0700 (Pacific Daylight Time)","582059","Match,No Match","","null","","","","","","<div class='trialBorder'><div class='vertical-center'><img src='img/correct.jpg'></div><div class='respDiv'><div class='respDivL'><font style='color:orange'>Match<br>(e)</font></div><div class='respDivR'>No Match<br>(i)</div></div></div>","null","FEEDBACK","","","","","","","","","","",""
"html-keyboard-response","140","337972","0.0-7.0-1.21","63fac97f0d4e8f6bfd753d90","bdp_wmem","Wed Mar 15 2023 21:08:16 GMT-0700 (Pacific Daylight Time)","582059","Match,No Match","","null","","","","","","<div class='trialBorder'><div class='vertical-center'><img src='img/fixation2_sml.jpg'</img></div></div>","null","FIX","","","","","","","","","","",""
"html-keyboard-response","141","342473","0.0-7.0-2.21","63fac97f0d4e8f6bfd753d90","bdp_wmem","Wed Mar 15 2023 21:08:16 GMT-0700 (Pacific Daylight Time)","582059","Match,No Match","","null","","","","","","<div class='trialBorder'><div class='vertical-center'><img style='vertical-align:center; align:center' src='img/fixation2_sml.jpg'></div><div class='arrayDiv3'><div class='tl'><img class='introPic' src='trustrating_stim/white_mw040.bmp'><br><font color='green'><strong>Share</strong></font></div><div class='tc'><img class='introPic' src='trustrating_stim/white_mw070.bmp'><br><font color='red'><strong>Keep</strong></font></div><div class='tr'><img class='introPic' src='trustrating_stim/white_mw091.bmp'><br><font color='green'><strong>Share</strong></font></div></div></div>","null","ARRAY","3","trustrating_stim/white_mw040.bmp,trustrating_stim/white_mw070.bmp,trustrating_stim/white_mw091.bmp","1,0,1","Match","e","4500","","","","",""
"html-keyboard-response","142","346475","0.0-7.0-3.21","63fac97f0d4e8f6bfd753d90","bdp_wmem","Wed Mar 15 2023 21:08:16 GMT-0700 (Pacific Daylight Time)","582059","Match,No Match","","null","","","","","","<div class='trialBorder'><div class='vertical-center'><img src='img/fixation2_sml.jpg'</img></div></div>","null","DELAY","","","","","","","","","","",""
"html-keyboard-response","143","347909","0.0-7.0-4.21","63fac97f0d4e8f6bfd753d90","bdp_wmem","Wed Mar 15 2023 21:08:16 GMT-0700 (Pacific Daylight Time)","582059","Match,No Match","","1434","","","","","","<div class='trialBorder'><div class='targDiv'><div class='tc'><img class='introPic' src='trustrating_stim/white_mw070.bmp'><br><font color='red'><strong>Keep</strong></font></div></div><div class='respDiv'><div class='respDivL'>Match<br>(e)</div><div class='respDivR'>No Match<br>(i)</div></div></div>","e","TARGET","3","trustrating_stim/white_mw040.bmp,trustrating_stim/white_mw070.bmp,trustrating_stim/white_mw091.bmp","1,0,1","Match","e","4500","trustrating_stim/white_mw070.bmp","red","Keep","REAL","1"
"html-keyboard-response","144","348409","0.0-7.0-5.21","63fac97f0d4e8f6bfd753d90","bdp_wmem","Wed Mar 15 2023 21:08:16 GMT-0700 (Pacific Daylight Time)","582059","Match,No Match","","null","","","","","","<div class='trialBorder'><div class='vertical-center'><img src='img/correct.jpg'></div><div class='respDiv'><div class='respDivL'><font style='color:orange'>Match<br>(e)</font></div><div class='respDivR'>No Match<br>(i)</div></div></div>","null","FEEDBACK","","","","","","","","","","",""
"html-keyboard-response","145","348911","0.0-7.0-1.22","63fac97f0d4e8f6bfd753d90","bdp_wmem","Wed Mar 15 2023 21:08:16 GMT-0700 (Pacific Daylight Time)","582059","Match,No Match","","null","","","","","","<div class='trialBorder'><div class='vertical-center'><img src='img/fixation2_sml.jpg'</img></div></div>","null","FIX","","","","","","","","","","",""
"html-keyboard-response","146","350412","0.0-7.0-2.22","63fac97f0d4e8f6bfd753d90","bdp_wmem","Wed Mar 15 2023 21:08:16 GMT-0700 (Pacific Daylight Time)","582059","Match,No Match","","null","","","","","","<div class='trialBorder'><div class='vertical-center'><img style='vertical-align:center; align:center' src='img/fixation2_sml.jpg'></div><div class='arrayDiv1'><div class='tc'><img class='introPic' src='trustrating_stim/white_mw040.bmp'><br><font color='red'><strong>Keep</strong></font></div></div></div>","null","ARRAY","1","trustrating_stim/white_mw040.bmp","0","noMatchOutcome","i","1500","","","","",""
"html-keyboard-response","147","354414","0.0-7.0-3.22","63fac97f0d4e8f6bfd753d90","bdp_wmem","Wed Mar 15 2023 21:08:16 GMT-0700 (Pacific Daylight Time)","582059","Match,No Match","","null","","","","","","<div class='trialBorder'><div class='vertical-center'><img src='img/fixation2_sml.jpg'</img></div></div>","null","DELAY","","","","","","","","","","",""
"html-keyboard-response","148","355178","0.0-7.0-4.22","63fac97f0d4e8f6bfd753d90","bdp_wmem","Wed Mar 15 2023 21:08:16 GMT-0700 (Pacific Daylight Time)","582059","Match,No Match","","764","","","","","","<div class='trialBorder'><div class='targDiv'><div class='tc'><img class='introPic' src='trustrating_stim/white_mw040.bmp'><br><font color='green'><strong>Share</strong></font></div></div><div class='respDiv'><div class='respDivL'>Match<br>(e)</div><div class='respDivR'>No Match<br>(i)</div></div></div>","e","TARGET","1","trustrating_stim/white_mw040.bmp","0","noMatchOutcome","i","1500","trustrating_stim/white_mw040.bmp","green","Share","REAL","0"
"html-keyboard-response","149","355679","0.0-7.0-5.22","63fac97f0d4e8f6bfd753d90","bdp_wmem","Wed Mar 15 2023 21:08:16 GMT-0700 (Pacific Daylight Time)","582059","Match,No Match","","null","","","","","","<div class='trialBorder'><div class='vertical-center'><img src='img/error.jpg'></div><div class='respDiv'><div class='respDivL'><font style='color:orange'>Match<br>(e)</font></div><div class='respDivR'>No Match<br>(i)</div></div></div>","null","FEEDBACK","","","","","","","","","","",""
"html-keyboard-response","150","356180","0.0-7.0-1.23","63fac97f0d4e8f6bfd753d90","bdp_wmem","Wed Mar 15 2023 21:08:16 GMT-0700 (Pacific Daylight Time)","582059","Match,No Match","","null","","","","","","<div class='trialBorder'><div class='vertical-center'><img src='img/fixation2_sml.jpg'</img></div></div>","null","FIX","","","","","","","","","","",""
"html-keyboard-response","151","360682","0.0-7.0-2.23","63fac97f0d4e8f6bfd753d90","bdp_wmem","Wed Mar 15 2023 21:08:16 GMT-0700 (Pacific Daylight Time)","582059","Match,No Match","","null","","","","","","<div class='trialBorder'><div class='vertical-center'><img style='vertical-align:center; align:center' src='img/fixation2_sml.jpg'></div><div class='arrayDiv3'><div class='tl'><img class='introPic' src='trustrating_stim/white_mw078.bmp'><br><font color='green'><strong>Share</strong></font></div><div class='tc'><img class='introPic' src='trustrating_stim/white_mw013.bmp'><br><font color='red'><strong>Keep</strong></font></div><div class='tr'><img class='introPic' src='trustrating_stim/white_mw070.bmp'><br><font color='red'><strong>Keep</strong></font></div></div></div>","null","ARRAY","3","trustrating_stim/white_mw078.bmp,trustrating_stim/white_mw013.bmp,trustrating_stim/white_mw070.bmp","1,0,0","noMatchFace","i","4500","","","","",""
"html-keyboard-response","152","364683","0.0-7.0-3.23","63fac97f0d4e8f6bfd753d90","bdp_wmem","Wed Mar 15 2023 21:08:16 GMT-0700 (Pacific Daylight Time)","582059","Match,No Match","","null","","","","","","<div class='trialBorder'><div class='vertical-center'><img src='img/fixation2_sml.jpg'</img></div></div>","null","DELAY","","","","","","","","","","",""
"html-keyboard-response","153","365586","0.0-7.0-4.23","63fac97f0d4e8f6bfd753d90","bdp_wmem","Wed Mar 15 2023 21:08:16 GMT-0700 (Pacific Daylight Time)","582059","Match,No Match","","902","","","","","","<div class='trialBorder'><div class='targDiv'><div class='tc'><img class='introPic' src='trustrating_stim/white_mw085.bmp'><br><font color='green'><strong>Share</strong></font></div></div><div class='respDiv'><div class='respDivL'>Match<br>(e)</div><div class='respDivR'>No Match<br>(i)</div></div></div>","i","TARGET","3","trustrating_stim/white_mw078.bmp,trustrating_stim/white_mw013.bmp,trustrating_stim/white_mw070.bmp","1,0,0","noMatchFace","i","4500","trustrating_stim/white_mw085.bmp","green","Share","REAL","1"
"html-keyboard-response","154","366087","0.0-7.0-5.23","63fac97f0d4e8f6bfd753d90","bdp_wmem","Wed Mar 15 2023 21:08:16 GMT-0700 (Pacific Daylight Time)","582059","Match,No Match","","null","","","","","","<div class='trialBorder'><div class='vertical-center'><img src='img/correct.jpg'></div><div class='respDiv'><div class='respDivL'>Match<br>(e)</div><div class='respDivR'><font style='color:orange'>No Match<br>(i)</font></div></div></div>","null","FEEDBACK","","","","","","","","","","",""
"html-keyboard-response","155","366588","0.0-7.0-1.24","63fac97f0d4e8f6bfd753d90","bdp_wmem","Wed Mar 15 2023 21:08:16 GMT-0700 (Pacific Daylight Time)","582059","Match,No Match","","null","","","","","","<div class='trialBorder'><div class='vertical-center'><img src='img/fixation2_sml.jpg'</img></div></div>","null","FIX","","","","","","","","","","",""
"html-keyboard-response","156","369590","0.0-7.0-2.24","63fac97f0d4e8f6bfd753d90","bdp_wmem","Wed Mar 15 2023 21:08:16 GMT-0700 (Pacific Daylight Time)","582059","Match,No Match","","null","","","","","","<div class='trialBorder'><div class='vertical-center'><img style='vertical-align:center; align:center' src='img/fixation2_sml.jpg'></div><div class='arrayDiv2'><div class='tl'><img class='introPic' src='trustrating_stim/white_mw070.bmp'><br><font color='green'><strong>Share</strong></font></div><div class='tr'><img class='introPic' src='trustrating_stim/white_mw040.bmp'><br><font color='red'><strong>Keep</strong></font></div></div></div>","null","ARRAY","2","trustrating_stim/white_mw070.bmp,trustrating_stim/white_mw040.bmp","1,0","noMatchOutcome","i","3000","","","","",""
"html-keyboard-response","157","373592","0.0-7.0-3.24","63fac97f0d4e8f6bfd753d90","bdp_wmem","Wed Mar 15 2023 21:08:16 GMT-0700 (Pacific Daylight Time)","582059","Match,No Match","","null","","","","","","<div class='trialBorder'><div class='vertical-center'><img src='img/fixation2_sml.jpg'</img></div></div>","null","DELAY","","","","","","","","","","",""
"html-keyboard-response","158","374814","0.0-7.0-4.24","63fac97f0d4e8f6bfd753d90","bdp_wmem","Wed Mar 15 2023 21:08:16 GMT-0700 (Pacific Daylight Time)","582059","Match,No Match","","1222","","","","","","<div class='trialBorder'><div class='targDiv'><div class='tc'><img class='introPic' src='trustrating_stim/white_mw040.bmp'><br><font color='green'><strong>Share</strong></font></div></div><div class='respDiv'><div class='respDivL'>Match<br>(e)</div><div class='respDivR'>No Match<br>(i)</div></div></div>","i","TARGET","2","trustrating_stim/white_mw070.bmp,trustrating_stim/white_mw040.bmp","1,0","noMatchOutcome","i","3000","trustrating_stim/white_mw040.bmp","green","Share","REAL","1"
"html-keyboard-response","159","375315","0.0-7.0-5.24","63fac97f0d4e8f6bfd753d90","bdp_wmem","Wed Mar 15 2023 21:08:16 GMT-0700 (Pacific Daylight Time)","582059","Match,No Match","","null","","","","","","<div class='trialBorder'><div class='vertical-center'><img src='img/correct.jpg'></div><div class='respDiv'><div class='respDivL'>Match<br>(e)</div><div class='respDivR'><font style='color:orange'>No Match<br>(i)</font></div></div></div>","null","FEEDBACK","","","","","","","","","","",""
"html-keyboard-response","160","375816","0.0-7.0-1.25","63fac97f0d4e8f6bfd753d90","bdp_wmem","Wed Mar 15 2023 21:08:16 GMT-0700 (Pacific Daylight Time)","582059","Match,No Match","","null","","","","","","<div class='trialBorder'><div class='vertical-center'><img src='img/fixation2_sml.jpg'</img></div></div>","null","FIX","","","","","","","","","","",""
"html-keyboard-response","161","380318","0.0-7.0-2.25","63fac97f0d4e8f6bfd753d90","bdp_wmem","Wed Mar 15 2023 21:08:16 GMT-0700 (Pacific Daylight Time)","582059","Match,No Match","","null","","","","","","<div class='trialBorder'><div class='vertical-center'><img style='vertical-align:center; align:center' src='img/fixation2_sml.jpg'></div><div class='arrayDiv3'><div class='tl'><img class='introPic' src='trustrating_stim/white_mw010.bmp'><br><font color='green'><strong>Share</strong></font></div><div class='tc'><img class='introPic' src='trustrating_stim/white_mw040.bmp'><br><font color='red'><strong>Keep</strong></font></div><div class='tr'><img class='introPic' src='trustrating_stim/white_mw038.bmp'><br><font color='red'><strong>Keep</strong></font></div></div></div>","null","ARRAY","3","trustrating_stim/white_mw010.bmp,trustrating_stim/white_mw040.bmp,trustrating_stim/white_mw038.bmp","1,0,0","noMatchOutcome","i","4500","","","","",""
"html-keyboard-response","162","384320","0.0-7.0-3.25","63fac97f0d4e8f6bfd753d90","bdp_wmem","Wed Mar 15 2023 21:08:16 GMT-0700 (Pacific Daylight Time)","582059","Match,No Match","","null","","","","","","<div class='trialBorder'><div class='vertical-center'><img src='img/fixation2_sml.jpg'</img></div></div>","null","DELAY","","","","","","","","","","",""
"html-keyboard-response","163","385274","0.0-7.0-4.25","63fac97f0d4e8f6bfd753d90","bdp_wmem","Wed Mar 15 2023 21:08:16 GMT-0700 (Pacific Daylight Time)","582059","Match,No Match","","953","","","","","","<div class='trialBorder'><div class='targDiv'><div class='tc'><img class='introPic' src='trustrating_stim/white_mw010.bmp'><br><font color='red'><strong>Keep</strong></font></div></div><div class='respDiv'><div class='respDivL'>Match<br>(e)</div><div class='respDivR'>No Match<br>(i)</div></div></div>","i","TARGET","3","trustrating_stim/white_mw010.bmp,trustrating_stim/white_mw040.bmp,trustrating_stim/white_mw038.bmp","1,0,0","noMatchOutcome","i","4500","trustrating_stim/white_mw010.bmp","red","Keep","REAL","1"
"html-keyboard-response","164","385775","0.0-7.0-5.25","63fac97f0d4e8f6bfd753d90","bdp_wmem","Wed Mar 15 2023 21:08:16 GMT-0700 (Pacific Daylight Time)","582059","Match,No Match","","null","","","","","","<div class='trialBorder'><div class='vertical-center'><img src='img/correct.jpg'></div><div class='respDiv'><div class='respDivL'>Match<br>(e)</div><div class='respDivR'><font style='color:orange'>No Match<br>(i)</font></div></div></div>","null","FEEDBACK","","","","","","","","","","",""
"html-keyboard-response","165","386277","0.0-7.0-1.26","63fac97f0d4e8f6bfd753d90","bdp_wmem","Wed Mar 15 2023 21:08:16 GMT-0700 (Pacific Daylight Time)","582059","Match,No Match","","null","","","","","","<div class='trialBorder'><div class='vertical-center'><img src='img/fixation2_sml.jpg'</img></div></div>","null","FIX","","","","","","","","","","",""
"html-keyboard-response","166","389278","0.0-7.0-2.26","63fac97f0d4e8f6bfd753d90","bdp_wmem","Wed Mar 15 2023 21:08:16 GMT-0700 (Pacific Daylight Time)","582059","Match,No Match","","null","","","","","","<div class='trialBorder'><div class='vertical-center'><img style='vertical-align:center; align:center' src='img/fixation2_sml.jpg'></div><div class='arrayDiv2'><div class='tl'><img class='introPic' src='trustrating_stim/white_mw085.bmp'><br><font color='red'><strong>Keep</strong></font></div><div class='tr'><img class='introPic' src='trustrating_stim/white_mw042.bmp'><br><font color='green'><strong>Share</strong></font></div></div></div>","null","ARRAY","2","trustrating_stim/white_mw085.bmp,trustrating_stim/white_mw042.bmp","0,1","noMatchOutcome","i","3000","","","","",""
"html-keyboard-response","167","393280","0.0-7.0-3.26","63fac97f0d4e8f6bfd753d90","bdp_wmem","Wed Mar 15 2023 21:08:16 GMT-0700 (Pacific Daylight Time)","582059","Match,No Match","","null","","","","","","<div class='trialBorder'><div class='vertical-center'><img src='img/fixation2_sml.jpg'</img></div></div>","null","DELAY","","","","","","","","","","",""
"html-keyboard-response","168","394432","0.0-7.0-4.26","63fac97f0d4e8f6bfd753d90","bdp_wmem","Wed Mar 15 2023 21:08:16 GMT-0700 (Pacific Daylight Time)","582059","Match,No Match","","1151","","","","","","<div class='trialBorder'><div class='targDiv'><div class='tc'><img class='introPic' src='trustrating_stim/white_mw042.bmp'><br><font color='red'><strong>Keep</strong></font></div></div><div class='respDiv'><div class='respDivL'>Match<br>(e)</div><div class='respDivR'>No Match<br>(i)</div></div></div>","i","TARGET","2","trustrating_stim/white_mw085.bmp,trustrating_stim/white_mw042.bmp","0,1","noMatchOutcome","i","3000","trustrating_stim/white_mw042.bmp","red","Keep","REAL","1"
"html-keyboard-response","169","394933","0.0-7.0-5.26","63fac97f0d4e8f6bfd753d90","bdp_wmem","Wed Mar 15 2023 21:08:16 GMT-0700 (Pacific Daylight Time)","582059","Match,No Match","","null","","","","","","<div class='trialBorder'><div class='vertical-center'><img src='img/correct.jpg'></div><div class='respDiv'><div class='respDivL'>Match<br>(e)</div><div class='respDivR'><font style='color:orange'>No Match<br>(i)</font></div></div></div>","null","FEEDBACK","","","","","","","","","","",""
"html-keyboard-response","170","395435","0.0-7.0-1.27","63fac97f0d4e8f6bfd753d90","bdp_wmem","Wed Mar 15 2023 21:08:16 GMT-0700 (Pacific Daylight Time)","582059","Match,No Match","","null","","","","","","<div class='trialBorder'><div class='vertical-center'><img src='img/fixation2_sml.jpg'</img></div></div>","null","FIX","","","","","","","","","","",""
"html-keyboard-response","171","398437","0.0-7.0-2.27","63fac97f0d4e8f6bfd753d90","bdp_wmem","Wed Mar 15 2023 21:08:16 GMT-0700 (Pacific Daylight Time)","582059","Match,No Match","","null","","","","","","<div class='trialBorder'><div class='vertical-center'><img style='vertical-align:center; align:center' src='img/fixation2_sml.jpg'></div><div class='arrayDiv2'><div class='tl'><img class='introPic' src='trustrating_stim/white_mw042.bmp'><br><font color='red'><strong>Keep</strong></font></div><div class='tr'><img class='introPic' src='trustrating_stim/white_mw085.bmp'><br><font color='green'><strong>Share</strong></font></div></div></div>","null","ARRAY","2","trustrating_stim/white_mw042.bmp,trustrating_stim/white_mw085.bmp","0,1","Match","e","3000","","","","",""
"html-keyboard-response","172","402438","0.0-7.0-3.27","63fac97f0d4e8f6bfd753d90","bdp_wmem","Wed Mar 15 2023 21:08:16 GMT-0700 (Pacific Daylight Time)","582059","Match,No Match","","null","","","","","","<div class='trialBorder'><div class='vertical-center'><img src='img/fixation2_sml.jpg'</img></div></div>","null","DELAY","","","","","","","","","","",""
"html-keyboard-response","173","402921","0.0-7.0-4.27","63fac97f0d4e8f6bfd753d90","bdp_wmem","Wed Mar 15 2023 21:08:16 GMT-0700 (Pacific Daylight Time)","582059","Match,No Match","","482","","","","","","<div class='trialBorder'><div class='targDiv'><div class='tc'><img class='introPic' src='trustrating_stim/white_mw085.bmp'><br><font color='green'><strong>Share</strong></font></div></div><div class='respDiv'><div class='respDivL'>Match<br>(e)</div><div class='respDivR'>No Match<br>(i)</div></div></div>","e","TARGET","2","trustrating_stim/white_mw042.bmp,trustrating_stim/white_mw085.bmp","0,1","Match","e","3000","trustrating_stim/white_mw085.bmp","green","Share","REAL","1"
"html-keyboard-response","174","403422","0.0-7.0-5.27","63fac97f0d4e8f6bfd753d90","bdp_wmem","Wed Mar 15 2023 21:08:16 GMT-0700 (Pacific Daylight Time)","582059","Match,No Match","","null","","","","","","<div class='trialBorder'><div class='vertical-center'><img src='img/correct.jpg'></div><div class='respDiv'><div class='respDivL'><font style='color:orange'>Match<br>(e)</font></div><div class='respDivR'>No Match<br>(i)</div></div></div>","null","FEEDBACK","","","","","","","","","","",""
"html-keyboard-response","175","403923","0.0-7.0-1.28","63fac97f0d4e8f6bfd753d90","bdp_wmem","Wed Mar 15 2023 21:08:16 GMT-0700 (Pacific Daylight Time)","582059","Match,No Match","","null","","","","","","<div class='trialBorder'><div class='vertical-center'><img src='img/fixation2_sml.jpg'</img></div></div>","null","FIX","","","","","","","","","","",""
"html-keyboard-response","176","406925","0.0-7.0-2.28","63fac97f0d4e8f6bfd753d90","bdp_wmem","Wed Mar 15 2023 21:08:16 GMT-0700 (Pacific Daylight Time)","582059","Match,No Match","","null","","","","","","<div class='trialBorder'><div class='vertical-center'><img style='vertical-align:center; align:center' src='img/fixation2_sml.jpg'></div><div class='arrayDiv2'><div class='tl'><img class='introPic' src='trustrating_stim/white_mw085.bmp'><br><font color='red'><strong>Keep</strong></font></div><div class='tr'><img class='introPic' src='trustrating_stim/white_mw003.bmp'><br><font color='green'><strong>Share</strong></font></div></div></div>","null","ARRAY","2","trustrating_stim/white_mw085.bmp,trustrating_stim/white_mw003.bmp","0,1","noMatchOutcome","i","3000","","","","",""
"html-keyboard-response","177","410925","0.0-7.0-3.28","63fac97f0d4e8f6bfd753d90","bdp_wmem","Wed Mar 15 2023 21:08:16 GMT-0700 (Pacific Daylight Time)","582059","Match,No Match","","null","","","","","","<div class='trialBorder'><div class='vertical-center'><img src='img/fixation2_sml.jpg'</img></div></div>","null","DELAY","","","","","","","","","","",""
"html-keyboard-response","178","411890","0.0-7.0-4.28","63fac97f0d4e8f6bfd753d90","bdp_wmem","Wed Mar 15 2023 21:08:16 GMT-0700 (Pacific Daylight Time)","582059","Match,No Match","","964","","","","","","<div class='trialBorder'><div class='targDiv'><div class='tc'><img class='introPic' src='trustrating_stim/white_mw085.bmp'><br><font color='green'><strong>Share</strong></font></div></div><div class='respDiv'><div class='respDivL'>Match<br>(e)</div><div class='respDivR'>No Match<br>(i)</div></div></div>","i","TARGET","2","trustrating_stim/white_mw085.bmp,trustrating_stim/white_mw003.bmp","0,1","noMatchOutcome","i","3000","trustrating_stim/white_mw085.bmp","green","Share","REAL","1"
"html-keyboard-response","179","412391","0.0-7.0-5.28","63fac97f0d4e8f6bfd753d90","bdp_wmem","Wed Mar 15 2023 21:08:16 GMT-0700 (Pacific Daylight Time)","582059","Match,No Match","","null","","","","","","<div class='trialBorder'><div class='vertical-center'><img src='img/correct.jpg'></div><div class='respDiv'><div class='respDivL'>Match<br>(e)</div><div class='respDivR'><font style='color:orange'>No Match<br>(i)</font></div></div></div>","null","FEEDBACK","","","","","","","","","","",""
"html-keyboard-response","180","412893","0.0-7.0-1.29","63fac97f0d4e8f6bfd753d90","bdp_wmem","Wed Mar 15 2023 21:08:16 GMT-0700 (Pacific Daylight Time)","582059","Match,No Match","","null","","","","","","<div class='trialBorder'><div class='vertical-center'><img src='img/fixation2_sml.jpg'</img></div></div>","null","FIX","","","","","","","","","","",""
"html-keyboard-response","181","415895","0.0-7.0-2.29","63fac97f0d4e8f6bfd753d90","bdp_wmem","Wed Mar 15 2023 21:08:16 GMT-0700 (Pacific Daylight Time)","582059","Match,No Match","","null","","","","","","<div class='trialBorder'><div class='vertical-center'><img style='vertical-align:center; align:center' src='img/fixation2_sml.jpg'></div><div class='arrayDiv2'><div class='tl'><img class='introPic' src='trustrating_stim/white_mw040.bmp'><br><font color='red'><strong>Keep</strong></font></div><div class='tr'><img class='introPic' src='trustrating_stim/white_mw038.bmp'><br><font color='green'><strong>Share</strong></font></div></div></div>","null","ARRAY","2","trustrating_stim/white_mw040.bmp,trustrating_stim/white_mw038.bmp","0,1","Match","e","3000","","","","",""
"html-keyboard-response","182","419896","0.0-7.0-3.29","63fac97f0d4e8f6bfd753d90","bdp_wmem","Wed Mar 15 2023 21:08:16 GMT-0700 (Pacific Daylight Time)","582059","Match,No Match","","null","","","","","","<div class='trialBorder'><div class='vertical-center'><img src='img/fixation2_sml.jpg'</img></div></div>","null","DELAY","","","","","","","","","","",""
"html-keyboard-response","183","421239","0.0-7.0-4.29","63fac97f0d4e8f6bfd753d90","bdp_wmem","Wed Mar 15 2023 21:08:16 GMT-0700 (Pacific Daylight Time)","582059","Match,No Match","","1342","","","","","","<div class='trialBorder'><div class='targDiv'><div class='tc'><img class='introPic' src='trustrating_stim/white_mw040.bmp'><br><font color='red'><strong>Keep</strong></font></div></div><div class='respDiv'><div class='respDivL'>Match<br>(e)</div><div class='respDivR'>No Match<br>(i)</div></div></div>","e","TARGET","2","trustrating_stim/white_mw040.bmp,trustrating_stim/white_mw038.bmp","0,1","Match","e","3000","trustrating_stim/white_mw040.bmp","red","Keep","REAL","1"
"html-keyboard-response","184","421739","0.0-7.0-5.29","63fac97f0d4e8f6bfd753d90","bdp_wmem","Wed Mar 15 2023 21:08:16 GMT-0700 (Pacific Daylight Time)","582059","Match,No Match","","null","","","","","","<div class='trialBorder'><div class='vertical-center'><img src='img/correct.jpg'></div><div class='respDiv'><div class='respDivL'><font style='color:orange'>Match<br>(e)</font></div><div class='respDivR'>No Match<br>(i)</div></div></div>","null","FEEDBACK","","","","","","","","","","",""
"html-keyboard-response","185","422241","0.0-7.0-1.30","63fac97f0d4e8f6bfd753d90","bdp_wmem","Wed Mar 15 2023 21:08:16 GMT-0700 (Pacific Daylight Time)","582059","Match,No Match","","null","","","","","","<div class='trialBorder'><div class='vertical-center'><img src='img/fixation2_sml.jpg'</img></div></div>","null","FIX","","","","","","","","","","",""
"html-keyboard-response","186","426743","0.0-7.0-2.30","63fac97f0d4e8f6bfd753d90","bdp_wmem","Wed Mar 15 2023 21:08:16 GMT-0700 (Pacific Daylight Time)","582059","Match,No Match","","null","","","","","","<div class='trialBorder'><div class='vertical-center'><img style='vertical-align:center; align:center' src='img/fixation2_sml.jpg'></div><div class='arrayDiv3'><div class='tl'><img class='introPic' src='trustrating_stim/white_mw042.bmp'><br><font color='red'><strong>Keep</strong></font></div><div class='tc'><img class='introPic' src='trustrating_stim/white_mw070.bmp'><br><font color='red'><strong>Keep</strong></font></div><div class='tr'><img class='introPic' src='trustrating_stim/white_mw040.bmp'><br><font color='green'><strong>Share</strong></font></div></div></div>","null","ARRAY","3","trustrating_stim/white_mw042.bmp,trustrating_stim/white_mw070.bmp,trustrating_stim/white_mw040.bmp","0,0,1","Match","e","4500","","","","",""
