"trial_type","trial_index","time_elapsed","internal_node_id","subject_id","task","startTime","totalTime","labels","view_history","rt","event","trial","time","trialtype","success","stimulus","key_press","stimType","arraySize","arrayFaces","arrayOutcomes","matchType","corrResp","arrayDur","targFace","targCol","targOutcome","trialType","corr"
"pavlovia","0","3","0.0-0.0","63d1401242635aaffe867c4c","bdp_wmem","Mon Mar 13 2023 12:16:48 GMT-0700 (Mountain Standard Time)","601013","Match,No Match","","","","","","","","","","","","","","","","","","","","",""
"instructions","1","7258","0.0-1.0","63d1401242635aaffe867c4c","bdp_wmem","Mon Mar 13 2023 12:16:48 GMT-0700 (Mountain Standard Time)","601013","Match,No Match","[{""page_index"":0,""viewing_time"":7255}]","7255","","","","","","","","","","","","","","","","","","",""
"","","","","63d1401242635aaffe867c4c","bdp_wmem","Mon Mar 13 2023 12:16:48 GMT-0700 (Mountain Standard Time)","601013","Match,No Match","","","fullscreenenter","2","10339","fullscreenenter","","","","","","","","","","","","","","",""
"fullscreen","2","11335","0.0-2.0","63d1401242635aaffe867c4c","bdp_wmem","Mon Mar 13 2023 12:16:48 GMT-0700 (Mountain Standard Time)","601013","Match,No Match","","","","","","","true","","","","","","","","","","","","","",""
"instructions","3","88745","0.0-4.0","63d1401242635aaffe867c4c","bdp_wmem","Mon Mar 13 2023 12:16:48 GMT-0700 (Mountain Standard Time)","601013","Match,No Match","[{""page_index"":0,""viewing_time"":22771},{""page_index"":1,""viewing_time"":25046},{""page_index"":2,""viewing_time"":15335},{""page_index"":3,""viewing_time"":4354},{""page_index"":4,""viewing_time"":9903}]","77409","","","","","","","","","","","","","","","","","","",""
"html-keyboard-response","4","89247","0.0-5.0-1.0","63d1401242635aaffe867c4c","bdp_wmem","Mon Mar 13 2023 12:16:48 GMT-0700 (Mountain Standard Time)","601013","Match,No Match","","null","","","","","","<div class='trialBorder'><div class='vertical-center'><img src='img/fixation2_sml.jpg'</img></div></div>","null","FIX","","","","","","","","","","",""
"html-keyboard-response","5","92249","0.0-5.0-2.0","63d1401242635aaffe867c4c","bdp_wmem","Mon Mar 13 2023 12:16:48 GMT-0700 (Mountain Standard Time)","601013","Match,No Match","","null","","","","","","<div class='trialBorder'><div class='vertical-center'><img style='vertical-align:center; align:center' src='img/fixation2_sml.jpg'></div><div class='arrayDiv2'><div class='tl'><img class='introPic' src='trustrating_stim/white_mw013.bmp'><br><font color='red'><strong>Keep</strong></font></div><div class='tr'><img class='introPic' src='trustrating_stim/white_mw012.bmp'><br><font color='green'><strong>Share</strong></font></div></div></div>","null","ARRAY","2","trustrating_stim/white_mw013.bmp,trustrating_stim/white_mw012.bmp","0,1","Match","e","3000","","","","",""
"html-keyboard-response","6","96250","0.0-5.0-3.0","63d1401242635aaffe867c4c","bdp_wmem","Mon Mar 13 2023 12:16:48 GMT-0700 (Mountain Standard Time)","601013","Match,No Match","","null","","","","","","<div class='trialBorder'><div class='vertical-center'><img src='img/fixation2_sml.jpg'</img></div></div>","null","DELAY","","","","","","","","","","",""
"html-keyboard-response","7","98643","0.0-5.0-4.0","63d1401242635aaffe867c4c","bdp_wmem","Mon Mar 13 2023 12:16:48 GMT-0700 (Mountain Standard Time)","601013","Match,No Match","","2392","","","","","","<div class='trialBorder'><div class='targDiv'><div class='tc'><img class='introPic' src='trustrating_stim/white_mw012.bmp'><br><font color='green'><strong>Share</strong></font></div></div><div class='respDiv'><div class='respDivL'>Match<br>(e)</div><div class='respDivR'>No Match<br>(i)</div></div></div>","e","TARGET","2","trustrating_stim/white_mw013.bmp,trustrating_stim/white_mw012.bmp","0,1","Match","e","3000","trustrating_stim/white_mw012.bmp","green","Share","PRACTICE","1"
"html-keyboard-response","8","99145","0.0-5.0-5.0","63d1401242635aaffe867c4c","bdp_wmem","Mon Mar 13 2023 12:16:48 GMT-0700 (Mountain Standard Time)","601013","Match,No Match","","null","","","","","","<div class='trialBorder'><div class='vertical-center'><img src='img/correct.jpg'></div><div class='respDiv'><div class='respDivL'><font style='color:orange'>Match<br>(e)</font></div><div class='respDivR'>No Match<br>(i)</div></div></div>","null","FEEDBACK","","","","","","","","","","",""
"html-keyboard-response","9","99646","0.0-5.0-1.1","63d1401242635aaffe867c4c","bdp_wmem","Mon Mar 13 2023 12:16:48 GMT-0700 (Mountain Standard Time)","601013","Match,No Match","","null","","","","","","<div class='trialBorder'><div class='vertical-center'><img src='img/fixation2_sml.jpg'</img></div></div>","null","FIX","","","","","","","","","","",""
"html-keyboard-response","10","104148","0.0-5.0-2.1","63d1401242635aaffe867c4c","bdp_wmem","Mon Mar 13 2023 12:16:48 GMT-0700 (Mountain Standard Time)","601013","Match,No Match","","null","","","","","","<div class='trialBorder'><div class='vertical-center'><img style='vertical-align:center; align:center' src='img/fixation2_sml.jpg'></div><div class='arrayDiv3'><div class='tl'><img class='introPic' src='trustrating_stim/white_mw013.bmp'><br><font color='green'><strong>Share</strong></font></div><div class='tc'><img class='introPic' src='trustrating_stim/white_mw070.bmp'><br><font color='red'><strong>Keep</strong></font></div><div class='tr'><img class='introPic' src='trustrating_stim/white_mw092.bmp'><br><font color='red'><strong>Keep</strong></font></div></div></div>","null","ARRAY","3","trustrating_stim/white_mw013.bmp,trustrating_stim/white_mw070.bmp,trustrating_stim/white_mw092.bmp","1,0,0","Match","e","4500","","","","",""
"html-keyboard-response","11","108149","0.0-5.0-3.1","63d1401242635aaffe867c4c","bdp_wmem","Mon Mar 13 2023 12:16:48 GMT-0700 (Mountain Standard Time)","601013","Match,No Match","","null","","","","","","<div class='trialBorder'><div class='vertical-center'><img src='img/fixation2_sml.jpg'</img></div></div>","null","DELAY","","","","","","","","","","",""
"html-keyboard-response","12","110091","0.0-5.0-4.1","63d1401242635aaffe867c4c","bdp_wmem","Mon Mar 13 2023 12:16:48 GMT-0700 (Mountain Standard Time)","601013","Match,No Match","","1941","","","","","","<div class='trialBorder'><div class='targDiv'><div class='tc'><img class='introPic' src='trustrating_stim/white_mw070.bmp'><br><font color='red'><strong>Keep</strong></font></div></div><div class='respDiv'><div class='respDivL'>Match<br>(e)</div><div class='respDivR'>No Match<br>(i)</div></div></div>","e","TARGET","3","trustrating_stim/white_mw013.bmp,trustrating_stim/white_mw070.bmp,trustrating_stim/white_mw092.bmp","1,0,0","Match","e","4500","trustrating_stim/white_mw070.bmp","red","Keep","PRACTICE","1"
"html-keyboard-response","13","110593","0.0-5.0-5.1","63d1401242635aaffe867c4c","bdp_wmem","Mon Mar 13 2023 12:16:48 GMT-0700 (Mountain Standard Time)","601013","Match,No Match","","null","","","","","","<div class='trialBorder'><div class='vertical-center'><img src='img/correct.jpg'></div><div class='respDiv'><div class='respDivL'><font style='color:orange'>Match<br>(e)</font></div><div class='respDivR'>No Match<br>(i)</div></div></div>","null","FEEDBACK","","","","","","","","","","",""
"html-keyboard-response","14","111094","0.0-5.0-1.2","63d1401242635aaffe867c4c","bdp_wmem","Mon Mar 13 2023 12:16:48 GMT-0700 (Mountain Standard Time)","601013","Match,No Match","","null","","","","","","<div class='trialBorder'><div class='vertical-center'><img src='img/fixation2_sml.jpg'</img></div></div>","null","FIX","","","","","","","","","","",""
"html-keyboard-response","15","114095","0.0-5.0-2.2","63d1401242635aaffe867c4c","bdp_wmem","Mon Mar 13 2023 12:16:48 GMT-0700 (Mountain Standard Time)","601013","Match,No Match","","null","","","","","","<div class='trialBorder'><div class='vertical-center'><img style='vertical-align:center; align:center' src='img/fixation2_sml.jpg'></div><div class='arrayDiv2'><div class='tl'><img class='introPic' src='trustrating_stim/white_mw092.bmp'><br><font color='green'><strong>Share</strong></font></div><div class='tr'><img class='introPic' src='trustrating_stim/white_mw085.bmp'><br><font color='red'><strong>Keep</strong></font></div></div></div>","null","ARRAY","2","trustrating_stim/white_mw092.bmp,trustrating_stim/white_mw085.bmp","1,0","noMatchFace","i","3000","","","","",""
"html-keyboard-response","16","118096","0.0-5.0-3.2","63d1401242635aaffe867c4c","bdp_wmem","Mon Mar 13 2023 12:16:48 GMT-0700 (Mountain Standard Time)","601013","Match,No Match","","null","","","","","","<div class='trialBorder'><div class='vertical-center'><img src='img/fixation2_sml.jpg'</img></div></div>","null","DELAY","","","","","","","","","","",""
"html-keyboard-response","17","120635","0.0-5.0-4.2","63d1401242635aaffe867c4c","bdp_wmem","Mon Mar 13 2023 12:16:48 GMT-0700 (Mountain Standard Time)","601013","Match,No Match","","2538","","","","","","<div class='trialBorder'><div class='targDiv'><div class='tc'><img class='introPic' src='trustrating_stim/white_mw013.bmp'><br><font color='green'><strong>Share</strong></font></div></div><div class='respDiv'><div class='respDivL'>Match<br>(e)</div><div class='respDivR'>No Match<br>(i)</div></div></div>","i","TARGET","2","trustrating_stim/white_mw092.bmp,trustrating_stim/white_mw085.bmp","1,0","noMatchFace","i","3000","trustrating_stim/white_mw013.bmp","green","Share","PRACTICE","1"
"html-keyboard-response","18","121136","0.0-5.0-5.2","63d1401242635aaffe867c4c","bdp_wmem","Mon Mar 13 2023 12:16:48 GMT-0700 (Mountain Standard Time)","601013","Match,No Match","","null","","","","","","<div class='trialBorder'><div class='vertical-center'><img src='img/correct.jpg'></div><div class='respDiv'><div class='respDivL'>Match<br>(e)</div><div class='respDivR'><font style='color:orange'>No Match<br>(i)</font></div></div></div>","null","FEEDBACK","","","","","","","","","","",""
"html-keyboard-response","19","121636","0.0-5.0-1.3","63d1401242635aaffe867c4c","bdp_wmem","Mon Mar 13 2023 12:16:48 GMT-0700 (Mountain Standard Time)","601013","Match,No Match","","null","","","","","","<div class='trialBorder'><div class='vertical-center'><img src='img/fixation2_sml.jpg'</img></div></div>","null","FIX","","","","","","","","","","",""
"html-keyboard-response","20","123138","0.0-5.0-2.3","63d1401242635aaffe867c4c","bdp_wmem","Mon Mar 13 2023 12:16:48 GMT-0700 (Mountain Standard Time)","601013","Match,No Match","","null","","","","","","<div class='trialBorder'><div class='vertical-center'><img style='vertical-align:center; align:center' src='img/fixation2_sml.jpg'></div><div class='arrayDiv1'><div class='tc'><img class='introPic' src='trustrating_stim/white_mw010.bmp'><br><font color='red'><strong>Keep</strong></font></div></div></div>","null","ARRAY","1","trustrating_stim/white_mw010.bmp","0","Match","e","1500","","","","",""
"html-keyboard-response","21","127140","0.0-5.0-3.3","63d1401242635aaffe867c4c","bdp_wmem","Mon Mar 13 2023 12:16:48 GMT-0700 (Mountain Standard Time)","601013","Match,No Match","","null","","","","","","<div class='trialBorder'><div class='vertical-center'><img src='img/fixation2_sml.jpg'</img></div></div>","null","DELAY","","","","","","","","","","",""
"html-keyboard-response","22","128402","0.0-5.0-4.3","63d1401242635aaffe867c4c","bdp_wmem","Mon Mar 13 2023 12:16:48 GMT-0700 (Mountain Standard Time)","601013","Match,No Match","","1262","","","","","","<div class='trialBorder'><div class='targDiv'><div class='tc'><img class='introPic' src='trustrating_stim/white_mw010.bmp'><br><font color='red'><strong>Keep</strong></font></div></div><div class='respDiv'><div class='respDivL'>Match<br>(e)</div><div class='respDivR'>No Match<br>(i)</div></div></div>","e","TARGET","1","trustrating_stim/white_mw010.bmp","0","Match","e","1500","trustrating_stim/white_mw010.bmp","red","Keep","PRACTICE","1"
"html-keyboard-response","23","128903","0.0-5.0-5.3","63d1401242635aaffe867c4c","bdp_wmem","Mon Mar 13 2023 12:16:48 GMT-0700 (Mountain Standard Time)","601013","Match,No Match","","null","","","","","","<div class='trialBorder'><div class='vertical-center'><img src='img/correct.jpg'></div><div class='respDiv'><div class='respDivL'><font style='color:orange'>Match<br>(e)</font></div><div class='respDivR'>No Match<br>(i)</div></div></div>","null","FEEDBACK","","","","","","","","","","",""
"html-keyboard-response","24","129405","0.0-5.0-1.4","63d1401242635aaffe867c4c","bdp_wmem","Mon Mar 13 2023 12:16:48 GMT-0700 (Mountain Standard Time)","601013","Match,No Match","","null","","","","","","<div class='trialBorder'><div class='vertical-center'><img src='img/fixation2_sml.jpg'</img></div></div>","null","FIX","","","","","","","","","","",""
"html-keyboard-response","25","130907","0.0-5.0-2.4","63d1401242635aaffe867c4c","bdp_wmem","Mon Mar 13 2023 12:16:48 GMT-0700 (Mountain Standard Time)","601013","Match,No Match","","null","","","","","","<div class='trialBorder'><div class='vertical-center'><img style='vertical-align:center; align:center' src='img/fixation2_sml.jpg'></div><div class='arrayDiv1'><div class='tc'><img class='introPic' src='trustrating_stim/white_mw010.bmp'><br><font color='red'><strong>Keep</strong></font></div></div></div>","null","ARRAY","1","trustrating_stim/white_mw010.bmp","0","noMatchFace","i","1500","","","","",""
"html-keyboard-response","26","134908","0.0-5.0-3.4","63d1401242635aaffe867c4c","bdp_wmem","Mon Mar 13 2023 12:16:48 GMT-0700 (Mountain Standard Time)","601013","Match,No Match","","null","","","","","","<div class='trialBorder'><div class='vertical-center'><img src='img/fixation2_sml.jpg'</img></div></div>","null","DELAY","","","","","","","","","","",""
"html-keyboard-response","27","136012","0.0-5.0-4.4","63d1401242635aaffe867c4c","bdp_wmem","Mon Mar 13 2023 12:16:48 GMT-0700 (Mountain Standard Time)","601013","Match,No Match","","1103","","","","","","<div class='trialBorder'><div class='targDiv'><div class='tc'><img class='introPic' src='trustrating_stim/white_mw012.bmp'><br><font color='red'><strong>Keep</strong></font></div></div><div class='respDiv'><div class='respDivL'>Match<br>(e)</div><div class='respDivR'>No Match<br>(i)</div></div></div>","i","TARGET","1","trustrating_stim/white_mw010.bmp","0","noMatchFace","i","1500","trustrating_stim/white_mw012.bmp","red","Keep","PRACTICE","1"
"html-keyboard-response","28","136513","0.0-5.0-5.4","63d1401242635aaffe867c4c","bdp_wmem","Mon Mar 13 2023 12:16:48 GMT-0700 (Mountain Standard Time)","601013","Match,No Match","","null","","","","","","<div class='trialBorder'><div class='vertical-center'><img src='img/correct.jpg'></div><div class='respDiv'><div class='respDivL'>Match<br>(e)</div><div class='respDivR'><font style='color:orange'>No Match<br>(i)</font></div></div></div>","null","FEEDBACK","","","","","","","","","","",""
"html-keyboard-response","29","137015","0.0-5.0-1.5","63d1401242635aaffe867c4c","bdp_wmem","Mon Mar 13 2023 12:16:48 GMT-0700 (Mountain Standard Time)","601013","Match,No Match","","null","","","","","","<div class='trialBorder'><div class='vertical-center'><img src='img/fixation2_sml.jpg'</img></div></div>","null","FIX","","","","","","","","","","",""
"html-keyboard-response","30","141517","0.0-5.0-2.5","63d1401242635aaffe867c4c","bdp_wmem","Mon Mar 13 2023 12:16:48 GMT-0700 (Mountain Standard Time)","601013","Match,No Match","","null","","","","","","<div class='trialBorder'><div class='vertical-center'><img style='vertical-align:center; align:center' src='img/fixation2_sml.jpg'></div><div class='arrayDiv3'><div class='tl'><img class='introPic' src='trustrating_stim/white_mw038.bmp'><br><font color='green'><strong>Share</strong></font></div><div class='tc'><img class='introPic' src='trustrating_stim/white_mw013.bmp'><br><font color='green'><strong>Share</strong></font></div><div class='tr'><img class='introPic' src='trustrating_stim/white_mw085.bmp'><br><font color='red'><strong>Keep</strong></font></div></div></div>","null","ARRAY","3","trustrating_stim/white_mw038.bmp,trustrating_stim/white_mw013.bmp,trustrating_stim/white_mw085.bmp","1,1,0","noMatchOutcome","i","4500","","","","",""
"html-keyboard-response","31","145519","0.0-5.0-3.5","63d1401242635aaffe867c4c","bdp_wmem","Mon Mar 13 2023 12:16:48 GMT-0700 (Mountain Standard Time)","601013","Match,No Match","","null","","","","","","<div class='trialBorder'><div class='vertical-center'><img src='img/fixation2_sml.jpg'</img></div></div>","null","DELAY","","","","","","","","","","",""
"html-keyboard-response","32","147643","0.0-5.0-4.5","63d1401242635aaffe867c4c","bdp_wmem","Mon Mar 13 2023 12:16:48 GMT-0700 (Mountain Standard Time)","601013","Match,No Match","","2124","","","","","","<div class='trialBorder'><div class='targDiv'><div class='tc'><img class='introPic' src='trustrating_stim/white_mw013.bmp'><br><font color='red'><strong>Keep</strong></font></div></div><div class='respDiv'><div class='respDivL'>Match<br>(e)</div><div class='respDivR'>No Match<br>(i)</div></div></div>","i","TARGET","3","trustrating_stim/white_mw038.bmp,trustrating_stim/white_mw013.bmp,trustrating_stim/white_mw085.bmp","1,1,0","noMatchOutcome","i","4500","trustrating_stim/white_mw013.bmp","red","Keep","PRACTICE","1"
"html-keyboard-response","33","148144","0.0-5.0-5.5","63d1401242635aaffe867c4c","bdp_wmem","Mon Mar 13 2023 12:16:48 GMT-0700 (Mountain Standard Time)","601013","Match,No Match","","null","","","","","","<div class='trialBorder'><div class='vertical-center'><img src='img/correct.jpg'></div><div class='respDiv'><div class='respDivL'>Match<br>(e)</div><div class='respDivR'><font style='color:orange'>No Match<br>(i)</font></div></div></div>","null","FEEDBACK","","","","","","","","","","",""
"instructions","34","153911","0.0-6.0","63d1401242635aaffe867c4c","bdp_wmem","Mon Mar 13 2023 12:16:48 GMT-0700 (Mountain Standard Time)","601013","Match,No Match","[{""page_index"":0,""viewing_time"":5767}]","5767","","","","","","","","","","","","","","","","","","",""
"html-keyboard-response","35","154413","0.0-7.0-1.0","63d1401242635aaffe867c4c","bdp_wmem","Mon Mar 13 2023 12:16:48 GMT-0700 (Mountain Standard Time)","601013","Match,No Match","","null","","","","","","<div class='trialBorder'><div class='vertical-center'><img src='img/fixation2_sml.jpg'</img></div></div>","null","FIX","","","","","","","","","","",""
"html-keyboard-response","36","157414","0.0-7.0-2.0","63d1401242635aaffe867c4c","bdp_wmem","Mon Mar 13 2023 12:16:48 GMT-0700 (Mountain Standard Time)","601013","Match,No Match","","null","","","","","","<div class='trialBorder'><div class='vertical-center'><img style='vertical-align:center; align:center' src='img/fixation2_sml.jpg'></div><div class='arrayDiv2'><div class='tl'><img class='introPic' src='trustrating_stim/white_mw012.bmp'><br><font color='red'><strong>Keep</strong></font></div><div class='tr'><img class='introPic' src='trustrating_stim/white_mw013.bmp'><br><font color='green'><strong>Share</strong></font></div></div></div>","null","ARRAY","2","trustrating_stim/white_mw012.bmp,trustrating_stim/white_mw013.bmp","0,1","Match","e","3000","","","","",""
"html-keyboard-response","37","161415","0.0-7.0-3.0","63d1401242635aaffe867c4c","bdp_wmem","Mon Mar 13 2023 12:16:48 GMT-0700 (Mountain Standard Time)","601013","Match,No Match","","null","","","","","","<div class='trialBorder'><div class='vertical-center'><img src='img/fixation2_sml.jpg'</img></div></div>","null","DELAY","","","","","","","","","","",""
"html-keyboard-response","38","162735","0.0-7.0-4.0","63d1401242635aaffe867c4c","bdp_wmem","Mon Mar 13 2023 12:16:48 GMT-0700 (Mountain Standard Time)","601013","Match,No Match","","1320","","","","","","<div class='trialBorder'><div class='targDiv'><div class='tc'><img class='introPic' src='trustrating_stim/white_mw013.bmp'><br><font color='green'><strong>Share</strong></font></div></div><div class='respDiv'><div class='respDivL'>Match<br>(e)</div><div class='respDivR'>No Match<br>(i)</div></div></div>","e","TARGET","2","trustrating_stim/white_mw012.bmp,trustrating_stim/white_mw013.bmp","0,1","Match","e","3000","trustrating_stim/white_mw013.bmp","green","Share","REAL","1"
"html-keyboard-response","39","163236","0.0-7.0-5.0","63d1401242635aaffe867c4c","bdp_wmem","Mon Mar 13 2023 12:16:48 GMT-0700 (Mountain Standard Time)","601013","Match,No Match","","null","","","","","","<div class='trialBorder'><div class='vertical-center'><img src='img/correct.jpg'></div><div class='respDiv'><div class='respDivL'><font style='color:orange'>Match<br>(e)</font></div><div class='respDivR'>No Match<br>(i)</div></div></div>","null","FEEDBACK","","","","","","","","","","",""
"html-keyboard-response","40","163737","0.0-7.0-1.1","63d1401242635aaffe867c4c","bdp_wmem","Mon Mar 13 2023 12:16:48 GMT-0700 (Mountain Standard Time)","601013","Match,No Match","","null","","","","","","<div class='trialBorder'><div class='vertical-center'><img src='img/fixation2_sml.jpg'</img></div></div>","null","FIX","","","","","","","","","","",""
"html-keyboard-response","41","165239","0.0-7.0-2.1","63d1401242635aaffe867c4c","bdp_wmem","Mon Mar 13 2023 12:16:48 GMT-0700 (Mountain Standard Time)","601013","Match,No Match","","null","","","","","","<div class='trialBorder'><div class='vertical-center'><img style='vertical-align:center; align:center' src='img/fixation2_sml.jpg'></div><div class='arrayDiv1'><div class='tc'><img class='introPic' src='trustrating_stim/white_mw038.bmp'><br><font color='green'><strong>Share</strong></font></div></div></div>","null","ARRAY","1","trustrating_stim/white_mw038.bmp","1","Match","e","1500","","","","",""
"html-keyboard-response","42","169241","0.0-7.0-3.1","63d1401242635aaffe867c4c","bdp_wmem","Mon Mar 13 2023 12:16:48 GMT-0700 (Mountain Standard Time)","601013","Match,No Match","","null","","","","","","<div class='trialBorder'><div class='vertical-center'><img src='img/fixation2_sml.jpg'</img></div></div>","null","DELAY","","","","","","","","","","",""
"html-keyboard-response","43","170302","0.0-7.0-4.1","63d1401242635aaffe867c4c","bdp_wmem","Mon Mar 13 2023 12:16:48 GMT-0700 (Mountain Standard Time)","601013","Match,No Match","","1060","","","","","","<div class='trialBorder'><div class='targDiv'><div class='tc'><img class='introPic' src='trustrating_stim/white_mw038.bmp'><br><font color='green'><strong>Share</strong></font></div></div><div class='respDiv'><div class='respDivL'>Match<br>(e)</div><div class='respDivR'>No Match<br>(i)</div></div></div>","e","TARGET","1","trustrating_stim/white_mw038.bmp","1","Match","e","1500","trustrating_stim/white_mw038.bmp","green","Share","REAL","1"
"html-keyboard-response","44","170804","0.0-7.0-5.1","63d1401242635aaffe867c4c","bdp_wmem","Mon Mar 13 2023 12:16:48 GMT-0700 (Mountain Standard Time)","601013","Match,No Match","","null","","","","","","<div class='trialBorder'><div class='vertical-center'><img src='img/correct.jpg'></div><div class='respDiv'><div class='respDivL'><font style='color:orange'>Match<br>(e)</font></div><div class='respDivR'>No Match<br>(i)</div></div></div>","null","FEEDBACK","","","","","","","","","","",""
"html-keyboard-response","45","171305","0.0-7.0-1.2","63d1401242635aaffe867c4c","bdp_wmem","Mon Mar 13 2023 12:16:48 GMT-0700 (Mountain Standard Time)","601013","Match,No Match","","null","","","","","","<div class='trialBorder'><div class='vertical-center'><img src='img/fixation2_sml.jpg'</img></div></div>","null","FIX","","","","","","","","","","",""
"html-keyboard-response","46","174306","0.0-7.0-2.2","63d1401242635aaffe867c4c","bdp_wmem","Mon Mar 13 2023 12:16:48 GMT-0700 (Mountain Standard Time)","601013","Match,No Match","","null","","","","","","<div class='trialBorder'><div class='vertical-center'><img style='vertical-align:center; align:center' src='img/fixation2_sml.jpg'></div><div class='arrayDiv2'><div class='tl'><img class='introPic' src='trustrating_stim/white_mw078.bmp'><br><font color='red'><strong>Keep</strong></font></div><div class='tr'><img class='introPic' src='trustrating_stim/white_mw091.bmp'><br><font color='green'><strong>Share</strong></font></div></div></div>","null","ARRAY","2","trustrating_stim/white_mw078.bmp,trustrating_stim/white_mw091.bmp","0,1","Match","e","3000","","","","",""
"html-keyboard-response","47","178307","0.0-7.0-3.2","63d1401242635aaffe867c4c","bdp_wmem","Mon Mar 13 2023 12:16:48 GMT-0700 (Mountain Standard Time)","601013","Match,No Match","","null","","","","","","<div class='trialBorder'><div class='vertical-center'><img src='img/fixation2_sml.jpg'</img></div></div>","null","DELAY","","","","","","","","","","",""
"html-keyboard-response","48","179925","0.0-7.0-4.2","63d1401242635aaffe867c4c","bdp_wmem","Mon Mar 13 2023 12:16:48 GMT-0700 (Mountain Standard Time)","601013","Match,No Match","","1617","","","","","","<div class='trialBorder'><div class='targDiv'><div class='tc'><img class='introPic' src='trustrating_stim/white_mw078.bmp'><br><font color='red'><strong>Keep</strong></font></div></div><div class='respDiv'><div class='respDivL'>Match<br>(e)</div><div class='respDivR'>No Match<br>(i)</div></div></div>","e","TARGET","2","trustrating_stim/white_mw078.bmp,trustrating_stim/white_mw091.bmp","0,1","Match","e","3000","trustrating_stim/white_mw078.bmp","red","Keep","REAL","1"
"html-keyboard-response","49","180426","0.0-7.0-5.2","63d1401242635aaffe867c4c","bdp_wmem","Mon Mar 13 2023 12:16:48 GMT-0700 (Mountain Standard Time)","601013","Match,No Match","","null","","","","","","<div class='trialBorder'><div class='vertical-center'><img src='img/correct.jpg'></div><div class='respDiv'><div class='respDivL'><font style='color:orange'>Match<br>(e)</font></div><div class='respDivR'>No Match<br>(i)</div></div></div>","null","FEEDBACK","","","","","","","","","","",""
"html-keyboard-response","50","180928","0.0-7.0-1.3","63d1401242635aaffe867c4c","bdp_wmem","Mon Mar 13 2023 12:16:48 GMT-0700 (Mountain Standard Time)","601013","Match,No Match","","null","","","","","","<div class='trialBorder'><div class='vertical-center'><img src='img/fixation2_sml.jpg'</img></div></div>","null","FIX","","","","","","","","","","",""
"html-keyboard-response","51","183929","0.0-7.0-2.3","63d1401242635aaffe867c4c","bdp_wmem","Mon Mar 13 2023 12:16:48 GMT-0700 (Mountain Standard Time)","601013","Match,No Match","","null","","","","","","<div class='trialBorder'><div class='vertical-center'><img style='vertical-align:center; align:center' src='img/fixation2_sml.jpg'></div><div class='arrayDiv2'><div class='tl'><img class='introPic' src='trustrating_stim/white_mw012.bmp'><br><font color='red'><strong>Keep</strong></font></div><div class='tr'><img class='introPic' src='trustrating_stim/white_mw091.bmp'><br><font color='green'><strong>Share</strong></font></div></div></div>","null","ARRAY","2","trustrating_stim/white_mw012.bmp,trustrating_stim/white_mw091.bmp","0,1","Match","e","3000","","","","",""
"html-keyboard-response","52","187931","0.0-7.0-3.3","63d1401242635aaffe867c4c","bdp_wmem","Mon Mar 13 2023 12:16:48 GMT-0700 (Mountain Standard Time)","601013","Match,No Match","","null","","","","","","<div class='trialBorder'><div class='vertical-center'><img src='img/fixation2_sml.jpg'</img></div></div>","null","DELAY","","","","","","","","","","",""
"html-keyboard-response","53","189462","0.0-7.0-4.3","63d1401242635aaffe867c4c","bdp_wmem","Mon Mar 13 2023 12:16:48 GMT-0700 (Mountain Standard Time)","601013","Match,No Match","","1531","","","","","","<div class='trialBorder'><div class='targDiv'><div class='tc'><img class='introPic' src='trustrating_stim/white_mw091.bmp'><br><font color='green'><strong>Share</strong></font></div></div><div class='respDiv'><div class='respDivL'>Match<br>(e)</div><div class='respDivR'>No Match<br>(i)</div></div></div>","e","TARGET","2","trustrating_stim/white_mw012.bmp,trustrating_stim/white_mw091.bmp","0,1","Match","e","3000","trustrating_stim/white_mw091.bmp","green","Share","REAL","1"
"html-keyboard-response","54","189964","0.0-7.0-5.3","63d1401242635aaffe867c4c","bdp_wmem","Mon Mar 13 2023 12:16:48 GMT-0700 (Mountain Standard Time)","601013","Match,No Match","","null","","","","","","<div class='trialBorder'><div class='vertical-center'><img src='img/correct.jpg'></div><div class='respDiv'><div class='respDivL'><font style='color:orange'>Match<br>(e)</font></div><div class='respDivR'>No Match<br>(i)</div></div></div>","null","FEEDBACK","","","","","","","","","","",""
"html-keyboard-response","55","190465","0.0-7.0-1.4","63d1401242635aaffe867c4c","bdp_wmem","Mon Mar 13 2023 12:16:48 GMT-0700 (Mountain Standard Time)","601013","Match,No Match","","null","","","","","","<div class='trialBorder'><div class='vertical-center'><img src='img/fixation2_sml.jpg'</img></div></div>","null","FIX","","","","","","","","","","",""
"html-keyboard-response","56","193467","0.0-7.0-2.4","63d1401242635aaffe867c4c","bdp_wmem","Mon Mar 13 2023 12:16:48 GMT-0700 (Mountain Standard Time)","601013","Match,No Match","","null","","","","","","<div class='trialBorder'><div class='vertical-center'><img style='vertical-align:center; align:center' src='img/fixation2_sml.jpg'></div><div class='arrayDiv2'><div class='tl'><img class='introPic' src='trustrating_stim/white_mw085.bmp'><br><font color='red'><strong>Keep</strong></font></div><div class='tr'><img class='introPic' src='trustrating_stim/white_mw012.bmp'><br><font color='green'><strong>Share</strong></font></div></div></div>","null","ARRAY","2","trustrating_stim/white_mw085.bmp,trustrating_stim/white_mw012.bmp","0,1","Match","e","3000","","","","",""
"html-keyboard-response","57","197468","0.0-7.0-3.4","63d1401242635aaffe867c4c","bdp_wmem","Mon Mar 13 2023 12:16:48 GMT-0700 (Mountain Standard Time)","601013","Match,No Match","","null","","","","","","<div class='trialBorder'><div class='vertical-center'><img src='img/fixation2_sml.jpg'</img></div></div>","null","DELAY","","","","","","","","","","",""
"html-keyboard-response","58","198619","0.0-7.0-4.4","63d1401242635aaffe867c4c","bdp_wmem","Mon Mar 13 2023 12:16:48 GMT-0700 (Mountain Standard Time)","601013","Match,No Match","","1150","","","","","","<div class='trialBorder'><div class='targDiv'><div class='tc'><img class='introPic' src='trustrating_stim/white_mw012.bmp'><br><font color='green'><strong>Share</strong></font></div></div><div class='respDiv'><div class='respDivL'>Match<br>(e)</div><div class='respDivR'>No Match<br>(i)</div></div></div>","e","TARGET","2","trustrating_stim/white_mw085.bmp,trustrating_stim/white_mw012.bmp","0,1","Match","e","3000","trustrating_stim/white_mw012.bmp","green","Share","REAL","1"
"html-keyboard-response","59","199119","0.0-7.0-5.4","63d1401242635aaffe867c4c","bdp_wmem","Mon Mar 13 2023 12:16:48 GMT-0700 (Mountain Standard Time)","601013","Match,No Match","","null","","","","","","<div class='trialBorder'><div class='vertical-center'><img src='img/correct.jpg'></div><div class='respDiv'><div class='respDivL'><font style='color:orange'>Match<br>(e)</font></div><div class='respDivR'>No Match<br>(i)</div></div></div>","null","FEEDBACK","","","","","","","","","","",""
"html-keyboard-response","60","199621","0.0-7.0-1.5","63d1401242635aaffe867c4c","bdp_wmem","Mon Mar 13 2023 12:16:48 GMT-0700 (Mountain Standard Time)","601013","Match,No Match","","null","","","","","","<div class='trialBorder'><div class='vertical-center'><img src='img/fixation2_sml.jpg'</img></div></div>","null","FIX","","","","","","","","","","",""
"html-keyboard-response","61","204123","0.0-7.0-2.5","63d1401242635aaffe867c4c","bdp_wmem","Mon Mar 13 2023 12:16:48 GMT-0700 (Mountain Standard Time)","601013","Match,No Match","","null","","","","","","<div class='trialBorder'><div class='vertical-center'><img style='vertical-align:center; align:center' src='img/fixation2_sml.jpg'></div><div class='arrayDiv3'><div class='tl'><img class='introPic' src='trustrating_stim/white_mw040.bmp'><br><font color='red'><strong>Keep</strong></font></div><div class='tc'><img class='introPic' src='trustrating_stim/white_mw070.bmp'><br><font color='green'><strong>Share</strong></font></div><div class='tr'><img class='introPic' src='trustrating_stim/white_mw013.bmp'><br><font color='green'><strong>Share</strong></font></div></div></div>","null","ARRAY","3","trustrating_stim/white_mw040.bmp,trustrating_stim/white_mw070.bmp,trustrating_stim/white_mw013.bmp","0,1,1","noMatchFace","i","4500","","","","",""
"html-keyboard-response","62","208125","0.0-7.0-3.5","63d1401242635aaffe867c4c","bdp_wmem","Mon Mar 13 2023 12:16:48 GMT-0700 (Mountain Standard Time)","601013","Match,No Match","","null","","","","","","<div class='trialBorder'><div class='vertical-center'><img src='img/fixation2_sml.jpg'</img></div></div>","null","DELAY","","","","","","","","","","",""
"html-keyboard-response","63","209909","0.0-7.0-4.5","63d1401242635aaffe867c4c","bdp_wmem","Mon Mar 13 2023 12:16:48 GMT-0700 (Mountain Standard Time)","601013","Match,No Match","","1783","","","","","","<div class='trialBorder'><div class='targDiv'><div class='tc'><img class='introPic' src='trustrating_stim/white_mw042.bmp'><br><font color='red'><strong>Keep</strong></font></div></div><div class='respDiv'><div class='respDivL'>Match<br>(e)</div><div class='respDivR'>No Match<br>(i)</div></div></div>","i","TARGET","3","trustrating_stim/white_mw040.bmp,trustrating_stim/white_mw070.bmp,trustrating_stim/white_mw013.bmp","0,1,1","noMatchFace","i","4500","trustrating_stim/white_mw042.bmp","red","Keep","REAL","1"
"html-keyboard-response","64","210410","0.0-7.0-5.5","63d1401242635aaffe867c4c","bdp_wmem","Mon Mar 13 2023 12:16:48 GMT-0700 (Mountain Standard Time)","601013","Match,No Match","","null","","","","","","<div class='trialBorder'><div class='vertical-center'><img src='img/correct.jpg'></div><div class='respDiv'><div class='respDivL'>Match<br>(e)</div><div class='respDivR'><font style='color:orange'>No Match<br>(i)</font></div></div></div>","null","FEEDBACK","","","","","","","","","","",""
"html-keyboard-response","65","210911","0.0-7.0-1.6","63d1401242635aaffe867c4c","bdp_wmem","Mon Mar 13 2023 12:16:48 GMT-0700 (Mountain Standard Time)","601013","Match,No Match","","null","","","","","","<div class='trialBorder'><div class='vertical-center'><img src='img/fixation2_sml.jpg'</img></div></div>","null","FIX","","","","","","","","","","",""
"html-keyboard-response","66","212412","0.0-7.0-2.6","63d1401242635aaffe867c4c","bdp_wmem","Mon Mar 13 2023 12:16:48 GMT-0700 (Mountain Standard Time)","601013","Match,No Match","","null","","","","","","<div class='trialBorder'><div class='vertical-center'><img style='vertical-align:center; align:center' src='img/fixation2_sml.jpg'></div><div class='arrayDiv1'><div class='tc'><img class='introPic' src='trustrating_stim/white_mw070.bmp'><br><font color='green'><strong>Share</strong></font></div></div></div>","null","ARRAY","1","trustrating_stim/white_mw070.bmp","1","noMatchFace","i","1500","","","","",""
"html-keyboard-response","67","216413","0.0-7.0-3.6","63d1401242635aaffe867c4c","bdp_wmem","Mon Mar 13 2023 12:16:48 GMT-0700 (Mountain Standard Time)","601013","Match,No Match","","null","","","","","","<div class='trialBorder'><div class='vertical-center'><img src='img/fixation2_sml.jpg'</img></div></div>","null","DELAY","","","","","","","","","","",""
"html-keyboard-response","68","217402","0.0-7.0-4.6","63d1401242635aaffe867c4c","bdp_wmem","Mon Mar 13 2023 12:16:48 GMT-0700 (Mountain Standard Time)","601013","Match,No Match","","988","","","","","","<div class='trialBorder'><div class='targDiv'><div class='tc'><img class='introPic' src='trustrating_stim/white_mw038.bmp'><br><font color='green'><strong>Share</strong></font></div></div><div class='respDiv'><div class='respDivL'>Match<br>(e)</div><div class='respDivR'>No Match<br>(i)</div></div></div>","i","TARGET","1","trustrating_stim/white_mw070.bmp","1","noMatchFace","i","1500","trustrating_stim/white_mw038.bmp","green","Share","REAL","1"
"html-keyboard-response","69","217903","0.0-7.0-5.6","63d1401242635aaffe867c4c","bdp_wmem","Mon Mar 13 2023 12:16:48 GMT-0700 (Mountain Standard Time)","601013","Match,No Match","","null","","","","","","<div class='trialBorder'><div class='vertical-center'><img src='img/correct.jpg'></div><div class='respDiv'><div class='respDivL'>Match<br>(e)</div><div class='respDivR'><font style='color:orange'>No Match<br>(i)</font></div></div></div>","null","FEEDBACK","","","","","","","","","","",""
"html-keyboard-response","70","218405","0.0-7.0-1.7","63d1401242635aaffe867c4c","bdp_wmem","Mon Mar 13 2023 12:16:48 GMT-0700 (Mountain Standard Time)","601013","Match,No Match","","null","","","","","","<div class='trialBorder'><div class='vertical-center'><img src='img/fixation2_sml.jpg'</img></div></div>","null","FIX","","","","","","","","","","",""
"html-keyboard-response","71","219907","0.0-7.0-2.7","63d1401242635aaffe867c4c","bdp_wmem","Mon Mar 13 2023 12:16:48 GMT-0700 (Mountain Standard Time)","601013","Match,No Match","","null","","","","","","<div class='trialBorder'><div class='vertical-center'><img style='vertical-align:center; align:center' src='img/fixation2_sml.jpg'></div><div class='arrayDiv1'><div class='tc'><img class='introPic' src='trustrating_stim/white_mw040.bmp'><br><font color='green'><strong>Share</strong></font></div></div></div>","null","ARRAY","1","trustrating_stim/white_mw040.bmp","1","Match","e","1500","","","","",""
"html-keyboard-response","72","223908","0.0-7.0-3.7","63d1401242635aaffe867c4c","bdp_wmem","Mon Mar 13 2023 12:16:48 GMT-0700 (Mountain Standard Time)","601013","Match,No Match","","null","","","","","","<div class='trialBorder'><div class='vertical-center'><img src='img/fixation2_sml.jpg'</img></div></div>","null","DELAY","","","","","","","","","","",""
"html-keyboard-response","73","224918","0.0-7.0-4.7","63d1401242635aaffe867c4c","bdp_wmem","Mon Mar 13 2023 12:16:48 GMT-0700 (Mountain Standard Time)","601013","Match,No Match","","1009","","","","","","<div class='trialBorder'><div class='targDiv'><div class='tc'><img class='introPic' src='trustrating_stim/white_mw040.bmp'><br><font color='green'><strong>Share</strong></font></div></div><div class='respDiv'><div class='respDivL'>Match<br>(e)</div><div class='respDivR'>No Match<br>(i)</div></div></div>","e","TARGET","1","trustrating_stim/white_mw040.bmp","1","Match","e","1500","trustrating_stim/white_mw040.bmp","green","Share","REAL","1"
"html-keyboard-response","74","225419","0.0-7.0-5.7","63d1401242635aaffe867c4c","bdp_wmem","Mon Mar 13 2023 12:16:48 GMT-0700 (Mountain Standard Time)","601013","Match,No Match","","null","","","","","","<div class='trialBorder'><div class='vertical-center'><img src='img/correct.jpg'></div><div class='respDiv'><div class='respDivL'><font style='color:orange'>Match<br>(e)</font></div><div class='respDivR'>No Match<br>(i)</div></div></div>","null","FEEDBACK","","","","","","","","","","",""
"html-keyboard-response","75","225921","0.0-7.0-1.8","63d1401242635aaffe867c4c","bdp_wmem","Mon Mar 13 2023 12:16:48 GMT-0700 (Mountain Standard Time)","601013","Match,No Match","","null","","","","","","<div class='trialBorder'><div class='vertical-center'><img src='img/fixation2_sml.jpg'</img></div></div>","null","FIX","","","","","","","","","","",""
"html-keyboard-response","76","227423","0.0-7.0-2.8","63d1401242635aaffe867c4c","bdp_wmem","Mon Mar 13 2023 12:16:48 GMT-0700 (Mountain Standard Time)","601013","Match,No Match","","null","","","","","","<div class='trialBorder'><div class='vertical-center'><img style='vertical-align:center; align:center' src='img/fixation2_sml.jpg'></div><div class='arrayDiv1'><div class='tc'><img class='introPic' src='trustrating_stim/white_mw040.bmp'><br><font color='green'><strong>Share</strong></font></div></div></div>","null","ARRAY","1","trustrating_stim/white_mw040.bmp","1","Match","e","1500","","","","",""
"html-keyboard-response","77","231425","0.0-7.0-3.8","63d1401242635aaffe867c4c","bdp_wmem","Mon Mar 13 2023 12:16:48 GMT-0700 (Mountain Standard Time)","601013","Match,No Match","","null","","","","","","<div class='trialBorder'><div class='vertical-center'><img src='img/fixation2_sml.jpg'</img></div></div>","null","DELAY","","","","","","","","","","",""
"html-keyboard-response","78","232386","0.0-7.0-4.8","63d1401242635aaffe867c4c","bdp_wmem","Mon Mar 13 2023 12:16:48 GMT-0700 (Mountain Standard Time)","601013","Match,No Match","","960","","","","","","<div class='trialBorder'><div class='targDiv'><div class='tc'><img class='introPic' src='trustrating_stim/white_mw040.bmp'><br><font color='green'><strong>Share</strong></font></div></div><div class='respDiv'><div class='respDivL'>Match<br>(e)</div><div class='respDivR'>No Match<br>(i)</div></div></div>","e","TARGET","1","trustrating_stim/white_mw040.bmp","1","Match","e","1500","trustrating_stim/white_mw040.bmp","green","Share","REAL","1"
"html-keyboard-response","79","232888","0.0-7.0-5.8","63d1401242635aaffe867c4c","bdp_wmem","Mon Mar 13 2023 12:16:48 GMT-0700 (Mountain Standard Time)","601013","Match,No Match","","null","","","","","","<div class='trialBorder'><div class='vertical-center'><img src='img/correct.jpg'></div><div class='respDiv'><div class='respDivL'><font style='color:orange'>Match<br>(e)</font></div><div class='respDivR'>No Match<br>(i)</div></div></div>","null","FEEDBACK","","","","","","","","","","",""
"html-keyboard-response","80","233388","0.0-7.0-1.9","63d1401242635aaffe867c4c","bdp_wmem","Mon Mar 13 2023 12:16:48 GMT-0700 (Mountain Standard Time)","601013","Match,No Match","","null","","","","","","<div class='trialBorder'><div class='vertical-center'><img src='img/fixation2_sml.jpg'</img></div></div>","null","FIX","","","","","","","","","","",""
"html-keyboard-response","81","236389","0.0-7.0-2.9","63d1401242635aaffe867c4c","bdp_wmem","Mon Mar 13 2023 12:16:48 GMT-0700 (Mountain Standard Time)","601013","Match,No Match","","null","","","","","","<div class='trialBorder'><div class='vertical-center'><img style='vertical-align:center; align:center' src='img/fixation2_sml.jpg'></div><div class='arrayDiv2'><div class='tl'><img class='introPic' src='trustrating_stim/white_mw010.bmp'><br><font color='green'><strong>Share</strong></font></div><div class='tr'><img class='introPic' src='trustrating_stim/white_mw013.bmp'><br><font color='red'><strong>Keep</strong></font></div></div></div>","null","ARRAY","2","trustrating_stim/white_mw010.bmp,trustrating_stim/white_mw013.bmp","1,0","noMatchFace","i","3000","","","","",""
"html-keyboard-response","82","240391","0.0-7.0-3.9","63d1401242635aaffe867c4c","bdp_wmem","Mon Mar 13 2023 12:16:48 GMT-0700 (Mountain Standard Time)","601013","Match,No Match","","null","","","","","","<div class='trialBorder'><div class='vertical-center'><img src='img/fixation2_sml.jpg'</img></div></div>","null","DELAY","","","","","","","","","","",""
"html-keyboard-response","83","241259","0.0-7.0-4.9","63d1401242635aaffe867c4c","bdp_wmem","Mon Mar 13 2023 12:16:48 GMT-0700 (Mountain Standard Time)","601013","Match,No Match","","867","","","","","","<div class='trialBorder'><div class='targDiv'><div class='tc'><img class='introPic' src='trustrating_stim/white_mw070.bmp'><br><font color='green'><strong>Share</strong></font></div></div><div class='respDiv'><div class='respDivL'>Match<br>(e)</div><div class='respDivR'>No Match<br>(i)</div></div></div>","i","TARGET","2","trustrating_stim/white_mw010.bmp,trustrating_stim/white_mw013.bmp","1,0","noMatchFace","i","3000","trustrating_stim/white_mw070.bmp","green","Share","REAL","1"
"html-keyboard-response","84","241759","0.0-7.0-5.9","63d1401242635aaffe867c4c","bdp_wmem","Mon Mar 13 2023 12:16:48 GMT-0700 (Mountain Standard Time)","601013","Match,No Match","","null","","","","","","<div class='trialBorder'><div class='vertical-center'><img src='img/correct.jpg'></div><div class='respDiv'><div class='respDivL'>Match<br>(e)</div><div class='respDivR'><font style='color:orange'>No Match<br>(i)</font></div></div></div>","null","FEEDBACK","","","","","","","","","","",""
"html-keyboard-response","85","242260","0.0-7.0-1.10","63d1401242635aaffe867c4c","bdp_wmem","Mon Mar 13 2023 12:16:48 GMT-0700 (Mountain Standard Time)","601013","Match,No Match","","null","","","","","","<div class='trialBorder'><div class='vertical-center'><img src='img/fixation2_sml.jpg'</img></div></div>","null","FIX","","","","","","","","","","",""
"html-keyboard-response","86","243761","0.0-7.0-2.10","63d1401242635aaffe867c4c","bdp_wmem","Mon Mar 13 2023 12:16:48 GMT-0700 (Mountain Standard Time)","601013","Match,No Match","","null","","","","","","<div class='trialBorder'><div class='vertical-center'><img style='vertical-align:center; align:center' src='img/fixation2_sml.jpg'></div><div class='arrayDiv1'><div class='tc'><img class='introPic' src='trustrating_stim/white_mw040.bmp'><br><font color='red'><strong>Keep</strong></font></div></div></div>","null","ARRAY","1","trustrating_stim/white_mw040.bmp","0","Match","e","1500","","","","",""
"html-keyboard-response","87","247763","0.0-7.0-3.10","63d1401242635aaffe867c4c","bdp_wmem","Mon Mar 13 2023 12:16:48 GMT-0700 (Mountain Standard Time)","601013","Match,No Match","","null","","","","","","<div class='trialBorder'><div class='vertical-center'><img src='img/fixation2_sml.jpg'</img></div></div>","null","DELAY","","","","","","","","","","",""
"html-keyboard-response","88","248740","0.0-7.0-4.10","63d1401242635aaffe867c4c","bdp_wmem","Mon Mar 13 2023 12:16:48 GMT-0700 (Mountain Standard Time)","601013","Match,No Match","","976","","","","","","<div class='trialBorder'><div class='targDiv'><div class='tc'><img class='introPic' src='trustrating_stim/white_mw040.bmp'><br><font color='red'><strong>Keep</strong></font></div></div><div class='respDiv'><div class='respDivL'>Match<br>(e)</div><div class='respDivR'>No Match<br>(i)</div></div></div>","e","TARGET","1","trustrating_stim/white_mw040.bmp","0","Match","e","1500","trustrating_stim/white_mw040.bmp","red","Keep","REAL","1"
"html-keyboard-response","89","249241","0.0-7.0-5.10","63d1401242635aaffe867c4c","bdp_wmem","Mon Mar 13 2023 12:16:48 GMT-0700 (Mountain Standard Time)","601013","Match,No Match","","null","","","","","","<div class='trialBorder'><div class='vertical-center'><img src='img/correct.jpg'></div><div class='respDiv'><div class='respDivL'><font style='color:orange'>Match<br>(e)</font></div><div class='respDivR'>No Match<br>(i)</div></div></div>","null","FEEDBACK","","","","","","","","","","",""
"html-keyboard-response","90","249743","0.0-7.0-1.11","63d1401242635aaffe867c4c","bdp_wmem","Mon Mar 13 2023 12:16:48 GMT-0700 (Mountain Standard Time)","601013","Match,No Match","","null","","","","","","<div class='trialBorder'><div class='vertical-center'><img src='img/fixation2_sml.jpg'</img></div></div>","null","FIX","","","","","","","","","","",""
"html-keyboard-response","91","251244","0.0-7.0-2.11","63d1401242635aaffe867c4c","bdp_wmem","Mon Mar 13 2023 12:16:48 GMT-0700 (Mountain Standard Time)","601013","Match,No Match","","null","","","","","","<div class='trialBorder'><div class='vertical-center'><img style='vertical-align:center; align:center' src='img/fixation2_sml.jpg'></div><div class='arrayDiv1'><div class='tc'><img class='introPic' src='trustrating_stim/white_mw070.bmp'><br><font color='red'><strong>Keep</strong></font></div></div></div>","null","ARRAY","1","trustrating_stim/white_mw070.bmp","0","noMatchOutcome","i","1500","","","","",""
"html-keyboard-response","92","255246","0.0-7.0-3.11","63d1401242635aaffe867c4c","bdp_wmem","Mon Mar 13 2023 12:16:48 GMT-0700 (Mountain Standard Time)","601013","Match,No Match","","null","","","","","","<div class='trialBorder'><div class='vertical-center'><img src='img/fixation2_sml.jpg'</img></div></div>","null","DELAY","","","","","","","","","","",""
"html-keyboard-response","93","256425","0.0-7.0-4.11","63d1401242635aaffe867c4c","bdp_wmem","Mon Mar 13 2023 12:16:48 GMT-0700 (Mountain Standard Time)","601013","Match,No Match","","1178","","","","","","<div class='trialBorder'><div class='targDiv'><div class='tc'><img class='introPic' src='trustrating_stim/white_mw070.bmp'><br><font color='green'><strong>Share</strong></font></div></div><div class='respDiv'><div class='respDivL'>Match<br>(e)</div><div class='respDivR'>No Match<br>(i)</div></div></div>","i","TARGET","1","trustrating_stim/white_mw070.bmp","0","noMatchOutcome","i","1500","trustrating_stim/white_mw070.bmp","green","Share","REAL","1"
"html-keyboard-response","94","256926","0.0-7.0-5.11","63d1401242635aaffe867c4c","bdp_wmem","Mon Mar 13 2023 12:16:48 GMT-0700 (Mountain Standard Time)","601013","Match,No Match","","null","","","","","","<div class='trialBorder'><div class='vertical-center'><img src='img/correct.jpg'></div><div class='respDiv'><div class='respDivL'>Match<br>(e)</div><div class='respDivR'><font style='color:orange'>No Match<br>(i)</font></div></div></div>","null","FEEDBACK","","","","","","","","","","",""
"html-keyboard-response","95","257427","0.0-7.0-1.12","63d1401242635aaffe867c4c","bdp_wmem","Mon Mar 13 2023 12:16:48 GMT-0700 (Mountain Standard Time)","601013","Match,No Match","","null","","","","","","<div class='trialBorder'><div class='vertical-center'><img src='img/fixation2_sml.jpg'</img></div></div>","null","FIX","","","","","","","","","","",""
"html-keyboard-response","96","261929","0.0-7.0-2.12","63d1401242635aaffe867c4c","bdp_wmem","Mon Mar 13 2023 12:16:48 GMT-0700 (Mountain Standard Time)","601013","Match,No Match","","null","","","","","","<div class='trialBorder'><div class='vertical-center'><img style='vertical-align:center; align:center' src='img/fixation2_sml.jpg'></div><div class='arrayDiv3'><div class='tl'><img class='introPic' src='trustrating_stim/white_mw010.bmp'><br><font color='red'><strong>Keep</strong></font></div><div class='tc'><img class='introPic' src='trustrating_stim/white_mw040.bmp'><br><font color='green'><strong>Share</strong></font></div><div class='tr'><img class='introPic' src='trustrating_stim/white_mw078.bmp'><br><font color='green'><strong>Share</strong></font></div></div></div>","null","ARRAY","3","trustrating_stim/white_mw010.bmp,trustrating_stim/white_mw040.bmp,trustrating_stim/white_mw078.bmp","0,1,1","Match","e","4500","","","","",""
"html-keyboard-response","97","265930","0.0-7.0-3.12","63d1401242635aaffe867c4c","bdp_wmem","Mon Mar 13 2023 12:16:48 GMT-0700 (Mountain Standard Time)","601013","Match,No Match","","null","","","","","","<div class='trialBorder'><div class='vertical-center'><img src='img/fixation2_sml.jpg'</img></div></div>","null","DELAY","","","","","","","","","","",""
"html-keyboard-response","98","268200","0.0-7.0-4.12","63d1401242635aaffe867c4c","bdp_wmem","Mon Mar 13 2023 12:16:48 GMT-0700 (Mountain Standard Time)","601013","Match,No Match","","2269","","","","","","<div class='trialBorder'><div class='targDiv'><div class='tc'><img class='introPic' src='trustrating_stim/white_mw078.bmp'><br><font color='green'><strong>Share</strong></font></div></div><div class='respDiv'><div class='respDivL'>Match<br>(e)</div><div class='respDivR'>No Match<br>(i)</div></div></div>","e","TARGET","3","trustrating_stim/white_mw010.bmp,trustrating_stim/white_mw040.bmp,trustrating_stim/white_mw078.bmp","0,1,1","Match","e","4500","trustrating_stim/white_mw078.bmp","green","Share","REAL","1"
"html-keyboard-response","99","268702","0.0-7.0-5.12","63d1401242635aaffe867c4c","bdp_wmem","Mon Mar 13 2023 12:16:48 GMT-0700 (Mountain Standard Time)","601013","Match,No Match","","null","","","","","","<div class='trialBorder'><div class='vertical-center'><img src='img/correct.jpg'></div><div class='respDiv'><div class='respDivL'><font style='color:orange'>Match<br>(e)</font></div><div class='respDivR'>No Match<br>(i)</div></div></div>","null","FEEDBACK","","","","","","","","","","",""
"html-keyboard-response","100","269202","0.0-7.0-1.13","63d1401242635aaffe867c4c","bdp_wmem","Mon Mar 13 2023 12:16:48 GMT-0700 (Mountain Standard Time)","601013","Match,No Match","","null","","","","","","<div class='trialBorder'><div class='vertical-center'><img src='img/fixation2_sml.jpg'</img></div></div>","null","FIX","","","","","","","","","","",""
"html-keyboard-response","101","270704","0.0-7.0-2.13","63d1401242635aaffe867c4c","bdp_wmem","Mon Mar 13 2023 12:16:48 GMT-0700 (Mountain Standard Time)","601013","Match,No Match","","null","","","","","","<div class='trialBorder'><div class='vertical-center'><img style='vertical-align:center; align:center' src='img/fixation2_sml.jpg'></div><div class='arrayDiv1'><div class='tc'><img class='introPic' src='trustrating_stim/white_mw091.bmp'><br><font color='green'><strong>Share</strong></font></div></div></div>","null","ARRAY","1","trustrating_stim/white_mw091.bmp","1","Match","e","1500","","","","",""
"html-keyboard-response","102","274706","0.0-7.0-3.13","63d1401242635aaffe867c4c","bdp_wmem","Mon Mar 13 2023 12:16:48 GMT-0700 (Mountain Standard Time)","601013","Match,No Match","","null","","","","","","<div class='trialBorder'><div class='vertical-center'><img src='img/fixation2_sml.jpg'</img></div></div>","null","DELAY","","","","","","","","","","",""
"html-keyboard-response","103","275550","0.0-7.0-4.13","63d1401242635aaffe867c4c","bdp_wmem","Mon Mar 13 2023 12:16:48 GMT-0700 (Mountain Standard Time)","601013","Match,No Match","","843","","","","","","<div class='trialBorder'><div class='targDiv'><div class='tc'><img class='introPic' src='trustrating_stim/white_mw091.bmp'><br><font color='green'><strong>Share</strong></font></div></div><div class='respDiv'><div class='respDivL'>Match<br>(e)</div><div class='respDivR'>No Match<br>(i)</div></div></div>","e","TARGET","1","trustrating_stim/white_mw091.bmp","1","Match","e","1500","trustrating_stim/white_mw091.bmp","green","Share","REAL","1"
"html-keyboard-response","104","276051","0.0-7.0-5.13","63d1401242635aaffe867c4c","bdp_wmem","Mon Mar 13 2023 12:16:48 GMT-0700 (Mountain Standard Time)","601013","Match,No Match","","null","","","","","","<div class='trialBorder'><div class='vertical-center'><img src='img/correct.jpg'></div><div class='respDiv'><div class='respDivL'><font style='color:orange'>Match<br>(e)</font></div><div class='respDivR'>No Match<br>(i)</div></div></div>","null","FEEDBACK","","","","","","","","","","",""
"html-keyboard-response","105","276553","0.0-7.0-1.14","63d1401242635aaffe867c4c","bdp_wmem","Mon Mar 13 2023 12:16:48 GMT-0700 (Mountain Standard Time)","601013","Match,No Match","","null","","","","","","<div class='trialBorder'><div class='vertical-center'><img src='img/fixation2_sml.jpg'</img></div></div>","null","FIX","","","","","","","","","","",""
"html-keyboard-response","106","278055","0.0-7.0-2.14","63d1401242635aaffe867c4c","bdp_wmem","Mon Mar 13 2023 12:16:48 GMT-0700 (Mountain Standard Time)","601013","Match,No Match","","null","","","","","","<div class='trialBorder'><div class='vertical-center'><img style='vertical-align:center; align:center' src='img/fixation2_sml.jpg'></div><div class='arrayDiv1'><div class='tc'><img class='introPic' src='trustrating_stim/white_mw042.bmp'><br><font color='red'><strong>Keep</strong></font></div></div></div>","null","ARRAY","1","trustrating_stim/white_mw042.bmp","0","noMatchFace","i","1500","","","","",""
"html-keyboard-response","107","282057","0.0-7.0-3.14","63d1401242635aaffe867c4c","bdp_wmem","Mon Mar 13 2023 12:16:48 GMT-0700 (Mountain Standard Time)","601013","Match,No Match","","null","","","","","","<div class='trialBorder'><div class='vertical-center'><img src='img/fixation2_sml.jpg'</img></div></div>","null","DELAY","","","","","","","","","","",""
"html-keyboard-response","108","282852","0.0-7.0-4.14","63d1401242635aaffe867c4c","bdp_wmem","Mon Mar 13 2023 12:16:48 GMT-0700 (Mountain Standard Time)","601013","Match,No Match","","794","","","","","","<div class='trialBorder'><div class='targDiv'><div class='tc'><img class='introPic' src='trustrating_stim/white_mw012.bmp'><br><font color='red'><strong>Keep</strong></font></div></div><div class='respDiv'><div class='respDivL'>Match<br>(e)</div><div class='respDivR'>No Match<br>(i)</div></div></div>","i","TARGET","1","trustrating_stim/white_mw042.bmp","0","noMatchFace","i","1500","trustrating_stim/white_mw012.bmp","red","Keep","REAL","1"
"html-keyboard-response","109","283353","0.0-7.0-5.14","63d1401242635aaffe867c4c","bdp_wmem","Mon Mar 13 2023 12:16:48 GMT-0700 (Mountain Standard Time)","601013","Match,No Match","","null","","","","","","<div class='trialBorder'><div class='vertical-center'><img src='img/correct.jpg'></div><div class='respDiv'><div class='respDivL'>Match<br>(e)</div><div class='respDivR'><font style='color:orange'>No Match<br>(i)</font></div></div></div>","null","FEEDBACK","","","","","","","","","","",""
"html-keyboard-response","110","283855","0.0-7.0-1.15","63d1401242635aaffe867c4c","bdp_wmem","Mon Mar 13 2023 12:16:48 GMT-0700 (Mountain Standard Time)","601013","Match,No Match","","null","","","","","","<div class='trialBorder'><div class='vertical-center'><img src='img/fixation2_sml.jpg'</img></div></div>","null","FIX","","","","","","","","","","",""
"html-keyboard-response","111","286856","0.0-7.0-2.15","63d1401242635aaffe867c4c","bdp_wmem","Mon Mar 13 2023 12:16:48 GMT-0700 (Mountain Standard Time)","601013","Match,No Match","","null","","","","","","<div class='trialBorder'><div class='vertical-center'><img style='vertical-align:center; align:center' src='img/fixation2_sml.jpg'></div><div class='arrayDiv2'><div class='tl'><img class='introPic' src='trustrating_stim/white_mw085.bmp'><br><font color='red'><strong>Keep</strong></font></div><div class='tr'><img class='introPic' src='trustrating_stim/white_mw078.bmp'><br><font color='green'><strong>Share</strong></font></div></div></div>","null","ARRAY","2","trustrating_stim/white_mw085.bmp,trustrating_stim/white_mw078.bmp","0,1","noMatchOutcome","i","3000","","","","",""
"html-keyboard-response","112","290857","0.0-7.0-3.15","63d1401242635aaffe867c4c","bdp_wmem","Mon Mar 13 2023 12:16:48 GMT-0700 (Mountain Standard Time)","601013","Match,No Match","","null","","","","","","<div class='trialBorder'><div class='vertical-center'><img src='img/fixation2_sml.jpg'</img></div></div>","null","DELAY","","","","","","","","","","",""
"html-keyboard-response","113","292958","0.0-7.0-4.15","63d1401242635aaffe867c4c","bdp_wmem","Mon Mar 13 2023 12:16:48 GMT-0700 (Mountain Standard Time)","601013","Match,No Match","","2100","","","","","","<div class='trialBorder'><div class='targDiv'><div class='tc'><img class='introPic' src='trustrating_stim/white_mw085.bmp'><br><font color='green'><strong>Share</strong></font></div></div><div class='respDiv'><div class='respDivL'>Match<br>(e)</div><div class='respDivR'>No Match<br>(i)</div></div></div>","i","TARGET","2","trustrating_stim/white_mw085.bmp,trustrating_stim/white_mw078.bmp","0,1","noMatchOutcome","i","3000","trustrating_stim/white_mw085.bmp","green","Share","REAL","1"
"html-keyboard-response","114","293459","0.0-7.0-5.15","63d1401242635aaffe867c4c","bdp_wmem","Mon Mar 13 2023 12:16:48 GMT-0700 (Mountain Standard Time)","601013","Match,No Match","","null","","","","","","<div class='trialBorder'><div class='vertical-center'><img src='img/correct.jpg'></div><div class='respDiv'><div class='respDivL'>Match<br>(e)</div><div class='respDivR'><font style='color:orange'>No Match<br>(i)</font></div></div></div>","null","FEEDBACK","","","","","","","","","","",""
"html-keyboard-response","115","293960","0.0-7.0-1.16","63d1401242635aaffe867c4c","bdp_wmem","Mon Mar 13 2023 12:16:48 GMT-0700 (Mountain Standard Time)","601013","Match,No Match","","null","","","","","","<div class='trialBorder'><div class='vertical-center'><img src='img/fixation2_sml.jpg'</img></div></div>","null","FIX","","","","","","","","","","",""
"html-keyboard-response","116","298462","0.0-7.0-2.16","63d1401242635aaffe867c4c","bdp_wmem","Mon Mar 13 2023 12:16:48 GMT-0700 (Mountain Standard Time)","601013","Match,No Match","","null","","","","","","<div class='trialBorder'><div class='vertical-center'><img style='vertical-align:center; align:center' src='img/fixation2_sml.jpg'></div><div class='arrayDiv3'><div class='tl'><img class='introPic' src='trustrating_stim/white_mw091.bmp'><br><font color='red'><strong>Keep</strong></font></div><div class='tc'><img class='introPic' src='trustrating_stim/white_mw078.bmp'><br><font color='red'><strong>Keep</strong></font></div><div class='tr'><img class='introPic' src='trustrating_stim/white_mw070.bmp'><br><font color='green'><strong>Share</strong></font></div></div></div>","null","ARRAY","3","trustrating_stim/white_mw091.bmp,trustrating_stim/white_mw078.bmp,trustrating_stim/white_mw070.bmp","0,0,1","Match","e","4500","","","","",""
"html-keyboard-response","117","302465","0.0-7.0-3.16","63d1401242635aaffe867c4c","bdp_wmem","Mon Mar 13 2023 12:16:48 GMT-0700 (Mountain Standard Time)","601013","Match,No Match","","null","","","","","","<div class='trialBorder'><div class='vertical-center'><img src='img/fixation2_sml.jpg'</img></div></div>","null","DELAY","","","","","","","","","","",""
"html-keyboard-response","118","303762","0.0-7.0-4.16","63d1401242635aaffe867c4c","bdp_wmem","Mon Mar 13 2023 12:16:48 GMT-0700 (Mountain Standard Time)","601013","Match,No Match","","1296","","","","","","<div class='trialBorder'><div class='targDiv'><div class='tc'><img class='introPic' src='trustrating_stim/white_mw091.bmp'><br><font color='red'><strong>Keep</strong></font></div></div><div class='respDiv'><div class='respDivL'>Match<br>(e)</div><div class='respDivR'>No Match<br>(i)</div></div></div>","e","TARGET","3","trustrating_stim/white_mw091.bmp,trustrating_stim/white_mw078.bmp,trustrating_stim/white_mw070.bmp","0,0,1","Match","e","4500","trustrating_stim/white_mw091.bmp","red","Keep","REAL","1"
"html-keyboard-response","119","304263","0.0-7.0-5.16","63d1401242635aaffe867c4c","bdp_wmem","Mon Mar 13 2023 12:16:48 GMT-0700 (Mountain Standard Time)","601013","Match,No Match","","null","","","","","","<div class='trialBorder'><div class='vertical-center'><img src='img/correct.jpg'></div><div class='respDiv'><div class='respDivL'><font style='color:orange'>Match<br>(e)</font></div><div class='respDivR'>No Match<br>(i)</div></div></div>","null","FEEDBACK","","","","","","","","","","",""
"html-keyboard-response","120","304764","0.0-7.0-1.17","63d1401242635aaffe867c4c","bdp_wmem","Mon Mar 13 2023 12:16:48 GMT-0700 (Mountain Standard Time)","601013","Match,No Match","","null","","","","","","<div class='trialBorder'><div class='vertical-center'><img src='img/fixation2_sml.jpg'</img></div></div>","null","FIX","","","","","","","","","","",""
"html-keyboard-response","121","309265","0.0-7.0-2.17","63d1401242635aaffe867c4c","bdp_wmem","Mon Mar 13 2023 12:16:48 GMT-0700 (Mountain Standard Time)","601013","Match,No Match","","null","","","","","","<div class='trialBorder'><div class='vertical-center'><img style='vertical-align:center; align:center' src='img/fixation2_sml.jpg'></div><div class='arrayDiv3'><div class='tl'><img class='introPic' src='trustrating_stim/white_mw091.bmp'><br><font color='green'><strong>Share</strong></font></div><div class='tc'><img class='introPic' src='trustrating_stim/white_mw038.bmp'><br><font color='red'><strong>Keep</strong></font></div><div class='tr'><img class='introPic' src='trustrating_stim/white_mw085.bmp'><br><font color='green'><strong>Share</strong></font></div></div></div>","null","ARRAY","3","trustrating_stim/white_mw091.bmp,trustrating_stim/white_mw038.bmp,trustrating_stim/white_mw085.bmp","1,0,1","Match","e","4500","","","","",""
"html-keyboard-response","122","313266","0.0-7.0-3.17","63d1401242635aaffe867c4c","bdp_wmem","Mon Mar 13 2023 12:16:48 GMT-0700 (Mountain Standard Time)","601013","Match,No Match","","null","","","","","","<div class='trialBorder'><div class='vertical-center'><img src='img/fixation2_sml.jpg'</img></div></div>","null","DELAY","","","","","","","","","","",""
"html-keyboard-response","123","314878","0.0-7.0-4.17","63d1401242635aaffe867c4c","bdp_wmem","Mon Mar 13 2023 12:16:48 GMT-0700 (Mountain Standard Time)","601013","Match,No Match","","1611","","","","","","<div class='trialBorder'><div class='targDiv'><div class='tc'><img class='introPic' src='trustrating_stim/white_mw085.bmp'><br><font color='green'><strong>Share</strong></font></div></div><div class='respDiv'><div class='respDivL'>Match<br>(e)</div><div class='respDivR'>No Match<br>(i)</div></div></div>","e","TARGET","3","trustrating_stim/white_mw091.bmp,trustrating_stim/white_mw038.bmp,trustrating_stim/white_mw085.bmp","1,0,1","Match","e","4500","trustrating_stim/white_mw085.bmp","green","Share","REAL","1"
"html-keyboard-response","124","315379","0.0-7.0-5.17","63d1401242635aaffe867c4c","bdp_wmem","Mon Mar 13 2023 12:16:48 GMT-0700 (Mountain Standard Time)","601013","Match,No Match","","null","","","","","","<div class='trialBorder'><div class='vertical-center'><img src='img/correct.jpg'></div><div class='respDiv'><div class='respDivL'><font style='color:orange'>Match<br>(e)</font></div><div class='respDivR'>No Match<br>(i)</div></div></div>","null","FEEDBACK","","","","","","","","","","",""
"html-keyboard-response","125","315881","0.0-7.0-1.18","63d1401242635aaffe867c4c","bdp_wmem","Mon Mar 13 2023 12:16:48 GMT-0700 (Mountain Standard Time)","601013","Match,No Match","","null","","","","","","<div class='trialBorder'><div class='vertical-center'><img src='img/fixation2_sml.jpg'</img></div></div>","null","FIX","","","","","","","","","","",""
"html-keyboard-response","126","318883","0.0-7.0-2.18","63d1401242635aaffe867c4c","bdp_wmem","Mon Mar 13 2023 12:16:48 GMT-0700 (Mountain Standard Time)","601013","Match,No Match","","null","","","","","","<div class='trialBorder'><div class='vertical-center'><img style='vertical-align:center; align:center' src='img/fixation2_sml.jpg'></div><div class='arrayDiv2'><div class='tl'><img class='introPic' src='trustrating_stim/white_mw010.bmp'><br><font color='red'><strong>Keep</strong></font></div><div class='tr'><img class='introPic' src='trustrating_stim/white_mw042.bmp'><br><font color='green'><strong>Share</strong></font></div></div></div>","null","ARRAY","2","trustrating_stim/white_mw010.bmp,trustrating_stim/white_mw042.bmp","0,1","Match","e","3000","","","","",""
"html-keyboard-response","127","322884","0.0-7.0-3.18","63d1401242635aaffe867c4c","bdp_wmem","Mon Mar 13 2023 12:16:48 GMT-0700 (Mountain Standard Time)","601013","Match,No Match","","null","","","","","","<div class='trialBorder'><div class='vertical-center'><img src='img/fixation2_sml.jpg'</img></div></div>","null","DELAY","","","","","","","","","","",""
"html-keyboard-response","128","325026","0.0-7.0-4.18","63d1401242635aaffe867c4c","bdp_wmem","Mon Mar 13 2023 12:16:48 GMT-0700 (Mountain Standard Time)","601013","Match,No Match","","2141","","","","","","<div class='trialBorder'><div class='targDiv'><div class='tc'><img class='introPic' src='trustrating_stim/white_mw010.bmp'><br><font color='red'><strong>Keep</strong></font></div></div><div class='respDiv'><div class='respDivL'>Match<br>(e)</div><div class='respDivR'>No Match<br>(i)</div></div></div>","e","TARGET","2","trustrating_stim/white_mw010.bmp,trustrating_stim/white_mw042.bmp","0,1","Match","e","3000","trustrating_stim/white_mw010.bmp","red","Keep","REAL","1"
"html-keyboard-response","129","325526","0.0-7.0-5.18","63d1401242635aaffe867c4c","bdp_wmem","Mon Mar 13 2023 12:16:48 GMT-0700 (Mountain Standard Time)","601013","Match,No Match","","null","","","","","","<div class='trialBorder'><div class='vertical-center'><img src='img/correct.jpg'></div><div class='respDiv'><div class='respDivL'><font style='color:orange'>Match<br>(e)</font></div><div class='respDivR'>No Match<br>(i)</div></div></div>","null","FEEDBACK","","","","","","","","","","",""
"html-keyboard-response","130","326027","0.0-7.0-1.19","63d1401242635aaffe867c4c","bdp_wmem","Mon Mar 13 2023 12:16:48 GMT-0700 (Mountain Standard Time)","601013","Match,No Match","","null","","","","","","<div class='trialBorder'><div class='vertical-center'><img src='img/fixation2_sml.jpg'</img></div></div>","null","FIX","","","","","","","","","","",""
"html-keyboard-response","131","330530","0.0-7.0-2.19","63d1401242635aaffe867c4c","bdp_wmem","Mon Mar 13 2023 12:16:48 GMT-0700 (Mountain Standard Time)","601013","Match,No Match","","null","","","","","","<div class='trialBorder'><div class='vertical-center'><img style='vertical-align:center; align:center' src='img/fixation2_sml.jpg'></div><div class='arrayDiv3'><div class='tl'><img class='introPic' src='trustrating_stim/white_mw012.bmp'><br><font color='green'><strong>Share</strong></font></div><div class='tc'><img class='introPic' src='trustrating_stim/white_mw092.bmp'><br><font color='red'><strong>Keep</strong></font></div><div class='tr'><img class='introPic' src='trustrating_stim/white_mw040.bmp'><br><font color='green'><strong>Share</strong></font></div></div></div>","null","ARRAY","3","trustrating_stim/white_mw012.bmp,trustrating_stim/white_mw092.bmp,trustrating_stim/white_mw040.bmp","1,0,1","Match","e","4500","","","","",""
"html-keyboard-response","132","334531","0.0-7.0-3.19","63d1401242635aaffe867c4c","bdp_wmem","Mon Mar 13 2023 12:16:48 GMT-0700 (Mountain Standard Time)","601013","Match,No Match","","null","","","","","","<div class='trialBorder'><div class='vertical-center'><img src='img/fixation2_sml.jpg'</img></div></div>","null","DELAY","","","","","","","","","","",""
"html-keyboard-response","133","335613","0.0-7.0-4.19","63d1401242635aaffe867c4c","bdp_wmem","Mon Mar 13 2023 12:16:48 GMT-0700 (Mountain Standard Time)","601013","Match,No Match","","1080","","","","","","<div class='trialBorder'><div class='targDiv'><div class='tc'><img class='introPic' src='trustrating_stim/white_mw012.bmp'><br><font color='green'><strong>Share</strong></font></div></div><div class='respDiv'><div class='respDivL'>Match<br>(e)</div><div class='respDivR'>No Match<br>(i)</div></div></div>","e","TARGET","3","trustrating_stim/white_mw012.bmp,trustrating_stim/white_mw092.bmp,trustrating_stim/white_mw040.bmp","1,0,1","Match","e","4500","trustrating_stim/white_mw012.bmp","green","Share","REAL","1"
"html-keyboard-response","134","336114","0.0-7.0-5.19","63d1401242635aaffe867c4c","bdp_wmem","Mon Mar 13 2023 12:16:48 GMT-0700 (Mountain Standard Time)","601013","Match,No Match","","null","","","","","","<div class='trialBorder'><div class='vertical-center'><img src='img/correct.jpg'></div><div class='respDiv'><div class='respDivL'><font style='color:orange'>Match<br>(e)</font></div><div class='respDivR'>No Match<br>(i)</div></div></div>","null","FEEDBACK","","","","","","","","","","",""
"html-keyboard-response","135","336615","0.0-7.0-1.20","63d1401242635aaffe867c4c","bdp_wmem","Mon Mar 13 2023 12:16:48 GMT-0700 (Mountain Standard Time)","601013","Match,No Match","","null","","","","","","<div class='trialBorder'><div class='vertical-center'><img src='img/fixation2_sml.jpg'</img></div></div>","null","FIX","","","","","","","","","","",""
"html-keyboard-response","136","339616","0.0-7.0-2.20","63d1401242635aaffe867c4c","bdp_wmem","Mon Mar 13 2023 12:16:48 GMT-0700 (Mountain Standard Time)","601013","Match,No Match","","null","","","","","","<div class='trialBorder'><div class='vertical-center'><img style='vertical-align:center; align:center' src='img/fixation2_sml.jpg'></div><div class='arrayDiv2'><div class='tl'><img class='introPic' src='trustrating_stim/white_mw092.bmp'><br><font color='red'><strong>Keep</strong></font></div><div class='tr'><img class='introPic' src='trustrating_stim/white_mw012.bmp'><br><font color='green'><strong>Share</strong></font></div></div></div>","null","ARRAY","2","trustrating_stim/white_mw092.bmp,trustrating_stim/white_mw012.bmp","0,1","noMatchFace","i","3000","","","","",""
"html-keyboard-response","137","343618","0.0-7.0-3.20","63d1401242635aaffe867c4c","bdp_wmem","Mon Mar 13 2023 12:16:48 GMT-0700 (Mountain Standard Time)","601013","Match,No Match","","null","","","","","","<div class='trialBorder'><div class='vertical-center'><img src='img/fixation2_sml.jpg'</img></div></div>","null","DELAY","","","","","","","","","","",""
"html-keyboard-response","138","344714","0.0-7.0-4.20","63d1401242635aaffe867c4c","bdp_wmem","Mon Mar 13 2023 12:16:48 GMT-0700 (Mountain Standard Time)","601013","Match,No Match","","1094","","","","","","<div class='trialBorder'><div class='targDiv'><div class='tc'><img class='introPic' src='trustrating_stim/white_mw091.bmp'><br><font color='green'><strong>Share</strong></font></div></div><div class='respDiv'><div class='respDivL'>Match<br>(e)</div><div class='respDivR'>No Match<br>(i)</div></div></div>","i","TARGET","2","trustrating_stim/white_mw092.bmp,trustrating_stim/white_mw012.bmp","0,1","noMatchFace","i","3000","trustrating_stim/white_mw091.bmp","green","Share","REAL","1"
"html-keyboard-response","139","345215","0.0-7.0-5.20","63d1401242635aaffe867c4c","bdp_wmem","Mon Mar 13 2023 12:16:48 GMT-0700 (Mountain Standard Time)","601013","Match,No Match","","null","","","","","","<div class='trialBorder'><div class='vertical-center'><img src='img/correct.jpg'></div><div class='respDiv'><div class='respDivL'>Match<br>(e)</div><div class='respDivR'><font style='color:orange'>No Match<br>(i)</font></div></div></div>","null","FEEDBACK","","","","","","","","","","",""
"html-keyboard-response","140","345717","0.0-7.0-1.21","63d1401242635aaffe867c4c","bdp_wmem","Mon Mar 13 2023 12:16:48 GMT-0700 (Mountain Standard Time)","601013","Match,No Match","","null","","","","","","<div class='trialBorder'><div class='vertical-center'><img src='img/fixation2_sml.jpg'</img></div></div>","null","FIX","","","","","","","","","","",""
"html-keyboard-response","141","350218","0.0-7.0-2.21","63d1401242635aaffe867c4c","bdp_wmem","Mon Mar 13 2023 12:16:48 GMT-0700 (Mountain Standard Time)","601013","Match,No Match","","null","","","","","","<div class='trialBorder'><div class='vertical-center'><img style='vertical-align:center; align:center' src='img/fixation2_sml.jpg'></div><div class='arrayDiv3'><div class='tl'><img class='introPic' src='trustrating_stim/white_mw042.bmp'><br><font color='green'><strong>Share</strong></font></div><div class='tc'><img class='introPic' src='trustrating_stim/white_mw010.bmp'><br><font color='red'><strong>Keep</strong></font></div><div class='tr'><img class='introPic' src='trustrating_stim/white_mw038.bmp'><br><font color='green'><strong>Share</strong></font></div></div></div>","null","ARRAY","3","trustrating_stim/white_mw042.bmp,trustrating_stim/white_mw010.bmp,trustrating_stim/white_mw038.bmp","1,0,1","noMatchOutcome","i","4500","","","","",""
"html-keyboard-response","142","354220","0.0-7.0-3.21","63d1401242635aaffe867c4c","bdp_wmem","Mon Mar 13 2023 12:16:48 GMT-0700 (Mountain Standard Time)","601013","Match,No Match","","null","","","","","","<div class='trialBorder'><div class='vertical-center'><img src='img/fixation2_sml.jpg'</img></div></div>","null","DELAY","","","","","","","","","","",""
"html-keyboard-response","143","356284","0.0-7.0-4.21","63d1401242635aaffe867c4c","bdp_wmem","Mon Mar 13 2023 12:16:48 GMT-0700 (Mountain Standard Time)","601013","Match,No Match","","2063","","","","","","<div class='trialBorder'><div class='targDiv'><div class='tc'><img class='introPic' src='trustrating_stim/white_mw042.bmp'><br><font color='red'><strong>Keep</strong></font></div></div><div class='respDiv'><div class='respDivL'>Match<br>(e)</div><div class='respDivR'>No Match<br>(i)</div></div></div>","e","TARGET","3","trustrating_stim/white_mw042.bmp,trustrating_stim/white_mw010.bmp,trustrating_stim/white_mw038.bmp","1,0,1","noMatchOutcome","i","4500","trustrating_stim/white_mw042.bmp","red","Keep","REAL","0"
"html-keyboard-response","144","356785","0.0-7.0-5.21","63d1401242635aaffe867c4c","bdp_wmem","Mon Mar 13 2023 12:16:48 GMT-0700 (Mountain Standard Time)","601013","Match,No Match","","null","","","","","","<div class='trialBorder'><div class='vertical-center'><img src='img/error.jpg'></div><div class='respDiv'><div class='respDivL'><font style='color:orange'>Match<br>(e)</font></div><div class='respDivR'>No Match<br>(i)</div></div></div>","null","FEEDBACK","","","","","","","","","","",""
"html-keyboard-response","145","357286","0.0-7.0-1.22","63d1401242635aaffe867c4c","bdp_wmem","Mon Mar 13 2023 12:16:48 GMT-0700 (Mountain Standard Time)","601013","Match,No Match","","null","","","","","","<div class='trialBorder'><div class='vertical-center'><img src='img/fixation2_sml.jpg'</img></div></div>","null","FIX","","","","","","","","","","",""
"html-keyboard-response","146","361788","0.0-7.0-2.22","63d1401242635aaffe867c4c","bdp_wmem","Mon Mar 13 2023 12:16:48 GMT-0700 (Mountain Standard Time)","601013","Match,No Match","","null","","","","","","<div class='trialBorder'><div class='vertical-center'><img style='vertical-align:center; align:center' src='img/fixation2_sml.jpg'></div><div class='arrayDiv3'><div class='tl'><img class='introPic' src='trustrating_stim/white_mw038.bmp'><br><font color='green'><strong>Share</strong></font></div><div class='tc'><img class='introPic' src='trustrating_stim/white_mw010.bmp'><br><font color='red'><strong>Keep</strong></font></div><div class='tr'><img class='introPic' src='trustrating_stim/white_mw012.bmp'><br><font color='green'><strong>Share</strong></font></div></div></div>","null","ARRAY","3","trustrating_stim/white_mw038.bmp,trustrating_stim/white_mw010.bmp,trustrating_stim/white_mw012.bmp","1,0,1","noMatchOutcome","i","4500","","","","",""
"html-keyboard-response","147","365789","0.0-7.0-3.22","63d1401242635aaffe867c4c","bdp_wmem","Mon Mar 13 2023 12:16:48 GMT-0700 (Mountain Standard Time)","601013","Match,No Match","","null","","","","","","<div class='trialBorder'><div class='vertical-center'><img src='img/fixation2_sml.jpg'</img></div></div>","null","DELAY","","","","","","","","","","",""
"html-keyboard-response","148","367535","0.0-7.0-4.22","63d1401242635aaffe867c4c","bdp_wmem","Mon Mar 13 2023 12:16:48 GMT-0700 (Mountain Standard Time)","601013","Match,No Match","","1745","","","","","","<div class='trialBorder'><div class='targDiv'><div class='tc'><img class='introPic' src='trustrating_stim/white_mw012.bmp'><br><font color='red'><strong>Keep</strong></font></div></div><div class='respDiv'><div class='respDivL'>Match<br>(e)</div><div class='respDivR'>No Match<br>(i)</div></div></div>","i","TARGET","3","trustrating_stim/white_mw038.bmp,trustrating_stim/white_mw010.bmp,trustrating_stim/white_mw012.bmp","1,0,1","noMatchOutcome","i","4500","trustrating_stim/white_mw012.bmp","red","Keep","REAL","1"
"html-keyboard-response","149","368036","0.0-7.0-5.22","63d1401242635aaffe867c4c","bdp_wmem","Mon Mar 13 2023 12:16:48 GMT-0700 (Mountain Standard Time)","601013","Match,No Match","","null","","","","","","<div class='trialBorder'><div class='vertical-center'><img src='img/correct.jpg'></div><div class='respDiv'><div class='respDivL'>Match<br>(e)</div><div class='respDivR'><font style='color:orange'>No Match<br>(i)</font></div></div></div>","null","FEEDBACK","","","","","","","","","","",""
"html-keyboard-response","150","368538","0.0-7.0-1.23","63d1401242635aaffe867c4c","bdp_wmem","Mon Mar 13 2023 12:16:48 GMT-0700 (Mountain Standard Time)","601013","Match,No Match","","null","","","","","","<div class='trialBorder'><div class='vertical-center'><img src='img/fixation2_sml.jpg'</img></div></div>","null","FIX","","","","","","","","","","",""
"html-keyboard-response","151","371540","0.0-7.0-2.23","63d1401242635aaffe867c4c","bdp_wmem","Mon Mar 13 2023 12:16:48 GMT-0700 (Mountain Standard Time)","601013","Match,No Match","","null","","","","","","<div class='trialBorder'><div class='vertical-center'><img style='vertical-align:center; align:center' src='img/fixation2_sml.jpg'></div><div class='arrayDiv2'><div class='tl'><img class='introPic' src='trustrating_stim/white_mw040.bmp'><br><font color='green'><strong>Share</strong></font></div><div class='tr'><img class='introPic' src='trustrating_stim/white_mw091.bmp'><br><font color='red'><strong>Keep</strong></font></div></div></div>","null","ARRAY","2","trustrating_stim/white_mw040.bmp,trustrating_stim/white_mw091.bmp","1,0","noMatchOutcome","i","3000","","","","",""
"html-keyboard-response","152","375542","0.0-7.0-3.23","63d1401242635aaffe867c4c","bdp_wmem","Mon Mar 13 2023 12:16:48 GMT-0700 (Mountain Standard Time)","601013","Match,No Match","","null","","","","","","<div class='trialBorder'><div class='vertical-center'><img src='img/fixation2_sml.jpg'</img></div></div>","null","DELAY","","","","","","","","","","",""
"html-keyboard-response","153","377027","0.0-7.0-4.23","63d1401242635aaffe867c4c","bdp_wmem","Mon Mar 13 2023 12:16:48 GMT-0700 (Mountain Standard Time)","601013","Match,No Match","","1484","","","","","","<div class='trialBorder'><div class='targDiv'><div class='tc'><img class='introPic' src='trustrating_stim/white_mw040.bmp'><br><font color='red'><strong>Keep</strong></font></div></div><div class='respDiv'><div class='respDivL'>Match<br>(e)</div><div class='respDivR'>No Match<br>(i)</div></div></div>","i","TARGET","2","trustrating_stim/white_mw040.bmp,trustrating_stim/white_mw091.bmp","1,0","noMatchOutcome","i","3000","trustrating_stim/white_mw040.bmp","red","Keep","REAL","1"
"html-keyboard-response","154","377528","0.0-7.0-5.23","63d1401242635aaffe867c4c","bdp_wmem","Mon Mar 13 2023 12:16:48 GMT-0700 (Mountain Standard Time)","601013","Match,No Match","","null","","","","","","<div class='trialBorder'><div class='vertical-center'><img src='img/correct.jpg'></div><div class='respDiv'><div class='respDivL'>Match<br>(e)</div><div class='respDivR'><font style='color:orange'>No Match<br>(i)</font></div></div></div>","null","FEEDBACK","","","","","","","","","","",""
"html-keyboard-response","155","378030","0.0-7.0-1.24","63d1401242635aaffe867c4c","bdp_wmem","Mon Mar 13 2023 12:16:48 GMT-0700 (Mountain Standard Time)","601013","Match,No Match","","null","","","","","","<div class='trialBorder'><div class='vertical-center'><img src='img/fixation2_sml.jpg'</img></div></div>","null","FIX","","","","","","","","","","",""
"html-keyboard-response","156","382532","0.0-7.0-2.24","63d1401242635aaffe867c4c","bdp_wmem","Mon Mar 13 2023 12:16:48 GMT-0700 (Mountain Standard Time)","601013","Match,No Match","","null","","","","","","<div class='trialBorder'><div class='vertical-center'><img style='vertical-align:center; align:center' src='img/fixation2_sml.jpg'></div><div class='arrayDiv3'><div class='tl'><img class='introPic' src='trustrating_stim/white_mw085.bmp'><br><font color='red'><strong>Keep</strong></font></div><div class='tc'><img class='introPic' src='trustrating_stim/white_mw003.bmp'><br><font color='green'><strong>Share</strong></font></div><div class='tr'><img class='introPic' src='trustrating_stim/white_mw078.bmp'><br><font color='red'><strong>Keep</strong></font></div></div></div>","null","ARRAY","3","trustrating_stim/white_mw085.bmp,trustrating_stim/white_mw003.bmp,trustrating_stim/white_mw078.bmp","0,1,0","noMatchOutcome","i","4500","","","","",""
"html-keyboard-response","157","386533","0.0-7.0-3.24","63d1401242635aaffe867c4c","bdp_wmem","Mon Mar 13 2023 12:16:48 GMT-0700 (Mountain Standard Time)","601013","Match,No Match","","null","","","","","","<div class='trialBorder'><div class='vertical-center'><img src='img/fixation2_sml.jpg'</img></div></div>","null","DELAY","","","","","","","","","","",""
"html-keyboard-response","158","388037","0.0-7.0-4.24","63d1401242635aaffe867c4c","bdp_wmem","Mon Mar 13 2023 12:16:48 GMT-0700 (Mountain Standard Time)","601013","Match,No Match","","1503","","","","","","<div class='trialBorder'><div class='targDiv'><div class='tc'><img class='introPic' src='trustrating_stim/white_mw003.bmp'><br><font color='red'><strong>Keep</strong></font></div></div><div class='respDiv'><div class='respDivL'>Match<br>(e)</div><div class='respDivR'>No Match<br>(i)</div></div></div>","i","TARGET","3","trustrating_stim/white_mw085.bmp,trustrating_stim/white_mw003.bmp,trustrating_stim/white_mw078.bmp","0,1,0","noMatchOutcome","i","4500","trustrating_stim/white_mw003.bmp","red","Keep","REAL","1"
"html-keyboard-response","159","388538","0.0-7.0-5.24","63d1401242635aaffe867c4c","bdp_wmem","Mon Mar 13 2023 12:16:48 GMT-0700 (Mountain Standard Time)","601013","Match,No Match","","null","","","","","","<div class='trialBorder'><div class='vertical-center'><img src='img/correct.jpg'></div><div class='respDiv'><div class='respDivL'>Match<br>(e)</div><div class='respDivR'><font style='color:orange'>No Match<br>(i)</font></div></div></div>","null","FEEDBACK","","","","","","","","","","",""
"html-keyboard-response","160","389039","0.0-7.0-1.25","63d1401242635aaffe867c4c","bdp_wmem","Mon Mar 13 2023 12:16:48 GMT-0700 (Mountain Standard Time)","601013","Match,No Match","","null","","","","","","<div class='trialBorder'><div class='vertical-center'><img src='img/fixation2_sml.jpg'</img></div></div>","null","FIX","","","","","","","","","","",""
"html-keyboard-response","161","393541","0.0-7.0-2.25","63d1401242635aaffe867c4c","bdp_wmem","Mon Mar 13 2023 12:16:48 GMT-0700 (Mountain Standard Time)","601013","Match,No Match","","null","","","","","","<div class='trialBorder'><div class='vertical-center'><img style='vertical-align:center; align:center' src='img/fixation2_sml.jpg'></div><div class='arrayDiv3'><div class='tl'><img class='introPic' src='trustrating_stim/white_mw003.bmp'><br><font color='green'><strong>Share</strong></font></div><div class='tc'><img class='introPic' src='trustrating_stim/white_mw092.bmp'><br><font color='red'><strong>Keep</strong></font></div><div class='tr'><img class='introPic' src='trustrating_stim/white_mw091.bmp'><br><font color='red'><strong>Keep</strong></font></div></div></div>","null","ARRAY","3","trustrating_stim/white_mw003.bmp,trustrating_stim/white_mw092.bmp,trustrating_stim/white_mw091.bmp","1,0,0","noMatchFace","i","4500","","","","",""
"html-keyboard-response","162","397543","0.0-7.0-3.25","63d1401242635aaffe867c4c","bdp_wmem","Mon Mar 13 2023 12:16:48 GMT-0700 (Mountain Standard Time)","601013","Match,No Match","","null","","","","","","<div class='trialBorder'><div class='vertical-center'><img src='img/fixation2_sml.jpg'</img></div></div>","null","DELAY","","","","","","","","","","",""
"html-keyboard-response","163","398604","0.0-7.0-4.25","63d1401242635aaffe867c4c","bdp_wmem","Mon Mar 13 2023 12:16:48 GMT-0700 (Mountain Standard Time)","601013","Match,No Match","","1061","","","","","","<div class='trialBorder'><div class='targDiv'><div class='tc'><img class='introPic' src='trustrating_stim/white_mw012.bmp'><br><font color='red'><strong>Keep</strong></font></div></div><div class='respDiv'><div class='respDivL'>Match<br>(e)</div><div class='respDivR'>No Match<br>(i)</div></div></div>","i","TARGET","3","trustrating_stim/white_mw003.bmp,trustrating_stim/white_mw092.bmp,trustrating_stim/white_mw091.bmp","1,0,0","noMatchFace","i","4500","trustrating_stim/white_mw012.bmp","red","Keep","REAL","1"
"html-keyboard-response","164","399105","0.0-7.0-5.25","63d1401242635aaffe867c4c","bdp_wmem","Mon Mar 13 2023 12:16:48 GMT-0700 (Mountain Standard Time)","601013","Match,No Match","","null","","","","","","<div class='trialBorder'><div class='vertical-center'><img src='img/correct.jpg'></div><div class='respDiv'><div class='respDivL'>Match<br>(e)</div><div class='respDivR'><font style='color:orange'>No Match<br>(i)</font></div></div></div>","null","FEEDBACK","","","","","","","","","","",""
"html-keyboard-response","165","399606","0.0-7.0-1.26","63d1401242635aaffe867c4c","bdp_wmem","Mon Mar 13 2023 12:16:48 GMT-0700 (Mountain Standard Time)","601013","Match,No Match","","null","","","","","","<div class='trialBorder'><div class='vertical-center'><img src='img/fixation2_sml.jpg'</img></div></div>","null","FIX","","","","","","","","","","",""
"html-keyboard-response","166","401108","0.0-7.0-2.26","63d1401242635aaffe867c4c","bdp_wmem","Mon Mar 13 2023 12:16:48 GMT-0700 (Mountain Standard Time)","601013","Match,No Match","","null","","","","","","<div class='trialBorder'><div class='vertical-center'><img style='vertical-align:center; align:center' src='img/fixation2_sml.jpg'></div><div class='arrayDiv1'><div class='tc'><img class='introPic' src='trustrating_stim/white_mw078.bmp'><br><font color='green'><strong>Share</strong></font></div></div></div>","null","ARRAY","1","trustrating_stim/white_mw078.bmp","1","noMatchOutcome","i","1500","","","","",""
"html-keyboard-response","167","405110","0.0-7.0-3.26","63d1401242635aaffe867c4c","bdp_wmem","Mon Mar 13 2023 12:16:48 GMT-0700 (Mountain Standard Time)","601013","Match,No Match","","null","","","","","","<div class='trialBorder'><div class='vertical-center'><img src='img/fixation2_sml.jpg'</img></div></div>","null","DELAY","","","","","","","","","","",""
"html-keyboard-response","168","406126","0.0-7.0-4.26","63d1401242635aaffe867c4c","bdp_wmem","Mon Mar 13 2023 12:16:48 GMT-0700 (Mountain Standard Time)","601013","Match,No Match","","1015","","","","","","<div class='trialBorder'><div class='targDiv'><div class='tc'><img class='introPic' src='trustrating_stim/white_mw078.bmp'><br><font color='red'><strong>Keep</strong></font></div></div><div class='respDiv'><div class='respDivL'>Match<br>(e)</div><div class='respDivR'>No Match<br>(i)</div></div></div>","i","TARGET","1","trustrating_stim/white_mw078.bmp","1","noMatchOutcome","i","1500","trustrating_stim/white_mw078.bmp","red","Keep","REAL","1"
"html-keyboard-response","169","406627","0.0-7.0-5.26","63d1401242635aaffe867c4c","bdp_wmem","Mon Mar 13 2023 12:16:48 GMT-0700 (Mountain Standard Time)","601013","Match,No Match","","null","","","","","","<div class='trialBorder'><div class='vertical-center'><img src='img/correct.jpg'></div><div class='respDiv'><div class='respDivL'>Match<br>(e)</div><div class='respDivR'><font style='color:orange'>No Match<br>(i)</font></div></div></div>","null","FEEDBACK","","","","","","","","","","",""
"html-keyboard-response","170","407128","0.0-7.0-1.27","63d1401242635aaffe867c4c","bdp_wmem","Mon Mar 13 2023 12:16:48 GMT-0700 (Mountain Standard Time)","601013","Match,No Match","","null","","","","","","<div class='trialBorder'><div class='vertical-center'><img src='img/fixation2_sml.jpg'</img></div></div>","null","FIX","","","","","","","","","","",""
"html-keyboard-response","171","410130","0.0-7.0-2.27","63d1401242635aaffe867c4c","bdp_wmem","Mon Mar 13 2023 12:16:48 GMT-0700 (Mountain Standard Time)","601013","Match,No Match","","null","","","","","","<div class='trialBorder'><div class='vertical-center'><img style='vertical-align:center; align:center' src='img/fixation2_sml.jpg'></div><div class='arrayDiv2'><div class='tl'><img class='introPic' src='trustrating_stim/white_mw085.bmp'><br><font color='red'><strong>Keep</strong></font></div><div class='tr'><img class='introPic' src='trustrating_stim/white_mw010.bmp'><br><font color='green'><strong>Share</strong></font></div></div></div>","null","ARRAY","2","trustrating_stim/white_mw085.bmp,trustrating_stim/white_mw010.bmp","0,1","Match","e","3000","","","","",""
"html-keyboard-response","172","414131","0.0-7.0-3.27","63d1401242635aaffe867c4c","bdp_wmem","Mon Mar 13 2023 12:16:48 GMT-0700 (Mountain Standard Time)","601013","Match,No Match","","null","","","","","","<div class='trialBorder'><div class='vertical-center'><img src='img/fixation2_sml.jpg'</img></div></div>","null","DELAY","","","","","","","","","","",""
"html-keyboard-response","173","415366","0.0-7.0-4.27","63d1401242635aaffe867c4c","bdp_wmem","Mon Mar 13 2023 12:16:48 GMT-0700 (Mountain Standard Time)","601013","Match,No Match","","1233","","","","","","<div class='trialBorder'><div class='targDiv'><div class='tc'><img class='introPic' src='trustrating_stim/white_mw085.bmp'><br><font color='red'><strong>Keep</strong></font></div></div><div class='respDiv'><div class='respDivL'>Match<br>(e)</div><div class='respDivR'>No Match<br>(i)</div></div></div>","e","TARGET","2","trustrating_stim/white_mw085.bmp,trustrating_stim/white_mw010.bmp","0,1","Match","e","3000","trustrating_stim/white_mw085.bmp","red","Keep","REAL","1"
"html-keyboard-response","174","415867","0.0-7.0-5.27","63d1401242635aaffe867c4c","bdp_wmem","Mon Mar 13 2023 12:16:48 GMT-0700 (Mountain Standard Time)","601013","Match,No Match","","null","","","","","","<div class='trialBorder'><div class='vertical-center'><img src='img/correct.jpg'></div><div class='respDiv'><div class='respDivL'><font style='color:orange'>Match<br>(e)</font></div><div class='respDivR'>No Match<br>(i)</div></div></div>","null","FEEDBACK","","","","","","","","","","",""
"html-keyboard-response","175","416368","0.0-7.0-1.28","63d1401242635aaffe867c4c","bdp_wmem","Mon Mar 13 2023 12:16:48 GMT-0700 (Mountain Standard Time)","601013","Match,No Match","","null","","","","","","<div class='trialBorder'><div class='vertical-center'><img src='img/fixation2_sml.jpg'</img></div></div>","null","FIX","","","","","","","","","","",""
"html-keyboard-response","176","420869","0.0-7.0-2.28","63d1401242635aaffe867c4c","bdp_wmem","Mon Mar 13 2023 12:16:48 GMT-0700 (Mountain Standard Time)","601013","Match,No Match","","null","","","","","","<div class='trialBorder'><div class='vertical-center'><img style='vertical-align:center; align:center' src='img/fixation2_sml.jpg'></div><div class='arrayDiv3'><div class='tl'><img class='introPic' src='trustrating_stim/white_mw078.bmp'><br><font color='green'><strong>Share</strong></font></div><div class='tc'><img class='introPic' src='trustrating_stim/white_mw003.bmp'><br><font color='red'><strong>Keep</strong></font></div><div class='tr'><img class='introPic' src='trustrating_stim/white_mw010.bmp'><br><font color='green'><strong>Share</strong></font></div></div></div>","null","ARRAY","3","trustrating_stim/white_mw078.bmp,trustrating_stim/white_mw003.bmp,trustrating_stim/white_mw010.bmp","1,0,1","noMatchFace","i","4500","","","","",""
"html-keyboard-response","177","424870","0.0-7.0-3.28","63d1401242635aaffe867c4c","bdp_wmem","Mon Mar 13 2023 12:16:48 GMT-0700 (Mountain Standard Time)","601013","Match,No Match","","null","","","","","","<div class='trialBorder'><div class='vertical-center'><img src='img/fixation2_sml.jpg'</img></div></div>","null","DELAY","","","","","","","","","","",""
"html-keyboard-response","178","425848","0.0-7.0-4.28","63d1401242635aaffe867c4c","bdp_wmem","Mon Mar 13 2023 12:16:48 GMT-0700 (Mountain Standard Time)","601013","Match,No Match","","977","","","","","","<div class='trialBorder'><div class='targDiv'><div class='tc'><img class='introPic' src='trustrating_stim/white_mw092.bmp'><br><font color='green'><strong>Share</strong></font></div></div><div class='respDiv'><div class='respDivL'>Match<br>(e)</div><div class='respDivR'>No Match<br>(i)</div></div></div>","i","TARGET","3","trustrating_stim/white_mw078.bmp,trustrating_stim/white_mw003.bmp,trustrating_stim/white_mw010.bmp","1,0,1","noMatchFace","i","4500","trustrating_stim/white_mw092.bmp","green","Share","REAL","1"
"html-keyboard-response","179","426349","0.0-7.0-5.28","63d1401242635aaffe867c4c","bdp_wmem","Mon Mar 13 2023 12:16:48 GMT-0700 (Mountain Standard Time)","601013","Match,No Match","","null","","","","","","<div class='trialBorder'><div class='vertical-center'><img src='img/correct.jpg'></div><div class='respDiv'><div class='respDivL'>Match<br>(e)</div><div class='respDivR'><font style='color:orange'>No Match<br>(i)</font></div></div></div>","null","FEEDBACK","","","","","","","","","","",""
"html-keyboard-response","180","426851","0.0-7.0-1.29","63d1401242635aaffe867c4c","bdp_wmem","Mon Mar 13 2023 12:16:48 GMT-0700 (Mountain Standard Time)","601013","Match,No Match","","null","","","","","","<div class='trialBorder'><div class='vertical-center'><img src='img/fixation2_sml.jpg'</img></div></div>","null","FIX","","","","","","","","","","",""
"html-keyboard-response","181","428353","0.0-7.0-2.29","63d1401242635aaffe867c4c","bdp_wmem","Mon Mar 13 2023 12:16:48 GMT-0700 (Mountain Standard Time)","601013","Match,No Match","","null","","","","","","<div class='trialBorder'><div class='vertical-center'><img style='vertical-align:center; align:center' src='img/fixation2_sml.jpg'></div><div class='arrayDiv1'><div class='tc'><img class='introPic' src='trustrating_stim/white_mw091.bmp'><br><font color='green'><strong>Share</strong></font></div></div></div>","null","ARRAY","1","trustrating_stim/white_mw091.bmp","1","Match","e","1500","","","","",""
"html-keyboard-response","182","432354","0.0-7.0-3.29","63d1401242635aaffe867c4c","bdp_wmem","Mon Mar 13 2023 12:16:48 GMT-0700 (Mountain Standard Time)","601013","Match,No Match","","null","","","","","","<div class='trialBorder'><div class='vertical-center'><img src='img/fixation2_sml.jpg'</img></div></div>","null","DELAY","","","","","","","","","","",""
"html-keyboard-response","183","433262","0.0-7.0-4.29","63d1401242635aaffe867c4c","bdp_wmem","Mon Mar 13 2023 12:16:48 GMT-0700 (Mountain Standard Time)","601013","Match,No Match","","907","","","","","","<div class='trialBorder'><div class='targDiv'><div class='tc'><img class='introPic' src='trustrating_stim/white_mw091.bmp'><br><font color='green'><strong>Share</strong></font></div></div><div class='respDiv'><div class='respDivL'>Match<br>(e)</div><div class='respDivR'>No Match<br>(i)</div></div></div>","e","TARGET","1","trustrating_stim/white_mw091.bmp","1","Match","e","1500","trustrating_stim/white_mw091.bmp","green","Share","REAL","1"
"html-keyboard-response","184","433763","0.0-7.0-5.29","63d1401242635aaffe867c4c","bdp_wmem","Mon Mar 13 2023 12:16:48 GMT-0700 (Mountain Standard Time)","601013","Match,No Match","","null","","","","","","<div class='trialBorder'><div class='vertical-center'><img src='img/correct.jpg'></div><div class='respDiv'><div class='respDivL'><font style='color:orange'>Match<br>(e)</font></div><div class='respDivR'>No Match<br>(i)</div></div></div>","null","FEEDBACK","","","","","","","","","","",""
"html-keyboard-response","185","434264","0.0-7.0-1.30","63d1401242635aaffe867c4c","bdp_wmem","Mon Mar 13 2023 12:16:48 GMT-0700 (Mountain Standard Time)","601013","Match,No Match","","null","","","","","","<div class='trialBorder'><div class='vertical-center'><img src='img/fixation2_sml.jpg'</img></div></div>","null","FIX","","","","","","","","","","",""
"html-keyboard-response","186","438766","0.0-7.0-2.30","63d1401242635aaffe867c4c","bdp_wmem","Mon Mar 13 2023 12:16:48 GMT-0700 (Mountain Standard Time)","601013","Match,No Match","","null","","","","","","<div class='trialBorder'><div class='vertical-center'><img style='vertical-align:center; align:center' src='img/fixation2_sml.jpg'></div><div class='arrayDiv3'><div class='tl'><img class='introPic' src='trustrating_stim/white_mw010.bmp'><br><font color='green'><strong>Share</strong></font></div><div class='tc'><img class='introPic' src='trustrating_stim/white_mw085.bmp'><br><font color='red'><strong>Keep</strong></font></div><div class='tr'><img class='introPic' src='trustrating_stim/white_mw013.bmp'><br><font color='green'><strong>Share</strong></font></div></div></div>","null","ARRAY","3","trustrating_stim/white_mw010.bmp,trustrating_stim/white_mw085.bmp,trustrating_stim/white_mw013.bmp","1,0,1","noMatchFace","i","4500","","","","",""
"html-keyboard-response","187","442767","0.0-7.0-3.30","63d1401242635aaffe867c4c","bdp_wmem","Mon Mar 13 2023 12:16:48 GMT-0700 (Mountain Standard Time)","601013","Match,No Match","","null","","","","","","<div class='trialBorder'><div class='vertical-center'><img src='img/fixation2_sml.jpg'</img></div></div>","null","DELAY","","","","","","","","","","",""
