"trial_type","trial_index","time_elapsed","internal_node_id","subject_id","task","startTime","totalTime","labels","view_history","rt","event","trial","time","trialtype","success","stimulus","key_press","stimType","arraySize","arrayFaces","arrayOutcomes","matchType","corrResp","arrayDur","targFace","targCol","targOutcome","trialType","corr"
"pavlovia","0","2","0.0-0.0","63b6cc23f13731158517f900","bdp_wmem","Sat Apr 08 2023 11:05:20 GMT-0600 (Mountain Daylight Time)","679675","Match,No Match","","","","","","","","","","","","","","","","","","","","",""
"instructions","1","2586","0.0-1.0","63b6cc23f13731158517f900","bdp_wmem","Sat Apr 08 2023 11:05:20 GMT-0600 (Mountain Daylight Time)","679675","Match,No Match","[{""page_index"":0,""viewing_time"":2584}]","2584","","","","","","","","","","","","","","","","","","",""
"","","","","63b6cc23f13731158517f900","bdp_wmem","Sat Apr 08 2023 11:05:20 GMT-0600 (Mountain Daylight Time)","679675","Match,No Match","","","fullscreenenter","2","37627","fullscreenenter","","","","","","","","","","","","","","",""
"fullscreen","2","38611","0.0-2.0","63b6cc23f13731158517f900","bdp_wmem","Sat Apr 08 2023 11:05:20 GMT-0600 (Mountain Daylight Time)","679675","Match,No Match","","","","","","","true","","","","","","","","","","","","","",""
"instructions","3","107141","0.0-4.0","63b6cc23f13731158517f900","bdp_wmem","Sat Apr 08 2023 11:05:20 GMT-0600 (Mountain Daylight Time)","679675","Match,No Match","[{""page_index"":0,""viewing_time"":16610},{""page_index"":1,""viewing_time"":31613},{""page_index"":2,""viewing_time"":9251},{""page_index"":3,""viewing_time"":4007},{""page_index"":4,""viewing_time"":7048}]","68529","","","","","","","","","","","","","","","","","","",""
"html-keyboard-response","4","107643","0.0-5.0-1.0","63b6cc23f13731158517f900","bdp_wmem","Sat Apr 08 2023 11:05:20 GMT-0600 (Mountain Daylight Time)","679675","Match,No Match","","null","","","","","","<div class='trialBorder'><div class='vertical-center'><img src='img/fixation2_sml.jpg'</img></div></div>","null","FIX","","","","","","","","","","",""
"html-keyboard-response","5","110644","0.0-5.0-2.0","63b6cc23f13731158517f900","bdp_wmem","Sat Apr 08 2023 11:05:20 GMT-0600 (Mountain Daylight Time)","679675","Match,No Match","","null","","","","","","<div class='trialBorder'><div class='vertical-center'><img style='vertical-align:center; align:center' src='img/fixation2_sml.jpg'></div><div class='arrayDiv2'><div class='tl'><img class='introPic' src='trustrating_stim/white_mw003.bmp'><br><font color='red'><strong>Keep</strong></font></div><div class='tr'><img class='introPic' src='trustrating_stim/white_mw092.bmp'><br><font color='green'><strong>Share</strong></font></div></div></div>","null","ARRAY","2","trustrating_stim/white_mw003.bmp,trustrating_stim/white_mw092.bmp","0,1","noMatchOutcome","i","3000","","","","",""
"html-keyboard-response","6","114645","0.0-5.0-3.0","63b6cc23f13731158517f900","bdp_wmem","Sat Apr 08 2023 11:05:20 GMT-0600 (Mountain Daylight Time)","679675","Match,No Match","","null","","","","","","<div class='trialBorder'><div class='vertical-center'><img src='img/fixation2_sml.jpg'</img></div></div>","null","DELAY","","","","","","","","","","",""
"html-keyboard-response","7","116861","0.0-5.0-4.0","63b6cc23f13731158517f900","bdp_wmem","Sat Apr 08 2023 11:05:20 GMT-0600 (Mountain Daylight Time)","679675","Match,No Match","","2215","","","","","","<div class='trialBorder'><div class='targDiv'><div class='tc'><img class='introPic' src='trustrating_stim/white_mw092.bmp'><br><font color='red'><strong>Keep</strong></font></div></div><div class='respDiv'><div class='respDivL'>Match<br>(e)</div><div class='respDivR'>No Match<br>(i)</div></div></div>","i","TARGET","2","trustrating_stim/white_mw003.bmp,trustrating_stim/white_mw092.bmp","0,1","noMatchOutcome","i","3000","trustrating_stim/white_mw092.bmp","red","Keep","PRACTICE","1"
"html-keyboard-response","8","117362","0.0-5.0-5.0","63b6cc23f13731158517f900","bdp_wmem","Sat Apr 08 2023 11:05:20 GMT-0600 (Mountain Daylight Time)","679675","Match,No Match","","null","","","","","","<div class='trialBorder'><div class='vertical-center'><img src='img/correct.jpg'></div><div class='respDiv'><div class='respDivL'>Match<br>(e)</div><div class='respDivR'><font style='color:orange'>No Match<br>(i)</font></div></div></div>","null","FEEDBACK","","","","","","","","","","",""
"html-keyboard-response","9","117864","0.0-5.0-1.1","63b6cc23f13731158517f900","bdp_wmem","Sat Apr 08 2023 11:05:20 GMT-0600 (Mountain Daylight Time)","679675","Match,No Match","","null","","","","","","<div class='trialBorder'><div class='vertical-center'><img src='img/fixation2_sml.jpg'</img></div></div>","null","FIX","","","","","","","","","","",""
"html-keyboard-response","10","120865","0.0-5.0-2.1","63b6cc23f13731158517f900","bdp_wmem","Sat Apr 08 2023 11:05:20 GMT-0600 (Mountain Daylight Time)","679675","Match,No Match","","null","","","","","","<div class='trialBorder'><div class='vertical-center'><img style='vertical-align:center; align:center' src='img/fixation2_sml.jpg'></div><div class='arrayDiv2'><div class='tl'><img class='introPic' src='trustrating_stim/white_mw013.bmp'><br><font color='red'><strong>Keep</strong></font></div><div class='tr'><img class='introPic' src='trustrating_stim/white_mw092.bmp'><br><font color='green'><strong>Share</strong></font></div></div></div>","null","ARRAY","2","trustrating_stim/white_mw013.bmp,trustrating_stim/white_mw092.bmp","0,1","Match","e","3000","","","","",""
"html-keyboard-response","11","124867","0.0-5.0-3.1","63b6cc23f13731158517f900","bdp_wmem","Sat Apr 08 2023 11:05:20 GMT-0600 (Mountain Daylight Time)","679675","Match,No Match","","null","","","","","","<div class='trialBorder'><div class='vertical-center'><img src='img/fixation2_sml.jpg'</img></div></div>","null","DELAY","","","","","","","","","","",""
"html-keyboard-response","12","127183","0.0-5.0-4.1","63b6cc23f13731158517f900","bdp_wmem","Sat Apr 08 2023 11:05:20 GMT-0600 (Mountain Daylight Time)","679675","Match,No Match","","2315","","","","","","<div class='trialBorder'><div class='targDiv'><div class='tc'><img class='introPic' src='trustrating_stim/white_mw092.bmp'><br><font color='green'><strong>Share</strong></font></div></div><div class='respDiv'><div class='respDivL'>Match<br>(e)</div><div class='respDivR'>No Match<br>(i)</div></div></div>","e","TARGET","2","trustrating_stim/white_mw013.bmp,trustrating_stim/white_mw092.bmp","0,1","Match","e","3000","trustrating_stim/white_mw092.bmp","green","Share","PRACTICE","1"
"html-keyboard-response","13","127684","0.0-5.0-5.1","63b6cc23f13731158517f900","bdp_wmem","Sat Apr 08 2023 11:05:20 GMT-0600 (Mountain Daylight Time)","679675","Match,No Match","","null","","","","","","<div class='trialBorder'><div class='vertical-center'><img src='img/correct.jpg'></div><div class='respDiv'><div class='respDivL'><font style='color:orange'>Match<br>(e)</font></div><div class='respDivR'>No Match<br>(i)</div></div></div>","null","FEEDBACK","","","","","","","","","","",""
"html-keyboard-response","14","128185","0.0-5.0-1.2","63b6cc23f13731158517f900","bdp_wmem","Sat Apr 08 2023 11:05:20 GMT-0600 (Mountain Daylight Time)","679675","Match,No Match","","null","","","","","","<div class='trialBorder'><div class='vertical-center'><img src='img/fixation2_sml.jpg'</img></div></div>","null","FIX","","","","","","","","","","",""
"html-keyboard-response","15","132688","0.0-5.0-2.2","63b6cc23f13731158517f900","bdp_wmem","Sat Apr 08 2023 11:05:20 GMT-0600 (Mountain Daylight Time)","679675","Match,No Match","","null","","","","","","<div class='trialBorder'><div class='vertical-center'><img style='vertical-align:center; align:center' src='img/fixation2_sml.jpg'></div><div class='arrayDiv3'><div class='tl'><img class='introPic' src='trustrating_stim/white_mw070.bmp'><br><font color='red'><strong>Keep</strong></font></div><div class='tc'><img class='introPic' src='trustrating_stim/white_mw092.bmp'><br><font color='red'><strong>Keep</strong></font></div><div class='tr'><img class='introPic' src='trustrating_stim/white_mw040.bmp'><br><font color='green'><strong>Share</strong></font></div></div></div>","null","ARRAY","3","trustrating_stim/white_mw070.bmp,trustrating_stim/white_mw092.bmp,trustrating_stim/white_mw040.bmp","0,0,1","noMatchOutcome","i","4500","","","","",""
"html-keyboard-response","16","136689","0.0-5.0-3.2","63b6cc23f13731158517f900","bdp_wmem","Sat Apr 08 2023 11:05:20 GMT-0600 (Mountain Daylight Time)","679675","Match,No Match","","null","","","","","","<div class='trialBorder'><div class='vertical-center'><img src='img/fixation2_sml.jpg'</img></div></div>","null","DELAY","","","","","","","","","","",""
"html-keyboard-response","17","138960","0.0-5.0-4.2","63b6cc23f13731158517f900","bdp_wmem","Sat Apr 08 2023 11:05:20 GMT-0600 (Mountain Daylight Time)","679675","Match,No Match","","2271","","","","","","<div class='trialBorder'><div class='targDiv'><div class='tc'><img class='introPic' src='trustrating_stim/white_mw092.bmp'><br><font color='green'><strong>Share</strong></font></div></div><div class='respDiv'><div class='respDivL'>Match<br>(e)</div><div class='respDivR'>No Match<br>(i)</div></div></div>","i","TARGET","3","trustrating_stim/white_mw070.bmp,trustrating_stim/white_mw092.bmp,trustrating_stim/white_mw040.bmp","0,0,1","noMatchOutcome","i","4500","trustrating_stim/white_mw092.bmp","green","Share","PRACTICE","1"
"html-keyboard-response","18","139461","0.0-5.0-5.2","63b6cc23f13731158517f900","bdp_wmem","Sat Apr 08 2023 11:05:20 GMT-0600 (Mountain Daylight Time)","679675","Match,No Match","","null","","","","","","<div class='trialBorder'><div class='vertical-center'><img src='img/correct.jpg'></div><div class='respDiv'><div class='respDivL'>Match<br>(e)</div><div class='respDivR'><font style='color:orange'>No Match<br>(i)</font></div></div></div>","null","FEEDBACK","","","","","","","","","","",""
"html-keyboard-response","19","139963","0.0-5.0-1.3","63b6cc23f13731158517f900","bdp_wmem","Sat Apr 08 2023 11:05:20 GMT-0600 (Mountain Daylight Time)","679675","Match,No Match","","null","","","","","","<div class='trialBorder'><div class='vertical-center'><img src='img/fixation2_sml.jpg'</img></div></div>","null","FIX","","","","","","","","","","",""
"html-keyboard-response","20","141464","0.0-5.0-2.3","63b6cc23f13731158517f900","bdp_wmem","Sat Apr 08 2023 11:05:20 GMT-0600 (Mountain Daylight Time)","679675","Match,No Match","","null","","","","","","<div class='trialBorder'><div class='vertical-center'><img style='vertical-align:center; align:center' src='img/fixation2_sml.jpg'></div><div class='arrayDiv1'><div class='tc'><img class='introPic' src='trustrating_stim/white_mw013.bmp'><br><font color='red'><strong>Keep</strong></font></div></div></div>","null","ARRAY","1","trustrating_stim/white_mw013.bmp","0","noMatchFace","i","1500","","","","",""
"html-keyboard-response","21","145465","0.0-5.0-3.3","63b6cc23f13731158517f900","bdp_wmem","Sat Apr 08 2023 11:05:20 GMT-0600 (Mountain Daylight Time)","679675","Match,No Match","","null","","","","","","<div class='trialBorder'><div class='vertical-center'><img src='img/fixation2_sml.jpg'</img></div></div>","null","DELAY","","","","","","","","","","",""
"html-keyboard-response","22","147223","0.0-5.0-4.3","63b6cc23f13731158517f900","bdp_wmem","Sat Apr 08 2023 11:05:20 GMT-0600 (Mountain Daylight Time)","679675","Match,No Match","","1757","","","","","","<div class='trialBorder'><div class='targDiv'><div class='tc'><img class='introPic' src='trustrating_stim/white_mw040.bmp'><br><font color='red'><strong>Keep</strong></font></div></div><div class='respDiv'><div class='respDivL'>Match<br>(e)</div><div class='respDivR'>No Match<br>(i)</div></div></div>","i","TARGET","1","trustrating_stim/white_mw013.bmp","0","noMatchFace","i","1500","trustrating_stim/white_mw040.bmp","red","Keep","PRACTICE","1"
"html-keyboard-response","23","147725","0.0-5.0-5.3","63b6cc23f13731158517f900","bdp_wmem","Sat Apr 08 2023 11:05:20 GMT-0600 (Mountain Daylight Time)","679675","Match,No Match","","null","","","","","","<div class='trialBorder'><div class='vertical-center'><img src='img/correct.jpg'></div><div class='respDiv'><div class='respDivL'>Match<br>(e)</div><div class='respDivR'><font style='color:orange'>No Match<br>(i)</font></div></div></div>","null","FEEDBACK","","","","","","","","","","",""
"html-keyboard-response","24","148226","0.0-5.0-1.4","63b6cc23f13731158517f900","bdp_wmem","Sat Apr 08 2023 11:05:20 GMT-0600 (Mountain Daylight Time)","679675","Match,No Match","","null","","","","","","<div class='trialBorder'><div class='vertical-center'><img src='img/fixation2_sml.jpg'</img></div></div>","null","FIX","","","","","","","","","","",""
"html-keyboard-response","25","152727","0.0-5.0-2.4","63b6cc23f13731158517f900","bdp_wmem","Sat Apr 08 2023 11:05:20 GMT-0600 (Mountain Daylight Time)","679675","Match,No Match","","null","","","","","","<div class='trialBorder'><div class='vertical-center'><img style='vertical-align:center; align:center' src='img/fixation2_sml.jpg'></div><div class='arrayDiv3'><div class='tl'><img class='introPic' src='trustrating_stim/white_mw013.bmp'><br><font color='green'><strong>Share</strong></font></div><div class='tc'><img class='introPic' src='trustrating_stim/white_mw040.bmp'><br><font color='red'><strong>Keep</strong></font></div><div class='tr'><img class='introPic' src='trustrating_stim/white_mw085.bmp'><br><font color='red'><strong>Keep</strong></font></div></div></div>","null","ARRAY","3","trustrating_stim/white_mw013.bmp,trustrating_stim/white_mw040.bmp,trustrating_stim/white_mw085.bmp","1,0,0","Match","e","4500","","","","",""
"html-keyboard-response","26","156729","0.0-5.0-3.4","63b6cc23f13731158517f900","bdp_wmem","Sat Apr 08 2023 11:05:20 GMT-0600 (Mountain Daylight Time)","679675","Match,No Match","","null","","","","","","<div class='trialBorder'><div class='vertical-center'><img src='img/fixation2_sml.jpg'</img></div></div>","null","DELAY","","","","","","","","","","",""
"html-keyboard-response","27","157937","0.0-5.0-4.4","63b6cc23f13731158517f900","bdp_wmem","Sat Apr 08 2023 11:05:20 GMT-0600 (Mountain Daylight Time)","679675","Match,No Match","","1207","","","","","","<div class='trialBorder'><div class='targDiv'><div class='tc'><img class='introPic' src='trustrating_stim/white_mw013.bmp'><br><font color='green'><strong>Share</strong></font></div></div><div class='respDiv'><div class='respDivL'>Match<br>(e)</div><div class='respDivR'>No Match<br>(i)</div></div></div>","e","TARGET","3","trustrating_stim/white_mw013.bmp,trustrating_stim/white_mw040.bmp,trustrating_stim/white_mw085.bmp","1,0,0","Match","e","4500","trustrating_stim/white_mw013.bmp","green","Share","PRACTICE","1"
"html-keyboard-response","28","158438","0.0-5.0-5.4","63b6cc23f13731158517f900","bdp_wmem","Sat Apr 08 2023 11:05:20 GMT-0600 (Mountain Daylight Time)","679675","Match,No Match","","null","","","","","","<div class='trialBorder'><div class='vertical-center'><img src='img/correct.jpg'></div><div class='respDiv'><div class='respDivL'><font style='color:orange'>Match<br>(e)</font></div><div class='respDivR'>No Match<br>(i)</div></div></div>","null","FEEDBACK","","","","","","","","","","",""
"html-keyboard-response","29","158939","0.0-5.0-1.5","63b6cc23f13731158517f900","bdp_wmem","Sat Apr 08 2023 11:05:20 GMT-0600 (Mountain Daylight Time)","679675","Match,No Match","","null","","","","","","<div class='trialBorder'><div class='vertical-center'><img src='img/fixation2_sml.jpg'</img></div></div>","null","FIX","","","","","","","","","","",""
"html-keyboard-response","30","160441","0.0-5.0-2.5","63b6cc23f13731158517f900","bdp_wmem","Sat Apr 08 2023 11:05:20 GMT-0600 (Mountain Daylight Time)","679675","Match,No Match","","null","","","","","","<div class='trialBorder'><div class='vertical-center'><img style='vertical-align:center; align:center' src='img/fixation2_sml.jpg'></div><div class='arrayDiv1'><div class='tc'><img class='introPic' src='trustrating_stim/white_mw012.bmp'><br><font color='green'><strong>Share</strong></font></div></div></div>","null","ARRAY","1","trustrating_stim/white_mw012.bmp","1","Match","e","1500","","","","",""
"html-keyboard-response","31","164442","0.0-5.0-3.5","63b6cc23f13731158517f900","bdp_wmem","Sat Apr 08 2023 11:05:20 GMT-0600 (Mountain Daylight Time)","679675","Match,No Match","","null","","","","","","<div class='trialBorder'><div class='vertical-center'><img src='img/fixation2_sml.jpg'</img></div></div>","null","DELAY","","","","","","","","","","",""
"html-keyboard-response","32","166016","0.0-5.0-4.5","63b6cc23f13731158517f900","bdp_wmem","Sat Apr 08 2023 11:05:20 GMT-0600 (Mountain Daylight Time)","679675","Match,No Match","","1572","","","","","","<div class='trialBorder'><div class='targDiv'><div class='tc'><img class='introPic' src='trustrating_stim/white_mw012.bmp'><br><font color='green'><strong>Share</strong></font></div></div><div class='respDiv'><div class='respDivL'>Match<br>(e)</div><div class='respDivR'>No Match<br>(i)</div></div></div>","e","TARGET","1","trustrating_stim/white_mw012.bmp","1","Match","e","1500","trustrating_stim/white_mw012.bmp","green","Share","PRACTICE","1"
"html-keyboard-response","33","166518","0.0-5.0-5.5","63b6cc23f13731158517f900","bdp_wmem","Sat Apr 08 2023 11:05:20 GMT-0600 (Mountain Daylight Time)","679675","Match,No Match","","null","","","","","","<div class='trialBorder'><div class='vertical-center'><img src='img/correct.jpg'></div><div class='respDiv'><div class='respDivL'><font style='color:orange'>Match<br>(e)</font></div><div class='respDivR'>No Match<br>(i)</div></div></div>","null","FEEDBACK","","","","","","","","","","",""
"instructions","34","174489","0.0-6.0","63b6cc23f13731158517f900","bdp_wmem","Sat Apr 08 2023 11:05:20 GMT-0600 (Mountain Daylight Time)","679675","Match,No Match","[{""page_index"":0,""viewing_time"":7971}]","7971","","","","","","","","","","","","","","","","","","",""
"html-keyboard-response","35","174990","0.0-7.0-1.0","63b6cc23f13731158517f900","bdp_wmem","Sat Apr 08 2023 11:05:20 GMT-0600 (Mountain Daylight Time)","679675","Match,No Match","","null","","","","","","<div class='trialBorder'><div class='vertical-center'><img src='img/fixation2_sml.jpg'</img></div></div>","null","FIX","","","","","","","","","","",""
"html-keyboard-response","36","179491","0.0-7.0-2.0","63b6cc23f13731158517f900","bdp_wmem","Sat Apr 08 2023 11:05:20 GMT-0600 (Mountain Daylight Time)","679675","Match,No Match","","null","","","","","","<div class='trialBorder'><div class='vertical-center'><img style='vertical-align:center; align:center' src='img/fixation2_sml.jpg'></div><div class='arrayDiv3'><div class='tl'><img class='introPic' src='trustrating_stim/white_mw085.bmp'><br><font color='green'><strong>Share</strong></font></div><div class='tc'><img class='introPic' src='trustrating_stim/white_mw042.bmp'><br><font color='red'><strong>Keep</strong></font></div><div class='tr'><img class='introPic' src='trustrating_stim/white_mw070.bmp'><br><font color='red'><strong>Keep</strong></font></div></div></div>","null","ARRAY","3","trustrating_stim/white_mw085.bmp,trustrating_stim/white_mw042.bmp,trustrating_stim/white_mw070.bmp","1,0,0","noMatchOutcome","i","4500","","","","",""
"html-keyboard-response","37","183492","0.0-7.0-3.0","63b6cc23f13731158517f900","bdp_wmem","Sat Apr 08 2023 11:05:20 GMT-0600 (Mountain Daylight Time)","679675","Match,No Match","","null","","","","","","<div class='trialBorder'><div class='vertical-center'><img src='img/fixation2_sml.jpg'</img></div></div>","null","DELAY","","","","","","","","","","",""
"html-keyboard-response","38","185405","0.0-7.0-4.0","63b6cc23f13731158517f900","bdp_wmem","Sat Apr 08 2023 11:05:20 GMT-0600 (Mountain Daylight Time)","679675","Match,No Match","","1912","","","","","","<div class='trialBorder'><div class='targDiv'><div class='tc'><img class='introPic' src='trustrating_stim/white_mw070.bmp'><br><font color='green'><strong>Share</strong></font></div></div><div class='respDiv'><div class='respDivL'>Match<br>(e)</div><div class='respDivR'>No Match<br>(i)</div></div></div>","i","TARGET","3","trustrating_stim/white_mw085.bmp,trustrating_stim/white_mw042.bmp,trustrating_stim/white_mw070.bmp","1,0,0","noMatchOutcome","i","4500","trustrating_stim/white_mw070.bmp","green","Share","REAL","1"
"html-keyboard-response","39","185907","0.0-7.0-5.0","63b6cc23f13731158517f900","bdp_wmem","Sat Apr 08 2023 11:05:20 GMT-0600 (Mountain Daylight Time)","679675","Match,No Match","","null","","","","","","<div class='trialBorder'><div class='vertical-center'><img src='img/correct.jpg'></div><div class='respDiv'><div class='respDivL'>Match<br>(e)</div><div class='respDivR'><font style='color:orange'>No Match<br>(i)</font></div></div></div>","null","FEEDBACK","","","","","","","","","","",""
"html-keyboard-response","40","186408","0.0-7.0-1.1","63b6cc23f13731158517f900","bdp_wmem","Sat Apr 08 2023 11:05:20 GMT-0600 (Mountain Daylight Time)","679675","Match,No Match","","null","","","","","","<div class='trialBorder'><div class='vertical-center'><img src='img/fixation2_sml.jpg'</img></div></div>","null","FIX","","","","","","","","","","",""
"html-keyboard-response","41","187910","0.0-7.0-2.1","63b6cc23f13731158517f900","bdp_wmem","Sat Apr 08 2023 11:05:20 GMT-0600 (Mountain Daylight Time)","679675","Match,No Match","","null","","","","","","<div class='trialBorder'><div class='vertical-center'><img style='vertical-align:center; align:center' src='img/fixation2_sml.jpg'></div><div class='arrayDiv1'><div class='tc'><img class='introPic' src='trustrating_stim/white_mw040.bmp'><br><font color='green'><strong>Share</strong></font></div></div></div>","null","ARRAY","1","trustrating_stim/white_mw040.bmp","1","noMatchOutcome","i","1500","","","","",""
"html-keyboard-response","42","191911","0.0-7.0-3.1","63b6cc23f13731158517f900","bdp_wmem","Sat Apr 08 2023 11:05:20 GMT-0600 (Mountain Daylight Time)","679675","Match,No Match","","null","","","","","","<div class='trialBorder'><div class='vertical-center'><img src='img/fixation2_sml.jpg'</img></div></div>","null","DELAY","","","","","","","","","","",""
"html-keyboard-response","43","193673","0.0-7.0-4.1","63b6cc23f13731158517f900","bdp_wmem","Sat Apr 08 2023 11:05:20 GMT-0600 (Mountain Daylight Time)","679675","Match,No Match","","1761","","","","","","<div class='trialBorder'><div class='targDiv'><div class='tc'><img class='introPic' src='trustrating_stim/white_mw040.bmp'><br><font color='red'><strong>Keep</strong></font></div></div><div class='respDiv'><div class='respDivL'>Match<br>(e)</div><div class='respDivR'>No Match<br>(i)</div></div></div>","i","TARGET","1","trustrating_stim/white_mw040.bmp","1","noMatchOutcome","i","1500","trustrating_stim/white_mw040.bmp","red","Keep","REAL","1"
"html-keyboard-response","44","194175","0.0-7.0-5.1","63b6cc23f13731158517f900","bdp_wmem","Sat Apr 08 2023 11:05:20 GMT-0600 (Mountain Daylight Time)","679675","Match,No Match","","null","","","","","","<div class='trialBorder'><div class='vertical-center'><img src='img/correct.jpg'></div><div class='respDiv'><div class='respDivL'>Match<br>(e)</div><div class='respDivR'><font style='color:orange'>No Match<br>(i)</font></div></div></div>","null","FEEDBACK","","","","","","","","","","",""
"html-keyboard-response","45","194676","0.0-7.0-1.2","63b6cc23f13731158517f900","bdp_wmem","Sat Apr 08 2023 11:05:20 GMT-0600 (Mountain Daylight Time)","679675","Match,No Match","","null","","","","","","<div class='trialBorder'><div class='vertical-center'><img src='img/fixation2_sml.jpg'</img></div></div>","null","FIX","","","","","","","","","","",""
"html-keyboard-response","46","196177","0.0-7.0-2.2","63b6cc23f13731158517f900","bdp_wmem","Sat Apr 08 2023 11:05:20 GMT-0600 (Mountain Daylight Time)","679675","Match,No Match","","null","","","","","","<div class='trialBorder'><div class='vertical-center'><img style='vertical-align:center; align:center' src='img/fixation2_sml.jpg'></div><div class='arrayDiv1'><div class='tc'><img class='introPic' src='trustrating_stim/white_mw085.bmp'><br><font color='red'><strong>Keep</strong></font></div></div></div>","null","ARRAY","1","trustrating_stim/white_mw085.bmp","0","Match","e","1500","","","","",""
"html-keyboard-response","47","200178","0.0-7.0-3.2","63b6cc23f13731158517f900","bdp_wmem","Sat Apr 08 2023 11:05:20 GMT-0600 (Mountain Daylight Time)","679675","Match,No Match","","null","","","","","","<div class='trialBorder'><div class='vertical-center'><img src='img/fixation2_sml.jpg'</img></div></div>","null","DELAY","","","","","","","","","","",""
"html-keyboard-response","48","202220","0.0-7.0-4.2","63b6cc23f13731158517f900","bdp_wmem","Sat Apr 08 2023 11:05:20 GMT-0600 (Mountain Daylight Time)","679675","Match,No Match","","2041","","","","","","<div class='trialBorder'><div class='targDiv'><div class='tc'><img class='introPic' src='trustrating_stim/white_mw085.bmp'><br><font color='red'><strong>Keep</strong></font></div></div><div class='respDiv'><div class='respDivL'>Match<br>(e)</div><div class='respDivR'>No Match<br>(i)</div></div></div>","e","TARGET","1","trustrating_stim/white_mw085.bmp","0","Match","e","1500","trustrating_stim/white_mw085.bmp","red","Keep","REAL","1"
"html-keyboard-response","49","202721","0.0-7.0-5.2","63b6cc23f13731158517f900","bdp_wmem","Sat Apr 08 2023 11:05:20 GMT-0600 (Mountain Daylight Time)","679675","Match,No Match","","null","","","","","","<div class='trialBorder'><div class='vertical-center'><img src='img/correct.jpg'></div><div class='respDiv'><div class='respDivL'><font style='color:orange'>Match<br>(e)</font></div><div class='respDivR'>No Match<br>(i)</div></div></div>","null","FEEDBACK","","","","","","","","","","",""
"html-keyboard-response","50","203222","0.0-7.0-1.3","63b6cc23f13731158517f900","bdp_wmem","Sat Apr 08 2023 11:05:20 GMT-0600 (Mountain Daylight Time)","679675","Match,No Match","","null","","","","","","<div class='trialBorder'><div class='vertical-center'><img src='img/fixation2_sml.jpg'</img></div></div>","null","FIX","","","","","","","","","","",""
"html-keyboard-response","51","207724","0.0-7.0-2.3","63b6cc23f13731158517f900","bdp_wmem","Sat Apr 08 2023 11:05:20 GMT-0600 (Mountain Daylight Time)","679675","Match,No Match","","null","","","","","","<div class='trialBorder'><div class='vertical-center'><img style='vertical-align:center; align:center' src='img/fixation2_sml.jpg'></div><div class='arrayDiv3'><div class='tl'><img class='introPic' src='trustrating_stim/white_mw003.bmp'><br><font color='green'><strong>Share</strong></font></div><div class='tc'><img class='introPic' src='trustrating_stim/white_mw085.bmp'><br><font color='red'><strong>Keep</strong></font></div><div class='tr'><img class='introPic' src='trustrating_stim/white_mw092.bmp'><br><font color='red'><strong>Keep</strong></font></div></div></div>","null","ARRAY","3","trustrating_stim/white_mw003.bmp,trustrating_stim/white_mw085.bmp,trustrating_stim/white_mw092.bmp","1,0,0","noMatchFace","i","4500","","","","",""
"html-keyboard-response","52","211725","0.0-7.0-3.3","63b6cc23f13731158517f900","bdp_wmem","Sat Apr 08 2023 11:05:20 GMT-0600 (Mountain Daylight Time)","679675","Match,No Match","","null","","","","","","<div class='trialBorder'><div class='vertical-center'><img src='img/fixation2_sml.jpg'</img></div></div>","null","DELAY","","","","","","","","","","",""
"html-keyboard-response","53","214445","0.0-7.0-4.3","63b6cc23f13731158517f900","bdp_wmem","Sat Apr 08 2023 11:05:20 GMT-0600 (Mountain Daylight Time)","679675","Match,No Match","","2719","","","","","","<div class='trialBorder'><div class='targDiv'><div class='tc'><img class='introPic' src='trustrating_stim/white_mw013.bmp'><br><font color='red'><strong>Keep</strong></font></div></div><div class='respDiv'><div class='respDivL'>Match<br>(e)</div><div class='respDivR'>No Match<br>(i)</div></div></div>","i","TARGET","3","trustrating_stim/white_mw003.bmp,trustrating_stim/white_mw085.bmp,trustrating_stim/white_mw092.bmp","1,0,0","noMatchFace","i","4500","trustrating_stim/white_mw013.bmp","red","Keep","REAL","1"
"html-keyboard-response","54","214946","0.0-7.0-5.3","63b6cc23f13731158517f900","bdp_wmem","Sat Apr 08 2023 11:05:20 GMT-0600 (Mountain Daylight Time)","679675","Match,No Match","","null","","","","","","<div class='trialBorder'><div class='vertical-center'><img src='img/correct.jpg'></div><div class='respDiv'><div class='respDivL'>Match<br>(e)</div><div class='respDivR'><font style='color:orange'>No Match<br>(i)</font></div></div></div>","null","FEEDBACK","","","","","","","","","","",""
"html-keyboard-response","55","215447","0.0-7.0-1.4","63b6cc23f13731158517f900","bdp_wmem","Sat Apr 08 2023 11:05:20 GMT-0600 (Mountain Daylight Time)","679675","Match,No Match","","null","","","","","","<div class='trialBorder'><div class='vertical-center'><img src='img/fixation2_sml.jpg'</img></div></div>","null","FIX","","","","","","","","","","",""
"html-keyboard-response","56","219948","0.0-7.0-2.4","63b6cc23f13731158517f900","bdp_wmem","Sat Apr 08 2023 11:05:20 GMT-0600 (Mountain Daylight Time)","679675","Match,No Match","","null","","","","","","<div class='trialBorder'><div class='vertical-center'><img style='vertical-align:center; align:center' src='img/fixation2_sml.jpg'></div><div class='arrayDiv3'><div class='tl'><img class='introPic' src='trustrating_stim/white_mw013.bmp'><br><font color='green'><strong>Share</strong></font></div><div class='tc'><img class='introPic' src='trustrating_stim/white_mw092.bmp'><br><font color='red'><strong>Keep</strong></font></div><div class='tr'><img class='introPic' src='trustrating_stim/white_mw085.bmp'><br><font color='red'><strong>Keep</strong></font></div></div></div>","null","ARRAY","3","trustrating_stim/white_mw013.bmp,trustrating_stim/white_mw092.bmp,trustrating_stim/white_mw085.bmp","1,0,0","Match","e","4500","","","","",""
"html-keyboard-response","57","223949","0.0-7.0-3.4","63b6cc23f13731158517f900","bdp_wmem","Sat Apr 08 2023 11:05:20 GMT-0600 (Mountain Daylight Time)","679675","Match,No Match","","null","","","","","","<div class='trialBorder'><div class='vertical-center'><img src='img/fixation2_sml.jpg'</img></div></div>","null","DELAY","","","","","","","","","","",""
"html-keyboard-response","58","226451","0.0-7.0-4.4","63b6cc23f13731158517f900","bdp_wmem","Sat Apr 08 2023 11:05:20 GMT-0600 (Mountain Daylight Time)","679675","Match,No Match","","2501","","","","","","<div class='trialBorder'><div class='targDiv'><div class='tc'><img class='introPic' src='trustrating_stim/white_mw092.bmp'><br><font color='red'><strong>Keep</strong></font></div></div><div class='respDiv'><div class='respDivL'>Match<br>(e)</div><div class='respDivR'>No Match<br>(i)</div></div></div>","e","TARGET","3","trustrating_stim/white_mw013.bmp,trustrating_stim/white_mw092.bmp,trustrating_stim/white_mw085.bmp","1,0,0","Match","e","4500","trustrating_stim/white_mw092.bmp","red","Keep","REAL","1"
"html-keyboard-response","59","226953","0.0-7.0-5.4","63b6cc23f13731158517f900","bdp_wmem","Sat Apr 08 2023 11:05:20 GMT-0600 (Mountain Daylight Time)","679675","Match,No Match","","null","","","","","","<div class='trialBorder'><div class='vertical-center'><img src='img/correct.jpg'></div><div class='respDiv'><div class='respDivL'><font style='color:orange'>Match<br>(e)</font></div><div class='respDivR'>No Match<br>(i)</div></div></div>","null","FEEDBACK","","","","","","","","","","",""
"html-keyboard-response","60","227454","0.0-7.0-1.5","63b6cc23f13731158517f900","bdp_wmem","Sat Apr 08 2023 11:05:20 GMT-0600 (Mountain Daylight Time)","679675","Match,No Match","","null","","","","","","<div class='trialBorder'><div class='vertical-center'><img src='img/fixation2_sml.jpg'</img></div></div>","null","FIX","","","","","","","","","","",""
"html-keyboard-response","61","228955","0.0-7.0-2.5","63b6cc23f13731158517f900","bdp_wmem","Sat Apr 08 2023 11:05:20 GMT-0600 (Mountain Daylight Time)","679675","Match,No Match","","null","","","","","","<div class='trialBorder'><div class='vertical-center'><img style='vertical-align:center; align:center' src='img/fixation2_sml.jpg'></div><div class='arrayDiv1'><div class='tc'><img class='introPic' src='trustrating_stim/white_mw070.bmp'><br><font color='green'><strong>Share</strong></font></div></div></div>","null","ARRAY","1","trustrating_stim/white_mw070.bmp","1","Match","e","1500","","","","",""
"html-keyboard-response","62","232956","0.0-7.0-3.5","63b6cc23f13731158517f900","bdp_wmem","Sat Apr 08 2023 11:05:20 GMT-0600 (Mountain Daylight Time)","679675","Match,No Match","","null","","","","","","<div class='trialBorder'><div class='vertical-center'><img src='img/fixation2_sml.jpg'</img></div></div>","null","DELAY","","","","","","","","","","",""
"html-keyboard-response","63","234253","0.0-7.0-4.5","63b6cc23f13731158517f900","bdp_wmem","Sat Apr 08 2023 11:05:20 GMT-0600 (Mountain Daylight Time)","679675","Match,No Match","","1296","","","","","","<div class='trialBorder'><div class='targDiv'><div class='tc'><img class='introPic' src='trustrating_stim/white_mw070.bmp'><br><font color='green'><strong>Share</strong></font></div></div><div class='respDiv'><div class='respDivL'>Match<br>(e)</div><div class='respDivR'>No Match<br>(i)</div></div></div>","e","TARGET","1","trustrating_stim/white_mw070.bmp","1","Match","e","1500","trustrating_stim/white_mw070.bmp","green","Share","REAL","1"
"html-keyboard-response","64","234754","0.0-7.0-5.5","63b6cc23f13731158517f900","bdp_wmem","Sat Apr 08 2023 11:05:20 GMT-0600 (Mountain Daylight Time)","679675","Match,No Match","","null","","","","","","<div class='trialBorder'><div class='vertical-center'><img src='img/correct.jpg'></div><div class='respDiv'><div class='respDivL'><font style='color:orange'>Match<br>(e)</font></div><div class='respDivR'>No Match<br>(i)</div></div></div>","null","FEEDBACK","","","","","","","","","","",""
"html-keyboard-response","65","235255","0.0-7.0-1.6","63b6cc23f13731158517f900","bdp_wmem","Sat Apr 08 2023 11:05:20 GMT-0600 (Mountain Daylight Time)","679675","Match,No Match","","null","","","","","","<div class='trialBorder'><div class='vertical-center'><img src='img/fixation2_sml.jpg'</img></div></div>","null","FIX","","","","","","","","","","",""
"html-keyboard-response","66","238257","0.0-7.0-2.6","63b6cc23f13731158517f900","bdp_wmem","Sat Apr 08 2023 11:05:20 GMT-0600 (Mountain Daylight Time)","679675","Match,No Match","","null","","","","","","<div class='trialBorder'><div class='vertical-center'><img style='vertical-align:center; align:center' src='img/fixation2_sml.jpg'></div><div class='arrayDiv2'><div class='tl'><img class='introPic' src='trustrating_stim/white_mw003.bmp'><br><font color='green'><strong>Share</strong></font></div><div class='tr'><img class='introPic' src='trustrating_stim/white_mw013.bmp'><br><font color='red'><strong>Keep</strong></font></div></div></div>","null","ARRAY","2","trustrating_stim/white_mw003.bmp,trustrating_stim/white_mw013.bmp","1,0","Match","e","3000","","","","",""
"html-keyboard-response","67","242258","0.0-7.0-3.6","63b6cc23f13731158517f900","bdp_wmem","Sat Apr 08 2023 11:05:20 GMT-0600 (Mountain Daylight Time)","679675","Match,No Match","","null","","","","","","<div class='trialBorder'><div class='vertical-center'><img src='img/fixation2_sml.jpg'</img></div></div>","null","DELAY","","","","","","","","","","",""
"html-keyboard-response","68","243418","0.0-7.0-4.6","63b6cc23f13731158517f900","bdp_wmem","Sat Apr 08 2023 11:05:20 GMT-0600 (Mountain Daylight Time)","679675","Match,No Match","","1160","","","","","","<div class='trialBorder'><div class='targDiv'><div class='tc'><img class='introPic' src='trustrating_stim/white_mw003.bmp'><br><font color='green'><strong>Share</strong></font></div></div><div class='respDiv'><div class='respDivL'>Match<br>(e)</div><div class='respDivR'>No Match<br>(i)</div></div></div>","e","TARGET","2","trustrating_stim/white_mw003.bmp,trustrating_stim/white_mw013.bmp","1,0","Match","e","3000","trustrating_stim/white_mw003.bmp","green","Share","REAL","1"
"html-keyboard-response","69","243919","0.0-7.0-5.6","63b6cc23f13731158517f900","bdp_wmem","Sat Apr 08 2023 11:05:20 GMT-0600 (Mountain Daylight Time)","679675","Match,No Match","","null","","","","","","<div class='trialBorder'><div class='vertical-center'><img src='img/correct.jpg'></div><div class='respDiv'><div class='respDivL'><font style='color:orange'>Match<br>(e)</font></div><div class='respDivR'>No Match<br>(i)</div></div></div>","null","FEEDBACK","","","","","","","","","","",""
"html-keyboard-response","70","244420","0.0-7.0-1.7","63b6cc23f13731158517f900","bdp_wmem","Sat Apr 08 2023 11:05:20 GMT-0600 (Mountain Daylight Time)","679675","Match,No Match","","null","","","","","","<div class='trialBorder'><div class='vertical-center'><img src='img/fixation2_sml.jpg'</img></div></div>","null","FIX","","","","","","","","","","",""
"html-keyboard-response","71","248922","0.0-7.0-2.7","63b6cc23f13731158517f900","bdp_wmem","Sat Apr 08 2023 11:05:20 GMT-0600 (Mountain Daylight Time)","679675","Match,No Match","","null","","","","","","<div class='trialBorder'><div class='vertical-center'><img style='vertical-align:center; align:center' src='img/fixation2_sml.jpg'></div><div class='arrayDiv3'><div class='tl'><img class='introPic' src='trustrating_stim/white_mw070.bmp'><br><font color='green'><strong>Share</strong></font></div><div class='tc'><img class='introPic' src='trustrating_stim/white_mw078.bmp'><br><font color='green'><strong>Share</strong></font></div><div class='tr'><img class='introPic' src='trustrating_stim/white_mw003.bmp'><br><font color='red'><strong>Keep</strong></font></div></div></div>","null","ARRAY","3","trustrating_stim/white_mw070.bmp,trustrating_stim/white_mw078.bmp,trustrating_stim/white_mw003.bmp","1,1,0","Match","e","4500","","","","",""
"html-keyboard-response","72","252923","0.0-7.0-3.7","63b6cc23f13731158517f900","bdp_wmem","Sat Apr 08 2023 11:05:20 GMT-0600 (Mountain Daylight Time)","679675","Match,No Match","","null","","","","","","<div class='trialBorder'><div class='vertical-center'><img src='img/fixation2_sml.jpg'</img></div></div>","null","DELAY","","","","","","","","","","",""
"html-keyboard-response","73","255271","0.0-7.0-4.7","63b6cc23f13731158517f900","bdp_wmem","Sat Apr 08 2023 11:05:20 GMT-0600 (Mountain Daylight Time)","679675","Match,No Match","","2348","","","","","","<div class='trialBorder'><div class='targDiv'><div class='tc'><img class='introPic' src='trustrating_stim/white_mw003.bmp'><br><font color='red'><strong>Keep</strong></font></div></div><div class='respDiv'><div class='respDivL'>Match<br>(e)</div><div class='respDivR'>No Match<br>(i)</div></div></div>","e","TARGET","3","trustrating_stim/white_mw070.bmp,trustrating_stim/white_mw078.bmp,trustrating_stim/white_mw003.bmp","1,1,0","Match","e","4500","trustrating_stim/white_mw003.bmp","red","Keep","REAL","1"
"html-keyboard-response","74","255772","0.0-7.0-5.7","63b6cc23f13731158517f900","bdp_wmem","Sat Apr 08 2023 11:05:20 GMT-0600 (Mountain Daylight Time)","679675","Match,No Match","","null","","","","","","<div class='trialBorder'><div class='vertical-center'><img src='img/correct.jpg'></div><div class='respDiv'><div class='respDivL'><font style='color:orange'>Match<br>(e)</font></div><div class='respDivR'>No Match<br>(i)</div></div></div>","null","FEEDBACK","","","","","","","","","","",""
"html-keyboard-response","75","256274","0.0-7.0-1.8","63b6cc23f13731158517f900","bdp_wmem","Sat Apr 08 2023 11:05:20 GMT-0600 (Mountain Daylight Time)","679675","Match,No Match","","null","","","","","","<div class='trialBorder'><div class='vertical-center'><img src='img/fixation2_sml.jpg'</img></div></div>","null","FIX","","","","","","","","","","",""
"html-keyboard-response","76","260776","0.0-7.0-2.8","63b6cc23f13731158517f900","bdp_wmem","Sat Apr 08 2023 11:05:20 GMT-0600 (Mountain Daylight Time)","679675","Match,No Match","","null","","","","","","<div class='trialBorder'><div class='vertical-center'><img style='vertical-align:center; align:center' src='img/fixation2_sml.jpg'></div><div class='arrayDiv3'><div class='tl'><img class='introPic' src='trustrating_stim/white_mw078.bmp'><br><font color='green'><strong>Share</strong></font></div><div class='tc'><img class='introPic' src='trustrating_stim/white_mw091.bmp'><br><font color='red'><strong>Keep</strong></font></div><div class='tr'><img class='introPic' src='trustrating_stim/white_mw042.bmp'><br><font color='red'><strong>Keep</strong></font></div></div></div>","null","ARRAY","3","trustrating_stim/white_mw078.bmp,trustrating_stim/white_mw091.bmp,trustrating_stim/white_mw042.bmp","1,0,0","Match","e","4500","","","","",""
"html-keyboard-response","77","264777","0.0-7.0-3.8","63b6cc23f13731158517f900","bdp_wmem","Sat Apr 08 2023 11:05:20 GMT-0600 (Mountain Daylight Time)","679675","Match,No Match","","null","","","","","","<div class='trialBorder'><div class='vertical-center'><img src='img/fixation2_sml.jpg'</img></div></div>","null","DELAY","","","","","","","","","","",""
"html-keyboard-response","78","267246","0.0-7.0-4.8","63b6cc23f13731158517f900","bdp_wmem","Sat Apr 08 2023 11:05:20 GMT-0600 (Mountain Daylight Time)","679675","Match,No Match","","2469","","","","","","<div class='trialBorder'><div class='targDiv'><div class='tc'><img class='introPic' src='trustrating_stim/white_mw091.bmp'><br><font color='red'><strong>Keep</strong></font></div></div><div class='respDiv'><div class='respDivL'>Match<br>(e)</div><div class='respDivR'>No Match<br>(i)</div></div></div>","e","TARGET","3","trustrating_stim/white_mw078.bmp,trustrating_stim/white_mw091.bmp,trustrating_stim/white_mw042.bmp","1,0,0","Match","e","4500","trustrating_stim/white_mw091.bmp","red","Keep","REAL","1"
"html-keyboard-response","79","267748","0.0-7.0-5.8","63b6cc23f13731158517f900","bdp_wmem","Sat Apr 08 2023 11:05:20 GMT-0600 (Mountain Daylight Time)","679675","Match,No Match","","null","","","","","","<div class='trialBorder'><div class='vertical-center'><img src='img/correct.jpg'></div><div class='respDiv'><div class='respDivL'><font style='color:orange'>Match<br>(e)</font></div><div class='respDivR'>No Match<br>(i)</div></div></div>","null","FEEDBACK","","","","","","","","","","",""
"html-keyboard-response","80","268249","0.0-7.0-1.9","63b6cc23f13731158517f900","bdp_wmem","Sat Apr 08 2023 11:05:20 GMT-0600 (Mountain Daylight Time)","679675","Match,No Match","","null","","","","","","<div class='trialBorder'><div class='vertical-center'><img src='img/fixation2_sml.jpg'</img></div></div>","null","FIX","","","","","","","","","","",""
"html-keyboard-response","81","272750","0.0-7.0-2.9","63b6cc23f13731158517f900","bdp_wmem","Sat Apr 08 2023 11:05:20 GMT-0600 (Mountain Daylight Time)","679675","Match,No Match","","null","","","","","","<div class='trialBorder'><div class='vertical-center'><img style='vertical-align:center; align:center' src='img/fixation2_sml.jpg'></div><div class='arrayDiv3'><div class='tl'><img class='introPic' src='trustrating_stim/white_mw091.bmp'><br><font color='green'><strong>Share</strong></font></div><div class='tc'><img class='introPic' src='trustrating_stim/white_mw070.bmp'><br><font color='red'><strong>Keep</strong></font></div><div class='tr'><img class='introPic' src='trustrating_stim/white_mw038.bmp'><br><font color='red'><strong>Keep</strong></font></div></div></div>","null","ARRAY","3","trustrating_stim/white_mw091.bmp,trustrating_stim/white_mw070.bmp,trustrating_stim/white_mw038.bmp","1,0,0","Match","e","4500","","","","",""
"html-keyboard-response","82","276751","0.0-7.0-3.9","63b6cc23f13731158517f900","bdp_wmem","Sat Apr 08 2023 11:05:20 GMT-0600 (Mountain Daylight Time)","679675","Match,No Match","","null","","","","","","<div class='trialBorder'><div class='vertical-center'><img src='img/fixation2_sml.jpg'</img></div></div>","null","DELAY","","","","","","","","","","",""
"html-keyboard-response","83","278272","0.0-7.0-4.9","63b6cc23f13731158517f900","bdp_wmem","Sat Apr 08 2023 11:05:20 GMT-0600 (Mountain Daylight Time)","679675","Match,No Match","","1520","","","","","","<div class='trialBorder'><div class='targDiv'><div class='tc'><img class='introPic' src='trustrating_stim/white_mw038.bmp'><br><font color='red'><strong>Keep</strong></font></div></div><div class='respDiv'><div class='respDivL'>Match<br>(e)</div><div class='respDivR'>No Match<br>(i)</div></div></div>","e","TARGET","3","trustrating_stim/white_mw091.bmp,trustrating_stim/white_mw070.bmp,trustrating_stim/white_mw038.bmp","1,0,0","Match","e","4500","trustrating_stim/white_mw038.bmp","red","Keep","REAL","1"
"html-keyboard-response","84","278772","0.0-7.0-5.9","63b6cc23f13731158517f900","bdp_wmem","Sat Apr 08 2023 11:05:20 GMT-0600 (Mountain Daylight Time)","679675","Match,No Match","","null","","","","","","<div class='trialBorder'><div class='vertical-center'><img src='img/correct.jpg'></div><div class='respDiv'><div class='respDivL'><font style='color:orange'>Match<br>(e)</font></div><div class='respDivR'>No Match<br>(i)</div></div></div>","null","FEEDBACK","","","","","","","","","","",""
"html-keyboard-response","85","279274","0.0-7.0-1.10","63b6cc23f13731158517f900","bdp_wmem","Sat Apr 08 2023 11:05:20 GMT-0600 (Mountain Daylight Time)","679675","Match,No Match","","null","","","","","","<div class='trialBorder'><div class='vertical-center'><img src='img/fixation2_sml.jpg'</img></div></div>","null","FIX","","","","","","","","","","",""
"html-keyboard-response","86","280775","0.0-7.0-2.10","63b6cc23f13731158517f900","bdp_wmem","Sat Apr 08 2023 11:05:20 GMT-0600 (Mountain Daylight Time)","679675","Match,No Match","","null","","","","","","<div class='trialBorder'><div class='vertical-center'><img style='vertical-align:center; align:center' src='img/fixation2_sml.jpg'></div><div class='arrayDiv1'><div class='tc'><img class='introPic' src='trustrating_stim/white_mw010.bmp'><br><font color='green'><strong>Share</strong></font></div></div></div>","null","ARRAY","1","trustrating_stim/white_mw010.bmp","1","noMatchOutcome","i","1500","","","","",""
"html-keyboard-response","87","284776","0.0-7.0-3.10","63b6cc23f13731158517f900","bdp_wmem","Sat Apr 08 2023 11:05:20 GMT-0600 (Mountain Daylight Time)","679675","Match,No Match","","null","","","","","","<div class='trialBorder'><div class='vertical-center'><img src='img/fixation2_sml.jpg'</img></div></div>","null","DELAY","","","","","","","","","","",""
"html-keyboard-response","88","286570","0.0-7.0-4.10","63b6cc23f13731158517f900","bdp_wmem","Sat Apr 08 2023 11:05:20 GMT-0600 (Mountain Daylight Time)","679675","Match,No Match","","1793","","","","","","<div class='trialBorder'><div class='targDiv'><div class='tc'><img class='introPic' src='trustrating_stim/white_mw010.bmp'><br><font color='red'><strong>Keep</strong></font></div></div><div class='respDiv'><div class='respDivL'>Match<br>(e)</div><div class='respDivR'>No Match<br>(i)</div></div></div>","i","TARGET","1","trustrating_stim/white_mw010.bmp","1","noMatchOutcome","i","1500","trustrating_stim/white_mw010.bmp","red","Keep","REAL","1"
"html-keyboard-response","89","287071","0.0-7.0-5.10","63b6cc23f13731158517f900","bdp_wmem","Sat Apr 08 2023 11:05:20 GMT-0600 (Mountain Daylight Time)","679675","Match,No Match","","null","","","","","","<div class='trialBorder'><div class='vertical-center'><img src='img/correct.jpg'></div><div class='respDiv'><div class='respDivL'>Match<br>(e)</div><div class='respDivR'><font style='color:orange'>No Match<br>(i)</font></div></div></div>","null","FEEDBACK","","","","","","","","","","",""
"html-keyboard-response","90","287572","0.0-7.0-1.11","63b6cc23f13731158517f900","bdp_wmem","Sat Apr 08 2023 11:05:20 GMT-0600 (Mountain Daylight Time)","679675","Match,No Match","","null","","","","","","<div class='trialBorder'><div class='vertical-center'><img src='img/fixation2_sml.jpg'</img></div></div>","null","FIX","","","","","","","","","","",""
"html-keyboard-response","91","290574","0.0-7.0-2.11","63b6cc23f13731158517f900","bdp_wmem","Sat Apr 08 2023 11:05:20 GMT-0600 (Mountain Daylight Time)","679675","Match,No Match","","null","","","","","","<div class='trialBorder'><div class='vertical-center'><img style='vertical-align:center; align:center' src='img/fixation2_sml.jpg'></div><div class='arrayDiv2'><div class='tl'><img class='introPic' src='trustrating_stim/white_mw091.bmp'><br><font color='green'><strong>Share</strong></font></div><div class='tr'><img class='introPic' src='trustrating_stim/white_mw085.bmp'><br><font color='red'><strong>Keep</strong></font></div></div></div>","null","ARRAY","2","trustrating_stim/white_mw091.bmp,trustrating_stim/white_mw085.bmp","1,0","Match","e","3000","","","","",""
"html-keyboard-response","92","294574","0.0-7.0-3.11","63b6cc23f13731158517f900","bdp_wmem","Sat Apr 08 2023 11:05:20 GMT-0600 (Mountain Daylight Time)","679675","Match,No Match","","null","","","","","","<div class='trialBorder'><div class='vertical-center'><img src='img/fixation2_sml.jpg'</img></div></div>","null","DELAY","","","","","","","","","","",""
"html-keyboard-response","93","296615","0.0-7.0-4.11","63b6cc23f13731158517f900","bdp_wmem","Sat Apr 08 2023 11:05:20 GMT-0600 (Mountain Daylight Time)","679675","Match,No Match","","2040","","","","","","<div class='trialBorder'><div class='targDiv'><div class='tc'><img class='introPic' src='trustrating_stim/white_mw085.bmp'><br><font color='red'><strong>Keep</strong></font></div></div><div class='respDiv'><div class='respDivL'>Match<br>(e)</div><div class='respDivR'>No Match<br>(i)</div></div></div>","e","TARGET","2","trustrating_stim/white_mw091.bmp,trustrating_stim/white_mw085.bmp","1,0","Match","e","3000","trustrating_stim/white_mw085.bmp","red","Keep","REAL","1"
"html-keyboard-response","94","297116","0.0-7.0-5.11","63b6cc23f13731158517f900","bdp_wmem","Sat Apr 08 2023 11:05:20 GMT-0600 (Mountain Daylight Time)","679675","Match,No Match","","null","","","","","","<div class='trialBorder'><div class='vertical-center'><img src='img/correct.jpg'></div><div class='respDiv'><div class='respDivL'><font style='color:orange'>Match<br>(e)</font></div><div class='respDivR'>No Match<br>(i)</div></div></div>","null","FEEDBACK","","","","","","","","","","",""
"html-keyboard-response","95","297617","0.0-7.0-1.12","63b6cc23f13731158517f900","bdp_wmem","Sat Apr 08 2023 11:05:20 GMT-0600 (Mountain Daylight Time)","679675","Match,No Match","","null","","","","","","<div class='trialBorder'><div class='vertical-center'><img src='img/fixation2_sml.jpg'</img></div></div>","null","FIX","","","","","","","","","","",""
"html-keyboard-response","96","299119","0.0-7.0-2.12","63b6cc23f13731158517f900","bdp_wmem","Sat Apr 08 2023 11:05:20 GMT-0600 (Mountain Daylight Time)","679675","Match,No Match","","null","","","","","","<div class='trialBorder'><div class='vertical-center'><img style='vertical-align:center; align:center' src='img/fixation2_sml.jpg'></div><div class='arrayDiv1'><div class='tc'><img class='introPic' src='trustrating_stim/white_mw003.bmp'><br><font color='green'><strong>Share</strong></font></div></div></div>","null","ARRAY","1","trustrating_stim/white_mw003.bmp","1","Match","e","1500","","","","",""
"html-keyboard-response","97","303120","0.0-7.0-3.12","63b6cc23f13731158517f900","bdp_wmem","Sat Apr 08 2023 11:05:20 GMT-0600 (Mountain Daylight Time)","679675","Match,No Match","","null","","","","","","<div class='trialBorder'><div class='vertical-center'><img src='img/fixation2_sml.jpg'</img></div></div>","null","DELAY","","","","","","","","","","",""
"html-keyboard-response","98","304839","0.0-7.0-4.12","63b6cc23f13731158517f900","bdp_wmem","Sat Apr 08 2023 11:05:20 GMT-0600 (Mountain Daylight Time)","679675","Match,No Match","","1719","","","","","","<div class='trialBorder'><div class='targDiv'><div class='tc'><img class='introPic' src='trustrating_stim/white_mw003.bmp'><br><font color='green'><strong>Share</strong></font></div></div><div class='respDiv'><div class='respDivL'>Match<br>(e)</div><div class='respDivR'>No Match<br>(i)</div></div></div>","e","TARGET","1","trustrating_stim/white_mw003.bmp","1","Match","e","1500","trustrating_stim/white_mw003.bmp","green","Share","REAL","1"
"html-keyboard-response","99","305340","0.0-7.0-5.12","63b6cc23f13731158517f900","bdp_wmem","Sat Apr 08 2023 11:05:20 GMT-0600 (Mountain Daylight Time)","679675","Match,No Match","","null","","","","","","<div class='trialBorder'><div class='vertical-center'><img src='img/correct.jpg'></div><div class='respDiv'><div class='respDivL'><font style='color:orange'>Match<br>(e)</font></div><div class='respDivR'>No Match<br>(i)</div></div></div>","null","FEEDBACK","","","","","","","","","","",""
"html-keyboard-response","100","305841","0.0-7.0-1.13","63b6cc23f13731158517f900","bdp_wmem","Sat Apr 08 2023 11:05:20 GMT-0600 (Mountain Daylight Time)","679675","Match,No Match","","null","","","","","","<div class='trialBorder'><div class='vertical-center'><img src='img/fixation2_sml.jpg'</img></div></div>","null","FIX","","","","","","","","","","",""
"html-keyboard-response","101","307343","0.0-7.0-2.13","63b6cc23f13731158517f900","bdp_wmem","Sat Apr 08 2023 11:05:20 GMT-0600 (Mountain Daylight Time)","679675","Match,No Match","","null","","","","","","<div class='trialBorder'><div class='vertical-center'><img style='vertical-align:center; align:center' src='img/fixation2_sml.jpg'></div><div class='arrayDiv1'><div class='tc'><img class='introPic' src='trustrating_stim/white_mw078.bmp'><br><font color='red'><strong>Keep</strong></font></div></div></div>","null","ARRAY","1","trustrating_stim/white_mw078.bmp","0","Match","e","1500","","","","",""
"html-keyboard-response","102","311344","0.0-7.0-3.13","63b6cc23f13731158517f900","bdp_wmem","Sat Apr 08 2023 11:05:20 GMT-0600 (Mountain Daylight Time)","679675","Match,No Match","","null","","","","","","<div class='trialBorder'><div class='vertical-center'><img src='img/fixation2_sml.jpg'</img></div></div>","null","DELAY","","","","","","","","","","",""
"html-keyboard-response","103","312767","0.0-7.0-4.13","63b6cc23f13731158517f900","bdp_wmem","Sat Apr 08 2023 11:05:20 GMT-0600 (Mountain Daylight Time)","679675","Match,No Match","","1423","","","","","","<div class='trialBorder'><div class='targDiv'><div class='tc'><img class='introPic' src='trustrating_stim/white_mw078.bmp'><br><font color='red'><strong>Keep</strong></font></div></div><div class='respDiv'><div class='respDivL'>Match<br>(e)</div><div class='respDivR'>No Match<br>(i)</div></div></div>","e","TARGET","1","trustrating_stim/white_mw078.bmp","0","Match","e","1500","trustrating_stim/white_mw078.bmp","red","Keep","REAL","1"
"html-keyboard-response","104","313268","0.0-7.0-5.13","63b6cc23f13731158517f900","bdp_wmem","Sat Apr 08 2023 11:05:20 GMT-0600 (Mountain Daylight Time)","679675","Match,No Match","","null","","","","","","<div class='trialBorder'><div class='vertical-center'><img src='img/correct.jpg'></div><div class='respDiv'><div class='respDivL'><font style='color:orange'>Match<br>(e)</font></div><div class='respDivR'>No Match<br>(i)</div></div></div>","null","FEEDBACK","","","","","","","","","","",""
"html-keyboard-response","105","313769","0.0-7.0-1.14","63b6cc23f13731158517f900","bdp_wmem","Sat Apr 08 2023 11:05:20 GMT-0600 (Mountain Daylight Time)","679675","Match,No Match","","null","","","","","","<div class='trialBorder'><div class='vertical-center'><img src='img/fixation2_sml.jpg'</img></div></div>","null","FIX","","","","","","","","","","",""
"html-keyboard-response","106","318271","0.0-7.0-2.14","63b6cc23f13731158517f900","bdp_wmem","Sat Apr 08 2023 11:05:20 GMT-0600 (Mountain Daylight Time)","679675","Match,No Match","","null","","","","","","<div class='trialBorder'><div class='vertical-center'><img style='vertical-align:center; align:center' src='img/fixation2_sml.jpg'></div><div class='arrayDiv3'><div class='tl'><img class='introPic' src='trustrating_stim/white_mw070.bmp'><br><font color='green'><strong>Share</strong></font></div><div class='tc'><img class='introPic' src='trustrating_stim/white_mw012.bmp'><br><font color='green'><strong>Share</strong></font></div><div class='tr'><img class='introPic' src='trustrating_stim/white_mw042.bmp'><br><font color='red'><strong>Keep</strong></font></div></div></div>","null","ARRAY","3","trustrating_stim/white_mw070.bmp,trustrating_stim/white_mw012.bmp,trustrating_stim/white_mw042.bmp","1,1,0","Match","e","4500","","","","",""
"html-keyboard-response","107","322271","0.0-7.0-3.14","63b6cc23f13731158517f900","bdp_wmem","Sat Apr 08 2023 11:05:20 GMT-0600 (Mountain Daylight Time)","679675","Match,No Match","","null","","","","","","<div class='trialBorder'><div class='vertical-center'><img src='img/fixation2_sml.jpg'</img></div></div>","null","DELAY","","","","","","","","","","",""
"html-keyboard-response","108","326233","0.0-7.0-4.14","63b6cc23f13731158517f900","bdp_wmem","Sat Apr 08 2023 11:05:20 GMT-0600 (Mountain Daylight Time)","679675","Match,No Match","","3961","","","","","","<div class='trialBorder'><div class='targDiv'><div class='tc'><img class='introPic' src='trustrating_stim/white_mw012.bmp'><br><font color='green'><strong>Share</strong></font></div></div><div class='respDiv'><div class='respDivL'>Match<br>(e)</div><div class='respDivR'>No Match<br>(i)</div></div></div>","e","TARGET","3","trustrating_stim/white_mw070.bmp,trustrating_stim/white_mw012.bmp,trustrating_stim/white_mw042.bmp","1,1,0","Match","e","4500","trustrating_stim/white_mw012.bmp","green","Share","REAL","1"
"html-keyboard-response","109","326734","0.0-7.0-5.14","63b6cc23f13731158517f900","bdp_wmem","Sat Apr 08 2023 11:05:20 GMT-0600 (Mountain Daylight Time)","679675","Match,No Match","","null","","","","","","<div class='trialBorder'><div class='vertical-center'><img src='img/correct.jpg'></div><div class='respDiv'><div class='respDivL'><font style='color:orange'>Match<br>(e)</font></div><div class='respDivR'>No Match<br>(i)</div></div></div>","null","FEEDBACK","","","","","","","","","","",""
"html-keyboard-response","110","327235","0.0-7.0-1.15","63b6cc23f13731158517f900","bdp_wmem","Sat Apr 08 2023 11:05:20 GMT-0600 (Mountain Daylight Time)","679675","Match,No Match","","null","","","","","","<div class='trialBorder'><div class='vertical-center'><img src='img/fixation2_sml.jpg'</img></div></div>","null","FIX","","","","","","","","","","",""
"html-keyboard-response","111","331738","0.0-7.0-2.15","63b6cc23f13731158517f900","bdp_wmem","Sat Apr 08 2023 11:05:20 GMT-0600 (Mountain Daylight Time)","679675","Match,No Match","","null","","","","","","<div class='trialBorder'><div class='vertical-center'><img style='vertical-align:center; align:center' src='img/fixation2_sml.jpg'></div><div class='arrayDiv3'><div class='tl'><img class='introPic' src='trustrating_stim/white_mw085.bmp'><br><font color='red'><strong>Keep</strong></font></div><div class='tc'><img class='introPic' src='trustrating_stim/white_mw078.bmp'><br><font color='green'><strong>Share</strong></font></div><div class='tr'><img class='introPic' src='trustrating_stim/white_mw038.bmp'><br><font color='red'><strong>Keep</strong></font></div></div></div>","null","ARRAY","3","trustrating_stim/white_mw085.bmp,trustrating_stim/white_mw078.bmp,trustrating_stim/white_mw038.bmp","0,1,0","noMatchFace","i","4500","","","","",""
"html-keyboard-response","112","335738","0.0-7.0-3.15","63b6cc23f13731158517f900","bdp_wmem","Sat Apr 08 2023 11:05:20 GMT-0600 (Mountain Daylight Time)","679675","Match,No Match","","null","","","","","","<div class='trialBorder'><div class='vertical-center'><img src='img/fixation2_sml.jpg'</img></div></div>","null","DELAY","","","","","","","","","","",""
"html-keyboard-response","113","338630","0.0-7.0-4.15","63b6cc23f13731158517f900","bdp_wmem","Sat Apr 08 2023 11:05:20 GMT-0600 (Mountain Daylight Time)","679675","Match,No Match","","2891","","","","","","<div class='trialBorder'><div class='targDiv'><div class='tc'><img class='introPic' src='trustrating_stim/white_mw070.bmp'><br><font color='red'><strong>Keep</strong></font></div></div><div class='respDiv'><div class='respDivL'>Match<br>(e)</div><div class='respDivR'>No Match<br>(i)</div></div></div>","i","TARGET","3","trustrating_stim/white_mw085.bmp,trustrating_stim/white_mw078.bmp,trustrating_stim/white_mw038.bmp","0,1,0","noMatchFace","i","4500","trustrating_stim/white_mw070.bmp","red","Keep","REAL","1"
"html-keyboard-response","114","339131","0.0-7.0-5.15","63b6cc23f13731158517f900","bdp_wmem","Sat Apr 08 2023 11:05:20 GMT-0600 (Mountain Daylight Time)","679675","Match,No Match","","null","","","","","","<div class='trialBorder'><div class='vertical-center'><img src='img/correct.jpg'></div><div class='respDiv'><div class='respDivL'>Match<br>(e)</div><div class='respDivR'><font style='color:orange'>No Match<br>(i)</font></div></div></div>","null","FEEDBACK","","","","","","","","","","",""
"html-keyboard-response","115","339632","0.0-7.0-1.16","63b6cc23f13731158517f900","bdp_wmem","Sat Apr 08 2023 11:05:20 GMT-0600 (Mountain Daylight Time)","679675","Match,No Match","","null","","","","","","<div class='trialBorder'><div class='vertical-center'><img src='img/fixation2_sml.jpg'</img></div></div>","null","FIX","","","","","","","","","","",""
"html-keyboard-response","116","344134","0.0-7.0-2.16","63b6cc23f13731158517f900","bdp_wmem","Sat Apr 08 2023 11:05:20 GMT-0600 (Mountain Daylight Time)","679675","Match,No Match","","null","","","","","","<div class='trialBorder'><div class='vertical-center'><img style='vertical-align:center; align:center' src='img/fixation2_sml.jpg'></div><div class='arrayDiv3'><div class='tl'><img class='introPic' src='trustrating_stim/white_mw038.bmp'><br><font color='green'><strong>Share</strong></font></div><div class='tc'><img class='introPic' src='trustrating_stim/white_mw092.bmp'><br><font color='green'><strong>Share</strong></font></div><div class='tr'><img class='introPic' src='trustrating_stim/white_mw040.bmp'><br><font color='red'><strong>Keep</strong></font></div></div></div>","null","ARRAY","3","trustrating_stim/white_mw038.bmp,trustrating_stim/white_mw092.bmp,trustrating_stim/white_mw040.bmp","1,1,0","noMatchOutcome","i","4500","","","","",""
"html-keyboard-response","117","348136","0.0-7.0-3.16","63b6cc23f13731158517f900","bdp_wmem","Sat Apr 08 2023 11:05:20 GMT-0600 (Mountain Daylight Time)","679675","Match,No Match","","null","","","","","","<div class='trialBorder'><div class='vertical-center'><img src='img/fixation2_sml.jpg'</img></div></div>","null","DELAY","","","","","","","","","","",""
"html-keyboard-response","118","351001","0.0-7.0-4.16","63b6cc23f13731158517f900","bdp_wmem","Sat Apr 08 2023 11:05:20 GMT-0600 (Mountain Daylight Time)","679675","Match,No Match","","2865","","","","","","<div class='trialBorder'><div class='targDiv'><div class='tc'><img class='introPic' src='trustrating_stim/white_mw092.bmp'><br><font color='red'><strong>Keep</strong></font></div></div><div class='respDiv'><div class='respDivL'>Match<br>(e)</div><div class='respDivR'>No Match<br>(i)</div></div></div>","i","TARGET","3","trustrating_stim/white_mw038.bmp,trustrating_stim/white_mw092.bmp,trustrating_stim/white_mw040.bmp","1,1,0","noMatchOutcome","i","4500","trustrating_stim/white_mw092.bmp","red","Keep","REAL","1"
"html-keyboard-response","119","351503","0.0-7.0-5.16","63b6cc23f13731158517f900","bdp_wmem","Sat Apr 08 2023 11:05:20 GMT-0600 (Mountain Daylight Time)","679675","Match,No Match","","null","","","","","","<div class='trialBorder'><div class='vertical-center'><img src='img/correct.jpg'></div><div class='respDiv'><div class='respDivL'>Match<br>(e)</div><div class='respDivR'><font style='color:orange'>No Match<br>(i)</font></div></div></div>","null","FEEDBACK","","","","","","","","","","",""
"html-keyboard-response","120","352006","0.0-7.0-1.17","63b6cc23f13731158517f900","bdp_wmem","Sat Apr 08 2023 11:05:20 GMT-0600 (Mountain Daylight Time)","679675","Match,No Match","","null","","","","","","<div class='trialBorder'><div class='vertical-center'><img src='img/fixation2_sml.jpg'</img></div></div>","null","FIX","","","","","","","","","","",""
"html-keyboard-response","121","356507","0.0-7.0-2.17","63b6cc23f13731158517f900","bdp_wmem","Sat Apr 08 2023 11:05:20 GMT-0600 (Mountain Daylight Time)","679675","Match,No Match","","null","","","","","","<div class='trialBorder'><div class='vertical-center'><img style='vertical-align:center; align:center' src='img/fixation2_sml.jpg'></div><div class='arrayDiv3'><div class='tl'><img class='introPic' src='trustrating_stim/white_mw085.bmp'><br><font color='green'><strong>Share</strong></font></div><div class='tc'><img class='introPic' src='trustrating_stim/white_mw012.bmp'><br><font color='red'><strong>Keep</strong></font></div><div class='tr'><img class='introPic' src='trustrating_stim/white_mw078.bmp'><br><font color='red'><strong>Keep</strong></font></div></div></div>","null","ARRAY","3","trustrating_stim/white_mw085.bmp,trustrating_stim/white_mw012.bmp,trustrating_stim/white_mw078.bmp","1,0,0","noMatchFace","i","4500","","","","",""
"html-keyboard-response","122","360508","0.0-7.0-3.17","63b6cc23f13731158517f900","bdp_wmem","Sat Apr 08 2023 11:05:20 GMT-0600 (Mountain Daylight Time)","679675","Match,No Match","","null","","","","","","<div class='trialBorder'><div class='vertical-center'><img src='img/fixation2_sml.jpg'</img></div></div>","null","DELAY","","","","","","","","","","",""
"html-keyboard-response","123","363218","0.0-7.0-4.17","63b6cc23f13731158517f900","bdp_wmem","Sat Apr 08 2023 11:05:20 GMT-0600 (Mountain Daylight Time)","679675","Match,No Match","","2709","","","","","","<div class='trialBorder'><div class='targDiv'><div class='tc'><img class='introPic' src='trustrating_stim/white_mw038.bmp'><br><font color='red'><strong>Keep</strong></font></div></div><div class='respDiv'><div class='respDivL'>Match<br>(e)</div><div class='respDivR'>No Match<br>(i)</div></div></div>","i","TARGET","3","trustrating_stim/white_mw085.bmp,trustrating_stim/white_mw012.bmp,trustrating_stim/white_mw078.bmp","1,0,0","noMatchFace","i","4500","trustrating_stim/white_mw038.bmp","red","Keep","REAL","1"
"html-keyboard-response","124","363720","0.0-7.0-5.17","63b6cc23f13731158517f900","bdp_wmem","Sat Apr 08 2023 11:05:20 GMT-0600 (Mountain Daylight Time)","679675","Match,No Match","","null","","","","","","<div class='trialBorder'><div class='vertical-center'><img src='img/correct.jpg'></div><div class='respDiv'><div class='respDivL'>Match<br>(e)</div><div class='respDivR'><font style='color:orange'>No Match<br>(i)</font></div></div></div>","null","FEEDBACK","","","","","","","","","","",""
"html-keyboard-response","125","364221","0.0-7.0-1.18","63b6cc23f13731158517f900","bdp_wmem","Sat Apr 08 2023 11:05:20 GMT-0600 (Mountain Daylight Time)","679675","Match,No Match","","null","","","","","","<div class='trialBorder'><div class='vertical-center'><img src='img/fixation2_sml.jpg'</img></div></div>","null","FIX","","","","","","","","","","",""
"html-keyboard-response","126","368722","0.0-7.0-2.18","63b6cc23f13731158517f900","bdp_wmem","Sat Apr 08 2023 11:05:20 GMT-0600 (Mountain Daylight Time)","679675","Match,No Match","","null","","","","","","<div class='trialBorder'><div class='vertical-center'><img style='vertical-align:center; align:center' src='img/fixation2_sml.jpg'></div><div class='arrayDiv3'><div class='tl'><img class='introPic' src='trustrating_stim/white_mw010.bmp'><br><font color='red'><strong>Keep</strong></font></div><div class='tc'><img class='introPic' src='trustrating_stim/white_mw040.bmp'><br><font color='red'><strong>Keep</strong></font></div><div class='tr'><img class='introPic' src='trustrating_stim/white_mw042.bmp'><br><font color='green'><strong>Share</strong></font></div></div></div>","null","ARRAY","3","trustrating_stim/white_mw010.bmp,trustrating_stim/white_mw040.bmp,trustrating_stim/white_mw042.bmp","0,0,1","noMatchOutcome","i","4500","","","","",""
"html-keyboard-response","127","372723","0.0-7.0-3.18","63b6cc23f13731158517f900","bdp_wmem","Sat Apr 08 2023 11:05:20 GMT-0600 (Mountain Daylight Time)","679675","Match,No Match","","null","","","","","","<div class='trialBorder'><div class='vertical-center'><img src='img/fixation2_sml.jpg'</img></div></div>","null","DELAY","","","","","","","","","","",""
"html-keyboard-response","128","377708","0.0-7.0-4.18","63b6cc23f13731158517f900","bdp_wmem","Sat Apr 08 2023 11:05:20 GMT-0600 (Mountain Daylight Time)","679675","Match,No Match","","4983","","","","","","<div class='trialBorder'><div class='targDiv'><div class='tc'><img class='introPic' src='trustrating_stim/white_mw040.bmp'><br><font color='green'><strong>Share</strong></font></div></div><div class='respDiv'><div class='respDivL'>Match<br>(e)</div><div class='respDivR'>No Match<br>(i)</div></div></div>","i","TARGET","3","trustrating_stim/white_mw010.bmp,trustrating_stim/white_mw040.bmp,trustrating_stim/white_mw042.bmp","0,0,1","noMatchOutcome","i","4500","trustrating_stim/white_mw040.bmp","green","Share","REAL","1"
"html-keyboard-response","129","378209","0.0-7.0-5.18","63b6cc23f13731158517f900","bdp_wmem","Sat Apr 08 2023 11:05:20 GMT-0600 (Mountain Daylight Time)","679675","Match,No Match","","null","","","","","","<div class='trialBorder'><div class='vertical-center'><img src='img/correct.jpg'></div><div class='respDiv'><div class='respDivL'>Match<br>(e)</div><div class='respDivR'><font style='color:orange'>No Match<br>(i)</font></div></div></div>","null","FEEDBACK","","","","","","","","","","",""
"html-keyboard-response","130","378710","0.0-7.0-1.19","63b6cc23f13731158517f900","bdp_wmem","Sat Apr 08 2023 11:05:20 GMT-0600 (Mountain Daylight Time)","679675","Match,No Match","","null","","","","","","<div class='trialBorder'><div class='vertical-center'><img src='img/fixation2_sml.jpg'</img></div></div>","null","FIX","","","","","","","","","","",""
"html-keyboard-response","131","381712","0.0-7.0-2.19","63b6cc23f13731158517f900","bdp_wmem","Sat Apr 08 2023 11:05:20 GMT-0600 (Mountain Daylight Time)","679675","Match,No Match","","null","","","","","","<div class='trialBorder'><div class='vertical-center'><img style='vertical-align:center; align:center' src='img/fixation2_sml.jpg'></div><div class='arrayDiv2'><div class='tl'><img class='introPic' src='trustrating_stim/white_mw085.bmp'><br><font color='red'><strong>Keep</strong></font></div><div class='tr'><img class='introPic' src='trustrating_stim/white_mw013.bmp'><br><font color='green'><strong>Share</strong></font></div></div></div>","null","ARRAY","2","trustrating_stim/white_mw085.bmp,trustrating_stim/white_mw013.bmp","0,1","Match","e","3000","","","","",""
"html-keyboard-response","132","385713","0.0-7.0-3.19","63b6cc23f13731158517f900","bdp_wmem","Sat Apr 08 2023 11:05:20 GMT-0600 (Mountain Daylight Time)","679675","Match,No Match","","null","","","","","","<div class='trialBorder'><div class='vertical-center'><img src='img/fixation2_sml.jpg'</img></div></div>","null","DELAY","","","","","","","","","","",""
"html-keyboard-response","133","387451","0.0-7.0-4.19","63b6cc23f13731158517f900","bdp_wmem","Sat Apr 08 2023 11:05:20 GMT-0600 (Mountain Daylight Time)","679675","Match,No Match","","1736","","","","","","<div class='trialBorder'><div class='targDiv'><div class='tc'><img class='introPic' src='trustrating_stim/white_mw085.bmp'><br><font color='red'><strong>Keep</strong></font></div></div><div class='respDiv'><div class='respDivL'>Match<br>(e)</div><div class='respDivR'>No Match<br>(i)</div></div></div>","e","TARGET","2","trustrating_stim/white_mw085.bmp,trustrating_stim/white_mw013.bmp","0,1","Match","e","3000","trustrating_stim/white_mw085.bmp","red","Keep","REAL","1"
"html-keyboard-response","134","387952","0.0-7.0-5.19","63b6cc23f13731158517f900","bdp_wmem","Sat Apr 08 2023 11:05:20 GMT-0600 (Mountain Daylight Time)","679675","Match,No Match","","null","","","","","","<div class='trialBorder'><div class='vertical-center'><img src='img/correct.jpg'></div><div class='respDiv'><div class='respDivL'><font style='color:orange'>Match<br>(e)</font></div><div class='respDivR'>No Match<br>(i)</div></div></div>","null","FEEDBACK","","","","","","","","","","",""
"html-keyboard-response","135","388453","0.0-7.0-1.20","63b6cc23f13731158517f900","bdp_wmem","Sat Apr 08 2023 11:05:20 GMT-0600 (Mountain Daylight Time)","679675","Match,No Match","","null","","","","","","<div class='trialBorder'><div class='vertical-center'><img src='img/fixation2_sml.jpg'</img></div></div>","null","FIX","","","","","","","","","","",""
"html-keyboard-response","136","391454","0.0-7.0-2.20","63b6cc23f13731158517f900","bdp_wmem","Sat Apr 08 2023 11:05:20 GMT-0600 (Mountain Daylight Time)","679675","Match,No Match","","null","","","","","","<div class='trialBorder'><div class='vertical-center'><img style='vertical-align:center; align:center' src='img/fixation2_sml.jpg'></div><div class='arrayDiv2'><div class='tl'><img class='introPic' src='trustrating_stim/white_mw038.bmp'><br><font color='green'><strong>Share</strong></font></div><div class='tr'><img class='introPic' src='trustrating_stim/white_mw091.bmp'><br><font color='red'><strong>Keep</strong></font></div></div></div>","null","ARRAY","2","trustrating_stim/white_mw038.bmp,trustrating_stim/white_mw091.bmp","1,0","Match","e","3000","","","","",""
"html-keyboard-response","137","395455","0.0-7.0-3.20","63b6cc23f13731158517f900","bdp_wmem","Sat Apr 08 2023 11:05:20 GMT-0600 (Mountain Daylight Time)","679675","Match,No Match","","null","","","","","","<div class='trialBorder'><div class='vertical-center'><img src='img/fixation2_sml.jpg'</img></div></div>","null","DELAY","","","","","","","","","","",""
"html-keyboard-response","138","396952","0.0-7.0-4.20","63b6cc23f13731158517f900","bdp_wmem","Sat Apr 08 2023 11:05:20 GMT-0600 (Mountain Daylight Time)","679675","Match,No Match","","1496","","","","","","<div class='trialBorder'><div class='targDiv'><div class='tc'><img class='introPic' src='trustrating_stim/white_mw038.bmp'><br><font color='green'><strong>Share</strong></font></div></div><div class='respDiv'><div class='respDivL'>Match<br>(e)</div><div class='respDivR'>No Match<br>(i)</div></div></div>","e","TARGET","2","trustrating_stim/white_mw038.bmp,trustrating_stim/white_mw091.bmp","1,0","Match","e","3000","trustrating_stim/white_mw038.bmp","green","Share","REAL","1"
"html-keyboard-response","139","397453","0.0-7.0-5.20","63b6cc23f13731158517f900","bdp_wmem","Sat Apr 08 2023 11:05:20 GMT-0600 (Mountain Daylight Time)","679675","Match,No Match","","null","","","","","","<div class='trialBorder'><div class='vertical-center'><img src='img/correct.jpg'></div><div class='respDiv'><div class='respDivL'><font style='color:orange'>Match<br>(e)</font></div><div class='respDivR'>No Match<br>(i)</div></div></div>","null","FEEDBACK","","","","","","","","","","",""
"html-keyboard-response","140","397954","0.0-7.0-1.21","63b6cc23f13731158517f900","bdp_wmem","Sat Apr 08 2023 11:05:20 GMT-0600 (Mountain Daylight Time)","679675","Match,No Match","","null","","","","","","<div class='trialBorder'><div class='vertical-center'><img src='img/fixation2_sml.jpg'</img></div></div>","null","FIX","","","","","","","","","","",""
"html-keyboard-response","141","400956","0.0-7.0-2.21","63b6cc23f13731158517f900","bdp_wmem","Sat Apr 08 2023 11:05:20 GMT-0600 (Mountain Daylight Time)","679675","Match,No Match","","null","","","","","","<div class='trialBorder'><div class='vertical-center'><img style='vertical-align:center; align:center' src='img/fixation2_sml.jpg'></div><div class='arrayDiv2'><div class='tl'><img class='introPic' src='trustrating_stim/white_mw070.bmp'><br><font color='red'><strong>Keep</strong></font></div><div class='tr'><img class='introPic' src='trustrating_stim/white_mw091.bmp'><br><font color='green'><strong>Share</strong></font></div></div></div>","null","ARRAY","2","trustrating_stim/white_mw070.bmp,trustrating_stim/white_mw091.bmp","0,1","Match","e","3000","","","","",""
"html-keyboard-response","142","404957","0.0-7.0-3.21","63b6cc23f13731158517f900","bdp_wmem","Sat Apr 08 2023 11:05:20 GMT-0600 (Mountain Daylight Time)","679675","Match,No Match","","null","","","","","","<div class='trialBorder'><div class='vertical-center'><img src='img/fixation2_sml.jpg'</img></div></div>","null","DELAY","","","","","","","","","","",""
"html-keyboard-response","143","406348","0.0-7.0-4.21","63b6cc23f13731158517f900","bdp_wmem","Sat Apr 08 2023 11:05:20 GMT-0600 (Mountain Daylight Time)","679675","Match,No Match","","1391","","","","","","<div class='trialBorder'><div class='targDiv'><div class='tc'><img class='introPic' src='trustrating_stim/white_mw070.bmp'><br><font color='red'><strong>Keep</strong></font></div></div><div class='respDiv'><div class='respDivL'>Match<br>(e)</div><div class='respDivR'>No Match<br>(i)</div></div></div>","e","TARGET","2","trustrating_stim/white_mw070.bmp,trustrating_stim/white_mw091.bmp","0,1","Match","e","3000","trustrating_stim/white_mw070.bmp","red","Keep","REAL","1"
"html-keyboard-response","144","406849","0.0-7.0-5.21","63b6cc23f13731158517f900","bdp_wmem","Sat Apr 08 2023 11:05:20 GMT-0600 (Mountain Daylight Time)","679675","Match,No Match","","null","","","","","","<div class='trialBorder'><div class='vertical-center'><img src='img/correct.jpg'></div><div class='respDiv'><div class='respDivL'><font style='color:orange'>Match<br>(e)</font></div><div class='respDivR'>No Match<br>(i)</div></div></div>","null","FEEDBACK","","","","","","","","","","",""
"html-keyboard-response","145","407350","0.0-7.0-1.22","63b6cc23f13731158517f900","bdp_wmem","Sat Apr 08 2023 11:05:20 GMT-0600 (Mountain Daylight Time)","679675","Match,No Match","","null","","","","","","<div class='trialBorder'><div class='vertical-center'><img src='img/fixation2_sml.jpg'</img></div></div>","null","FIX","","","","","","","","","","",""
"html-keyboard-response","146","408852","0.0-7.0-2.22","63b6cc23f13731158517f900","bdp_wmem","Sat Apr 08 2023 11:05:20 GMT-0600 (Mountain Daylight Time)","679675","Match,No Match","","null","","","","","","<div class='trialBorder'><div class='vertical-center'><img style='vertical-align:center; align:center' src='img/fixation2_sml.jpg'></div><div class='arrayDiv1'><div class='tc'><img class='introPic' src='trustrating_stim/white_mw085.bmp'><br><font color='red'><strong>Keep</strong></font></div></div></div>","null","ARRAY","1","trustrating_stim/white_mw085.bmp","0","Match","e","1500","","","","",""
"html-keyboard-response","147","412853","0.0-7.0-3.22","63b6cc23f13731158517f900","bdp_wmem","Sat Apr 08 2023 11:05:20 GMT-0600 (Mountain Daylight Time)","679675","Match,No Match","","null","","","","","","<div class='trialBorder'><div class='vertical-center'><img src='img/fixation2_sml.jpg'</img></div></div>","null","DELAY","","","","","","","","","","",""
"html-keyboard-response","148","414614","0.0-7.0-4.22","63b6cc23f13731158517f900","bdp_wmem","Sat Apr 08 2023 11:05:20 GMT-0600 (Mountain Daylight Time)","679675","Match,No Match","","1761","","","","","","<div class='trialBorder'><div class='targDiv'><div class='tc'><img class='introPic' src='trustrating_stim/white_mw085.bmp'><br><font color='red'><strong>Keep</strong></font></div></div><div class='respDiv'><div class='respDivL'>Match<br>(e)</div><div class='respDivR'>No Match<br>(i)</div></div></div>","e","TARGET","1","trustrating_stim/white_mw085.bmp","0","Match","e","1500","trustrating_stim/white_mw085.bmp","red","Keep","REAL","1"
"html-keyboard-response","149","415115","0.0-7.0-5.22","63b6cc23f13731158517f900","bdp_wmem","Sat Apr 08 2023 11:05:20 GMT-0600 (Mountain Daylight Time)","679675","Match,No Match","","null","","","","","","<div class='trialBorder'><div class='vertical-center'><img src='img/correct.jpg'></div><div class='respDiv'><div class='respDivL'><font style='color:orange'>Match<br>(e)</font></div><div class='respDivR'>No Match<br>(i)</div></div></div>","null","FEEDBACK","","","","","","","","","","",""
"html-keyboard-response","150","415617","0.0-7.0-1.23","63b6cc23f13731158517f900","bdp_wmem","Sat Apr 08 2023 11:05:20 GMT-0600 (Mountain Daylight Time)","679675","Match,No Match","","null","","","","","","<div class='trialBorder'><div class='vertical-center'><img src='img/fixation2_sml.jpg'</img></div></div>","null","FIX","","","","","","","","","","",""
"html-keyboard-response","151","417119","0.0-7.0-2.23","63b6cc23f13731158517f900","bdp_wmem","Sat Apr 08 2023 11:05:20 GMT-0600 (Mountain Daylight Time)","679675","Match,No Match","","null","","","","","","<div class='trialBorder'><div class='vertical-center'><img style='vertical-align:center; align:center' src='img/fixation2_sml.jpg'></div><div class='arrayDiv1'><div class='tc'><img class='introPic' src='trustrating_stim/white_mw042.bmp'><br><font color='green'><strong>Share</strong></font></div></div></div>","null","ARRAY","1","trustrating_stim/white_mw042.bmp","1","noMatchFace","i","1500","","","","",""
"html-keyboard-response","152","421121","0.0-7.0-3.23","63b6cc23f13731158517f900","bdp_wmem","Sat Apr 08 2023 11:05:20 GMT-0600 (Mountain Daylight Time)","679675","Match,No Match","","null","","","","","","<div class='trialBorder'><div class='vertical-center'><img src='img/fixation2_sml.jpg'</img></div></div>","null","DELAY","","","","","","","","","","",""
"html-keyboard-response","153","424021","0.0-7.0-4.23","63b6cc23f13731158517f900","bdp_wmem","Sat Apr 08 2023 11:05:20 GMT-0600 (Mountain Daylight Time)","679675","Match,No Match","","2899","","","","","","<div class='trialBorder'><div class='targDiv'><div class='tc'><img class='introPic' src='trustrating_stim/white_mw092.bmp'><br><font color='green'><strong>Share</strong></font></div></div><div class='respDiv'><div class='respDivL'>Match<br>(e)</div><div class='respDivR'>No Match<br>(i)</div></div></div>","i","TARGET","1","trustrating_stim/white_mw042.bmp","1","noMatchFace","i","1500","trustrating_stim/white_mw092.bmp","green","Share","REAL","1"
"html-keyboard-response","154","424522","0.0-7.0-5.23","63b6cc23f13731158517f900","bdp_wmem","Sat Apr 08 2023 11:05:20 GMT-0600 (Mountain Daylight Time)","679675","Match,No Match","","null","","","","","","<div class='trialBorder'><div class='vertical-center'><img src='img/correct.jpg'></div><div class='respDiv'><div class='respDivL'>Match<br>(e)</div><div class='respDivR'><font style='color:orange'>No Match<br>(i)</font></div></div></div>","null","FEEDBACK","","","","","","","","","","",""
"html-keyboard-response","155","425024","0.0-7.0-1.24","63b6cc23f13731158517f900","bdp_wmem","Sat Apr 08 2023 11:05:20 GMT-0600 (Mountain Daylight Time)","679675","Match,No Match","","null","","","","","","<div class='trialBorder'><div class='vertical-center'><img src='img/fixation2_sml.jpg'</img></div></div>","null","FIX","","","","","","","","","","",""
"html-keyboard-response","156","426526","0.0-7.0-2.24","63b6cc23f13731158517f900","bdp_wmem","Sat Apr 08 2023 11:05:20 GMT-0600 (Mountain Daylight Time)","679675","Match,No Match","","null","","","","","","<div class='trialBorder'><div class='vertical-center'><img style='vertical-align:center; align:center' src='img/fixation2_sml.jpg'></div><div class='arrayDiv1'><div class='tc'><img class='introPic' src='trustrating_stim/white_mw012.bmp'><br><font color='green'><strong>Share</strong></font></div></div></div>","null","ARRAY","1","trustrating_stim/white_mw012.bmp","1","noMatchOutcome","i","1500","","","","",""
"html-keyboard-response","157","430527","0.0-7.0-3.24","63b6cc23f13731158517f900","bdp_wmem","Sat Apr 08 2023 11:05:20 GMT-0600 (Mountain Daylight Time)","679675","Match,No Match","","null","","","","","","<div class='trialBorder'><div class='vertical-center'><img src='img/fixation2_sml.jpg'</img></div></div>","null","DELAY","","","","","","","","","","",""
"html-keyboard-response","158","433532","0.0-7.0-4.24","63b6cc23f13731158517f900","bdp_wmem","Sat Apr 08 2023 11:05:20 GMT-0600 (Mountain Daylight Time)","679675","Match,No Match","","3004","","","","","","<div class='trialBorder'><div class='targDiv'><div class='tc'><img class='introPic' src='trustrating_stim/white_mw012.bmp'><br><font color='red'><strong>Keep</strong></font></div></div><div class='respDiv'><div class='respDivL'>Match<br>(e)</div><div class='respDivR'>No Match<br>(i)</div></div></div>","i","TARGET","1","trustrating_stim/white_mw012.bmp","1","noMatchOutcome","i","1500","trustrating_stim/white_mw012.bmp","red","Keep","REAL","1"
"html-keyboard-response","159","434033","0.0-7.0-5.24","63b6cc23f13731158517f900","bdp_wmem","Sat Apr 08 2023 11:05:20 GMT-0600 (Mountain Daylight Time)","679675","Match,No Match","","null","","","","","","<div class='trialBorder'><div class='vertical-center'><img src='img/correct.jpg'></div><div class='respDiv'><div class='respDivL'>Match<br>(e)</div><div class='respDivR'><font style='color:orange'>No Match<br>(i)</font></div></div></div>","null","FEEDBACK","","","","","","","","","","",""
"html-keyboard-response","160","434535","0.0-7.0-1.25","63b6cc23f13731158517f900","bdp_wmem","Sat Apr 08 2023 11:05:20 GMT-0600 (Mountain Daylight Time)","679675","Match,No Match","","null","","","","","","<div class='trialBorder'><div class='vertical-center'><img src='img/fixation2_sml.jpg'</img></div></div>","null","FIX","","","","","","","","","","",""
"html-keyboard-response","161","437535","0.0-7.0-2.25","63b6cc23f13731158517f900","bdp_wmem","Sat Apr 08 2023 11:05:20 GMT-0600 (Mountain Daylight Time)","679675","Match,No Match","","null","","","","","","<div class='trialBorder'><div class='vertical-center'><img style='vertical-align:center; align:center' src='img/fixation2_sml.jpg'></div><div class='arrayDiv2'><div class='tl'><img class='introPic' src='trustrating_stim/white_mw012.bmp'><br><font color='green'><strong>Share</strong></font></div><div class='tr'><img class='introPic' src='trustrating_stim/white_mw013.bmp'><br><font color='red'><strong>Keep</strong></font></div></div></div>","null","ARRAY","2","trustrating_stim/white_mw012.bmp,trustrating_stim/white_mw013.bmp","1,0","noMatchFace","i","3000","","","","",""
"html-keyboard-response","162","441537","0.0-7.0-3.25","63b6cc23f13731158517f900","bdp_wmem","Sat Apr 08 2023 11:05:20 GMT-0600 (Mountain Daylight Time)","679675","Match,No Match","","null","","","","","","<div class='trialBorder'><div class='vertical-center'><img src='img/fixation2_sml.jpg'</img></div></div>","null","DELAY","","","","","","","","","","",""
"html-keyboard-response","163","443719","0.0-7.0-4.25","63b6cc23f13731158517f900","bdp_wmem","Sat Apr 08 2023 11:05:20 GMT-0600 (Mountain Daylight Time)","679675","Match,No Match","","2182","","","","","","<div class='trialBorder'><div class='targDiv'><div class='tc'><img class='introPic' src='trustrating_stim/white_mw010.bmp'><br><font color='red'><strong>Keep</strong></font></div></div><div class='respDiv'><div class='respDivL'>Match<br>(e)</div><div class='respDivR'>No Match<br>(i)</div></div></div>","i","TARGET","2","trustrating_stim/white_mw012.bmp,trustrating_stim/white_mw013.bmp","1,0","noMatchFace","i","3000","trustrating_stim/white_mw010.bmp","red","Keep","REAL","1"
"html-keyboard-response","164","444222","0.0-7.0-5.25","63b6cc23f13731158517f900","bdp_wmem","Sat Apr 08 2023 11:05:20 GMT-0600 (Mountain Daylight Time)","679675","Match,No Match","","null","","","","","","<div class='trialBorder'><div class='vertical-center'><img src='img/correct.jpg'></div><div class='respDiv'><div class='respDivL'>Match<br>(e)</div><div class='respDivR'><font style='color:orange'>No Match<br>(i)</font></div></div></div>","null","FEEDBACK","","","","","","","","","","",""
"html-keyboard-response","165","444723","0.0-7.0-1.26","63b6cc23f13731158517f900","bdp_wmem","Sat Apr 08 2023 11:05:20 GMT-0600 (Mountain Daylight Time)","679675","Match,No Match","","null","","","","","","<div class='trialBorder'><div class='vertical-center'><img src='img/fixation2_sml.jpg'</img></div></div>","null","FIX","","","","","","","","","","",""
"html-keyboard-response","166","446224","0.0-7.0-2.26","63b6cc23f13731158517f900","bdp_wmem","Sat Apr 08 2023 11:05:20 GMT-0600 (Mountain Daylight Time)","679675","Match,No Match","","null","","","","","","<div class='trialBorder'><div class='vertical-center'><img style='vertical-align:center; align:center' src='img/fixation2_sml.jpg'></div><div class='arrayDiv1'><div class='tc'><img class='introPic' src='trustrating_stim/white_mw010.bmp'><br><font color='green'><strong>Share</strong></font></div></div></div>","null","ARRAY","1","trustrating_stim/white_mw010.bmp","1","Match","e","1500","","","","",""
"html-keyboard-response","167","450225","0.0-7.0-3.26","63b6cc23f13731158517f900","bdp_wmem","Sat Apr 08 2023 11:05:20 GMT-0600 (Mountain Daylight Time)","679675","Match,No Match","","null","","","","","","<div class='trialBorder'><div class='vertical-center'><img src='img/fixation2_sml.jpg'</img></div></div>","null","DELAY","","","","","","","","","","",""
"html-keyboard-response","168","451857","0.0-7.0-4.26","63b6cc23f13731158517f900","bdp_wmem","Sat Apr 08 2023 11:05:20 GMT-0600 (Mountain Daylight Time)","679675","Match,No Match","","1631","","","","","","<div class='trialBorder'><div class='targDiv'><div class='tc'><img class='introPic' src='trustrating_stim/white_mw010.bmp'><br><font color='green'><strong>Share</strong></font></div></div><div class='respDiv'><div class='respDivL'>Match<br>(e)</div><div class='respDivR'>No Match<br>(i)</div></div></div>","e","TARGET","1","trustrating_stim/white_mw010.bmp","1","Match","e","1500","trustrating_stim/white_mw010.bmp","green","Share","REAL","1"
"html-keyboard-response","169","452358","0.0-7.0-5.26","63b6cc23f13731158517f900","bdp_wmem","Sat Apr 08 2023 11:05:20 GMT-0600 (Mountain Daylight Time)","679675","Match,No Match","","null","","","","","","<div class='trialBorder'><div class='vertical-center'><img src='img/correct.jpg'></div><div class='respDiv'><div class='respDivL'><font style='color:orange'>Match<br>(e)</font></div><div class='respDivR'>No Match<br>(i)</div></div></div>","null","FEEDBACK","","","","","","","","","","",""
"html-keyboard-response","170","452859","0.0-7.0-1.27","63b6cc23f13731158517f900","bdp_wmem","Sat Apr 08 2023 11:05:20 GMT-0600 (Mountain Daylight Time)","679675","Match,No Match","","null","","","","","","<div class='trialBorder'><div class='vertical-center'><img src='img/fixation2_sml.jpg'</img></div></div>","null","FIX","","","","","","","","","","",""
"html-keyboard-response","171","455860","0.0-7.0-2.27","63b6cc23f13731158517f900","bdp_wmem","Sat Apr 08 2023 11:05:20 GMT-0600 (Mountain Daylight Time)","679675","Match,No Match","","null","","","","","","<div class='trialBorder'><div class='vertical-center'><img style='vertical-align:center; align:center' src='img/fixation2_sml.jpg'></div><div class='arrayDiv2'><div class='tl'><img class='introPic' src='trustrating_stim/white_mw003.bmp'><br><font color='green'><strong>Share</strong></font></div><div class='tr'><img class='introPic' src='trustrating_stim/white_mw012.bmp'><br><font color='red'><strong>Keep</strong></font></div></div></div>","null","ARRAY","2","trustrating_stim/white_mw003.bmp,trustrating_stim/white_mw012.bmp","1,0","noMatchOutcome","i","3000","","","","",""
"html-keyboard-response","172","459861","0.0-7.0-3.27","63b6cc23f13731158517f900","bdp_wmem","Sat Apr 08 2023 11:05:20 GMT-0600 (Mountain Daylight Time)","679675","Match,No Match","","null","","","","","","<div class='trialBorder'><div class='vertical-center'><img src='img/fixation2_sml.jpg'</img></div></div>","null","DELAY","","","","","","","","","","",""
"html-keyboard-response","173","462632","0.0-7.0-4.27","63b6cc23f13731158517f900","bdp_wmem","Sat Apr 08 2023 11:05:20 GMT-0600 (Mountain Daylight Time)","679675","Match,No Match","","2770","","","","","","<div class='trialBorder'><div class='targDiv'><div class='tc'><img class='introPic' src='trustrating_stim/white_mw003.bmp'><br><font color='red'><strong>Keep</strong></font></div></div><div class='respDiv'><div class='respDivL'>Match<br>(e)</div><div class='respDivR'>No Match<br>(i)</div></div></div>","i","TARGET","2","trustrating_stim/white_mw003.bmp,trustrating_stim/white_mw012.bmp","1,0","noMatchOutcome","i","3000","trustrating_stim/white_mw003.bmp","red","Keep","REAL","1"
"html-keyboard-response","174","463133","0.0-7.0-5.27","63b6cc23f13731158517f900","bdp_wmem","Sat Apr 08 2023 11:05:20 GMT-0600 (Mountain Daylight Time)","679675","Match,No Match","","null","","","","","","<div class='trialBorder'><div class='vertical-center'><img src='img/correct.jpg'></div><div class='respDiv'><div class='respDivL'>Match<br>(e)</div><div class='respDivR'><font style='color:orange'>No Match<br>(i)</font></div></div></div>","null","FEEDBACK","","","","","","","","","","",""
"html-keyboard-response","175","463634","0.0-7.0-1.28","63b6cc23f13731158517f900","bdp_wmem","Sat Apr 08 2023 11:05:20 GMT-0600 (Mountain Daylight Time)","679675","Match,No Match","","null","","","","","","<div class='trialBorder'><div class='vertical-center'><img src='img/fixation2_sml.jpg'</img></div></div>","null","FIX","","","","","","","","","","",""
"html-keyboard-response","176","465135","0.0-7.0-2.28","63b6cc23f13731158517f900","bdp_wmem","Sat Apr 08 2023 11:05:20 GMT-0600 (Mountain Daylight Time)","679675","Match,No Match","","null","","","","","","<div class='trialBorder'><div class='vertical-center'><img style='vertical-align:center; align:center' src='img/fixation2_sml.jpg'></div><div class='arrayDiv1'><div class='tc'><img class='introPic' src='trustrating_stim/white_mw042.bmp'><br><font color='green'><strong>Share</strong></font></div></div></div>","null","ARRAY","1","trustrating_stim/white_mw042.bmp","1","Match","e","1500","","","","",""
"html-keyboard-response","177","469136","0.0-7.0-3.28","63b6cc23f13731158517f900","bdp_wmem","Sat Apr 08 2023 11:05:20 GMT-0600 (Mountain Daylight Time)","679675","Match,No Match","","null","","","","","","<div class='trialBorder'><div class='vertical-center'><img src='img/fixation2_sml.jpg'</img></div></div>","null","DELAY","","","","","","","","","","",""
"html-keyboard-response","178","470602","0.0-7.0-4.28","63b6cc23f13731158517f900","bdp_wmem","Sat Apr 08 2023 11:05:20 GMT-0600 (Mountain Daylight Time)","679675","Match,No Match","","1465","","","","","","<div class='trialBorder'><div class='targDiv'><div class='tc'><img class='introPic' src='trustrating_stim/white_mw042.bmp'><br><font color='green'><strong>Share</strong></font></div></div><div class='respDiv'><div class='respDivL'>Match<br>(e)</div><div class='respDivR'>No Match<br>(i)</div></div></div>","e","TARGET","1","trustrating_stim/white_mw042.bmp","1","Match","e","1500","trustrating_stim/white_mw042.bmp","green","Share","REAL","1"
"html-keyboard-response","179","471103","0.0-7.0-5.28","63b6cc23f13731158517f900","bdp_wmem","Sat Apr 08 2023 11:05:20 GMT-0600 (Mountain Daylight Time)","679675","Match,No Match","","null","","","","","","<div class='trialBorder'><div class='vertical-center'><img src='img/correct.jpg'></div><div class='respDiv'><div class='respDivL'><font style='color:orange'>Match<br>(e)</font></div><div class='respDivR'>No Match<br>(i)</div></div></div>","null","FEEDBACK","","","","","","","","","","",""
"html-keyboard-response","180","471604","0.0-7.0-1.29","63b6cc23f13731158517f900","bdp_wmem","Sat Apr 08 2023 11:05:20 GMT-0600 (Mountain Daylight Time)","679675","Match,No Match","","null","","","","","","<div class='trialBorder'><div class='vertical-center'><img src='img/fixation2_sml.jpg'</img></div></div>","null","FIX","","","","","","","","","","",""
"html-keyboard-response","181","473105","0.0-7.0-2.29","63b6cc23f13731158517f900","bdp_wmem","Sat Apr 08 2023 11:05:20 GMT-0600 (Mountain Daylight Time)","679675","Match,No Match","","null","","","","","","<div class='trialBorder'><div class='vertical-center'><img style='vertical-align:center; align:center' src='img/fixation2_sml.jpg'></div><div class='arrayDiv1'><div class='tc'><img class='introPic' src='trustrating_stim/white_mw012.bmp'><br><font color='red'><strong>Keep</strong></font></div></div></div>","null","ARRAY","1","trustrating_stim/white_mw012.bmp","0","noMatchFace","i","1500","","","","",""
"html-keyboard-response","182","477107","0.0-7.0-3.29","63b6cc23f13731158517f900","bdp_wmem","Sat Apr 08 2023 11:05:20 GMT-0600 (Mountain Daylight Time)","679675","Match,No Match","","null","","","","","","<div class='trialBorder'><div class='vertical-center'><img src='img/fixation2_sml.jpg'</img></div></div>","null","DELAY","","","","","","","","","","",""
"html-keyboard-response","183","478925","0.0-7.0-4.29","63b6cc23f13731158517f900","bdp_wmem","Sat Apr 08 2023 11:05:20 GMT-0600 (Mountain Daylight Time)","679675","Match,No Match","","1817","","","","","","<div class='trialBorder'><div class='targDiv'><div class='tc'><img class='introPic' src='trustrating_stim/white_mw003.bmp'><br><font color='red'><strong>Keep</strong></font></div></div><div class='respDiv'><div class='respDivL'>Match<br>(e)</div><div class='respDivR'>No Match<br>(i)</div></div></div>","i","TARGET","1","trustrating_stim/white_mw012.bmp","0","noMatchFace","i","1500","trustrating_stim/white_mw003.bmp","red","Keep","REAL","1"
"html-keyboard-response","184","479425","0.0-7.0-5.29","63b6cc23f13731158517f900","bdp_wmem","Sat Apr 08 2023 11:05:20 GMT-0600 (Mountain Daylight Time)","679675","Match,No Match","","null","","","","","","<div class='trialBorder'><div class='vertical-center'><img src='img/correct.jpg'></div><div class='respDiv'><div class='respDivL'>Match<br>(e)</div><div class='respDivR'><font style='color:orange'>No Match<br>(i)</font></div></div></div>","null","FEEDBACK","","","","","","","","","","",""
"html-keyboard-response","185","479926","0.0-7.0-1.30","63b6cc23f13731158517f900","bdp_wmem","Sat Apr 08 2023 11:05:20 GMT-0600 (Mountain Daylight Time)","679675","Match,No Match","","null","","","","","","<div class='trialBorder'><div class='vertical-center'><img src='img/fixation2_sml.jpg'</img></div></div>","null","FIX","","","","","","","","","","",""
"html-keyboard-response","186","482928","0.0-7.0-2.30","63b6cc23f13731158517f900","bdp_wmem","Sat Apr 08 2023 11:05:20 GMT-0600 (Mountain Daylight Time)","679675","Match,No Match","","null","","","","","","<div class='trialBorder'><div class='vertical-center'><img style='vertical-align:center; align:center' src='img/fixation2_sml.jpg'></div><div class='arrayDiv2'><div class='tl'><img class='introPic' src='trustrating_stim/white_mw070.bmp'><br><font color='green'><strong>Share</strong></font></div><div class='tr'><img class='introPic' src='trustrating_stim/white_mw092.bmp'><br><font color='red'><strong>Keep</strong></font></div></div></div>","null","ARRAY","2","trustrating_stim/white_mw070.bmp,trustrating_stim/white_mw092.bmp","1,0","noMatchOutcome","i","3000","","","","",""
"html-keyboard-response","187","486929","0.0-7.0-3.30","63b6cc23f13731158517f900","bdp_wmem","Sat Apr 08 2023 11:05:20 GMT-0600 (Mountain Daylight Time)","679675","Match,No Match","","null","","","","","","<div class='trialBorder'><div class='vertical-center'><img src='img/fixation2_sml.jpg'</img></div></div>","null","DELAY","","","","","","","","","","",""
