"trial_type","trial_index","time_elapsed","internal_node_id","subject_id","task","startTime","totalTime","labels","view_history","rt","event","trial","time","trialtype","success","stimulus","key_press","ltround","name","fileID","outcome","lottotype","lottoswpt","lottocurrpshare","point_total","round","faceID","face"
"pavlovia","0","3","0.0-0.0","64077ddd11208afe2bec171a","bdp_rwlrn","Wed Mar 15 2023 23:37:43 GMT-0400 (Eastern Daylight Time)","515264","Trustworthy,Untrustworthy","","","","","","","","","","","","","","","","","","","",""
"instructions","1","11148","0.0-1.0","64077ddd11208afe2bec171a","bdp_rwlrn","Wed Mar 15 2023 23:37:43 GMT-0400 (Eastern Daylight Time)","515264","Trustworthy,Untrustworthy","[{""page_index"":0,""viewing_time"":11144}]","11144","","","","","","","","","","","","","","","","","",""
"","","","","64077ddd11208afe2bec171a","bdp_rwlrn","Wed Mar 15 2023 23:37:43 GMT-0400 (Eastern Daylight Time)","515264","Trustworthy,Untrustworthy","","","fullscreenenter","2","12886","fullscreenenter","","","","","","","","","","","","","",""
"fullscreen","2","13871","0.0-2.0","64077ddd11208afe2bec171a","bdp_rwlrn","Wed Mar 15 2023 23:37:43 GMT-0400 (Eastern Daylight Time)","515264","Trustworthy,Untrustworthy","","","","","","","true","","","","","","","","","","","","",""
"instructions","3","121147","0.0-4.0","64077ddd11208afe2bec171a","bdp_rwlrn","Wed Mar 15 2023 23:37:43 GMT-0400 (Eastern Daylight Time)","515264","Trustworthy,Untrustworthy","[{""page_index"":0,""viewing_time"":17147},{""page_index"":1,""viewing_time"":21632},{""page_index"":2,""viewing_time"":19153},{""page_index"":3,""viewing_time"":21088},{""page_index"":4,""viewing_time"":23616},{""page_index"":5,""viewing_time"":4639}]","107275","","","","","","","","","","","","","","","","","",""
"html-keyboard-response","4","127469","0.0-5.0","64077ddd11208afe2bec171a","bdp_rwlrn","Wed Mar 15 2023 23:37:43 GMT-0400 (Eastern Daylight Time)","515264","Trustworthy,Untrustworthy","","6320","","","","","","<div class='header' style='text-align:left; position: absolute; top: 5%; left: 5%;'><small>Task 1 of 5</small></div><div class='instruxDiv'><p><strong>1) What is the maximum number of points you can choose to bet on a lottery?</strong></p><p>a) 0</p><p>b) 1</p><p>c) 5</p>","C","","","","","","","","","","",""
"html-keyboard-response","5","129723","0.0-6.0","64077ddd11208afe2bec171a","bdp_rwlrn","Wed Mar 15 2023 23:37:43 GMT-0400 (Eastern Daylight Time)","515264","Trustworthy,Untrustworthy","","2139","","","","","","<div class='header' style='text-align:left; position: absolute; top: 5%; left: 5%;'><small>Task 1 of 5</small></div><div class='instruxDiv'><p><strong>1) What is the maximum number of points you can choose to bet on a lottery?</strong></p><p>a) 1</p><p>b) 1</p><p style='color:#00FF00'>c) 5</p><h3 style='color:#00FF00'>Correct!</h3><h3 class='center-content'>The correct response is c).</h3><h3 class='center-content'>The maximum number of points you can choose to bet on a lottery is 5 points.</h3><p><em>Press SPACEBAR to continue</em></p></div>"," ","","","","","","","","","","",""
"html-keyboard-response","6","137996","0.0-7.0","64077ddd11208afe2bec171a","bdp_rwlrn","Wed Mar 15 2023 23:37:43 GMT-0400 (Eastern Daylight Time)","515264","Trustworthy,Untrustworthy","","8166","","","","","","<div class='header' style='text-align:left; position: absolute; top: 5%; left: 5%;'><small>Task 1 of 5</small></div><div class='instruxDiv'><p><strong>2) How many points can you win each round?</strong></p><p>a) 10 points</p><p>b) Double what you bet</p><p>c) Quadruple what you bet</p>","B","","","","","","","","","","",""
"html-keyboard-response","7","139337","0.0-8.0","64077ddd11208afe2bec171a","bdp_rwlrn","Wed Mar 15 2023 23:37:43 GMT-0400 (Eastern Daylight Time)","515264","Trustworthy,Untrustworthy","","1236","","","","","","<div class='header' style='text-align:left; position: absolute; top: 5%; left: 5%;'><small>Task 1 of 5</small></div><div class='instruxDiv'><p><strong>2) How many points can you win each round?</strong></p><p>a) 10 points</p><p style='color:#00FF00'>b) Double what you bet</p><p>c) Quadruple what you bet</p><h3 style='color:#00FF00'>Correct!</h3><h3 class='center-content'>The correct response is b).</h3><h3 class='center-content'>You can win double the amount of points you bet.</h3><p><em>Press SPACEBAR to continue</em></p></div>"," ","","","","","","","","","","",""
"html-keyboard-response","8","144454","0.0-9.0","64077ddd11208afe2bec171a","bdp_rwlrn","Wed Mar 15 2023 23:37:43 GMT-0400 (Eastern Daylight Time)","515264","Trustworthy,Untrustworthy","","null","","","","","","<div class='header' style='text-align:left; position: absolute; top: 5%; left: 5%;'><small>Task 1 of 5</small></div><div class='instruxDiv'><p>Thank you for completing the quiz<p>These are the actual lotteries you will be playing in the next block:<p><div class='tc' align='center'><img class='introPic' src='Fruit/Kiwi.png'><br><strong>Kiwi Kash</strong></div><div class='bl' align='center'><img class='introPic' src='Fruit/mixed-berries2.png'><br><strong>Berry Bla$t</strong></div><div class='br' align='center'><img class='introPic' src='Fruit/bananas.png'><br><strong>Banana Bonanza</strong></div></div><p>Across <strong>66 rounds</strong> you will play each lottery <strong>22 times</strong> (in random order).<p style='align:center; color:white'><font <em>Press SPACEBAR to continue</em></p>","null","","","","","","","","","","",""
"instructions","9","152186","0.0-10.0","64077ddd11208afe2bec171a","bdp_rwlrn","Wed Mar 15 2023 23:37:43 GMT-0400 (Eastern Daylight Time)","515264","Trustworthy,Untrustworthy","[{""page_index"":0,""viewing_time"":4211},{""page_index"":1,""viewing_time"":3519}]","7731","","","","","","","","","","","","","","","","","",""
"html-keyboard-response","10","154602","0.0-11.0-1.0","64077ddd11208afe2bec171a","bdp_rwlrn","Wed Mar 15 2023 23:37:43 GMT-0400 (Eastern Daylight Time)","515264","Trustworthy,Untrustworthy","","2299","","","","decision","","<div class='trialDiv'><img src='Fruit/bananas.png'><br><font class='baseline'><strong>Banana Bonanza</strong><p>Choose number of points to bet.</font><div class='respPicDiv'><img src='img/responseButtonOffersNo0L.png' class='respPic'></div></div>","4","1","Banana Bonanza","Fruit/bananas.png","Won","0.2,0.8","11","0.2","5","1","",""
"html-keyboard-response","11","154861","0.0-11.0-2.0","64077ddd11208afe2bec171a","bdp_rwlrn","Wed Mar 15 2023 23:37:43 GMT-0400 (Eastern Daylight Time)","515264","Trustworthy,Untrustworthy","","null","","","","decisionFB","","<div class='trialDiv'><img src='Fruit/bananas.png'><br><font class='baseline'><strong>Banana Bonanza</strong><p>Choose number of points to bet.</font><div class='respPicDiv'><img src='img/responseButtonOffersNo0L4.png' class='respPic'></div></div>","null","1","Banana Bonanza","Fruit/bananas.png","Won","0.2,0.8","11","0.2","1","1","",""
"html-keyboard-response","12","155872","0.0-11.0-3.0","64077ddd11208afe2bec171a","bdp_rwlrn","Wed Mar 15 2023 23:37:43 GMT-0400 (Eastern Daylight Time)","515264","Trustworthy,Untrustworthy","","null","","","","feedback","","<div class='respPicDiv'><img src='img/responseButtonOffersNo0_wht.png' class='respPic'></div><div class='trialDiv'><img src='Fruit/bananas.png'><br><font class='baseline'><strong>Banana Bonanza</strong><p><strong><font class='posOutcome'>You WON</font><p>You bet: 4</strong></font> &nbsp; &nbsp; &nbsp; &nbsp; &nbsp; &nbsp;<font class='posOutcome'>you receive: <strong>8</strong></font></div>","null","1","Banana Bonanza","Fruit/bananas.png","Won","0.2,0.8","11","0.2","9","1","",""
"html-keyboard-response","13","157178","0.0-11.0-1.1","64077ddd11208afe2bec171a","bdp_rwlrn","Wed Mar 15 2023 23:37:43 GMT-0400 (Eastern Daylight Time)","515264","Trustworthy,Untrustworthy","","1304","","","","decision","","<div class='trialDiv'><img src='Fruit/mixed-berries2.png'><br><font class='baseline'><strong>Berry Bla$t</strong><p>Choose number of points to bet.</font><div class='respPicDiv'><img src='img/responseButtonOffersNo0L.png' class='respPic'></div></div>","3","1","Berry Bla$t","Fruit/mixed-berries2.png","Lost","0.65,0.2","13","0.65","14","2","",""
"html-keyboard-response","14","157442","0.0-11.0-2.1","64077ddd11208afe2bec171a","bdp_rwlrn","Wed Mar 15 2023 23:37:43 GMT-0400 (Eastern Daylight Time)","515264","Trustworthy,Untrustworthy","","null","","","","decisionFB","","<div class='trialDiv'><img src='Fruit/mixed-berries2.png'><br><font class='baseline'><strong>Berry Bla$t</strong><p>Choose number of points to bet.</font><div class='respPicDiv'><img src='img/responseButtonOffersNo0L3.png' class='respPic'></div></div>","null","1","Berry Bla$t","Fruit/mixed-berries2.png","Lost","0.65,0.2","13","0.65","11","2","",""
"html-keyboard-response","15","158447","0.0-11.0-3.1","64077ddd11208afe2bec171a","bdp_rwlrn","Wed Mar 15 2023 23:37:43 GMT-0400 (Eastern Daylight Time)","515264","Trustworthy,Untrustworthy","","null","","","","feedback","","<div class='respPicDiv'><img src='img/responseButtonOffersNo0_wht.png' class='respPic'></div><div class='trialDiv'><img src='Fruit/mixed-berries2.png'><br><font class='baseline'><strong>Berry Bla$t</strong><p><strong><font class='negOutcome'>You LOST</font><p>You bet: 3</strong></font> &nbsp; &nbsp; &nbsp; &nbsp; &nbsp; &nbsp;<font class='negOutcome'>You receive: <strong>0</strong></font></div>","null","1","Berry Bla$t","Fruit/mixed-berries2.png","Lost","0.65,0.2","13","0.65","11","2","",""
"html-keyboard-response","16","159739","0.0-11.0-1.2","64077ddd11208afe2bec171a","bdp_rwlrn","Wed Mar 15 2023 23:37:43 GMT-0400 (Eastern Daylight Time)","515264","Trustworthy,Untrustworthy","","1291","","","","decision","","<div class='trialDiv'><img src='Fruit/Kiwi.png'><br><font class='baseline'><strong>Kiwi Kash</strong><p>Choose number of points to bet.</font><div class='respPicDiv'><img src='img/responseButtonOffersNo0L.png' class='respPic'></div></div>","3","1","Kiwi Kash","Fruit/Kiwi.png","Lost","0.2,0.65","12","0.2","16","3","",""
"html-keyboard-response","17","159996","0.0-11.0-2.2","64077ddd11208afe2bec171a","bdp_rwlrn","Wed Mar 15 2023 23:37:43 GMT-0400 (Eastern Daylight Time)","515264","Trustworthy,Untrustworthy","","null","","","","decisionFB","","<div class='trialDiv'><img src='Fruit/Kiwi.png'><br><font class='baseline'><strong>Kiwi Kash</strong><p>Choose number of points to bet.</font><div class='respPicDiv'><img src='img/responseButtonOffersNo0L3.png' class='respPic'></div></div>","null","1","Kiwi Kash","Fruit/Kiwi.png","Lost","0.2,0.65","12","0.2","13","3","",""
"html-keyboard-response","18","161002","0.0-11.0-3.2","64077ddd11208afe2bec171a","bdp_rwlrn","Wed Mar 15 2023 23:37:43 GMT-0400 (Eastern Daylight Time)","515264","Trustworthy,Untrustworthy","","null","","","","feedback","","<div class='respPicDiv'><img src='img/responseButtonOffersNo0_wht.png' class='respPic'></div><div class='trialDiv'><img src='Fruit/Kiwi.png'><br><font class='baseline'><strong>Kiwi Kash</strong><p><strong><font class='negOutcome'>You LOST</font><p>You bet: 3</strong></font> &nbsp; &nbsp; &nbsp; &nbsp; &nbsp; &nbsp;<font class='negOutcome'>You receive: <strong>0</strong></font></div>","null","1","Kiwi Kash","Fruit/Kiwi.png","Lost","0.2,0.65","12","0.2","13","3","",""
"html-keyboard-response","19","162777","0.0-11.0-1.3","64077ddd11208afe2bec171a","bdp_rwlrn","Wed Mar 15 2023 23:37:43 GMT-0400 (Eastern Daylight Time)","515264","Trustworthy,Untrustworthy","","1774","","","","decision","","<div class='trialDiv'><img src='Fruit/mixed-berries2.png'><br><font class='baseline'><strong>Berry Bla$t</strong><p>Choose number of points to bet.</font><div class='respPicDiv'><img src='img/responseButtonOffersNo0L.png' class='respPic'></div></div>","1","2","Berry Bla$t","Fruit/mixed-berries2.png","Won","0.65,0.2","13","0.65","18","4","",""
"html-keyboard-response","20","163038","0.0-11.0-2.3","64077ddd11208afe2bec171a","bdp_rwlrn","Wed Mar 15 2023 23:37:43 GMT-0400 (Eastern Daylight Time)","515264","Trustworthy,Untrustworthy","","null","","","","decisionFB","","<div class='trialDiv'><img src='Fruit/mixed-berries2.png'><br><font class='baseline'><strong>Berry Bla$t</strong><p>Choose number of points to bet.</font><div class='respPicDiv'><img src='img/responseButtonOffersNo0L1.png' class='respPic'></div></div>","null","2","Berry Bla$t","Fruit/mixed-berries2.png","Won","0.65,0.2","13","0.65","17","4","",""
"html-keyboard-response","21","164050","0.0-11.0-3.3","64077ddd11208afe2bec171a","bdp_rwlrn","Wed Mar 15 2023 23:37:43 GMT-0400 (Eastern Daylight Time)","515264","Trustworthy,Untrustworthy","","null","","","","feedback","","<div class='respPicDiv'><img src='img/responseButtonOffersNo0_wht.png' class='respPic'></div><div class='trialDiv'><img src='Fruit/mixed-berries2.png'><br><font class='baseline'><strong>Berry Bla$t</strong><p><strong><font class='posOutcome'>You WON</font><p>You bet: 1</strong></font> &nbsp; &nbsp; &nbsp; &nbsp; &nbsp; &nbsp;<font class='posOutcome'>you receive: <strong>2</strong></font></div>","null","2","Berry Bla$t","Fruit/mixed-berries2.png","Won","0.65,0.2","13","0.65","19","4","",""
"html-keyboard-response","22","164938","0.0-11.0-1.4","64077ddd11208afe2bec171a","bdp_rwlrn","Wed Mar 15 2023 23:37:43 GMT-0400 (Eastern Daylight Time)","515264","Trustworthy,Untrustworthy","","887","","","","decision","","<div class='trialDiv'><img src='Fruit/bananas.png'><br><font class='baseline'><strong>Banana Bonanza</strong><p>Choose number of points to bet.</font><div class='respPicDiv'><img src='img/responseButtonOffersNo0L.png' class='respPic'></div></div>","4","2","Banana Bonanza","Fruit/bananas.png","Lost","0.2,0.8","11","0.2","24","5","",""
"html-keyboard-response","23","165203","0.0-11.0-2.4","64077ddd11208afe2bec171a","bdp_rwlrn","Wed Mar 15 2023 23:37:43 GMT-0400 (Eastern Daylight Time)","515264","Trustworthy,Untrustworthy","","null","","","","decisionFB","","<div class='trialDiv'><img src='Fruit/bananas.png'><br><font class='baseline'><strong>Banana Bonanza</strong><p>Choose number of points to bet.</font><div class='respPicDiv'><img src='img/responseButtonOffersNo0L4.png' class='respPic'></div></div>","null","2","Banana Bonanza","Fruit/bananas.png","Lost","0.2,0.8","11","0.2","20","5","",""
"html-keyboard-response","24","166213","0.0-11.0-3.4","64077ddd11208afe2bec171a","bdp_rwlrn","Wed Mar 15 2023 23:37:43 GMT-0400 (Eastern Daylight Time)","515264","Trustworthy,Untrustworthy","","null","","","","feedback","","<div class='respPicDiv'><img src='img/responseButtonOffersNo0_wht.png' class='respPic'></div><div class='trialDiv'><img src='Fruit/bananas.png'><br><font class='baseline'><strong>Banana Bonanza</strong><p><strong><font class='negOutcome'>You LOST</font><p>You bet: 4</strong></font> &nbsp; &nbsp; &nbsp; &nbsp; &nbsp; &nbsp;<font class='negOutcome'>You receive: <strong>0</strong></font></div>","null","2","Banana Bonanza","Fruit/bananas.png","Lost","0.2,0.8","11","0.2","20","5","",""
"html-keyboard-response","25","167753","0.0-11.0-1.5","64077ddd11208afe2bec171a","bdp_rwlrn","Wed Mar 15 2023 23:37:43 GMT-0400 (Eastern Daylight Time)","515264","Trustworthy,Untrustworthy","","1539","","","","decision","","<div class='trialDiv'><img src='Fruit/Kiwi.png'><br><font class='baseline'><strong>Kiwi Kash</strong><p>Choose number of points to bet.</font><div class='respPicDiv'><img src='img/responseButtonOffersNo0L.png' class='respPic'></div></div>","3","2","Kiwi Kash","Fruit/Kiwi.png","Won","0.2,0.65","12","0.2","25","6","",""
"html-keyboard-response","26","168013","0.0-11.0-2.5","64077ddd11208afe2bec171a","bdp_rwlrn","Wed Mar 15 2023 23:37:43 GMT-0400 (Eastern Daylight Time)","515264","Trustworthy,Untrustworthy","","null","","","","decisionFB","","<div class='trialDiv'><img src='Fruit/Kiwi.png'><br><font class='baseline'><strong>Kiwi Kash</strong><p>Choose number of points to bet.</font><div class='respPicDiv'><img src='img/responseButtonOffersNo0L3.png' class='respPic'></div></div>","null","2","Kiwi Kash","Fruit/Kiwi.png","Won","0.2,0.65","12","0.2","22","6","",""
"html-keyboard-response","27","169021","0.0-11.0-3.5","64077ddd11208afe2bec171a","bdp_rwlrn","Wed Mar 15 2023 23:37:43 GMT-0400 (Eastern Daylight Time)","515264","Trustworthy,Untrustworthy","","null","","","","feedback","","<div class='respPicDiv'><img src='img/responseButtonOffersNo0_wht.png' class='respPic'></div><div class='trialDiv'><img src='Fruit/Kiwi.png'><br><font class='baseline'><strong>Kiwi Kash</strong><p><strong><font class='posOutcome'>You WON</font><p>You bet: 3</strong></font> &nbsp; &nbsp; &nbsp; &nbsp; &nbsp; &nbsp;<font class='posOutcome'>you receive: <strong>6</strong></font></div>","null","2","Kiwi Kash","Fruit/Kiwi.png","Won","0.2,0.65","12","0.2","28","6","",""
"html-keyboard-response","28","170922","0.0-11.0-1.6","64077ddd11208afe2bec171a","bdp_rwlrn","Wed Mar 15 2023 23:37:43 GMT-0400 (Eastern Daylight Time)","515264","Trustworthy,Untrustworthy","","1900","","","","decision","","<div class='trialDiv'><img src='Fruit/bananas.png'><br><font class='baseline'><strong>Banana Bonanza</strong><p>Choose number of points to bet.</font><div class='respPicDiv'><img src='img/responseButtonOffersNo0L.png' class='respPic'></div></div>","3","3","Banana Bonanza","Fruit/bananas.png","Lost","0.2,0.8","11","0.2","33","7","",""
"html-keyboard-response","29","171180","0.0-11.0-2.6","64077ddd11208afe2bec171a","bdp_rwlrn","Wed Mar 15 2023 23:37:43 GMT-0400 (Eastern Daylight Time)","515264","Trustworthy,Untrustworthy","","null","","","","decisionFB","","<div class='trialDiv'><img src='Fruit/bananas.png'><br><font class='baseline'><strong>Banana Bonanza</strong><p>Choose number of points to bet.</font><div class='respPicDiv'><img src='img/responseButtonOffersNo0L3.png' class='respPic'></div></div>","null","3","Banana Bonanza","Fruit/bananas.png","Lost","0.2,0.8","11","0.2","30","7","",""
"html-keyboard-response","30","172195","0.0-11.0-3.6","64077ddd11208afe2bec171a","bdp_rwlrn","Wed Mar 15 2023 23:37:43 GMT-0400 (Eastern Daylight Time)","515264","Trustworthy,Untrustworthy","","null","","","","feedback","","<div class='respPicDiv'><img src='img/responseButtonOffersNo0_wht.png' class='respPic'></div><div class='trialDiv'><img src='Fruit/bananas.png'><br><font class='baseline'><strong>Banana Bonanza</strong><p><strong><font class='negOutcome'>You LOST</font><p>You bet: 3</strong></font> &nbsp; &nbsp; &nbsp; &nbsp; &nbsp; &nbsp;<font class='negOutcome'>You receive: <strong>0</strong></font></div>","null","3","Banana Bonanza","Fruit/bananas.png","Lost","0.2,0.8","11","0.2","30","7","",""
"html-keyboard-response","31","173449","0.0-11.0-1.7","64077ddd11208afe2bec171a","bdp_rwlrn","Wed Mar 15 2023 23:37:43 GMT-0400 (Eastern Daylight Time)","515264","Trustworthy,Untrustworthy","","1254","","","","decision","","<div class='trialDiv'><img src='Fruit/Kiwi.png'><br><font class='baseline'><strong>Kiwi Kash</strong><p>Choose number of points to bet.</font><div class='respPicDiv'><img src='img/responseButtonOffersNo0L.png' class='respPic'></div></div>","4","3","Kiwi Kash","Fruit/Kiwi.png","Lost","0.2,0.65","12","0.2","35","8","",""
"html-keyboard-response","32","173710","0.0-11.0-2.7","64077ddd11208afe2bec171a","bdp_rwlrn","Wed Mar 15 2023 23:37:43 GMT-0400 (Eastern Daylight Time)","515264","Trustworthy,Untrustworthy","","null","","","","decisionFB","","<div class='trialDiv'><img src='Fruit/Kiwi.png'><br><font class='baseline'><strong>Kiwi Kash</strong><p>Choose number of points to bet.</font><div class='respPicDiv'><img src='img/responseButtonOffersNo0L4.png' class='respPic'></div></div>","null","3","Kiwi Kash","Fruit/Kiwi.png","Lost","0.2,0.65","12","0.2","31","8","",""
"html-keyboard-response","33","174716","0.0-11.0-3.7","64077ddd11208afe2bec171a","bdp_rwlrn","Wed Mar 15 2023 23:37:43 GMT-0400 (Eastern Daylight Time)","515264","Trustworthy,Untrustworthy","","null","","","","feedback","","<div class='respPicDiv'><img src='img/responseButtonOffersNo0_wht.png' class='respPic'></div><div class='trialDiv'><img src='Fruit/Kiwi.png'><br><font class='baseline'><strong>Kiwi Kash</strong><p><strong><font class='negOutcome'>You LOST</font><p>You bet: 4</strong></font> &nbsp; &nbsp; &nbsp; &nbsp; &nbsp; &nbsp;<font class='negOutcome'>You receive: <strong>0</strong></font></div>","null","3","Kiwi Kash","Fruit/Kiwi.png","Lost","0.2,0.65","12","0.2","31","8","",""
"html-keyboard-response","34","177865","0.0-11.0-1.8","64077ddd11208afe2bec171a","bdp_rwlrn","Wed Mar 15 2023 23:37:43 GMT-0400 (Eastern Daylight Time)","515264","Trustworthy,Untrustworthy","","3148","","","","decision","","<div class='trialDiv'><img src='Fruit/mixed-berries2.png'><br><font class='baseline'><strong>Berry Bla$t</strong><p>Choose number of points to bet.</font><div class='respPicDiv'><img src='img/responseButtonOffersNo0L.png' class='respPic'></div></div>","4","3","Berry Bla$t","Fruit/mixed-berries2.png","Won","0.65,0.2","13","0.65","36","9","",""
"html-keyboard-response","35","178132","0.0-11.0-2.8","64077ddd11208afe2bec171a","bdp_rwlrn","Wed Mar 15 2023 23:37:43 GMT-0400 (Eastern Daylight Time)","515264","Trustworthy,Untrustworthy","","null","","","","decisionFB","","<div class='trialDiv'><img src='Fruit/mixed-berries2.png'><br><font class='baseline'><strong>Berry Bla$t</strong><p>Choose number of points to bet.</font><div class='respPicDiv'><img src='img/responseButtonOffersNo0L4.png' class='respPic'></div></div>","null","3","Berry Bla$t","Fruit/mixed-berries2.png","Won","0.65,0.2","13","0.65","32","9","",""
"html-keyboard-response","36","179147","0.0-11.0-3.8","64077ddd11208afe2bec171a","bdp_rwlrn","Wed Mar 15 2023 23:37:43 GMT-0400 (Eastern Daylight Time)","515264","Trustworthy,Untrustworthy","","null","","","","feedback","","<div class='respPicDiv'><img src='img/responseButtonOffersNo0_wht.png' class='respPic'></div><div class='trialDiv'><img src='Fruit/mixed-berries2.png'><br><font class='baseline'><strong>Berry Bla$t</strong><p><strong><font class='posOutcome'>You WON</font><p>You bet: 4</strong></font> &nbsp; &nbsp; &nbsp; &nbsp; &nbsp; &nbsp;<font class='posOutcome'>you receive: <strong>8</strong></font></div>","null","3","Berry Bla$t","Fruit/mixed-berries2.png","Won","0.65,0.2","13","0.65","40","9","",""
"html-keyboard-response","37","180281","0.0-11.0-1.9","64077ddd11208afe2bec171a","bdp_rwlrn","Wed Mar 15 2023 23:37:43 GMT-0400 (Eastern Daylight Time)","515264","Trustworthy,Untrustworthy","","1133","","","","decision","","<div class='trialDiv'><img src='Fruit/Kiwi.png'><br><font class='baseline'><strong>Kiwi Kash</strong><p>Choose number of points to bet.</font><div class='respPicDiv'><img src='img/responseButtonOffersNo0L.png' class='respPic'></div></div>","3","4","Kiwi Kash","Fruit/Kiwi.png","Lost","0.2,0.65","12","0.2","45","10","",""
"html-keyboard-response","38","180543","0.0-11.0-2.9","64077ddd11208afe2bec171a","bdp_rwlrn","Wed Mar 15 2023 23:37:43 GMT-0400 (Eastern Daylight Time)","515264","Trustworthy,Untrustworthy","","null","","","","decisionFB","","<div class='trialDiv'><img src='Fruit/Kiwi.png'><br><font class='baseline'><strong>Kiwi Kash</strong><p>Choose number of points to bet.</font><div class='respPicDiv'><img src='img/responseButtonOffersNo0L3.png' class='respPic'></div></div>","null","4","Kiwi Kash","Fruit/Kiwi.png","Lost","0.2,0.65","12","0.2","42","10","",""
"html-keyboard-response","39","181547","0.0-11.0-3.9","64077ddd11208afe2bec171a","bdp_rwlrn","Wed Mar 15 2023 23:37:43 GMT-0400 (Eastern Daylight Time)","515264","Trustworthy,Untrustworthy","","null","","","","feedback","","<div class='respPicDiv'><img src='img/responseButtonOffersNo0_wht.png' class='respPic'></div><div class='trialDiv'><img src='Fruit/Kiwi.png'><br><font class='baseline'><strong>Kiwi Kash</strong><p><strong><font class='negOutcome'>You LOST</font><p>You bet: 3</strong></font> &nbsp; &nbsp; &nbsp; &nbsp; &nbsp; &nbsp;<font class='negOutcome'>You receive: <strong>0</strong></font></div>","null","4","Kiwi Kash","Fruit/Kiwi.png","Lost","0.2,0.65","12","0.2","42","10","",""
"html-keyboard-response","40","184074","0.0-11.0-1.10","64077ddd11208afe2bec171a","bdp_rwlrn","Wed Mar 15 2023 23:37:43 GMT-0400 (Eastern Daylight Time)","515264","Trustworthy,Untrustworthy","","2527","","","","decision","","<div class='trialDiv'><img src='Fruit/bananas.png'><br><font class='baseline'><strong>Banana Bonanza</strong><p>Choose number of points to bet.</font><div class='respPicDiv'><img src='img/responseButtonOffersNo0L.png' class='respPic'></div></div>","4","4","Banana Bonanza","Fruit/bananas.png","Lost","0.2,0.8","11","0.2","47","11","",""
"html-keyboard-response","41","184332","0.0-11.0-2.10","64077ddd11208afe2bec171a","bdp_rwlrn","Wed Mar 15 2023 23:37:43 GMT-0400 (Eastern Daylight Time)","515264","Trustworthy,Untrustworthy","","null","","","","decisionFB","","<div class='trialDiv'><img src='Fruit/bananas.png'><br><font class='baseline'><strong>Banana Bonanza</strong><p>Choose number of points to bet.</font><div class='respPicDiv'><img src='img/responseButtonOffersNo0L4.png' class='respPic'></div></div>","null","4","Banana Bonanza","Fruit/bananas.png","Lost","0.2,0.8","11","0.2","43","11","",""
"html-keyboard-response","42","185339","0.0-11.0-3.10","64077ddd11208afe2bec171a","bdp_rwlrn","Wed Mar 15 2023 23:37:43 GMT-0400 (Eastern Daylight Time)","515264","Trustworthy,Untrustworthy","","null","","","","feedback","","<div class='respPicDiv'><img src='img/responseButtonOffersNo0_wht.png' class='respPic'></div><div class='trialDiv'><img src='Fruit/bananas.png'><br><font class='baseline'><strong>Banana Bonanza</strong><p><strong><font class='negOutcome'>You LOST</font><p>You bet: 4</strong></font> &nbsp; &nbsp; &nbsp; &nbsp; &nbsp; &nbsp;<font class='negOutcome'>You receive: <strong>0</strong></font></div>","null","4","Banana Bonanza","Fruit/bananas.png","Lost","0.2,0.8","11","0.2","43","11","",""
"html-keyboard-response","43","186665","0.0-11.0-1.11","64077ddd11208afe2bec171a","bdp_rwlrn","Wed Mar 15 2023 23:37:43 GMT-0400 (Eastern Daylight Time)","515264","Trustworthy,Untrustworthy","","1325","","","","decision","","<div class='trialDiv'><img src='Fruit/mixed-berries2.png'><br><font class='baseline'><strong>Berry Bla$t</strong><p>Choose number of points to bet.</font><div class='respPicDiv'><img src='img/responseButtonOffersNo0L.png' class='respPic'></div></div>","5","4","Berry Bla$t","Fruit/mixed-berries2.png","Won","0.65,0.2","13","0.65","48","12","",""
"html-keyboard-response","44","186923","0.0-11.0-2.11","64077ddd11208afe2bec171a","bdp_rwlrn","Wed Mar 15 2023 23:37:43 GMT-0400 (Eastern Daylight Time)","515264","Trustworthy,Untrustworthy","","null","","","","decisionFB","","<div class='trialDiv'><img src='Fruit/mixed-berries2.png'><br><font class='baseline'><strong>Berry Bla$t</strong><p>Choose number of points to bet.</font><div class='respPicDiv'><img src='img/responseButtonOffersNo0L5.png' class='respPic'></div></div>","null","4","Berry Bla$t","Fruit/mixed-berries2.png","Won","0.65,0.2","13","0.65","43","12","",""
"html-keyboard-response","45","187936","0.0-11.0-3.11","64077ddd11208afe2bec171a","bdp_rwlrn","Wed Mar 15 2023 23:37:43 GMT-0400 (Eastern Daylight Time)","515264","Trustworthy,Untrustworthy","","null","","","","feedback","","<div class='respPicDiv'><img src='img/responseButtonOffersNo0_wht.png' class='respPic'></div><div class='trialDiv'><img src='Fruit/mixed-berries2.png'><br><font class='baseline'><strong>Berry Bla$t</strong><p><strong><font class='posOutcome'>You WON</font><p>You bet: 5</strong></font> &nbsp; &nbsp; &nbsp; &nbsp; &nbsp; &nbsp;<font class='posOutcome'>you receive: <strong>10</strong></font></div>","null","4","Berry Bla$t","Fruit/mixed-berries2.png","Won","0.65,0.2","13","0.65","53","12","",""
"html-keyboard-response","46","191513","0.0-11.0-1.12","64077ddd11208afe2bec171a","bdp_rwlrn","Wed Mar 15 2023 23:37:43 GMT-0400 (Eastern Daylight Time)","515264","Trustworthy,Untrustworthy","","3576","","","","decision","","<div class='trialDiv'><img src='Fruit/bananas.png'><br><font class='baseline'><strong>Banana Bonanza</strong><p>Choose number of points to bet.</font><div class='respPicDiv'><img src='img/responseButtonOffersNo0L.png' class='respPic'></div></div>","5","5","Banana Bonanza","Fruit/bananas.png","Lost","0.2,0.8","11","0.2","58","13","",""
"html-keyboard-response","47","191772","0.0-11.0-2.12","64077ddd11208afe2bec171a","bdp_rwlrn","Wed Mar 15 2023 23:37:43 GMT-0400 (Eastern Daylight Time)","515264","Trustworthy,Untrustworthy","","null","","","","decisionFB","","<div class='trialDiv'><img src='Fruit/bananas.png'><br><font class='baseline'><strong>Banana Bonanza</strong><p>Choose number of points to bet.</font><div class='respPicDiv'><img src='img/responseButtonOffersNo0L5.png' class='respPic'></div></div>","null","5","Banana Bonanza","Fruit/bananas.png","Lost","0.2,0.8","11","0.2","53","13","",""
"html-keyboard-response","48","192779","0.0-11.0-3.12","64077ddd11208afe2bec171a","bdp_rwlrn","Wed Mar 15 2023 23:37:43 GMT-0400 (Eastern Daylight Time)","515264","Trustworthy,Untrustworthy","","null","","","","feedback","","<div class='respPicDiv'><img src='img/responseButtonOffersNo0_wht.png' class='respPic'></div><div class='trialDiv'><img src='Fruit/bananas.png'><br><font class='baseline'><strong>Banana Bonanza</strong><p><strong><font class='negOutcome'>You LOST</font><p>You bet: 5</strong></font> &nbsp; &nbsp; &nbsp; &nbsp; &nbsp; &nbsp;<font class='negOutcome'>You receive: <strong>0</strong></font></div>","null","5","Banana Bonanza","Fruit/bananas.png","Lost","0.2,0.8","11","0.2","53","13","",""
"html-keyboard-response","49","196106","0.0-11.0-1.13","64077ddd11208afe2bec171a","bdp_rwlrn","Wed Mar 15 2023 23:37:43 GMT-0400 (Eastern Daylight Time)","515264","Trustworthy,Untrustworthy","","3327","","","","decision","","<div class='trialDiv'><img src='Fruit/mixed-berries2.png'><br><font class='baseline'><strong>Berry Bla$t</strong><p>Choose number of points to bet.</font><div class='respPicDiv'><img src='img/responseButtonOffersNo0L.png' class='respPic'></div></div>","4","5","Berry Bla$t","Fruit/mixed-berries2.png","Won","0.65,0.2","13","0.65","58","14","",""
"html-keyboard-response","50","196361","0.0-11.0-2.13","64077ddd11208afe2bec171a","bdp_rwlrn","Wed Mar 15 2023 23:37:43 GMT-0400 (Eastern Daylight Time)","515264","Trustworthy,Untrustworthy","","null","","","","decisionFB","","<div class='trialDiv'><img src='Fruit/mixed-berries2.png'><br><font class='baseline'><strong>Berry Bla$t</strong><p>Choose number of points to bet.</font><div class='respPicDiv'><img src='img/responseButtonOffersNo0L4.png' class='respPic'></div></div>","null","5","Berry Bla$t","Fruit/mixed-berries2.png","Won","0.65,0.2","13","0.65","54","14","",""
"html-keyboard-response","51","197375","0.0-11.0-3.13","64077ddd11208afe2bec171a","bdp_rwlrn","Wed Mar 15 2023 23:37:43 GMT-0400 (Eastern Daylight Time)","515264","Trustworthy,Untrustworthy","","null","","","","feedback","","<div class='respPicDiv'><img src='img/responseButtonOffersNo0_wht.png' class='respPic'></div><div class='trialDiv'><img src='Fruit/mixed-berries2.png'><br><font class='baseline'><strong>Berry Bla$t</strong><p><strong><font class='posOutcome'>You WON</font><p>You bet: 4</strong></font> &nbsp; &nbsp; &nbsp; &nbsp; &nbsp; &nbsp;<font class='posOutcome'>you receive: <strong>8</strong></font></div>","null","5","Berry Bla$t","Fruit/mixed-berries2.png","Won","0.65,0.2","13","0.65","62","14","",""
"html-keyboard-response","52","199353","0.0-11.0-1.14","64077ddd11208afe2bec171a","bdp_rwlrn","Wed Mar 15 2023 23:37:43 GMT-0400 (Eastern Daylight Time)","515264","Trustworthy,Untrustworthy","","1977","","","","decision","","<div class='trialDiv'><img src='Fruit/Kiwi.png'><br><font class='baseline'><strong>Kiwi Kash</strong><p>Choose number of points to bet.</font><div class='respPicDiv'><img src='img/responseButtonOffersNo0L.png' class='respPic'></div></div>","1","5","Kiwi Kash","Fruit/Kiwi.png","Lost","0.2,0.65","12","0.2","67","15","",""
"html-keyboard-response","53","199607","0.0-11.0-2.14","64077ddd11208afe2bec171a","bdp_rwlrn","Wed Mar 15 2023 23:37:43 GMT-0400 (Eastern Daylight Time)","515264","Trustworthy,Untrustworthy","","null","","","","decisionFB","","<div class='trialDiv'><img src='Fruit/Kiwi.png'><br><font class='baseline'><strong>Kiwi Kash</strong><p>Choose number of points to bet.</font><div class='respPicDiv'><img src='img/responseButtonOffersNo0L1.png' class='respPic'></div></div>","null","5","Kiwi Kash","Fruit/Kiwi.png","Lost","0.2,0.65","12","0.2","66","15","",""
"html-keyboard-response","54","200610","0.0-11.0-3.14","64077ddd11208afe2bec171a","bdp_rwlrn","Wed Mar 15 2023 23:37:43 GMT-0400 (Eastern Daylight Time)","515264","Trustworthy,Untrustworthy","","null","","","","feedback","","<div class='respPicDiv'><img src='img/responseButtonOffersNo0_wht.png' class='respPic'></div><div class='trialDiv'><img src='Fruit/Kiwi.png'><br><font class='baseline'><strong>Kiwi Kash</strong><p><strong><font class='negOutcome'>You LOST</font><p>You bet: 1</strong></font> &nbsp; &nbsp; &nbsp; &nbsp; &nbsp; &nbsp;<font class='negOutcome'>You receive: <strong>0</strong></font></div>","null","5","Kiwi Kash","Fruit/Kiwi.png","Lost","0.2,0.65","12","0.2","66","15","",""
"html-keyboard-response","55","202073","0.0-11.0-1.15","64077ddd11208afe2bec171a","bdp_rwlrn","Wed Mar 15 2023 23:37:43 GMT-0400 (Eastern Daylight Time)","515264","Trustworthy,Untrustworthy","","1461","","","","decision","","<div class='trialDiv'><img src='Fruit/bananas.png'><br><font class='baseline'><strong>Banana Bonanza</strong><p>Choose number of points to bet.</font><div class='respPicDiv'><img src='img/responseButtonOffersNo0L.png' class='respPic'></div></div>","4","6","Banana Bonanza","Fruit/bananas.png","Lost","0.2,0.8","11","0.2","71","16","",""
"html-keyboard-response","56","202334","0.0-11.0-2.15","64077ddd11208afe2bec171a","bdp_rwlrn","Wed Mar 15 2023 23:37:43 GMT-0400 (Eastern Daylight Time)","515264","Trustworthy,Untrustworthy","","null","","","","decisionFB","","<div class='trialDiv'><img src='Fruit/bananas.png'><br><font class='baseline'><strong>Banana Bonanza</strong><p>Choose number of points to bet.</font><div class='respPicDiv'><img src='img/responseButtonOffersNo0L4.png' class='respPic'></div></div>","null","6","Banana Bonanza","Fruit/bananas.png","Lost","0.2,0.8","11","0.2","67","16","",""
"html-keyboard-response","57","203337","0.0-11.0-3.15","64077ddd11208afe2bec171a","bdp_rwlrn","Wed Mar 15 2023 23:37:43 GMT-0400 (Eastern Daylight Time)","515264","Trustworthy,Untrustworthy","","null","","","","feedback","","<div class='respPicDiv'><img src='img/responseButtonOffersNo0_wht.png' class='respPic'></div><div class='trialDiv'><img src='Fruit/bananas.png'><br><font class='baseline'><strong>Banana Bonanza</strong><p><strong><font class='negOutcome'>You LOST</font><p>You bet: 4</strong></font> &nbsp; &nbsp; &nbsp; &nbsp; &nbsp; &nbsp;<font class='negOutcome'>You receive: <strong>0</strong></font></div>","null","6","Banana Bonanza","Fruit/bananas.png","Lost","0.2,0.8","11","0.2","67","16","",""
"html-keyboard-response","58","204808","0.0-11.0-1.16","64077ddd11208afe2bec171a","bdp_rwlrn","Wed Mar 15 2023 23:37:43 GMT-0400 (Eastern Daylight Time)","515264","Trustworthy,Untrustworthy","","1470","","","","decision","","<div class='trialDiv'><img src='Fruit/Kiwi.png'><br><font class='baseline'><strong>Kiwi Kash</strong><p>Choose number of points to bet.</font><div class='respPicDiv'><img src='img/responseButtonOffersNo0L.png' class='respPic'></div></div>","5","6","Kiwi Kash","Fruit/Kiwi.png","Lost","0.2,0.65","12","0.2","72","17","",""
"html-keyboard-response","59","205063","0.0-11.0-2.16","64077ddd11208afe2bec171a","bdp_rwlrn","Wed Mar 15 2023 23:37:43 GMT-0400 (Eastern Daylight Time)","515264","Trustworthy,Untrustworthy","","null","","","","decisionFB","","<div class='trialDiv'><img src='Fruit/Kiwi.png'><br><font class='baseline'><strong>Kiwi Kash</strong><p>Choose number of points to bet.</font><div class='respPicDiv'><img src='img/responseButtonOffersNo0L5.png' class='respPic'></div></div>","null","6","Kiwi Kash","Fruit/Kiwi.png","Lost","0.2,0.65","12","0.2","67","17","",""
"html-keyboard-response","60","206067","0.0-11.0-3.16","64077ddd11208afe2bec171a","bdp_rwlrn","Wed Mar 15 2023 23:37:43 GMT-0400 (Eastern Daylight Time)","515264","Trustworthy,Untrustworthy","","null","","","","feedback","","<div class='respPicDiv'><img src='img/responseButtonOffersNo0_wht.png' class='respPic'></div><div class='trialDiv'><img src='Fruit/Kiwi.png'><br><font class='baseline'><strong>Kiwi Kash</strong><p><strong><font class='negOutcome'>You LOST</font><p>You bet: 5</strong></font> &nbsp; &nbsp; &nbsp; &nbsp; &nbsp; &nbsp;<font class='negOutcome'>You receive: <strong>0</strong></font></div>","null","6","Kiwi Kash","Fruit/Kiwi.png","Lost","0.2,0.65","12","0.2","67","17","",""
"html-keyboard-response","61","208330","0.0-11.0-1.17","64077ddd11208afe2bec171a","bdp_rwlrn","Wed Mar 15 2023 23:37:43 GMT-0400 (Eastern Daylight Time)","515264","Trustworthy,Untrustworthy","","2261","","","","decision","","<div class='trialDiv'><img src='Fruit/mixed-berries2.png'><br><font class='baseline'><strong>Berry Bla$t</strong><p>Choose number of points to bet.</font><div class='respPicDiv'><img src='img/responseButtonOffersNo0L.png' class='respPic'></div></div>","3","6","Berry Bla$t","Fruit/mixed-berries2.png","Won","0.65,0.2","13","0.65","72","18","",""
"html-keyboard-response","62","208594","0.0-11.0-2.17","64077ddd11208afe2bec171a","bdp_rwlrn","Wed Mar 15 2023 23:37:43 GMT-0400 (Eastern Daylight Time)","515264","Trustworthy,Untrustworthy","","null","","","","decisionFB","","<div class='trialDiv'><img src='Fruit/mixed-berries2.png'><br><font class='baseline'><strong>Berry Bla$t</strong><p>Choose number of points to bet.</font><div class='respPicDiv'><img src='img/responseButtonOffersNo0L3.png' class='respPic'></div></div>","null","6","Berry Bla$t","Fruit/mixed-berries2.png","Won","0.65,0.2","13","0.65","69","18","",""
"html-keyboard-response","63","209604","0.0-11.0-3.17","64077ddd11208afe2bec171a","bdp_rwlrn","Wed Mar 15 2023 23:37:43 GMT-0400 (Eastern Daylight Time)","515264","Trustworthy,Untrustworthy","","null","","","","feedback","","<div class='respPicDiv'><img src='img/responseButtonOffersNo0_wht.png' class='respPic'></div><div class='trialDiv'><img src='Fruit/mixed-berries2.png'><br><font class='baseline'><strong>Berry Bla$t</strong><p><strong><font class='posOutcome'>You WON</font><p>You bet: 3</strong></font> &nbsp; &nbsp; &nbsp; &nbsp; &nbsp; &nbsp;<font class='posOutcome'>you receive: <strong>6</strong></font></div>","null","6","Berry Bla$t","Fruit/mixed-berries2.png","Won","0.65,0.2","13","0.65","75","18","",""
"html-keyboard-response","64","210809","0.0-11.0-1.18","64077ddd11208afe2bec171a","bdp_rwlrn","Wed Mar 15 2023 23:37:43 GMT-0400 (Eastern Daylight Time)","515264","Trustworthy,Untrustworthy","","1204","","","","decision","","<div class='trialDiv'><img src='Fruit/Kiwi.png'><br><font class='baseline'><strong>Kiwi Kash</strong><p>Choose number of points to bet.</font><div class='respPicDiv'><img src='img/responseButtonOffersNo0L.png' class='respPic'></div></div>","2","7","Kiwi Kash","Fruit/Kiwi.png","Lost","0.2,0.65","12","0.2","80","19","",""
"html-keyboard-response","65","211065","0.0-11.0-2.18","64077ddd11208afe2bec171a","bdp_rwlrn","Wed Mar 15 2023 23:37:43 GMT-0400 (Eastern Daylight Time)","515264","Trustworthy,Untrustworthy","","null","","","","decisionFB","","<div class='trialDiv'><img src='Fruit/Kiwi.png'><br><font class='baseline'><strong>Kiwi Kash</strong><p>Choose number of points to bet.</font><div class='respPicDiv'><img src='img/responseButtonOffersNo0L2.png' class='respPic'></div></div>","null","7","Kiwi Kash","Fruit/Kiwi.png","Lost","0.2,0.65","12","0.2","78","19","",""
"html-keyboard-response","66","212068","0.0-11.0-3.18","64077ddd11208afe2bec171a","bdp_rwlrn","Wed Mar 15 2023 23:37:43 GMT-0400 (Eastern Daylight Time)","515264","Trustworthy,Untrustworthy","","null","","","","feedback","","<div class='respPicDiv'><img src='img/responseButtonOffersNo0_wht.png' class='respPic'></div><div class='trialDiv'><img src='Fruit/Kiwi.png'><br><font class='baseline'><strong>Kiwi Kash</strong><p><strong><font class='negOutcome'>You LOST</font><p>You bet: 2</strong></font> &nbsp; &nbsp; &nbsp; &nbsp; &nbsp; &nbsp;<font class='negOutcome'>You receive: <strong>0</strong></font></div>","null","7","Kiwi Kash","Fruit/Kiwi.png","Lost","0.2,0.65","12","0.2","78","19","",""
"html-keyboard-response","67","212905","0.0-11.0-1.19","64077ddd11208afe2bec171a","bdp_rwlrn","Wed Mar 15 2023 23:37:43 GMT-0400 (Eastern Daylight Time)","515264","Trustworthy,Untrustworthy","","837","","","","decision","","<div class='trialDiv'><img src='Fruit/mixed-berries2.png'><br><font class='baseline'><strong>Berry Bla$t</strong><p>Choose number of points to bet.</font><div class='respPicDiv'><img src='img/responseButtonOffersNo0L.png' class='respPic'></div></div>","4","7","Berry Bla$t","Fruit/mixed-berries2.png","Won","0.65,0.2","13","0.65","83","20","",""
"html-keyboard-response","68","213170","0.0-11.0-2.19","64077ddd11208afe2bec171a","bdp_rwlrn","Wed Mar 15 2023 23:37:43 GMT-0400 (Eastern Daylight Time)","515264","Trustworthy,Untrustworthy","","null","","","","decisionFB","","<div class='trialDiv'><img src='Fruit/mixed-berries2.png'><br><font class='baseline'><strong>Berry Bla$t</strong><p>Choose number of points to bet.</font><div class='respPicDiv'><img src='img/responseButtonOffersNo0L4.png' class='respPic'></div></div>","null","7","Berry Bla$t","Fruit/mixed-berries2.png","Won","0.65,0.2","13","0.65","79","20","",""
"html-keyboard-response","69","214184","0.0-11.0-3.19","64077ddd11208afe2bec171a","bdp_rwlrn","Wed Mar 15 2023 23:37:43 GMT-0400 (Eastern Daylight Time)","515264","Trustworthy,Untrustworthy","","null","","","","feedback","","<div class='respPicDiv'><img src='img/responseButtonOffersNo0_wht.png' class='respPic'></div><div class='trialDiv'><img src='Fruit/mixed-berries2.png'><br><font class='baseline'><strong>Berry Bla$t</strong><p><strong><font class='posOutcome'>You WON</font><p>You bet: 4</strong></font> &nbsp; &nbsp; &nbsp; &nbsp; &nbsp; &nbsp;<font class='posOutcome'>you receive: <strong>8</strong></font></div>","null","7","Berry Bla$t","Fruit/mixed-berries2.png","Won","0.65,0.2","13","0.65","87","20","",""
"html-keyboard-response","70","216105","0.0-11.0-1.20","64077ddd11208afe2bec171a","bdp_rwlrn","Wed Mar 15 2023 23:37:43 GMT-0400 (Eastern Daylight Time)","515264","Trustworthy,Untrustworthy","","1919","","","","decision","","<div class='trialDiv'><img src='Fruit/bananas.png'><br><font class='baseline'><strong>Banana Bonanza</strong><p>Choose number of points to bet.</font><div class='respPicDiv'><img src='img/responseButtonOffersNo0L.png' class='respPic'></div></div>","1","7","Banana Bonanza","Fruit/bananas.png","Lost","0.2,0.8","11","0.2","92","21","",""
"html-keyboard-response","71","216364","0.0-11.0-2.20","64077ddd11208afe2bec171a","bdp_rwlrn","Wed Mar 15 2023 23:37:43 GMT-0400 (Eastern Daylight Time)","515264","Trustworthy,Untrustworthy","","null","","","","decisionFB","","<div class='trialDiv'><img src='Fruit/bananas.png'><br><font class='baseline'><strong>Banana Bonanza</strong><p>Choose number of points to bet.</font><div class='respPicDiv'><img src='img/responseButtonOffersNo0L1.png' class='respPic'></div></div>","null","7","Banana Bonanza","Fruit/bananas.png","Lost","0.2,0.8","11","0.2","91","21","",""
"html-keyboard-response","72","217377","0.0-11.0-3.20","64077ddd11208afe2bec171a","bdp_rwlrn","Wed Mar 15 2023 23:37:43 GMT-0400 (Eastern Daylight Time)","515264","Trustworthy,Untrustworthy","","null","","","","feedback","","<div class='respPicDiv'><img src='img/responseButtonOffersNo0_wht.png' class='respPic'></div><div class='trialDiv'><img src='Fruit/bananas.png'><br><font class='baseline'><strong>Banana Bonanza</strong><p><strong><font class='negOutcome'>You LOST</font><p>You bet: 1</strong></font> &nbsp; &nbsp; &nbsp; &nbsp; &nbsp; &nbsp;<font class='negOutcome'>You receive: <strong>0</strong></font></div>","null","7","Banana Bonanza","Fruit/bananas.png","Lost","0.2,0.8","11","0.2","91","21","",""
"html-keyboard-response","73","218313","0.0-11.0-1.21","64077ddd11208afe2bec171a","bdp_rwlrn","Wed Mar 15 2023 23:37:43 GMT-0400 (Eastern Daylight Time)","515264","Trustworthy,Untrustworthy","","935","","","","decision","","<div class='trialDiv'><img src='Fruit/Kiwi.png'><br><font class='baseline'><strong>Kiwi Kash</strong><p>Choose number of points to bet.</font><div class='respPicDiv'><img src='img/responseButtonOffersNo0L.png' class='respPic'></div></div>","5","8","Kiwi Kash","Fruit/Kiwi.png","Lost","0.2,0.65","12","0.2","96","22","",""
"html-keyboard-response","74","218578","0.0-11.0-2.21","64077ddd11208afe2bec171a","bdp_rwlrn","Wed Mar 15 2023 23:37:43 GMT-0400 (Eastern Daylight Time)","515264","Trustworthy,Untrustworthy","","null","","","","decisionFB","","<div class='trialDiv'><img src='Fruit/Kiwi.png'><br><font class='baseline'><strong>Kiwi Kash</strong><p>Choose number of points to bet.</font><div class='respPicDiv'><img src='img/responseButtonOffersNo0L5.png' class='respPic'></div></div>","null","8","Kiwi Kash","Fruit/Kiwi.png","Lost","0.2,0.65","12","0.2","91","22","",""
"html-keyboard-response","75","219580","0.0-11.0-3.21","64077ddd11208afe2bec171a","bdp_rwlrn","Wed Mar 15 2023 23:37:43 GMT-0400 (Eastern Daylight Time)","515264","Trustworthy,Untrustworthy","","null","","","","feedback","","<div class='respPicDiv'><img src='img/responseButtonOffersNo0_wht.png' class='respPic'></div><div class='trialDiv'><img src='Fruit/Kiwi.png'><br><font class='baseline'><strong>Kiwi Kash</strong><p><strong><font class='negOutcome'>You LOST</font><p>You bet: 5</strong></font> &nbsp; &nbsp; &nbsp; &nbsp; &nbsp; &nbsp;<font class='negOutcome'>You receive: <strong>0</strong></font></div>","null","8","Kiwi Kash","Fruit/Kiwi.png","Lost","0.2,0.65","12","0.2","91","22","",""
"html-keyboard-response","76","220505","0.0-11.0-1.22","64077ddd11208afe2bec171a","bdp_rwlrn","Wed Mar 15 2023 23:37:43 GMT-0400 (Eastern Daylight Time)","515264","Trustworthy,Untrustworthy","","924","","","","decision","","<div class='trialDiv'><img src='Fruit/mixed-berries2.png'><br><font class='baseline'><strong>Berry Bla$t</strong><p>Choose number of points to bet.</font><div class='respPicDiv'><img src='img/responseButtonOffersNo0L.png' class='respPic'></div></div>","5","8","Berry Bla$t","Fruit/mixed-berries2.png","Won","0.65,0.2","13","0.65","96","23","",""
"html-keyboard-response","77","220771","0.0-11.0-2.22","64077ddd11208afe2bec171a","bdp_rwlrn","Wed Mar 15 2023 23:37:43 GMT-0400 (Eastern Daylight Time)","515264","Trustworthy,Untrustworthy","","null","","","","decisionFB","","<div class='trialDiv'><img src='Fruit/mixed-berries2.png'><br><font class='baseline'><strong>Berry Bla$t</strong><p>Choose number of points to bet.</font><div class='respPicDiv'><img src='img/responseButtonOffersNo0L5.png' class='respPic'></div></div>","null","8","Berry Bla$t","Fruit/mixed-berries2.png","Won","0.65,0.2","13","0.65","91","23","",""
"html-keyboard-response","78","221778","0.0-11.0-3.22","64077ddd11208afe2bec171a","bdp_rwlrn","Wed Mar 15 2023 23:37:43 GMT-0400 (Eastern Daylight Time)","515264","Trustworthy,Untrustworthy","","null","","","","feedback","","<div class='respPicDiv'><img src='img/responseButtonOffersNo0_wht.png' class='respPic'></div><div class='trialDiv'><img src='Fruit/mixed-berries2.png'><br><font class='baseline'><strong>Berry Bla$t</strong><p><strong><font class='posOutcome'>You WON</font><p>You bet: 5</strong></font> &nbsp; &nbsp; &nbsp; &nbsp; &nbsp; &nbsp;<font class='posOutcome'>you receive: <strong>10</strong></font></div>","null","8","Berry Bla$t","Fruit/mixed-berries2.png","Won","0.65,0.2","13","0.65","101","23","",""
"html-keyboard-response","79","222664","0.0-11.0-1.23","64077ddd11208afe2bec171a","bdp_rwlrn","Wed Mar 15 2023 23:37:43 GMT-0400 (Eastern Daylight Time)","515264","Trustworthy,Untrustworthy","","886","","","","decision","","<div class='trialDiv'><img src='Fruit/bananas.png'><br><font class='baseline'><strong>Banana Bonanza</strong><p>Choose number of points to bet.</font><div class='respPicDiv'><img src='img/responseButtonOffersNo0L.png' class='respPic'></div></div>","2","8","Banana Bonanza","Fruit/bananas.png","Lost","0.2,0.8","11","0.2","106","24","",""
"html-keyboard-response","80","222922","0.0-11.0-2.23","64077ddd11208afe2bec171a","bdp_rwlrn","Wed Mar 15 2023 23:37:43 GMT-0400 (Eastern Daylight Time)","515264","Trustworthy,Untrustworthy","","null","","","","decisionFB","","<div class='trialDiv'><img src='Fruit/bananas.png'><br><font class='baseline'><strong>Banana Bonanza</strong><p>Choose number of points to bet.</font><div class='respPicDiv'><img src='img/responseButtonOffersNo0L2.png' class='respPic'></div></div>","null","8","Banana Bonanza","Fruit/bananas.png","Lost","0.2,0.8","11","0.2","104","24","",""
"html-keyboard-response","81","223937","0.0-11.0-3.23","64077ddd11208afe2bec171a","bdp_rwlrn","Wed Mar 15 2023 23:37:43 GMT-0400 (Eastern Daylight Time)","515264","Trustworthy,Untrustworthy","","null","","","","feedback","","<div class='respPicDiv'><img src='img/responseButtonOffersNo0_wht.png' class='respPic'></div><div class='trialDiv'><img src='Fruit/bananas.png'><br><font class='baseline'><strong>Banana Bonanza</strong><p><strong><font class='negOutcome'>You LOST</font><p>You bet: 2</strong></font> &nbsp; &nbsp; &nbsp; &nbsp; &nbsp; &nbsp;<font class='negOutcome'>You receive: <strong>0</strong></font></div>","null","8","Banana Bonanza","Fruit/bananas.png","Lost","0.2,0.8","11","0.2","104","24","",""
"html-keyboard-response","82","225081","0.0-11.0-1.24","64077ddd11208afe2bec171a","bdp_rwlrn","Wed Mar 15 2023 23:37:43 GMT-0400 (Eastern Daylight Time)","515264","Trustworthy,Untrustworthy","","1142","","","","decision","","<div class='trialDiv'><img src='Fruit/mixed-berries2.png'><br><font class='baseline'><strong>Berry Bla$t</strong><p>Choose number of points to bet.</font><div class='respPicDiv'><img src='img/responseButtonOffersNo0L.png' class='respPic'></div></div>","5","9","Berry Bla$t","Fruit/mixed-berries2.png","Won","0.65,0.2","13","0.65","109","25","",""
"html-keyboard-response","83","225347","0.0-11.0-2.24","64077ddd11208afe2bec171a","bdp_rwlrn","Wed Mar 15 2023 23:37:43 GMT-0400 (Eastern Daylight Time)","515264","Trustworthy,Untrustworthy","","null","","","","decisionFB","","<div class='trialDiv'><img src='Fruit/mixed-berries2.png'><br><font class='baseline'><strong>Berry Bla$t</strong><p>Choose number of points to bet.</font><div class='respPicDiv'><img src='img/responseButtonOffersNo0L5.png' class='respPic'></div></div>","null","9","Berry Bla$t","Fruit/mixed-berries2.png","Won","0.65,0.2","13","0.65","104","25","",""
"html-keyboard-response","84","226349","0.0-11.0-3.24","64077ddd11208afe2bec171a","bdp_rwlrn","Wed Mar 15 2023 23:37:43 GMT-0400 (Eastern Daylight Time)","515264","Trustworthy,Untrustworthy","","null","","","","feedback","","<div class='respPicDiv'><img src='img/responseButtonOffersNo0_wht.png' class='respPic'></div><div class='trialDiv'><img src='Fruit/mixed-berries2.png'><br><font class='baseline'><strong>Berry Bla$t</strong><p><strong><font class='posOutcome'>You WON</font><p>You bet: 5</strong></font> &nbsp; &nbsp; &nbsp; &nbsp; &nbsp; &nbsp;<font class='posOutcome'>you receive: <strong>10</strong></font></div>","null","9","Berry Bla$t","Fruit/mixed-berries2.png","Won","0.65,0.2","13","0.65","114","25","",""
"html-keyboard-response","85","227224","0.0-11.0-1.25","64077ddd11208afe2bec171a","bdp_rwlrn","Wed Mar 15 2023 23:37:43 GMT-0400 (Eastern Daylight Time)","515264","Trustworthy,Untrustworthy","","875","","","","decision","","<div class='trialDiv'><img src='Fruit/Kiwi.png'><br><font class='baseline'><strong>Kiwi Kash</strong><p>Choose number of points to bet.</font><div class='respPicDiv'><img src='img/responseButtonOffersNo0L.png' class='respPic'></div></div>","1","9","Kiwi Kash","Fruit/Kiwi.png","Lost","0.2,0.65","12","0.2","119","26","",""
"html-keyboard-response","86","227484","0.0-11.0-2.25","64077ddd11208afe2bec171a","bdp_rwlrn","Wed Mar 15 2023 23:37:43 GMT-0400 (Eastern Daylight Time)","515264","Trustworthy,Untrustworthy","","null","","","","decisionFB","","<div class='trialDiv'><img src='Fruit/Kiwi.png'><br><font class='baseline'><strong>Kiwi Kash</strong><p>Choose number of points to bet.</font><div class='respPicDiv'><img src='img/responseButtonOffersNo0L1.png' class='respPic'></div></div>","null","9","Kiwi Kash","Fruit/Kiwi.png","Lost","0.2,0.65","12","0.2","118","26","",""
"html-keyboard-response","87","228498","0.0-11.0-3.25","64077ddd11208afe2bec171a","bdp_rwlrn","Wed Mar 15 2023 23:37:43 GMT-0400 (Eastern Daylight Time)","515264","Trustworthy,Untrustworthy","","null","","","","feedback","","<div class='respPicDiv'><img src='img/responseButtonOffersNo0_wht.png' class='respPic'></div><div class='trialDiv'><img src='Fruit/Kiwi.png'><br><font class='baseline'><strong>Kiwi Kash</strong><p><strong><font class='negOutcome'>You LOST</font><p>You bet: 1</strong></font> &nbsp; &nbsp; &nbsp; &nbsp; &nbsp; &nbsp;<font class='negOutcome'>You receive: <strong>0</strong></font></div>","null","9","Kiwi Kash","Fruit/Kiwi.png","Lost","0.2,0.65","12","0.2","118","26","",""
"html-keyboard-response","88","230360","0.0-11.0-1.26","64077ddd11208afe2bec171a","bdp_rwlrn","Wed Mar 15 2023 23:37:43 GMT-0400 (Eastern Daylight Time)","515264","Trustworthy,Untrustworthy","","1861","","","","decision","","<div class='trialDiv'><img src='Fruit/bananas.png'><br><font class='baseline'><strong>Banana Bonanza</strong><p>Choose number of points to bet.</font><div class='respPicDiv'><img src='img/responseButtonOffersNo0L.png' class='respPic'></div></div>","2","9","Banana Bonanza","Fruit/bananas.png","Lost","0.2,0.8","11","0.2","123","27","",""
"html-keyboard-response","89","230615","0.0-11.0-2.26","64077ddd11208afe2bec171a","bdp_rwlrn","Wed Mar 15 2023 23:37:43 GMT-0400 (Eastern Daylight Time)","515264","Trustworthy,Untrustworthy","","null","","","","decisionFB","","<div class='trialDiv'><img src='Fruit/bananas.png'><br><font class='baseline'><strong>Banana Bonanza</strong><p>Choose number of points to bet.</font><div class='respPicDiv'><img src='img/responseButtonOffersNo0L2.png' class='respPic'></div></div>","null","9","Banana Bonanza","Fruit/bananas.png","Lost","0.2,0.8","11","0.2","121","27","",""
"html-keyboard-response","90","231623","0.0-11.0-3.26","64077ddd11208afe2bec171a","bdp_rwlrn","Wed Mar 15 2023 23:37:43 GMT-0400 (Eastern Daylight Time)","515264","Trustworthy,Untrustworthy","","null","","","","feedback","","<div class='respPicDiv'><img src='img/responseButtonOffersNo0_wht.png' class='respPic'></div><div class='trialDiv'><img src='Fruit/bananas.png'><br><font class='baseline'><strong>Banana Bonanza</strong><p><strong><font class='negOutcome'>You LOST</font><p>You bet: 2</strong></font> &nbsp; &nbsp; &nbsp; &nbsp; &nbsp; &nbsp;<font class='negOutcome'>You receive: <strong>0</strong></font></div>","null","9","Banana Bonanza","Fruit/bananas.png","Lost","0.2,0.8","11","0.2","121","27","",""
"html-keyboard-response","91","233146","0.0-11.0-1.27","64077ddd11208afe2bec171a","bdp_rwlrn","Wed Mar 15 2023 23:37:43 GMT-0400 (Eastern Daylight Time)","515264","Trustworthy,Untrustworthy","","1521","","","","decision","","<div class='trialDiv'><img src='Fruit/mixed-berries2.png'><br><font class='baseline'><strong>Berry Bla$t</strong><p>Choose number of points to bet.</font><div class='respPicDiv'><img src='img/responseButtonOffersNo0L.png' class='respPic'></div></div>","5","10","Berry Bla$t","Fruit/mixed-berries2.png","Lost","0.65,0.2","13","0.65","126","28","",""
"html-keyboard-response","92","233398","0.0-11.0-2.27","64077ddd11208afe2bec171a","bdp_rwlrn","Wed Mar 15 2023 23:37:43 GMT-0400 (Eastern Daylight Time)","515264","Trustworthy,Untrustworthy","","null","","","","decisionFB","","<div class='trialDiv'><img src='Fruit/mixed-berries2.png'><br><font class='baseline'><strong>Berry Bla$t</strong><p>Choose number of points to bet.</font><div class='respPicDiv'><img src='img/responseButtonOffersNo0L5.png' class='respPic'></div></div>","null","10","Berry Bla$t","Fruit/mixed-berries2.png","Lost","0.65,0.2","13","0.65","121","28","",""
"html-keyboard-response","93","234404","0.0-11.0-3.27","64077ddd11208afe2bec171a","bdp_rwlrn","Wed Mar 15 2023 23:37:43 GMT-0400 (Eastern Daylight Time)","515264","Trustworthy,Untrustworthy","","null","","","","feedback","","<div class='respPicDiv'><img src='img/responseButtonOffersNo0_wht.png' class='respPic'></div><div class='trialDiv'><img src='Fruit/mixed-berries2.png'><br><font class='baseline'><strong>Berry Bla$t</strong><p><strong><font class='negOutcome'>You LOST</font><p>You bet: 5</strong></font> &nbsp; &nbsp; &nbsp; &nbsp; &nbsp; &nbsp;<font class='negOutcome'>You receive: <strong>0</strong></font></div>","null","10","Berry Bla$t","Fruit/mixed-berries2.png","Lost","0.65,0.2","13","0.65","121","28","",""
"html-keyboard-response","94","236328","0.0-11.0-1.28","64077ddd11208afe2bec171a","bdp_rwlrn","Wed Mar 15 2023 23:37:43 GMT-0400 (Eastern Daylight Time)","515264","Trustworthy,Untrustworthy","","1924","","","","decision","","<div class='trialDiv'><img src='Fruit/bananas.png'><br><font class='baseline'><strong>Banana Bonanza</strong><p>Choose number of points to bet.</font><div class='respPicDiv'><img src='img/responseButtonOffersNo0L.png' class='respPic'></div></div>","5","10","Banana Bonanza","Fruit/bananas.png","Won","0.2,0.8","11","0.2","126","29","",""
"html-keyboard-response","95","236582","0.0-11.0-2.28","64077ddd11208afe2bec171a","bdp_rwlrn","Wed Mar 15 2023 23:37:43 GMT-0400 (Eastern Daylight Time)","515264","Trustworthy,Untrustworthy","","null","","","","decisionFB","","<div class='trialDiv'><img src='Fruit/bananas.png'><br><font class='baseline'><strong>Banana Bonanza</strong><p>Choose number of points to bet.</font><div class='respPicDiv'><img src='img/responseButtonOffersNo0L5.png' class='respPic'></div></div>","null","10","Banana Bonanza","Fruit/bananas.png","Won","0.2,0.8","11","0.2","121","29","",""
"html-keyboard-response","96","237591","0.0-11.0-3.28","64077ddd11208afe2bec171a","bdp_rwlrn","Wed Mar 15 2023 23:37:43 GMT-0400 (Eastern Daylight Time)","515264","Trustworthy,Untrustworthy","","null","","","","feedback","","<div class='respPicDiv'><img src='img/responseButtonOffersNo0_wht.png' class='respPic'></div><div class='trialDiv'><img src='Fruit/bananas.png'><br><font class='baseline'><strong>Banana Bonanza</strong><p><strong><font class='posOutcome'>You WON</font><p>You bet: 5</strong></font> &nbsp; &nbsp; &nbsp; &nbsp; &nbsp; &nbsp;<font class='posOutcome'>you receive: <strong>10</strong></font></div>","null","10","Banana Bonanza","Fruit/bananas.png","Won","0.2,0.8","11","0.2","131","29","",""
"html-keyboard-response","97","238424","0.0-11.0-1.29","64077ddd11208afe2bec171a","bdp_rwlrn","Wed Mar 15 2023 23:37:43 GMT-0400 (Eastern Daylight Time)","515264","Trustworthy,Untrustworthy","","832","","","","decision","","<div class='trialDiv'><img src='Fruit/Kiwi.png'><br><font class='baseline'><strong>Kiwi Kash</strong><p>Choose number of points to bet.</font><div class='respPicDiv'><img src='img/responseButtonOffersNo0L.png' class='respPic'></div></div>","1","10","Kiwi Kash","Fruit/Kiwi.png","Won","0.2,0.65","12","0.2","136","30","",""
"html-keyboard-response","98","238683","0.0-11.0-2.29","64077ddd11208afe2bec171a","bdp_rwlrn","Wed Mar 15 2023 23:37:43 GMT-0400 (Eastern Daylight Time)","515264","Trustworthy,Untrustworthy","","null","","","","decisionFB","","<div class='trialDiv'><img src='Fruit/Kiwi.png'><br><font class='baseline'><strong>Kiwi Kash</strong><p>Choose number of points to bet.</font><div class='respPicDiv'><img src='img/responseButtonOffersNo0L1.png' class='respPic'></div></div>","null","10","Kiwi Kash","Fruit/Kiwi.png","Won","0.2,0.65","12","0.2","135","30","",""
"html-keyboard-response","99","239695","0.0-11.0-3.29","64077ddd11208afe2bec171a","bdp_rwlrn","Wed Mar 15 2023 23:37:43 GMT-0400 (Eastern Daylight Time)","515264","Trustworthy,Untrustworthy","","null","","","","feedback","","<div class='respPicDiv'><img src='img/responseButtonOffersNo0_wht.png' class='respPic'></div><div class='trialDiv'><img src='Fruit/Kiwi.png'><br><font class='baseline'><strong>Kiwi Kash</strong><p><strong><font class='posOutcome'>You WON</font><p>You bet: 1</strong></font> &nbsp; &nbsp; &nbsp; &nbsp; &nbsp; &nbsp;<font class='posOutcome'>you receive: <strong>2</strong></font></div>","null","10","Kiwi Kash","Fruit/Kiwi.png","Won","0.2,0.65","12","0.2","137","30","",""
"html-keyboard-response","100","240792","0.0-11.0-1.30","64077ddd11208afe2bec171a","bdp_rwlrn","Wed Mar 15 2023 23:37:43 GMT-0400 (Eastern Daylight Time)","515264","Trustworthy,Untrustworthy","","1096","","","","decision","","<div class='trialDiv'><img src='Fruit/mixed-berries2.png'><br><font class='baseline'><strong>Berry Bla$t</strong><p>Choose number of points to bet.</font><div class='respPicDiv'><img src='img/responseButtonOffersNo0L.png' class='respPic'></div></div>","1","11","Berry Bla$t","Fruit/mixed-berries2.png","Won","0.65,0.2","13","0.65","142","31","",""
"html-keyboard-response","101","241047","0.0-11.0-2.30","64077ddd11208afe2bec171a","bdp_rwlrn","Wed Mar 15 2023 23:37:43 GMT-0400 (Eastern Daylight Time)","515264","Trustworthy,Untrustworthy","","null","","","","decisionFB","","<div class='trialDiv'><img src='Fruit/mixed-berries2.png'><br><font class='baseline'><strong>Berry Bla$t</strong><p>Choose number of points to bet.</font><div class='respPicDiv'><img src='img/responseButtonOffersNo0L1.png' class='respPic'></div></div>","null","11","Berry Bla$t","Fruit/mixed-berries2.png","Won","0.65,0.2","13","0.65","141","31","",""
"html-keyboard-response","102","242061","0.0-11.0-3.30","64077ddd11208afe2bec171a","bdp_rwlrn","Wed Mar 15 2023 23:37:43 GMT-0400 (Eastern Daylight Time)","515264","Trustworthy,Untrustworthy","","null","","","","feedback","","<div class='respPicDiv'><img src='img/responseButtonOffersNo0_wht.png' class='respPic'></div><div class='trialDiv'><img src='Fruit/mixed-berries2.png'><br><font class='baseline'><strong>Berry Bla$t</strong><p><strong><font class='posOutcome'>You WON</font><p>You bet: 1</strong></font> &nbsp; &nbsp; &nbsp; &nbsp; &nbsp; &nbsp;<font class='posOutcome'>you receive: <strong>2</strong></font></div>","null","11","Berry Bla$t","Fruit/mixed-berries2.png","Won","0.65,0.2","13","0.65","143","31","",""
"html-keyboard-response","103","244329","0.0-11.0-1.31","64077ddd11208afe2bec171a","bdp_rwlrn","Wed Mar 15 2023 23:37:43 GMT-0400 (Eastern Daylight Time)","515264","Trustworthy,Untrustworthy","","2267","","","","decision","","<div class='trialDiv'><img src='Fruit/bananas.png'><br><font class='baseline'><strong>Banana Bonanza</strong><p>Choose number of points to bet.</font><div class='respPicDiv'><img src='img/responseButtonOffersNo0L.png' class='respPic'></div></div>","1","11","Banana Bonanza","Fruit/bananas.png","Won","0.2,0.8","11","0.2","148","32","",""
"html-keyboard-response","104","244593","0.0-11.0-2.31","64077ddd11208afe2bec171a","bdp_rwlrn","Wed Mar 15 2023 23:37:43 GMT-0400 (Eastern Daylight Time)","515264","Trustworthy,Untrustworthy","","null","","","","decisionFB","","<div class='trialDiv'><img src='Fruit/bananas.png'><br><font class='baseline'><strong>Banana Bonanza</strong><p>Choose number of points to bet.</font><div class='respPicDiv'><img src='img/responseButtonOffersNo0L1.png' class='respPic'></div></div>","null","11","Banana Bonanza","Fruit/bananas.png","Won","0.2,0.8","11","0.2","147","32","",""
"html-keyboard-response","105","245603","0.0-11.0-3.31","64077ddd11208afe2bec171a","bdp_rwlrn","Wed Mar 15 2023 23:37:43 GMT-0400 (Eastern Daylight Time)","515264","Trustworthy,Untrustworthy","","null","","","","feedback","","<div class='respPicDiv'><img src='img/responseButtonOffersNo0_wht.png' class='respPic'></div><div class='trialDiv'><img src='Fruit/bananas.png'><br><font class='baseline'><strong>Banana Bonanza</strong><p><strong><font class='posOutcome'>You WON</font><p>You bet: 1</strong></font> &nbsp; &nbsp; &nbsp; &nbsp; &nbsp; &nbsp;<font class='posOutcome'>you receive: <strong>2</strong></font></div>","null","11","Banana Bonanza","Fruit/bananas.png","Won","0.2,0.8","11","0.2","149","32","",""
"html-keyboard-response","106","246408","0.0-11.0-1.32","64077ddd11208afe2bec171a","bdp_rwlrn","Wed Mar 15 2023 23:37:43 GMT-0400 (Eastern Daylight Time)","515264","Trustworthy,Untrustworthy","","804","","","","decision","","<div class='trialDiv'><img src='Fruit/Kiwi.png'><br><font class='baseline'><strong>Kiwi Kash</strong><p>Choose number of points to bet.</font><div class='respPicDiv'><img src='img/responseButtonOffersNo0L.png' class='respPic'></div></div>","1","11","Kiwi Kash","Fruit/Kiwi.png","Lost","0.2,0.65","12","0.2","154","33","",""
"html-keyboard-response","107","246661","0.0-11.0-2.32","64077ddd11208afe2bec171a","bdp_rwlrn","Wed Mar 15 2023 23:37:43 GMT-0400 (Eastern Daylight Time)","515264","Trustworthy,Untrustworthy","","null","","","","decisionFB","","<div class='trialDiv'><img src='Fruit/Kiwi.png'><br><font class='baseline'><strong>Kiwi Kash</strong><p>Choose number of points to bet.</font><div class='respPicDiv'><img src='img/responseButtonOffersNo0L1.png' class='respPic'></div></div>","null","11","Kiwi Kash","Fruit/Kiwi.png","Lost","0.2,0.65","12","0.2","153","33","",""
"html-keyboard-response","108","247673","0.0-11.0-3.32","64077ddd11208afe2bec171a","bdp_rwlrn","Wed Mar 15 2023 23:37:43 GMT-0400 (Eastern Daylight Time)","515264","Trustworthy,Untrustworthy","","null","","","","feedback","","<div class='respPicDiv'><img src='img/responseButtonOffersNo0_wht.png' class='respPic'></div><div class='trialDiv'><img src='Fruit/Kiwi.png'><br><font class='baseline'><strong>Kiwi Kash</strong><p><strong><font class='negOutcome'>You LOST</font><p>You bet: 1</strong></font> &nbsp; &nbsp; &nbsp; &nbsp; &nbsp; &nbsp;<font class='negOutcome'>You receive: <strong>0</strong></font></div>","null","11","Kiwi Kash","Fruit/Kiwi.png","Lost","0.2,0.65","12","0.2","153","33","",""
"html-keyboard-response","109","249192","0.0-11.0-1.33","64077ddd11208afe2bec171a","bdp_rwlrn","Wed Mar 15 2023 23:37:43 GMT-0400 (Eastern Daylight Time)","515264","Trustworthy,Untrustworthy","","1518","","","","decision","","<div class='trialDiv'><img src='Fruit/bananas.png'><br><font class='baseline'><strong>Banana Bonanza</strong><p>Choose number of points to bet.</font><div class='respPicDiv'><img src='img/responseButtonOffersNo0L.png' class='respPic'></div></div>","5","12","Banana Bonanza","Fruit/bananas.png","Lost","0.2,0.8","11","0.2","158","34","",""
"html-keyboard-response","110","249452","0.0-11.0-2.33","64077ddd11208afe2bec171a","bdp_rwlrn","Wed Mar 15 2023 23:37:43 GMT-0400 (Eastern Daylight Time)","515264","Trustworthy,Untrustworthy","","null","","","","decisionFB","","<div class='trialDiv'><img src='Fruit/bananas.png'><br><font class='baseline'><strong>Banana Bonanza</strong><p>Choose number of points to bet.</font><div class='respPicDiv'><img src='img/responseButtonOffersNo0L5.png' class='respPic'></div></div>","null","12","Banana Bonanza","Fruit/bananas.png","Lost","0.2,0.8","11","0.2","153","34","",""
"html-keyboard-response","111","250466","0.0-11.0-3.33","64077ddd11208afe2bec171a","bdp_rwlrn","Wed Mar 15 2023 23:37:43 GMT-0400 (Eastern Daylight Time)","515264","Trustworthy,Untrustworthy","","null","","","","feedback","","<div class='respPicDiv'><img src='img/responseButtonOffersNo0_wht.png' class='respPic'></div><div class='trialDiv'><img src='Fruit/bananas.png'><br><font class='baseline'><strong>Banana Bonanza</strong><p><strong><font class='negOutcome'>You LOST</font><p>You bet: 5</strong></font> &nbsp; &nbsp; &nbsp; &nbsp; &nbsp; &nbsp;<font class='negOutcome'>You receive: <strong>0</strong></font></div>","null","12","Banana Bonanza","Fruit/bananas.png","Lost","0.2,0.8","11","0.2","153","34","",""
"html-keyboard-response","112","251512","0.0-11.0-1.34","64077ddd11208afe2bec171a","bdp_rwlrn","Wed Mar 15 2023 23:37:43 GMT-0400 (Eastern Daylight Time)","515264","Trustworthy,Untrustworthy","","1045","","","","decision","","<div class='trialDiv'><img src='Fruit/mixed-berries2.png'><br><font class='baseline'><strong>Berry Bla$t</strong><p>Choose number of points to bet.</font><div class='respPicDiv'><img src='img/responseButtonOffersNo0L.png' class='respPic'></div></div>","1","12","Berry Bla$t","Fruit/mixed-berries2.png","Won","0.65,0.2","13","0.65","158","35","",""
"html-keyboard-response","113","251778","0.0-11.0-2.34","64077ddd11208afe2bec171a","bdp_rwlrn","Wed Mar 15 2023 23:37:43 GMT-0400 (Eastern Daylight Time)","515264","Trustworthy,Untrustworthy","","null","","","","decisionFB","","<div class='trialDiv'><img src='Fruit/mixed-berries2.png'><br><font class='baseline'><strong>Berry Bla$t</strong><p>Choose number of points to bet.</font><div class='respPicDiv'><img src='img/responseButtonOffersNo0L1.png' class='respPic'></div></div>","null","12","Berry Bla$t","Fruit/mixed-berries2.png","Won","0.65,0.2","13","0.65","157","35","",""
"html-keyboard-response","114","252779","0.0-11.0-3.34","64077ddd11208afe2bec171a","bdp_rwlrn","Wed Mar 15 2023 23:37:43 GMT-0400 (Eastern Daylight Time)","515264","Trustworthy,Untrustworthy","","null","","","","feedback","","<div class='respPicDiv'><img src='img/responseButtonOffersNo0_wht.png' class='respPic'></div><div class='trialDiv'><img src='Fruit/mixed-berries2.png'><br><font class='baseline'><strong>Berry Bla$t</strong><p><strong><font class='posOutcome'>You WON</font><p>You bet: 1</strong></font> &nbsp; &nbsp; &nbsp; &nbsp; &nbsp; &nbsp;<font class='posOutcome'>you receive: <strong>2</strong></font></div>","null","12","Berry Bla$t","Fruit/mixed-berries2.png","Won","0.65,0.2","13","0.65","159","35","",""
"html-keyboard-response","115","253528","0.0-11.0-1.35","64077ddd11208afe2bec171a","bdp_rwlrn","Wed Mar 15 2023 23:37:43 GMT-0400 (Eastern Daylight Time)","515264","Trustworthy,Untrustworthy","","748","","","","decision","","<div class='trialDiv'><img src='Fruit/Kiwi.png'><br><font class='baseline'><strong>Kiwi Kash</strong><p>Choose number of points to bet.</font><div class='respPicDiv'><img src='img/responseButtonOffersNo0L.png' class='respPic'></div></div>","1","12","Kiwi Kash","Fruit/Kiwi.png","Won","0.2,0.65","12","0.2","164","36","",""
"html-keyboard-response","116","253795","0.0-11.0-2.35","64077ddd11208afe2bec171a","bdp_rwlrn","Wed Mar 15 2023 23:37:43 GMT-0400 (Eastern Daylight Time)","515264","Trustworthy,Untrustworthy","","null","","","","decisionFB","","<div class='trialDiv'><img src='Fruit/Kiwi.png'><br><font class='baseline'><strong>Kiwi Kash</strong><p>Choose number of points to bet.</font><div class='respPicDiv'><img src='img/responseButtonOffersNo0L1.png' class='respPic'></div></div>","null","12","Kiwi Kash","Fruit/Kiwi.png","Won","0.2,0.65","12","0.2","163","36","",""
"html-keyboard-response","117","254810","0.0-11.0-3.35","64077ddd11208afe2bec171a","bdp_rwlrn","Wed Mar 15 2023 23:37:43 GMT-0400 (Eastern Daylight Time)","515264","Trustworthy,Untrustworthy","","null","","","","feedback","","<div class='respPicDiv'><img src='img/responseButtonOffersNo0_wht.png' class='respPic'></div><div class='trialDiv'><img src='Fruit/Kiwi.png'><br><font class='baseline'><strong>Kiwi Kash</strong><p><strong><font class='posOutcome'>You WON</font><p>You bet: 1</strong></font> &nbsp; &nbsp; &nbsp; &nbsp; &nbsp; &nbsp;<font class='posOutcome'>you receive: <strong>2</strong></font></div>","null","12","Kiwi Kash","Fruit/Kiwi.png","Won","0.2,0.65","12","0.2","165","36","",""
"html-keyboard-response","118","255465","0.0-11.0-1.36","64077ddd11208afe2bec171a","bdp_rwlrn","Wed Mar 15 2023 23:37:43 GMT-0400 (Eastern Daylight Time)","515264","Trustworthy,Untrustworthy","","654","","","","decision","","<div class='trialDiv'><img src='Fruit/bananas.png'><br><font class='baseline'><strong>Banana Bonanza</strong><p>Choose number of points to bet.</font><div class='respPicDiv'><img src='img/responseButtonOffersNo0L.png' class='respPic'></div></div>","1","13","Banana Bonanza","Fruit/bananas.png","Lost","0.2,0.8","11","0.2","170","37","",""
"html-keyboard-response","119","255728","0.0-11.0-2.36","64077ddd11208afe2bec171a","bdp_rwlrn","Wed Mar 15 2023 23:37:43 GMT-0400 (Eastern Daylight Time)","515264","Trustworthy,Untrustworthy","","null","","","","decisionFB","","<div class='trialDiv'><img src='Fruit/bananas.png'><br><font class='baseline'><strong>Banana Bonanza</strong><p>Choose number of points to bet.</font><div class='respPicDiv'><img src='img/responseButtonOffersNo0L1.png' class='respPic'></div></div>","null","13","Banana Bonanza","Fruit/bananas.png","Lost","0.2,0.8","11","0.2","169","37","",""
"html-keyboard-response","120","256733","0.0-11.0-3.36","64077ddd11208afe2bec171a","bdp_rwlrn","Wed Mar 15 2023 23:37:43 GMT-0400 (Eastern Daylight Time)","515264","Trustworthy,Untrustworthy","","null","","","","feedback","","<div class='respPicDiv'><img src='img/responseButtonOffersNo0_wht.png' class='respPic'></div><div class='trialDiv'><img src='Fruit/bananas.png'><br><font class='baseline'><strong>Banana Bonanza</strong><p><strong><font class='negOutcome'>You LOST</font><p>You bet: 1</strong></font> &nbsp; &nbsp; &nbsp; &nbsp; &nbsp; &nbsp;<font class='negOutcome'>You receive: <strong>0</strong></font></div>","null","13","Banana Bonanza","Fruit/bananas.png","Lost","0.2,0.8","11","0.2","169","37","",""
"html-keyboard-response","121","257112","0.0-11.0-1.37","64077ddd11208afe2bec171a","bdp_rwlrn","Wed Mar 15 2023 23:37:43 GMT-0400 (Eastern Daylight Time)","515264","Trustworthy,Untrustworthy","","378","","","","decision","","<div class='trialDiv'><img src='Fruit/Kiwi.png'><br><font class='baseline'><strong>Kiwi Kash</strong><p>Choose number of points to bet.</font><div class='respPicDiv'><img src='img/responseButtonOffersNo0L.png' class='respPic'></div></div>","5","13","Kiwi Kash","Fruit/Kiwi.png","Lost","0.2,0.65","12","0.2","174","38","",""
"html-keyboard-response","122","257369","0.0-11.0-2.37","64077ddd11208afe2bec171a","bdp_rwlrn","Wed Mar 15 2023 23:37:43 GMT-0400 (Eastern Daylight Time)","515264","Trustworthy,Untrustworthy","","null","","","","decisionFB","","<div class='trialDiv'><img src='Fruit/Kiwi.png'><br><font class='baseline'><strong>Kiwi Kash</strong><p>Choose number of points to bet.</font><div class='respPicDiv'><img src='img/responseButtonOffersNo0L5.png' class='respPic'></div></div>","null","13","Kiwi Kash","Fruit/Kiwi.png","Lost","0.2,0.65","12","0.2","169","38","",""
"html-keyboard-response","123","258372","0.0-11.0-3.37","64077ddd11208afe2bec171a","bdp_rwlrn","Wed Mar 15 2023 23:37:43 GMT-0400 (Eastern Daylight Time)","515264","Trustworthy,Untrustworthy","","null","","","","feedback","","<div class='respPicDiv'><img src='img/responseButtonOffersNo0_wht.png' class='respPic'></div><div class='trialDiv'><img src='Fruit/Kiwi.png'><br><font class='baseline'><strong>Kiwi Kash</strong><p><strong><font class='negOutcome'>You LOST</font><p>You bet: 5</strong></font> &nbsp; &nbsp; &nbsp; &nbsp; &nbsp; &nbsp;<font class='negOutcome'>You receive: <strong>0</strong></font></div>","null","13","Kiwi Kash","Fruit/Kiwi.png","Lost","0.2,0.65","12","0.2","169","38","",""
"html-keyboard-response","124","259112","0.0-11.0-1.38","64077ddd11208afe2bec171a","bdp_rwlrn","Wed Mar 15 2023 23:37:43 GMT-0400 (Eastern Daylight Time)","515264","Trustworthy,Untrustworthy","","739","","","","decision","","<div class='trialDiv'><img src='Fruit/mixed-berries2.png'><br><font class='baseline'><strong>Berry Bla$t</strong><p>Choose number of points to bet.</font><div class='respPicDiv'><img src='img/responseButtonOffersNo0L.png' class='respPic'></div></div>","5","13","Berry Bla$t","Fruit/mixed-berries2.png","Lost","0.65,0.2","13","0.65","174","39","",""
"html-keyboard-response","125","259370","0.0-11.0-2.38","64077ddd11208afe2bec171a","bdp_rwlrn","Wed Mar 15 2023 23:37:43 GMT-0400 (Eastern Daylight Time)","515264","Trustworthy,Untrustworthy","","null","","","","decisionFB","","<div class='trialDiv'><img src='Fruit/mixed-berries2.png'><br><font class='baseline'><strong>Berry Bla$t</strong><p>Choose number of points to bet.</font><div class='respPicDiv'><img src='img/responseButtonOffersNo0L5.png' class='respPic'></div></div>","null","13","Berry Bla$t","Fruit/mixed-berries2.png","Lost","0.65,0.2","13","0.65","169","39","",""
"html-keyboard-response","126","260374","0.0-11.0-3.38","64077ddd11208afe2bec171a","bdp_rwlrn","Wed Mar 15 2023 23:37:43 GMT-0400 (Eastern Daylight Time)","515264","Trustworthy,Untrustworthy","","null","","","","feedback","","<div class='respPicDiv'><img src='img/responseButtonOffersNo0_wht.png' class='respPic'></div><div class='trialDiv'><img src='Fruit/mixed-berries2.png'><br><font class='baseline'><strong>Berry Bla$t</strong><p><strong><font class='negOutcome'>You LOST</font><p>You bet: 5</strong></font> &nbsp; &nbsp; &nbsp; &nbsp; &nbsp; &nbsp;<font class='negOutcome'>You receive: <strong>0</strong></font></div>","null","13","Berry Bla$t","Fruit/mixed-berries2.png","Lost","0.65,0.2","13","0.65","169","39","",""
"html-keyboard-response","127","260665","0.0-11.0-1.39","64077ddd11208afe2bec171a","bdp_rwlrn","Wed Mar 15 2023 23:37:43 GMT-0400 (Eastern Daylight Time)","515264","Trustworthy,Untrustworthy","","290","","","","decision","","<div class='trialDiv'><img src='Fruit/bananas.png'><br><font class='baseline'><strong>Banana Bonanza</strong><p>Choose number of points to bet.</font><div class='respPicDiv'><img src='img/responseButtonOffersNo0L.png' class='respPic'></div></div>","5","14","Banana Bonanza","Fruit/bananas.png","Won","0.2,0.8","11","0.2","174","40","",""
"html-keyboard-response","128","260920","0.0-11.0-2.39","64077ddd11208afe2bec171a","bdp_rwlrn","Wed Mar 15 2023 23:37:43 GMT-0400 (Eastern Daylight Time)","515264","Trustworthy,Untrustworthy","","null","","","","decisionFB","","<div class='trialDiv'><img src='Fruit/bananas.png'><br><font class='baseline'><strong>Banana Bonanza</strong><p>Choose number of points to bet.</font><div class='respPicDiv'><img src='img/responseButtonOffersNo0L5.png' class='respPic'></div></div>","null","14","Banana Bonanza","Fruit/bananas.png","Won","0.2,0.8","11","0.2","169","40","",""
"html-keyboard-response","129","261934","0.0-11.0-3.39","64077ddd11208afe2bec171a","bdp_rwlrn","Wed Mar 15 2023 23:37:43 GMT-0400 (Eastern Daylight Time)","515264","Trustworthy,Untrustworthy","","null","","","","feedback","","<div class='respPicDiv'><img src='img/responseButtonOffersNo0_wht.png' class='respPic'></div><div class='trialDiv'><img src='Fruit/bananas.png'><br><font class='baseline'><strong>Banana Bonanza</strong><p><strong><font class='posOutcome'>You WON</font><p>You bet: 5</strong></font> &nbsp; &nbsp; &nbsp; &nbsp; &nbsp; &nbsp;<font class='posOutcome'>you receive: <strong>10</strong></font></div>","null","14","Banana Bonanza","Fruit/bananas.png","Won","0.2,0.8","11","0.2","179","40","",""
"html-keyboard-response","130","262217","0.0-11.0-1.40","64077ddd11208afe2bec171a","bdp_rwlrn","Wed Mar 15 2023 23:37:43 GMT-0400 (Eastern Daylight Time)","515264","Trustworthy,Untrustworthy","","282","","","","decision","","<div class='trialDiv'><img src='Fruit/Kiwi.png'><br><font class='baseline'><strong>Kiwi Kash</strong><p>Choose number of points to bet.</font><div class='respPicDiv'><img src='img/responseButtonOffersNo0L.png' class='respPic'></div></div>","5","14","Kiwi Kash","Fruit/Kiwi.png","Won","0.2,0.65","12","0.2","184","41","",""
"html-keyboard-response","131","262473","0.0-11.0-2.40","64077ddd11208afe2bec171a","bdp_rwlrn","Wed Mar 15 2023 23:37:43 GMT-0400 (Eastern Daylight Time)","515264","Trustworthy,Untrustworthy","","null","","","","decisionFB","","<div class='trialDiv'><img src='Fruit/Kiwi.png'><br><font class='baseline'><strong>Kiwi Kash</strong><p>Choose number of points to bet.</font><div class='respPicDiv'><img src='img/responseButtonOffersNo0L5.png' class='respPic'></div></div>","null","14","Kiwi Kash","Fruit/Kiwi.png","Won","0.2,0.65","12","0.2","179","41","",""
"html-keyboard-response","132","263484","0.0-11.0-3.40","64077ddd11208afe2bec171a","bdp_rwlrn","Wed Mar 15 2023 23:37:43 GMT-0400 (Eastern Daylight Time)","515264","Trustworthy,Untrustworthy","","null","","","","feedback","","<div class='respPicDiv'><img src='img/responseButtonOffersNo0_wht.png' class='respPic'></div><div class='trialDiv'><img src='Fruit/Kiwi.png'><br><font class='baseline'><strong>Kiwi Kash</strong><p><strong><font class='posOutcome'>You WON</font><p>You bet: 5</strong></font> &nbsp; &nbsp; &nbsp; &nbsp; &nbsp; &nbsp;<font class='posOutcome'>you receive: <strong>10</strong></font></div>","null","14","Kiwi Kash","Fruit/Kiwi.png","Won","0.2,0.65","12","0.2","189","41","",""
"html-keyboard-response","133","263721","0.0-11.0-1.41","64077ddd11208afe2bec171a","bdp_rwlrn","Wed Mar 15 2023 23:37:43 GMT-0400 (Eastern Daylight Time)","515264","Trustworthy,Untrustworthy","","236","","","","decision","","<div class='trialDiv'><img src='Fruit/mixed-berries2.png'><br><font class='baseline'><strong>Berry Bla$t</strong><p>Choose number of points to bet.</font><div class='respPicDiv'><img src='img/responseButtonOffersNo0L.png' class='respPic'></div></div>","5","14","Berry Bla$t","Fruit/mixed-berries2.png","Won","0.65,0.2","13","0.65","194","42","",""
"html-keyboard-response","134","263979","0.0-11.0-2.41","64077ddd11208afe2bec171a","bdp_rwlrn","Wed Mar 15 2023 23:37:43 GMT-0400 (Eastern Daylight Time)","515264","Trustworthy,Untrustworthy","","null","","","","decisionFB","","<div class='trialDiv'><img src='Fruit/mixed-berries2.png'><br><font class='baseline'><strong>Berry Bla$t</strong><p>Choose number of points to bet.</font><div class='respPicDiv'><img src='img/responseButtonOffersNo0L5.png' class='respPic'></div></div>","null","14","Berry Bla$t","Fruit/mixed-berries2.png","Won","0.65,0.2","13","0.65","189","42","",""
"html-keyboard-response","135","264986","0.0-11.0-3.41","64077ddd11208afe2bec171a","bdp_rwlrn","Wed Mar 15 2023 23:37:43 GMT-0400 (Eastern Daylight Time)","515264","Trustworthy,Untrustworthy","","null","","","","feedback","","<div class='respPicDiv'><img src='img/responseButtonOffersNo0_wht.png' class='respPic'></div><div class='trialDiv'><img src='Fruit/mixed-berries2.png'><br><font class='baseline'><strong>Berry Bla$t</strong><p><strong><font class='posOutcome'>You WON</font><p>You bet: 5</strong></font> &nbsp; &nbsp; &nbsp; &nbsp; &nbsp; &nbsp;<font class='posOutcome'>you receive: <strong>10</strong></font></div>","null","14","Berry Bla$t","Fruit/mixed-berries2.png","Won","0.65,0.2","13","0.65","199","42","",""
"html-keyboard-response","136","265241","0.0-11.0-1.42","64077ddd11208afe2bec171a","bdp_rwlrn","Wed Mar 15 2023 23:37:43 GMT-0400 (Eastern Daylight Time)","515264","Trustworthy,Untrustworthy","","254","","","","decision","","<div class='trialDiv'><img src='Fruit/bananas.png'><br><font class='baseline'><strong>Banana Bonanza</strong><p>Choose number of points to bet.</font><div class='respPicDiv'><img src='img/responseButtonOffersNo0L.png' class='respPic'></div></div>","1","15","Banana Bonanza","Fruit/bananas.png","Won","0.2,0.8","11","0.2","204","43","",""
"html-keyboard-response","137","265497","0.0-11.0-2.42","64077ddd11208afe2bec171a","bdp_rwlrn","Wed Mar 15 2023 23:37:43 GMT-0400 (Eastern Daylight Time)","515264","Trustworthy,Untrustworthy","","null","","","","decisionFB","","<div class='trialDiv'><img src='Fruit/bananas.png'><br><font class='baseline'><strong>Banana Bonanza</strong><p>Choose number of points to bet.</font><div class='respPicDiv'><img src='img/responseButtonOffersNo0L1.png' class='respPic'></div></div>","null","15","Banana Bonanza","Fruit/bananas.png","Won","0.2,0.8","11","0.2","203","43","",""
"html-keyboard-response","138","266501","0.0-11.0-3.42","64077ddd11208afe2bec171a","bdp_rwlrn","Wed Mar 15 2023 23:37:43 GMT-0400 (Eastern Daylight Time)","515264","Trustworthy,Untrustworthy","","null","","","","feedback","","<div class='respPicDiv'><img src='img/responseButtonOffersNo0_wht.png' class='respPic'></div><div class='trialDiv'><img src='Fruit/bananas.png'><br><font class='baseline'><strong>Banana Bonanza</strong><p><strong><font class='posOutcome'>You WON</font><p>You bet: 1</strong></font> &nbsp; &nbsp; &nbsp; &nbsp; &nbsp; &nbsp;<font class='posOutcome'>you receive: <strong>2</strong></font></div>","null","15","Banana Bonanza","Fruit/bananas.png","Won","0.2,0.8","11","0.2","205","43","",""
"html-keyboard-response","139","266746","0.0-11.0-1.43","64077ddd11208afe2bec171a","bdp_rwlrn","Wed Mar 15 2023 23:37:43 GMT-0400 (Eastern Daylight Time)","515264","Trustworthy,Untrustworthy","","243","","","","decision","","<div class='trialDiv'><img src='Fruit/mixed-berries2.png'><br><font class='baseline'><strong>Berry Bla$t</strong><p>Choose number of points to bet.</font><div class='respPicDiv'><img src='img/responseButtonOffersNo0L.png' class='respPic'></div></div>","5","15","Berry Bla$t","Fruit/mixed-berries2.png","Lost","0.65,0.2","13","0.65","210","44","",""
"html-keyboard-response","140","267003","0.0-11.0-2.43","64077ddd11208afe2bec171a","bdp_rwlrn","Wed Mar 15 2023 23:37:43 GMT-0400 (Eastern Daylight Time)","515264","Trustworthy,Untrustworthy","","null","","","","decisionFB","","<div class='trialDiv'><img src='Fruit/mixed-berries2.png'><br><font class='baseline'><strong>Berry Bla$t</strong><p>Choose number of points to bet.</font><div class='respPicDiv'><img src='img/responseButtonOffersNo0L5.png' class='respPic'></div></div>","null","15","Berry Bla$t","Fruit/mixed-berries2.png","Lost","0.65,0.2","13","0.65","205","44","",""
"html-keyboard-response","141","268006","0.0-11.0-3.43","64077ddd11208afe2bec171a","bdp_rwlrn","Wed Mar 15 2023 23:37:43 GMT-0400 (Eastern Daylight Time)","515264","Trustworthy,Untrustworthy","","null","","","","feedback","","<div class='respPicDiv'><img src='img/responseButtonOffersNo0_wht.png' class='respPic'></div><div class='trialDiv'><img src='Fruit/mixed-berries2.png'><br><font class='baseline'><strong>Berry Bla$t</strong><p><strong><font class='negOutcome'>You LOST</font><p>You bet: 5</strong></font> &nbsp; &nbsp; &nbsp; &nbsp; &nbsp; &nbsp;<font class='negOutcome'>You receive: <strong>0</strong></font></div>","null","15","Berry Bla$t","Fruit/mixed-berries2.png","Lost","0.65,0.2","13","0.65","205","44","",""
"html-keyboard-response","142","268281","0.0-11.0-1.44","64077ddd11208afe2bec171a","bdp_rwlrn","Wed Mar 15 2023 23:37:43 GMT-0400 (Eastern Daylight Time)","515264","Trustworthy,Untrustworthy","","274","","","","decision","","<div class='trialDiv'><img src='Fruit/Kiwi.png'><br><font class='baseline'><strong>Kiwi Kash</strong><p>Choose number of points to bet.</font><div class='respPicDiv'><img src='img/responseButtonOffersNo0L.png' class='respPic'></div></div>","1","15","Kiwi Kash","Fruit/Kiwi.png","Lost","0.2,0.65","12","0.2","210","45","",""
"html-keyboard-response","143","268536","0.0-11.0-2.44","64077ddd11208afe2bec171a","bdp_rwlrn","Wed Mar 15 2023 23:37:43 GMT-0400 (Eastern Daylight Time)","515264","Trustworthy,Untrustworthy","","null","","","","decisionFB","","<div class='trialDiv'><img src='Fruit/Kiwi.png'><br><font class='baseline'><strong>Kiwi Kash</strong><p>Choose number of points to bet.</font><div class='respPicDiv'><img src='img/responseButtonOffersNo0L1.png' class='respPic'></div></div>","null","15","Kiwi Kash","Fruit/Kiwi.png","Lost","0.2,0.65","12","0.2","209","45","",""
"html-keyboard-response","144","269550","0.0-11.0-3.44","64077ddd11208afe2bec171a","bdp_rwlrn","Wed Mar 15 2023 23:37:43 GMT-0400 (Eastern Daylight Time)","515264","Trustworthy,Untrustworthy","","null","","","","feedback","","<div class='respPicDiv'><img src='img/responseButtonOffersNo0_wht.png' class='respPic'></div><div class='trialDiv'><img src='Fruit/Kiwi.png'><br><font class='baseline'><strong>Kiwi Kash</strong><p><strong><font class='negOutcome'>You LOST</font><p>You bet: 1</strong></font> &nbsp; &nbsp; &nbsp; &nbsp; &nbsp; &nbsp;<font class='negOutcome'>You receive: <strong>0</strong></font></div>","null","15","Kiwi Kash","Fruit/Kiwi.png","Lost","0.2,0.65","12","0.2","209","45","",""
"html-keyboard-response","145","270633","0.0-11.0-1.45","64077ddd11208afe2bec171a","bdp_rwlrn","Wed Mar 15 2023 23:37:43 GMT-0400 (Eastern Daylight Time)","515264","Trustworthy,Untrustworthy","","1082","","","","decision","","<div class='trialDiv'><img src='Fruit/bananas.png'><br><font class='baseline'><strong>Banana Bonanza</strong><p>Choose number of points to bet.</font><div class='respPicDiv'><img src='img/responseButtonOffersNo0L.png' class='respPic'></div></div>","1","16","Banana Bonanza","Fruit/bananas.png","Lost","0.2,0.8","11","0.2","214","46","",""
"html-keyboard-response","146","270886","0.0-11.0-2.45","64077ddd11208afe2bec171a","bdp_rwlrn","Wed Mar 15 2023 23:37:43 GMT-0400 (Eastern Daylight Time)","515264","Trustworthy,Untrustworthy","","null","","","","decisionFB","","<div class='trialDiv'><img src='Fruit/bananas.png'><br><font class='baseline'><strong>Banana Bonanza</strong><p>Choose number of points to bet.</font><div class='respPicDiv'><img src='img/responseButtonOffersNo0L1.png' class='respPic'></div></div>","null","16","Banana Bonanza","Fruit/bananas.png","Lost","0.2,0.8","11","0.2","213","46","",""
"html-keyboard-response","147","271901","0.0-11.0-3.45","64077ddd11208afe2bec171a","bdp_rwlrn","Wed Mar 15 2023 23:37:43 GMT-0400 (Eastern Daylight Time)","515264","Trustworthy,Untrustworthy","","null","","","","feedback","","<div class='respPicDiv'><img src='img/responseButtonOffersNo0_wht.png' class='respPic'></div><div class='trialDiv'><img src='Fruit/bananas.png'><br><font class='baseline'><strong>Banana Bonanza</strong><p><strong><font class='negOutcome'>You LOST</font><p>You bet: 1</strong></font> &nbsp; &nbsp; &nbsp; &nbsp; &nbsp; &nbsp;<font class='negOutcome'>You receive: <strong>0</strong></font></div>","null","16","Banana Bonanza","Fruit/bananas.png","Lost","0.2,0.8","11","0.2","213","46","",""
"html-keyboard-response","148","273289","0.0-11.0-1.46","64077ddd11208afe2bec171a","bdp_rwlrn","Wed Mar 15 2023 23:37:43 GMT-0400 (Eastern Daylight Time)","515264","Trustworthy,Untrustworthy","","1387","","","","decision","","<div class='trialDiv'><img src='Fruit/mixed-berries2.png'><br><font class='baseline'><strong>Berry Bla$t</strong><p>Choose number of points to bet.</font><div class='respPicDiv'><img src='img/responseButtonOffersNo0L.png' class='respPic'></div></div>","3","16","Berry Bla$t","Fruit/mixed-berries2.png","Lost","0.65,0.2","13","0.65","218","47","",""
"html-keyboard-response","149","273550","0.0-11.0-2.46","64077ddd11208afe2bec171a","bdp_rwlrn","Wed Mar 15 2023 23:37:43 GMT-0400 (Eastern Daylight Time)","515264","Trustworthy,Untrustworthy","","null","","","","decisionFB","","<div class='trialDiv'><img src='Fruit/mixed-berries2.png'><br><font class='baseline'><strong>Berry Bla$t</strong><p>Choose number of points to bet.</font><div class='respPicDiv'><img src='img/responseButtonOffersNo0L3.png' class='respPic'></div></div>","null","16","Berry Bla$t","Fruit/mixed-berries2.png","Lost","0.65,0.2","13","0.65","215","47","",""
"html-keyboard-response","150","274554","0.0-11.0-3.46","64077ddd11208afe2bec171a","bdp_rwlrn","Wed Mar 15 2023 23:37:43 GMT-0400 (Eastern Daylight Time)","515264","Trustworthy,Untrustworthy","","null","","","","feedback","","<div class='respPicDiv'><img src='img/responseButtonOffersNo0_wht.png' class='respPic'></div><div class='trialDiv'><img src='Fruit/mixed-berries2.png'><br><font class='baseline'><strong>Berry Bla$t</strong><p><strong><font class='negOutcome'>You LOST</font><p>You bet: 3</strong></font> &nbsp; &nbsp; &nbsp; &nbsp; &nbsp; &nbsp;<font class='negOutcome'>You receive: <strong>0</strong></font></div>","null","16","Berry Bla$t","Fruit/mixed-berries2.png","Lost","0.65,0.2","13","0.65","215","47","",""
"html-keyboard-response","151","275881","0.0-11.0-1.47","64077ddd11208afe2bec171a","bdp_rwlrn","Wed Mar 15 2023 23:37:43 GMT-0400 (Eastern Daylight Time)","515264","Trustworthy,Untrustworthy","","1325","","","","decision","","<div class='trialDiv'><img src='Fruit/Kiwi.png'><br><font class='baseline'><strong>Kiwi Kash</strong><p>Choose number of points to bet.</font><div class='respPicDiv'><img src='img/responseButtonOffersNo0L.png' class='respPic'></div></div>","5","16","Kiwi Kash","Fruit/Kiwi.png","Won","0.2,0.65","12","0.2","220","48","",""
"html-keyboard-response","152","276145","0.0-11.0-2.47","64077ddd11208afe2bec171a","bdp_rwlrn","Wed Mar 15 2023 23:37:43 GMT-0400 (Eastern Daylight Time)","515264","Trustworthy,Untrustworthy","","null","","","","decisionFB","","<div class='trialDiv'><img src='Fruit/Kiwi.png'><br><font class='baseline'><strong>Kiwi Kash</strong><p>Choose number of points to bet.</font><div class='respPicDiv'><img src='img/responseButtonOffersNo0L5.png' class='respPic'></div></div>","null","16","Kiwi Kash","Fruit/Kiwi.png","Won","0.2,0.65","12","0.2","215","48","",""
"html-keyboard-response","153","277150","0.0-11.0-3.47","64077ddd11208afe2bec171a","bdp_rwlrn","Wed Mar 15 2023 23:37:43 GMT-0400 (Eastern Daylight Time)","515264","Trustworthy,Untrustworthy","","null","","","","feedback","","<div class='respPicDiv'><img src='img/responseButtonOffersNo0_wht.png' class='respPic'></div><div class='trialDiv'><img src='Fruit/Kiwi.png'><br><font class='baseline'><strong>Kiwi Kash</strong><p><strong><font class='posOutcome'>You WON</font><p>You bet: 5</strong></font> &nbsp; &nbsp; &nbsp; &nbsp; &nbsp; &nbsp;<font class='posOutcome'>you receive: <strong>10</strong></font></div>","null","16","Kiwi Kash","Fruit/Kiwi.png","Won","0.2,0.65","12","0.2","225","48","",""
"html-keyboard-response","154","278266","0.0-11.0-1.48","64077ddd11208afe2bec171a","bdp_rwlrn","Wed Mar 15 2023 23:37:43 GMT-0400 (Eastern Daylight Time)","515264","Trustworthy,Untrustworthy","","1114","","","","decision","","<div class='trialDiv'><img src='Fruit/bananas.png'><br><font class='baseline'><strong>Banana Bonanza</strong><p>Choose number of points to bet.</font><div class='respPicDiv'><img src='img/responseButtonOffersNo0L.png' class='respPic'></div></div>","5","17","Banana Bonanza","Fruit/bananas.png","Won","0.2,0.8","11","0.2","230","49","",""
"html-keyboard-response","155","278521","0.0-11.0-2.48","64077ddd11208afe2bec171a","bdp_rwlrn","Wed Mar 15 2023 23:37:43 GMT-0400 (Eastern Daylight Time)","515264","Trustworthy,Untrustworthy","","null","","","","decisionFB","","<div class='trialDiv'><img src='Fruit/bananas.png'><br><font class='baseline'><strong>Banana Bonanza</strong><p>Choose number of points to bet.</font><div class='respPicDiv'><img src='img/responseButtonOffersNo0L5.png' class='respPic'></div></div>","null","17","Banana Bonanza","Fruit/bananas.png","Won","0.2,0.8","11","0.2","225","49","",""
"html-keyboard-response","156","279522","0.0-11.0-3.48","64077ddd11208afe2bec171a","bdp_rwlrn","Wed Mar 15 2023 23:37:43 GMT-0400 (Eastern Daylight Time)","515264","Trustworthy,Untrustworthy","","null","","","","feedback","","<div class='respPicDiv'><img src='img/responseButtonOffersNo0_wht.png' class='respPic'></div><div class='trialDiv'><img src='Fruit/bananas.png'><br><font class='baseline'><strong>Banana Bonanza</strong><p><strong><font class='posOutcome'>You WON</font><p>You bet: 5</strong></font> &nbsp; &nbsp; &nbsp; &nbsp; &nbsp; &nbsp;<font class='posOutcome'>you receive: <strong>10</strong></font></div>","null","17","Banana Bonanza","Fruit/bananas.png","Won","0.2,0.8","11","0.2","235","49","",""
"html-keyboard-response","157","281577","0.0-11.0-1.49","64077ddd11208afe2bec171a","bdp_rwlrn","Wed Mar 15 2023 23:37:43 GMT-0400 (Eastern Daylight Time)","515264","Trustworthy,Untrustworthy","","2053","","","","decision","","<div class='trialDiv'><img src='Fruit/Kiwi.png'><br><font class='baseline'><strong>Kiwi Kash</strong><p>Choose number of points to bet.</font><div class='respPicDiv'><img src='img/responseButtonOffersNo0L.png' class='respPic'></div></div>","4","17","Kiwi Kash","Fruit/Kiwi.png","Won","0.2,0.65","12","0.2","240","50","",""
"html-keyboard-response","158","281833","0.0-11.0-2.49","64077ddd11208afe2bec171a","bdp_rwlrn","Wed Mar 15 2023 23:37:43 GMT-0400 (Eastern Daylight Time)","515264","Trustworthy,Untrustworthy","","null","","","","decisionFB","","<div class='trialDiv'><img src='Fruit/Kiwi.png'><br><font class='baseline'><strong>Kiwi Kash</strong><p>Choose number of points to bet.</font><div class='respPicDiv'><img src='img/responseButtonOffersNo0L4.png' class='respPic'></div></div>","null","17","Kiwi Kash","Fruit/Kiwi.png","Won","0.2,0.65","12","0.2","236","50","",""
"html-keyboard-response","159","282850","0.0-11.0-3.49","64077ddd11208afe2bec171a","bdp_rwlrn","Wed Mar 15 2023 23:37:43 GMT-0400 (Eastern Daylight Time)","515264","Trustworthy,Untrustworthy","","null","","","","feedback","","<div class='respPicDiv'><img src='img/responseButtonOffersNo0_wht.png' class='respPic'></div><div class='trialDiv'><img src='Fruit/Kiwi.png'><br><font class='baseline'><strong>Kiwi Kash</strong><p><strong><font class='posOutcome'>You WON</font><p>You bet: 4</strong></font> &nbsp; &nbsp; &nbsp; &nbsp; &nbsp; &nbsp;<font class='posOutcome'>you receive: <strong>8</strong></font></div>","null","17","Kiwi Kash","Fruit/Kiwi.png","Won","0.2,0.65","12","0.2","244","50","",""
"html-keyboard-response","160","283353","0.0-11.0-1.50","64077ddd11208afe2bec171a","bdp_rwlrn","Wed Mar 15 2023 23:37:43 GMT-0400 (Eastern Daylight Time)","515264","Trustworthy,Untrustworthy","","502","","","","decision","","<div class='trialDiv'><img src='Fruit/mixed-berries2.png'><br><font class='baseline'><strong>Berry Bla$t</strong><p>Choose number of points to bet.</font><div class='respPicDiv'><img src='img/responseButtonOffersNo0L.png' class='respPic'></div></div>","3","17","Berry Bla$t","Fruit/mixed-berries2.png","Lost","0.65,0.2","13","0.65","249","51","",""
"html-keyboard-response","161","283609","0.0-11.0-2.50","64077ddd11208afe2bec171a","bdp_rwlrn","Wed Mar 15 2023 23:37:43 GMT-0400 (Eastern Daylight Time)","515264","Trustworthy,Untrustworthy","","null","","","","decisionFB","","<div class='trialDiv'><img src='Fruit/mixed-berries2.png'><br><font class='baseline'><strong>Berry Bla$t</strong><p>Choose number of points to bet.</font><div class='respPicDiv'><img src='img/responseButtonOffersNo0L3.png' class='respPic'></div></div>","null","17","Berry Bla$t","Fruit/mixed-berries2.png","Lost","0.65,0.2","13","0.65","246","51","",""
"html-keyboard-response","162","284620","0.0-11.0-3.50","64077ddd11208afe2bec171a","bdp_rwlrn","Wed Mar 15 2023 23:37:43 GMT-0400 (Eastern Daylight Time)","515264","Trustworthy,Untrustworthy","","null","","","","feedback","","<div class='respPicDiv'><img src='img/responseButtonOffersNo0_wht.png' class='respPic'></div><div class='trialDiv'><img src='Fruit/mixed-berries2.png'><br><font class='baseline'><strong>Berry Bla$t</strong><p><strong><font class='negOutcome'>You LOST</font><p>You bet: 3</strong></font> &nbsp; &nbsp; &nbsp; &nbsp; &nbsp; &nbsp;<font class='negOutcome'>You receive: <strong>0</strong></font></div>","null","17","Berry Bla$t","Fruit/mixed-berries2.png","Lost","0.65,0.2","13","0.65","246","51","",""
