"trial_type","trial_index","time_elapsed","internal_node_id","subject_id","task","startTime","totalTime","labels","event","trial","time","trialtype","view_history","rt","success","stimulus","key_press","ltround","name","fileID","outcome","lottotype","lottoswpt","lottocurrpshare","point_total","round","faceID","face"
"pavlovia","0","4","0.0-0.0","5fee456f8929f014481adff9","bdp_rwlrn","Wed Mar 15 2023 22:21:53 GMT-0400 (Eastern Daylight Time)","601134","Trustworthy,Untrustworthy","","","","","","","","","","","","","","","","","","","",""
"","","","","5fee456f8929f014481adff9","bdp_rwlrn","Wed Mar 15 2023 22:21:53 GMT-0400 (Eastern Daylight Time)","601134","Trustworthy,Untrustworthy","focus","1","3454","focusevent","","","","","","","","","","","","","","","",""
"instructions","1","6936","0.0-1.0","5fee456f8929f014481adff9","bdp_rwlrn","Wed Mar 15 2023 22:21:53 GMT-0400 (Eastern Daylight Time)","601134","Trustworthy,Untrustworthy","","","","","[{""page_index"":0,""viewing_time"":6931}]","6931","","","","","","","","","","","","","",""
"","","","","5fee456f8929f014481adff9","bdp_rwlrn","Wed Mar 15 2023 22:21:53 GMT-0400 (Eastern Daylight Time)","601134","Trustworthy,Untrustworthy","fullscreenenter","2","10119","fullscreenenter","","","","","","","","","","","","","","","",""
"fullscreen","2","11103","0.0-2.0","5fee456f8929f014481adff9","bdp_rwlrn","Wed Mar 15 2023 22:21:53 GMT-0400 (Eastern Daylight Time)","601134","Trustworthy,Untrustworthy","","","","","","","true","","","","","","","","","","","","",""
"instructions","3","83848","0.0-4.0","5fee456f8929f014481adff9","bdp_rwlrn","Wed Mar 15 2023 22:21:53 GMT-0400 (Eastern Daylight Time)","601134","Trustworthy,Untrustworthy","","","","","[{""page_index"":0,""viewing_time"":15440},{""page_index"":1,""viewing_time"":16144},{""page_index"":2,""viewing_time"":15488},{""page_index"":3,""viewing_time"":4607},{""page_index"":4,""viewing_time"":15392},{""page_index"":5,""viewing_time"":5671}]","72743","","","","","","","","","","","","","",""
"html-keyboard-response","4","89765","0.0-5.0","5fee456f8929f014481adff9","bdp_rwlrn","Wed Mar 15 2023 22:21:53 GMT-0400 (Eastern Daylight Time)","601134","Trustworthy,Untrustworthy","","","","","","5916","","<div class='header' style='text-align:left; position: absolute; top: 5%; left: 5%;'><small>Task 1 of 5</small></div><div class='instruxDiv'><p><strong>1) What is the maximum number of points you can choose to bet on a lottery?</strong></p><p>a) 0</p><p>b) 1</p><p>c) 5</p>","C","","","","","","","","","","",""
"html-keyboard-response","5","91043","0.0-6.0","5fee456f8929f014481adff9","bdp_rwlrn","Wed Mar 15 2023 22:21:53 GMT-0400 (Eastern Daylight Time)","601134","Trustworthy,Untrustworthy","","","","","","1168","","<div class='header' style='text-align:left; position: absolute; top: 5%; left: 5%;'><small>Task 1 of 5</small></div><div class='instruxDiv'><p><strong>1) What is the maximum number of points you can choose to bet on a lottery?</strong></p><p>a) 1</p><p>b) 1</p><p style='color:#00FF00'>c) 5</p><h3 style='color:#00FF00'>Correct!</h3><h3 class='center-content'>The correct response is c).</h3><h3 class='center-content'>The maximum number of points you can choose to bet on a lottery is 5 points.</h3><p><em>Press SPACEBAR to continue</em></p></div>"," ","","","","","","","","","","",""
"html-keyboard-response","6","95898","0.0-7.0","5fee456f8929f014481adff9","bdp_rwlrn","Wed Mar 15 2023 22:21:53 GMT-0400 (Eastern Daylight Time)","601134","Trustworthy,Untrustworthy","","","","","","4740","","<div class='header' style='text-align:left; position: absolute; top: 5%; left: 5%;'><small>Task 1 of 5</small></div><div class='instruxDiv'><p><strong>2) How many points can you win each round?</strong></p><p>a) 10 points</p><p>b) Double what you bet</p><p>c) Quadruple what you bet</p>","B","","","","","","","","","","",""
"html-keyboard-response","7","96932","0.0-8.0","5fee456f8929f014481adff9","bdp_rwlrn","Wed Mar 15 2023 22:21:53 GMT-0400 (Eastern Daylight Time)","601134","Trustworthy,Untrustworthy","","","","","","927","","<div class='header' style='text-align:left; position: absolute; top: 5%; left: 5%;'><small>Task 1 of 5</small></div><div class='instruxDiv'><p><strong>2) How many points can you win each round?</strong></p><p>a) 10 points</p><p style='color:#00FF00'>b) Double what you bet</p><p>c) Quadruple what you bet</p><h3 style='color:#00FF00'>Correct!</h3><h3 class='center-content'>The correct response is b).</h3><h3 class='center-content'>You can win double the amount of points you bet.</h3><p><em>Press SPACEBAR to continue</em></p></div>"," ","","","","","","","","","","",""
"html-keyboard-response","8","102040","0.0-9.0","5fee456f8929f014481adff9","bdp_rwlrn","Wed Mar 15 2023 22:21:53 GMT-0400 (Eastern Daylight Time)","601134","Trustworthy,Untrustworthy","","","","","","null","","<div class='header' style='text-align:left; position: absolute; top: 5%; left: 5%;'><small>Task 1 of 5</small></div><div class='instruxDiv'><p>Thank you for completing the quiz<p>These are the actual lotteries you will be playing in the next block:<p><div class='tc' align='center'><img class='introPic' src='Fruit/lime.png'><br><strong>Limin' Large</strong></div><div class='bl' align='center'><img class='introPic' src='Fruit/apple.png'><br><strong>Awesome Apples</strong></div><div class='br' align='center'><img class='introPic' src='Fruit/mango.png'><br><strong>Mega Mangos</strong></div></div><p>Across <strong>66 rounds</strong> you will play each lottery <strong>22 times</strong> (in random order).<p style='align:center; color:white'><font <em>Press SPACEBAR to continue</em></p>","null","","","","","","","","","","",""
"instructions","9","283629","0.0-10.0","5fee456f8929f014481adff9","bdp_rwlrn","Wed Mar 15 2023 22:21:53 GMT-0400 (Eastern Daylight Time)","601134","Trustworthy,Untrustworthy","","","","","[{""page_index"":0,""viewing_time"":390},{""page_index"":1,""viewing_time"":181199}]","181589","","","","","","","","","","","","","",""
"html-keyboard-response","10","286941","0.0-11.0-1.0","5fee456f8929f014481adff9","bdp_rwlrn","Wed Mar 15 2023 22:21:53 GMT-0400 (Eastern Daylight Time)","601134","Trustworthy,Untrustworthy","","","","decision","","3208","","<div class='trialDiv'><img src='Fruit/apple.png'><br><font class='baseline'><strong>Awesome Apples</strong><p>Choose number of points to bet.</font><div class='respPicDiv'><img src='img/responseButtonOffersNo0L.png' class='respPic'></div></div>","3","1","Awesome Apples","Fruit/apple.png","Won","0.2,0.65","9","0.2","5","1","",""
"html-keyboard-response","11","287199","0.0-11.0-2.0","5fee456f8929f014481adff9","bdp_rwlrn","Wed Mar 15 2023 22:21:53 GMT-0400 (Eastern Daylight Time)","601134","Trustworthy,Untrustworthy","","","","decisionFB","","null","","<div class='trialDiv'><img src='Fruit/apple.png'><br><font class='baseline'><strong>Awesome Apples</strong><p>Choose number of points to bet.</font><div class='respPicDiv'><img src='img/responseButtonOffersNo0L3.png' class='respPic'></div></div>","null","1","Awesome Apples","Fruit/apple.png","Won","0.2,0.65","9","0.2","2","1","",""
"html-keyboard-response","12","288215","0.0-11.0-3.0","5fee456f8929f014481adff9","bdp_rwlrn","Wed Mar 15 2023 22:21:53 GMT-0400 (Eastern Daylight Time)","601134","Trustworthy,Untrustworthy","","","","feedback","","null","","<div class='respPicDiv'><img src='img/responseButtonOffersNo0_wht.png' class='respPic'></div><div class='trialDiv'><img src='Fruit/apple.png'><br><font class='baseline'><strong>Awesome Apples</strong><p><strong><font class='posOutcome'>You WON</font><p>You bet: 3</strong></font> &nbsp; &nbsp; &nbsp; &nbsp; &nbsp; &nbsp;<font class='posOutcome'>you receive: <strong>6</strong></font></div>","null","1","Awesome Apples","Fruit/apple.png","Won","0.2,0.65","9","0.2","8","1","",""
"html-keyboard-response","13","291317","0.0-11.0-1.1","5fee456f8929f014481adff9","bdp_rwlrn","Wed Mar 15 2023 22:21:53 GMT-0400 (Eastern Daylight Time)","601134","Trustworthy,Untrustworthy","","","","decision","","3100","","<div class='trialDiv'><img src='Fruit/lime.png'><br><font class='baseline'><strong>Limin' Large</strong><p>Choose number of points to bet.</font><div class='respPicDiv'><img src='img/responseButtonOffersNo0L.png' class='respPic'></div></div>","5","1","Limin' Large","Fruit/lime.png","Won","0.8,0.35","8","0.8","13","2","",""
"html-keyboard-response","14","291576","0.0-11.0-2.1","5fee456f8929f014481adff9","bdp_rwlrn","Wed Mar 15 2023 22:21:53 GMT-0400 (Eastern Daylight Time)","601134","Trustworthy,Untrustworthy","","","","decisionFB","","null","","<div class='trialDiv'><img src='Fruit/lime.png'><br><font class='baseline'><strong>Limin' Large</strong><p>Choose number of points to bet.</font><div class='respPicDiv'><img src='img/responseButtonOffersNo0L5.png' class='respPic'></div></div>","null","1","Limin' Large","Fruit/lime.png","Won","0.8,0.35","8","0.8","8","2","",""
"html-keyboard-response","15","292577","0.0-11.0-3.1","5fee456f8929f014481adff9","bdp_rwlrn","Wed Mar 15 2023 22:21:53 GMT-0400 (Eastern Daylight Time)","601134","Trustworthy,Untrustworthy","","","","feedback","","null","","<div class='respPicDiv'><img src='img/responseButtonOffersNo0_wht.png' class='respPic'></div><div class='trialDiv'><img src='Fruit/lime.png'><br><font class='baseline'><strong>Limin' Large</strong><p><strong><font class='posOutcome'>You WON</font><p>You bet: 5</strong></font> &nbsp; &nbsp; &nbsp; &nbsp; &nbsp; &nbsp;<font class='posOutcome'>you receive: <strong>10</strong></font></div>","null","1","Limin' Large","Fruit/lime.png","Won","0.8,0.35","8","0.8","18","2","",""
"html-keyboard-response","16","293356","0.0-11.0-1.2","5fee456f8929f014481adff9","bdp_rwlrn","Wed Mar 15 2023 22:21:53 GMT-0400 (Eastern Daylight Time)","601134","Trustworthy,Untrustworthy","","","","decision","","777","","<div class='trialDiv'><img src='Fruit/mango.png'><br><font class='baseline'><strong>Mega Mangos</strong><p>Choose number of points to bet.</font><div class='respPicDiv'><img src='img/responseButtonOffersNo0L.png' class='respPic'></div></div>","5","1","Mega Mangos","Fruit/mango.png","Won","0.65,0.35","11","0.65","23","3","",""
"html-keyboard-response","17","293607","0.0-11.0-2.2","5fee456f8929f014481adff9","bdp_rwlrn","Wed Mar 15 2023 22:21:53 GMT-0400 (Eastern Daylight Time)","601134","Trustworthy,Untrustworthy","","","","decisionFB","","null","","<div class='trialDiv'><img src='Fruit/mango.png'><br><font class='baseline'><strong>Mega Mangos</strong><p>Choose number of points to bet.</font><div class='respPicDiv'><img src='img/responseButtonOffersNo0L5.png' class='respPic'></div></div>","null","1","Mega Mangos","Fruit/mango.png","Won","0.65,0.35","11","0.65","18","3","",""
"html-keyboard-response","18","294614","0.0-11.0-3.2","5fee456f8929f014481adff9","bdp_rwlrn","Wed Mar 15 2023 22:21:53 GMT-0400 (Eastern Daylight Time)","601134","Trustworthy,Untrustworthy","","","","feedback","","null","","<div class='respPicDiv'><img src='img/responseButtonOffersNo0_wht.png' class='respPic'></div><div class='trialDiv'><img src='Fruit/mango.png'><br><font class='baseline'><strong>Mega Mangos</strong><p><strong><font class='posOutcome'>You WON</font><p>You bet: 5</strong></font> &nbsp; &nbsp; &nbsp; &nbsp; &nbsp; &nbsp;<font class='posOutcome'>you receive: <strong>10</strong></font></div>","null","1","Mega Mangos","Fruit/mango.png","Won","0.65,0.35","11","0.65","28","3","",""
"html-keyboard-response","19","294837","0.0-11.0-1.3","5fee456f8929f014481adff9","bdp_rwlrn","Wed Mar 15 2023 22:21:53 GMT-0400 (Eastern Daylight Time)","601134","Trustworthy,Untrustworthy","","","","decision","","222","","<div class='trialDiv'><img src='Fruit/lime.png'><br><font class='baseline'><strong>Limin' Large</strong><p>Choose number of points to bet.</font><div class='respPicDiv'><img src='img/responseButtonOffersNo0L.png' class='respPic'></div></div>","5","2","Limin' Large","Fruit/lime.png","Won","0.8,0.35","8","0.8","33","4","",""
"html-keyboard-response","20","295091","0.0-11.0-2.3","5fee456f8929f014481adff9","bdp_rwlrn","Wed Mar 15 2023 22:21:53 GMT-0400 (Eastern Daylight Time)","601134","Trustworthy,Untrustworthy","","","","decisionFB","","null","","<div class='trialDiv'><img src='Fruit/lime.png'><br><font class='baseline'><strong>Limin' Large</strong><p>Choose number of points to bet.</font><div class='respPicDiv'><img src='img/responseButtonOffersNo0L5.png' class='respPic'></div></div>","null","2","Limin' Large","Fruit/lime.png","Won","0.8,0.35","8","0.8","28","4","",""
"html-keyboard-response","21","296094","0.0-11.0-3.3","5fee456f8929f014481adff9","bdp_rwlrn","Wed Mar 15 2023 22:21:53 GMT-0400 (Eastern Daylight Time)","601134","Trustworthy,Untrustworthy","","","","feedback","","null","","<div class='respPicDiv'><img src='img/responseButtonOffersNo0_wht.png' class='respPic'></div><div class='trialDiv'><img src='Fruit/lime.png'><br><font class='baseline'><strong>Limin' Large</strong><p><strong><font class='posOutcome'>You WON</font><p>You bet: 5</strong></font> &nbsp; &nbsp; &nbsp; &nbsp; &nbsp; &nbsp;<font class='posOutcome'>you receive: <strong>10</strong></font></div>","null","2","Limin' Large","Fruit/lime.png","Won","0.8,0.35","8","0.8","38","4","",""
"html-keyboard-response","22","296171","0.0-11.0-1.4","5fee456f8929f014481adff9","bdp_rwlrn","Wed Mar 15 2023 22:21:53 GMT-0400 (Eastern Daylight Time)","601134","Trustworthy,Untrustworthy","","","","decision","","76","","<div class='trialDiv'><img src='Fruit/mango.png'><br><font class='baseline'><strong>Mega Mangos</strong><p>Choose number of points to bet.</font><div class='respPicDiv'><img src='img/responseButtonOffersNo0L.png' class='respPic'></div></div>","5","2","Mega Mangos","Fruit/mango.png","Lost","0.65,0.35","11","0.65","43","5","",""
"html-keyboard-response","23","296423","0.0-11.0-2.4","5fee456f8929f014481adff9","bdp_rwlrn","Wed Mar 15 2023 22:21:53 GMT-0400 (Eastern Daylight Time)","601134","Trustworthy,Untrustworthy","","","","decisionFB","","null","","<div class='trialDiv'><img src='Fruit/mango.png'><br><font class='baseline'><strong>Mega Mangos</strong><p>Choose number of points to bet.</font><div class='respPicDiv'><img src='img/responseButtonOffersNo0L5.png' class='respPic'></div></div>","null","2","Mega Mangos","Fruit/mango.png","Lost","0.65,0.35","11","0.65","38","5","",""
"html-keyboard-response","24","297426","0.0-11.0-3.4","5fee456f8929f014481adff9","bdp_rwlrn","Wed Mar 15 2023 22:21:53 GMT-0400 (Eastern Daylight Time)","601134","Trustworthy,Untrustworthy","","","","feedback","","null","","<div class='respPicDiv'><img src='img/responseButtonOffersNo0_wht.png' class='respPic'></div><div class='trialDiv'><img src='Fruit/mango.png'><br><font class='baseline'><strong>Mega Mangos</strong><p><strong><font class='negOutcome'>You LOST</font><p>You bet: 5</strong></font> &nbsp; &nbsp; &nbsp; &nbsp; &nbsp; &nbsp;<font class='negOutcome'>You receive: <strong>0</strong></font></div>","null","2","Mega Mangos","Fruit/mango.png","Lost","0.65,0.35","11","0.65","38","5","",""
"html-keyboard-response","25","297697","0.0-11.0-1.5","5fee456f8929f014481adff9","bdp_rwlrn","Wed Mar 15 2023 22:21:53 GMT-0400 (Eastern Daylight Time)","601134","Trustworthy,Untrustworthy","","","","decision","","271","","<div class='trialDiv'><img src='Fruit/apple.png'><br><font class='baseline'><strong>Awesome Apples</strong><p>Choose number of points to bet.</font><div class='respPicDiv'><img src='img/responseButtonOffersNo0L.png' class='respPic'></div></div>","5","2","Awesome Apples","Fruit/apple.png","Lost","0.2,0.65","9","0.2","43","6","",""
"html-keyboard-response","26","297953","0.0-11.0-2.5","5fee456f8929f014481adff9","bdp_rwlrn","Wed Mar 15 2023 22:21:53 GMT-0400 (Eastern Daylight Time)","601134","Trustworthy,Untrustworthy","","","","decisionFB","","null","","<div class='trialDiv'><img src='Fruit/apple.png'><br><font class='baseline'><strong>Awesome Apples</strong><p>Choose number of points to bet.</font><div class='respPicDiv'><img src='img/responseButtonOffersNo0L5.png' class='respPic'></div></div>","null","2","Awesome Apples","Fruit/apple.png","Lost","0.2,0.65","9","0.2","38","6","",""
"html-keyboard-response","27","298955","0.0-11.0-3.5","5fee456f8929f014481adff9","bdp_rwlrn","Wed Mar 15 2023 22:21:53 GMT-0400 (Eastern Daylight Time)","601134","Trustworthy,Untrustworthy","","","","feedback","","null","","<div class='respPicDiv'><img src='img/responseButtonOffersNo0_wht.png' class='respPic'></div><div class='trialDiv'><img src='Fruit/apple.png'><br><font class='baseline'><strong>Awesome Apples</strong><p><strong><font class='negOutcome'>You LOST</font><p>You bet: 5</strong></font> &nbsp; &nbsp; &nbsp; &nbsp; &nbsp; &nbsp;<font class='negOutcome'>You receive: <strong>0</strong></font></div>","null","2","Awesome Apples","Fruit/apple.png","Lost","0.2,0.65","9","0.2","38","6","",""
"html-keyboard-response","28","299694","0.0-11.0-1.6","5fee456f8929f014481adff9","bdp_rwlrn","Wed Mar 15 2023 22:21:53 GMT-0400 (Eastern Daylight Time)","601134","Trustworthy,Untrustworthy","","","","decision","","738","","<div class='trialDiv'><img src='Fruit/mango.png'><br><font class='baseline'><strong>Mega Mangos</strong><p>Choose number of points to bet.</font><div class='respPicDiv'><img src='img/responseButtonOffersNo0L.png' class='respPic'></div></div>","5","3","Mega Mangos","Fruit/mango.png","Won","0.65,0.35","11","0.65","43","7","",""
"html-keyboard-response","29","299945","0.0-11.0-2.6","5fee456f8929f014481adff9","bdp_rwlrn","Wed Mar 15 2023 22:21:53 GMT-0400 (Eastern Daylight Time)","601134","Trustworthy,Untrustworthy","","","","decisionFB","","null","","<div class='trialDiv'><img src='Fruit/mango.png'><br><font class='baseline'><strong>Mega Mangos</strong><p>Choose number of points to bet.</font><div class='respPicDiv'><img src='img/responseButtonOffersNo0L5.png' class='respPic'></div></div>","null","3","Mega Mangos","Fruit/mango.png","Won","0.65,0.35","11","0.65","38","7","",""
"html-keyboard-response","30","300962","0.0-11.0-3.6","5fee456f8929f014481adff9","bdp_rwlrn","Wed Mar 15 2023 22:21:53 GMT-0400 (Eastern Daylight Time)","601134","Trustworthy,Untrustworthy","","","","feedback","","null","","<div class='respPicDiv'><img src='img/responseButtonOffersNo0_wht.png' class='respPic'></div><div class='trialDiv'><img src='Fruit/mango.png'><br><font class='baseline'><strong>Mega Mangos</strong><p><strong><font class='posOutcome'>You WON</font><p>You bet: 5</strong></font> &nbsp; &nbsp; &nbsp; &nbsp; &nbsp; &nbsp;<font class='posOutcome'>you receive: <strong>10</strong></font></div>","null","3","Mega Mangos","Fruit/mango.png","Won","0.65,0.35","11","0.65","48","7","",""
"html-keyboard-response","31","301027","0.0-11.0-1.7","5fee456f8929f014481adff9","bdp_rwlrn","Wed Mar 15 2023 22:21:53 GMT-0400 (Eastern Daylight Time)","601134","Trustworthy,Untrustworthy","","","","decision","","64","","<div class='trialDiv'><img src='Fruit/lime.png'><br><font class='baseline'><strong>Limin' Large</strong><p>Choose number of points to bet.</font><div class='respPicDiv'><img src='img/responseButtonOffersNo0L.png' class='respPic'></div></div>","5","3","Limin' Large","Fruit/lime.png","Won","0.8,0.35","8","0.8","53","8","",""
"html-keyboard-response","32","301283","0.0-11.0-2.7","5fee456f8929f014481adff9","bdp_rwlrn","Wed Mar 15 2023 22:21:53 GMT-0400 (Eastern Daylight Time)","601134","Trustworthy,Untrustworthy","","","","decisionFB","","null","","<div class='trialDiv'><img src='Fruit/lime.png'><br><font class='baseline'><strong>Limin' Large</strong><p>Choose number of points to bet.</font><div class='respPicDiv'><img src='img/responseButtonOffersNo0L5.png' class='respPic'></div></div>","null","3","Limin' Large","Fruit/lime.png","Won","0.8,0.35","8","0.8","48","8","",""
"html-keyboard-response","33","302287","0.0-11.0-3.7","5fee456f8929f014481adff9","bdp_rwlrn","Wed Mar 15 2023 22:21:53 GMT-0400 (Eastern Daylight Time)","601134","Trustworthy,Untrustworthy","","","","feedback","","null","","<div class='respPicDiv'><img src='img/responseButtonOffersNo0_wht.png' class='respPic'></div><div class='trialDiv'><img src='Fruit/lime.png'><br><font class='baseline'><strong>Limin' Large</strong><p><strong><font class='posOutcome'>You WON</font><p>You bet: 5</strong></font> &nbsp; &nbsp; &nbsp; &nbsp; &nbsp; &nbsp;<font class='posOutcome'>you receive: <strong>10</strong></font></div>","null","3","Limin' Large","Fruit/lime.png","Won","0.8,0.35","8","0.8","58","8","",""
"html-keyboard-response","34","302829","0.0-11.0-1.8","5fee456f8929f014481adff9","bdp_rwlrn","Wed Mar 15 2023 22:21:53 GMT-0400 (Eastern Daylight Time)","601134","Trustworthy,Untrustworthy","","","","decision","","541","","<div class='trialDiv'><img src='Fruit/apple.png'><br><font class='baseline'><strong>Awesome Apples</strong><p>Choose number of points to bet.</font><div class='respPicDiv'><img src='img/responseButtonOffersNo0L.png' class='respPic'></div></div>","5","3","Awesome Apples","Fruit/apple.png","Lost","0.2,0.65","9","0.2","63","9","",""
"html-keyboard-response","35","303089","0.0-11.0-2.8","5fee456f8929f014481adff9","bdp_rwlrn","Wed Mar 15 2023 22:21:53 GMT-0400 (Eastern Daylight Time)","601134","Trustworthy,Untrustworthy","","","","decisionFB","","null","","<div class='trialDiv'><img src='Fruit/apple.png'><br><font class='baseline'><strong>Awesome Apples</strong><p>Choose number of points to bet.</font><div class='respPicDiv'><img src='img/responseButtonOffersNo0L5.png' class='respPic'></div></div>","null","3","Awesome Apples","Fruit/apple.png","Lost","0.2,0.65","9","0.2","58","9","",""
"html-keyboard-response","36","304091","0.0-11.0-3.8","5fee456f8929f014481adff9","bdp_rwlrn","Wed Mar 15 2023 22:21:53 GMT-0400 (Eastern Daylight Time)","601134","Trustworthy,Untrustworthy","","","","feedback","","null","","<div class='respPicDiv'><img src='img/responseButtonOffersNo0_wht.png' class='respPic'></div><div class='trialDiv'><img src='Fruit/apple.png'><br><font class='baseline'><strong>Awesome Apples</strong><p><strong><font class='negOutcome'>You LOST</font><p>You bet: 5</strong></font> &nbsp; &nbsp; &nbsp; &nbsp; &nbsp; &nbsp;<font class='negOutcome'>You receive: <strong>0</strong></font></div>","null","3","Awesome Apples","Fruit/apple.png","Lost","0.2,0.65","9","0.2","58","9","",""
"html-keyboard-response","37","304519","0.0-11.0-1.9","5fee456f8929f014481adff9","bdp_rwlrn","Wed Mar 15 2023 22:21:53 GMT-0400 (Eastern Daylight Time)","601134","Trustworthy,Untrustworthy","","","","decision","","427","","<div class='trialDiv'><img src='Fruit/mango.png'><br><font class='baseline'><strong>Mega Mangos</strong><p>Choose number of points to bet.</font><div class='respPicDiv'><img src='img/responseButtonOffersNo0L.png' class='respPic'></div></div>","5","4","Mega Mangos","Fruit/mango.png","Won","0.65,0.35","11","0.65","63","10","",""
"html-keyboard-response","38","304774","0.0-11.0-2.9","5fee456f8929f014481adff9","bdp_rwlrn","Wed Mar 15 2023 22:21:53 GMT-0400 (Eastern Daylight Time)","601134","Trustworthy,Untrustworthy","","","","decisionFB","","null","","<div class='trialDiv'><img src='Fruit/mango.png'><br><font class='baseline'><strong>Mega Mangos</strong><p>Choose number of points to bet.</font><div class='respPicDiv'><img src='img/responseButtonOffersNo0L5.png' class='respPic'></div></div>","null","4","Mega Mangos","Fruit/mango.png","Won","0.65,0.35","11","0.65","58","10","",""
"html-keyboard-response","39","305779","0.0-11.0-3.9","5fee456f8929f014481adff9","bdp_rwlrn","Wed Mar 15 2023 22:21:53 GMT-0400 (Eastern Daylight Time)","601134","Trustworthy,Untrustworthy","","","","feedback","","null","","<div class='respPicDiv'><img src='img/responseButtonOffersNo0_wht.png' class='respPic'></div><div class='trialDiv'><img src='Fruit/mango.png'><br><font class='baseline'><strong>Mega Mangos</strong><p><strong><font class='posOutcome'>You WON</font><p>You bet: 5</strong></font> &nbsp; &nbsp; &nbsp; &nbsp; &nbsp; &nbsp;<font class='posOutcome'>you receive: <strong>10</strong></font></div>","null","4","Mega Mangos","Fruit/mango.png","Won","0.65,0.35","11","0.65","68","10","",""
"html-keyboard-response","40","305843","0.0-11.0-1.10","5fee456f8929f014481adff9","bdp_rwlrn","Wed Mar 15 2023 22:21:53 GMT-0400 (Eastern Daylight Time)","601134","Trustworthy,Untrustworthy","","","","decision","","63","","<div class='trialDiv'><img src='Fruit/lime.png'><br><font class='baseline'><strong>Limin' Large</strong><p>Choose number of points to bet.</font><div class='respPicDiv'><img src='img/responseButtonOffersNo0L.png' class='respPic'></div></div>","5","4","Limin' Large","Fruit/lime.png","Lost","0.8,0.35","8","0.8","73","11","",""
"html-keyboard-response","41","306101","0.0-11.0-2.10","5fee456f8929f014481adff9","bdp_rwlrn","Wed Mar 15 2023 22:21:53 GMT-0400 (Eastern Daylight Time)","601134","Trustworthy,Untrustworthy","","","","decisionFB","","null","","<div class='trialDiv'><img src='Fruit/lime.png'><br><font class='baseline'><strong>Limin' Large</strong><p>Choose number of points to bet.</font><div class='respPicDiv'><img src='img/responseButtonOffersNo0L5.png' class='respPic'></div></div>","null","4","Limin' Large","Fruit/lime.png","Lost","0.8,0.35","8","0.8","68","11","",""
"html-keyboard-response","42","307103","0.0-11.0-3.10","5fee456f8929f014481adff9","bdp_rwlrn","Wed Mar 15 2023 22:21:53 GMT-0400 (Eastern Daylight Time)","601134","Trustworthy,Untrustworthy","","","","feedback","","null","","<div class='respPicDiv'><img src='img/responseButtonOffersNo0_wht.png' class='respPic'></div><div class='trialDiv'><img src='Fruit/lime.png'><br><font class='baseline'><strong>Limin' Large</strong><p><strong><font class='negOutcome'>You LOST</font><p>You bet: 5</strong></font> &nbsp; &nbsp; &nbsp; &nbsp; &nbsp; &nbsp;<font class='negOutcome'>You receive: <strong>0</strong></font></div>","null","4","Limin' Large","Fruit/lime.png","Lost","0.8,0.35","8","0.8","68","11","",""
"html-keyboard-response","43","307218","0.0-11.0-1.11","5fee456f8929f014481adff9","bdp_rwlrn","Wed Mar 15 2023 22:21:53 GMT-0400 (Eastern Daylight Time)","601134","Trustworthy,Untrustworthy","","","","decision","","115","","<div class='trialDiv'><img src='Fruit/apple.png'><br><font class='baseline'><strong>Awesome Apples</strong><p>Choose number of points to bet.</font><div class='respPicDiv'><img src='img/responseButtonOffersNo0L.png' class='respPic'></div></div>","5","4","Awesome Apples","Fruit/apple.png","Lost","0.2,0.65","9","0.2","73","12","",""
"html-keyboard-response","44","307478","0.0-11.0-2.11","5fee456f8929f014481adff9","bdp_rwlrn","Wed Mar 15 2023 22:21:53 GMT-0400 (Eastern Daylight Time)","601134","Trustworthy,Untrustworthy","","","","decisionFB","","null","","<div class='trialDiv'><img src='Fruit/apple.png'><br><font class='baseline'><strong>Awesome Apples</strong><p>Choose number of points to bet.</font><div class='respPicDiv'><img src='img/responseButtonOffersNo0L5.png' class='respPic'></div></div>","null","4","Awesome Apples","Fruit/apple.png","Lost","0.2,0.65","9","0.2","68","12","",""
"html-keyboard-response","45","308492","0.0-11.0-3.11","5fee456f8929f014481adff9","bdp_rwlrn","Wed Mar 15 2023 22:21:53 GMT-0400 (Eastern Daylight Time)","601134","Trustworthy,Untrustworthy","","","","feedback","","null","","<div class='respPicDiv'><img src='img/responseButtonOffersNo0_wht.png' class='respPic'></div><div class='trialDiv'><img src='Fruit/apple.png'><br><font class='baseline'><strong>Awesome Apples</strong><p><strong><font class='negOutcome'>You LOST</font><p>You bet: 5</strong></font> &nbsp; &nbsp; &nbsp; &nbsp; &nbsp; &nbsp;<font class='negOutcome'>You receive: <strong>0</strong></font></div>","null","4","Awesome Apples","Fruit/apple.png","Lost","0.2,0.65","9","0.2","68","12","",""
"html-keyboard-response","46","308557","0.0-11.0-1.12","5fee456f8929f014481adff9","bdp_rwlrn","Wed Mar 15 2023 22:21:53 GMT-0400 (Eastern Daylight Time)","601134","Trustworthy,Untrustworthy","","","","decision","","64","","<div class='trialDiv'><img src='Fruit/mango.png'><br><font class='baseline'><strong>Mega Mangos</strong><p>Choose number of points to bet.</font><div class='respPicDiv'><img src='img/responseButtonOffersNo0L.png' class='respPic'></div></div>","5","5","Mega Mangos","Fruit/mango.png","Won","0.65,0.35","11","0.65","73","13","",""
"html-keyboard-response","47","308814","0.0-11.0-2.12","5fee456f8929f014481adff9","bdp_rwlrn","Wed Mar 15 2023 22:21:53 GMT-0400 (Eastern Daylight Time)","601134","Trustworthy,Untrustworthy","","","","decisionFB","","null","","<div class='trialDiv'><img src='Fruit/mango.png'><br><font class='baseline'><strong>Mega Mangos</strong><p>Choose number of points to bet.</font><div class='respPicDiv'><img src='img/responseButtonOffersNo0L5.png' class='respPic'></div></div>","null","5","Mega Mangos","Fruit/mango.png","Won","0.65,0.35","11","0.65","68","13","",""
"html-keyboard-response","48","309831","0.0-11.0-3.12","5fee456f8929f014481adff9","bdp_rwlrn","Wed Mar 15 2023 22:21:53 GMT-0400 (Eastern Daylight Time)","601134","Trustworthy,Untrustworthy","","","","feedback","","null","","<div class='respPicDiv'><img src='img/responseButtonOffersNo0_wht.png' class='respPic'></div><div class='trialDiv'><img src='Fruit/mango.png'><br><font class='baseline'><strong>Mega Mangos</strong><p><strong><font class='posOutcome'>You WON</font><p>You bet: 5</strong></font> &nbsp; &nbsp; &nbsp; &nbsp; &nbsp; &nbsp;<font class='posOutcome'>you receive: <strong>10</strong></font></div>","null","5","Mega Mangos","Fruit/mango.png","Won","0.65,0.35","11","0.65","78","13","",""
"html-keyboard-response","49","309867","0.0-11.0-1.13","5fee456f8929f014481adff9","bdp_rwlrn","Wed Mar 15 2023 22:21:53 GMT-0400 (Eastern Daylight Time)","601134","Trustworthy,Untrustworthy","","","","decision","","35","","<div class='trialDiv'><img src='Fruit/lime.png'><br><font class='baseline'><strong>Limin' Large</strong><p>Choose number of points to bet.</font><div class='respPicDiv'><img src='img/responseButtonOffersNo0L.png' class='respPic'></div></div>","5","5","Limin' Large","Fruit/lime.png","Won","0.8,0.35","8","0.8","83","14","",""
"html-keyboard-response","50","310123","0.0-11.0-2.13","5fee456f8929f014481adff9","bdp_rwlrn","Wed Mar 15 2023 22:21:53 GMT-0400 (Eastern Daylight Time)","601134","Trustworthy,Untrustworthy","","","","decisionFB","","null","","<div class='trialDiv'><img src='Fruit/lime.png'><br><font class='baseline'><strong>Limin' Large</strong><p>Choose number of points to bet.</font><div class='respPicDiv'><img src='img/responseButtonOffersNo0L5.png' class='respPic'></div></div>","null","5","Limin' Large","Fruit/lime.png","Won","0.8,0.35","8","0.8","78","14","",""
"html-keyboard-response","51","311125","0.0-11.0-3.13","5fee456f8929f014481adff9","bdp_rwlrn","Wed Mar 15 2023 22:21:53 GMT-0400 (Eastern Daylight Time)","601134","Trustworthy,Untrustworthy","","","","feedback","","null","","<div class='respPicDiv'><img src='img/responseButtonOffersNo0_wht.png' class='respPic'></div><div class='trialDiv'><img src='Fruit/lime.png'><br><font class='baseline'><strong>Limin' Large</strong><p><strong><font class='posOutcome'>You WON</font><p>You bet: 5</strong></font> &nbsp; &nbsp; &nbsp; &nbsp; &nbsp; &nbsp;<font class='posOutcome'>you receive: <strong>10</strong></font></div>","null","5","Limin' Large","Fruit/lime.png","Won","0.8,0.35","8","0.8","88","14","",""
"html-keyboard-response","52","311319","0.0-11.0-1.14","5fee456f8929f014481adff9","bdp_rwlrn","Wed Mar 15 2023 22:21:53 GMT-0400 (Eastern Daylight Time)","601134","Trustworthy,Untrustworthy","","","","decision","","193","","<div class='trialDiv'><img src='Fruit/apple.png'><br><font class='baseline'><strong>Awesome Apples</strong><p>Choose number of points to bet.</font><div class='respPicDiv'><img src='img/responseButtonOffersNo0L.png' class='respPic'></div></div>","5","5","Awesome Apples","Fruit/apple.png","Lost","0.2,0.65","9","0.2","93","15","",""
"html-keyboard-response","53","311581","0.0-11.0-2.14","5fee456f8929f014481adff9","bdp_rwlrn","Wed Mar 15 2023 22:21:53 GMT-0400 (Eastern Daylight Time)","601134","Trustworthy,Untrustworthy","","","","decisionFB","","null","","<div class='trialDiv'><img src='Fruit/apple.png'><br><font class='baseline'><strong>Awesome Apples</strong><p>Choose number of points to bet.</font><div class='respPicDiv'><img src='img/responseButtonOffersNo0L5.png' class='respPic'></div></div>","null","5","Awesome Apples","Fruit/apple.png","Lost","0.2,0.65","9","0.2","88","15","",""
"html-keyboard-response","54","312583","0.0-11.0-3.14","5fee456f8929f014481adff9","bdp_rwlrn","Wed Mar 15 2023 22:21:53 GMT-0400 (Eastern Daylight Time)","601134","Trustworthy,Untrustworthy","","","","feedback","","null","","<div class='respPicDiv'><img src='img/responseButtonOffersNo0_wht.png' class='respPic'></div><div class='trialDiv'><img src='Fruit/apple.png'><br><font class='baseline'><strong>Awesome Apples</strong><p><strong><font class='negOutcome'>You LOST</font><p>You bet: 5</strong></font> &nbsp; &nbsp; &nbsp; &nbsp; &nbsp; &nbsp;<font class='negOutcome'>You receive: <strong>0</strong></font></div>","null","5","Awesome Apples","Fruit/apple.png","Lost","0.2,0.65","9","0.2","88","15","",""
"html-keyboard-response","55","312689","0.0-11.0-1.15","5fee456f8929f014481adff9","bdp_rwlrn","Wed Mar 15 2023 22:21:53 GMT-0400 (Eastern Daylight Time)","601134","Trustworthy,Untrustworthy","","","","decision","","105","","<div class='trialDiv'><img src='Fruit/lime.png'><br><font class='baseline'><strong>Limin' Large</strong><p>Choose number of points to bet.</font><div class='respPicDiv'><img src='img/responseButtonOffersNo0L.png' class='respPic'></div></div>","5","6","Limin' Large","Fruit/lime.png","Won","0.8,0.35","8","0.8","93","16","",""
"html-keyboard-response","56","312946","0.0-11.0-2.15","5fee456f8929f014481adff9","bdp_rwlrn","Wed Mar 15 2023 22:21:53 GMT-0400 (Eastern Daylight Time)","601134","Trustworthy,Untrustworthy","","","","decisionFB","","null","","<div class='trialDiv'><img src='Fruit/lime.png'><br><font class='baseline'><strong>Limin' Large</strong><p>Choose number of points to bet.</font><div class='respPicDiv'><img src='img/responseButtonOffersNo0L5.png' class='respPic'></div></div>","null","6","Limin' Large","Fruit/lime.png","Won","0.8,0.35","8","0.8","88","16","",""
"html-keyboard-response","57","313949","0.0-11.0-3.15","5fee456f8929f014481adff9","bdp_rwlrn","Wed Mar 15 2023 22:21:53 GMT-0400 (Eastern Daylight Time)","601134","Trustworthy,Untrustworthy","","","","feedback","","null","","<div class='respPicDiv'><img src='img/responseButtonOffersNo0_wht.png' class='respPic'></div><div class='trialDiv'><img src='Fruit/lime.png'><br><font class='baseline'><strong>Limin' Large</strong><p><strong><font class='posOutcome'>You WON</font><p>You bet: 5</strong></font> &nbsp; &nbsp; &nbsp; &nbsp; &nbsp; &nbsp;<font class='posOutcome'>you receive: <strong>10</strong></font></div>","null","6","Limin' Large","Fruit/lime.png","Won","0.8,0.35","8","0.8","98","16","",""
"html-keyboard-response","58","314042","0.0-11.0-1.16","5fee456f8929f014481adff9","bdp_rwlrn","Wed Mar 15 2023 22:21:53 GMT-0400 (Eastern Daylight Time)","601134","Trustworthy,Untrustworthy","","","","decision","","92","","<div class='trialDiv'><img src='Fruit/mango.png'><br><font class='baseline'><strong>Mega Mangos</strong><p>Choose number of points to bet.</font><div class='respPicDiv'><img src='img/responseButtonOffersNo0L.png' class='respPic'></div></div>","5","6","Mega Mangos","Fruit/mango.png","Won","0.65,0.35","11","0.65","103","17","",""
"html-keyboard-response","59","314299","0.0-11.0-2.16","5fee456f8929f014481adff9","bdp_rwlrn","Wed Mar 15 2023 22:21:53 GMT-0400 (Eastern Daylight Time)","601134","Trustworthy,Untrustworthy","","","","decisionFB","","null","","<div class='trialDiv'><img src='Fruit/mango.png'><br><font class='baseline'><strong>Mega Mangos</strong><p>Choose number of points to bet.</font><div class='respPicDiv'><img src='img/responseButtonOffersNo0L5.png' class='respPic'></div></div>","null","6","Mega Mangos","Fruit/mango.png","Won","0.65,0.35","11","0.65","98","17","",""
"html-keyboard-response","60","315307","0.0-11.0-3.16","5fee456f8929f014481adff9","bdp_rwlrn","Wed Mar 15 2023 22:21:53 GMT-0400 (Eastern Daylight Time)","601134","Trustworthy,Untrustworthy","","","","feedback","","null","","<div class='respPicDiv'><img src='img/responseButtonOffersNo0_wht.png' class='respPic'></div><div class='trialDiv'><img src='Fruit/mango.png'><br><font class='baseline'><strong>Mega Mangos</strong><p><strong><font class='posOutcome'>You WON</font><p>You bet: 5</strong></font> &nbsp; &nbsp; &nbsp; &nbsp; &nbsp; &nbsp;<font class='posOutcome'>you receive: <strong>10</strong></font></div>","null","6","Mega Mangos","Fruit/mango.png","Won","0.65,0.35","11","0.65","108","17","",""
"html-keyboard-response","61","315715","0.0-11.0-1.17","5fee456f8929f014481adff9","bdp_rwlrn","Wed Mar 15 2023 22:21:53 GMT-0400 (Eastern Daylight Time)","601134","Trustworthy,Untrustworthy","","","","decision","","407","","<div class='trialDiv'><img src='Fruit/apple.png'><br><font class='baseline'><strong>Awesome Apples</strong><p>Choose number of points to bet.</font><div class='respPicDiv'><img src='img/responseButtonOffersNo0L.png' class='respPic'></div></div>","5","6","Awesome Apples","Fruit/apple.png","Lost","0.2,0.65","9","0.2","113","18","",""
"html-keyboard-response","62","315979","0.0-11.0-2.17","5fee456f8929f014481adff9","bdp_rwlrn","Wed Mar 15 2023 22:21:53 GMT-0400 (Eastern Daylight Time)","601134","Trustworthy,Untrustworthy","","","","decisionFB","","null","","<div class='trialDiv'><img src='Fruit/apple.png'><br><font class='baseline'><strong>Awesome Apples</strong><p>Choose number of points to bet.</font><div class='respPicDiv'><img src='img/responseButtonOffersNo0L5.png' class='respPic'></div></div>","null","6","Awesome Apples","Fruit/apple.png","Lost","0.2,0.65","9","0.2","108","18","",""
"html-keyboard-response","63","316982","0.0-11.0-3.17","5fee456f8929f014481adff9","bdp_rwlrn","Wed Mar 15 2023 22:21:53 GMT-0400 (Eastern Daylight Time)","601134","Trustworthy,Untrustworthy","","","","feedback","","null","","<div class='respPicDiv'><img src='img/responseButtonOffersNo0_wht.png' class='respPic'></div><div class='trialDiv'><img src='Fruit/apple.png'><br><font class='baseline'><strong>Awesome Apples</strong><p><strong><font class='negOutcome'>You LOST</font><p>You bet: 5</strong></font> &nbsp; &nbsp; &nbsp; &nbsp; &nbsp; &nbsp;<font class='negOutcome'>You receive: <strong>0</strong></font></div>","null","6","Awesome Apples","Fruit/apple.png","Lost","0.2,0.65","9","0.2","108","18","",""
"html-keyboard-response","64","317082","0.0-11.0-1.18","5fee456f8929f014481adff9","bdp_rwlrn","Wed Mar 15 2023 22:21:53 GMT-0400 (Eastern Daylight Time)","601134","Trustworthy,Untrustworthy","","","","decision","","100","","<div class='trialDiv'><img src='Fruit/mango.png'><br><font class='baseline'><strong>Mega Mangos</strong><p>Choose number of points to bet.</font><div class='respPicDiv'><img src='img/responseButtonOffersNo0L.png' class='respPic'></div></div>","5","7","Mega Mangos","Fruit/mango.png","Won","0.65,0.35","11","0.65","113","19","",""
"html-keyboard-response","65","317345","0.0-11.0-2.18","5fee456f8929f014481adff9","bdp_rwlrn","Wed Mar 15 2023 22:21:53 GMT-0400 (Eastern Daylight Time)","601134","Trustworthy,Untrustworthy","","","","decisionFB","","null","","<div class='trialDiv'><img src='Fruit/mango.png'><br><font class='baseline'><strong>Mega Mangos</strong><p>Choose number of points to bet.</font><div class='respPicDiv'><img src='img/responseButtonOffersNo0L5.png' class='respPic'></div></div>","null","7","Mega Mangos","Fruit/mango.png","Won","0.65,0.35","11","0.65","108","19","",""
"html-keyboard-response","66","318356","0.0-11.0-3.18","5fee456f8929f014481adff9","bdp_rwlrn","Wed Mar 15 2023 22:21:53 GMT-0400 (Eastern Daylight Time)","601134","Trustworthy,Untrustworthy","","","","feedback","","null","","<div class='respPicDiv'><img src='img/responseButtonOffersNo0_wht.png' class='respPic'></div><div class='trialDiv'><img src='Fruit/mango.png'><br><font class='baseline'><strong>Mega Mangos</strong><p><strong><font class='posOutcome'>You WON</font><p>You bet: 5</strong></font> &nbsp; &nbsp; &nbsp; &nbsp; &nbsp; &nbsp;<font class='posOutcome'>you receive: <strong>10</strong></font></div>","null","7","Mega Mangos","Fruit/mango.png","Won","0.65,0.35","11","0.65","118","19","",""
"html-keyboard-response","67","318385","0.0-11.0-1.19","5fee456f8929f014481adff9","bdp_rwlrn","Wed Mar 15 2023 22:21:53 GMT-0400 (Eastern Daylight Time)","601134","Trustworthy,Untrustworthy","","","","decision","","29","","<div class='trialDiv'><img src='Fruit/apple.png'><br><font class='baseline'><strong>Awesome Apples</strong><p>Choose number of points to bet.</font><div class='respPicDiv'><img src='img/responseButtonOffersNo0L.png' class='respPic'></div></div>","5","7","Awesome Apples","Fruit/apple.png","Lost","0.2,0.65","9","0.2","123","20","",""
"html-keyboard-response","68","318637","0.0-11.0-2.19","5fee456f8929f014481adff9","bdp_rwlrn","Wed Mar 15 2023 22:21:53 GMT-0400 (Eastern Daylight Time)","601134","Trustworthy,Untrustworthy","","","","decisionFB","","null","","<div class='trialDiv'><img src='Fruit/apple.png'><br><font class='baseline'><strong>Awesome Apples</strong><p>Choose number of points to bet.</font><div class='respPicDiv'><img src='img/responseButtonOffersNo0L5.png' class='respPic'></div></div>","null","7","Awesome Apples","Fruit/apple.png","Lost","0.2,0.65","9","0.2","118","20","",""
"html-keyboard-response","69","319649","0.0-11.0-3.19","5fee456f8929f014481adff9","bdp_rwlrn","Wed Mar 15 2023 22:21:53 GMT-0400 (Eastern Daylight Time)","601134","Trustworthy,Untrustworthy","","","","feedback","","null","","<div class='respPicDiv'><img src='img/responseButtonOffersNo0_wht.png' class='respPic'></div><div class='trialDiv'><img src='Fruit/apple.png'><br><font class='baseline'><strong>Awesome Apples</strong><p><strong><font class='negOutcome'>You LOST</font><p>You bet: 5</strong></font> &nbsp; &nbsp; &nbsp; &nbsp; &nbsp; &nbsp;<font class='negOutcome'>You receive: <strong>0</strong></font></div>","null","7","Awesome Apples","Fruit/apple.png","Lost","0.2,0.65","9","0.2","118","20","",""
"html-keyboard-response","70","319852","0.0-11.0-1.20","5fee456f8929f014481adff9","bdp_rwlrn","Wed Mar 15 2023 22:21:53 GMT-0400 (Eastern Daylight Time)","601134","Trustworthy,Untrustworthy","","","","decision","","203","","<div class='trialDiv'><img src='Fruit/lime.png'><br><font class='baseline'><strong>Limin' Large</strong><p>Choose number of points to bet.</font><div class='respPicDiv'><img src='img/responseButtonOffersNo0L.png' class='respPic'></div></div>","5","7","Limin' Large","Fruit/lime.png","Won","0.8,0.35","8","0.8","123","21","",""
"html-keyboard-response","71","320104","0.0-11.0-2.20","5fee456f8929f014481adff9","bdp_rwlrn","Wed Mar 15 2023 22:21:53 GMT-0400 (Eastern Daylight Time)","601134","Trustworthy,Untrustworthy","","","","decisionFB","","null","","<div class='trialDiv'><img src='Fruit/lime.png'><br><font class='baseline'><strong>Limin' Large</strong><p>Choose number of points to bet.</font><div class='respPicDiv'><img src='img/responseButtonOffersNo0L5.png' class='respPic'></div></div>","null","7","Limin' Large","Fruit/lime.png","Won","0.8,0.35","8","0.8","118","21","",""
"html-keyboard-response","72","321107","0.0-11.0-3.20","5fee456f8929f014481adff9","bdp_rwlrn","Wed Mar 15 2023 22:21:53 GMT-0400 (Eastern Daylight Time)","601134","Trustworthy,Untrustworthy","","","","feedback","","null","","<div class='respPicDiv'><img src='img/responseButtonOffersNo0_wht.png' class='respPic'></div><div class='trialDiv'><img src='Fruit/lime.png'><br><font class='baseline'><strong>Limin' Large</strong><p><strong><font class='posOutcome'>You WON</font><p>You bet: 5</strong></font> &nbsp; &nbsp; &nbsp; &nbsp; &nbsp; &nbsp;<font class='posOutcome'>you receive: <strong>10</strong></font></div>","null","7","Limin' Large","Fruit/lime.png","Won","0.8,0.35","8","0.8","128","21","",""
"html-keyboard-response","73","321118","0.0-11.0-1.21","5fee456f8929f014481adff9","bdp_rwlrn","Wed Mar 15 2023 22:21:53 GMT-0400 (Eastern Daylight Time)","601134","Trustworthy,Untrustworthy","","","","decision","","10","","<div class='trialDiv'><img src='Fruit/apple.png'><br><font class='baseline'><strong>Awesome Apples</strong><p>Choose number of points to bet.</font><div class='respPicDiv'><img src='img/responseButtonOffersNo0L.png' class='respPic'></div></div>","5","8","Awesome Apples","Fruit/apple.png","Lost","0.2,0.65","9","0.2","133","22","",""
"html-keyboard-response","74","321378","0.0-11.0-2.21","5fee456f8929f014481adff9","bdp_rwlrn","Wed Mar 15 2023 22:21:53 GMT-0400 (Eastern Daylight Time)","601134","Trustworthy,Untrustworthy","","","","decisionFB","","null","","<div class='trialDiv'><img src='Fruit/apple.png'><br><font class='baseline'><strong>Awesome Apples</strong><p>Choose number of points to bet.</font><div class='respPicDiv'><img src='img/responseButtonOffersNo0L5.png' class='respPic'></div></div>","null","8","Awesome Apples","Fruit/apple.png","Lost","0.2,0.65","9","0.2","128","22","",""
"html-keyboard-response","75","322381","0.0-11.0-3.21","5fee456f8929f014481adff9","bdp_rwlrn","Wed Mar 15 2023 22:21:53 GMT-0400 (Eastern Daylight Time)","601134","Trustworthy,Untrustworthy","","","","feedback","","null","","<div class='respPicDiv'><img src='img/responseButtonOffersNo0_wht.png' class='respPic'></div><div class='trialDiv'><img src='Fruit/apple.png'><br><font class='baseline'><strong>Awesome Apples</strong><p><strong><font class='negOutcome'>You LOST</font><p>You bet: 5</strong></font> &nbsp; &nbsp; &nbsp; &nbsp; &nbsp; &nbsp;<font class='negOutcome'>You receive: <strong>0</strong></font></div>","null","8","Awesome Apples","Fruit/apple.png","Lost","0.2,0.65","9","0.2","128","22","",""
"html-keyboard-response","76","322424","0.0-11.0-1.22","5fee456f8929f014481adff9","bdp_rwlrn","Wed Mar 15 2023 22:21:53 GMT-0400 (Eastern Daylight Time)","601134","Trustworthy,Untrustworthy","","","","decision","","42","","<div class='trialDiv'><img src='Fruit/lime.png'><br><font class='baseline'><strong>Limin' Large</strong><p>Choose number of points to bet.</font><div class='respPicDiv'><img src='img/responseButtonOffersNo0L.png' class='respPic'></div></div>","5","8","Limin' Large","Fruit/lime.png","Lost","0.8,0.35","8","0.8","133","23","",""
"html-keyboard-response","77","322678","0.0-11.0-2.22","5fee456f8929f014481adff9","bdp_rwlrn","Wed Mar 15 2023 22:21:53 GMT-0400 (Eastern Daylight Time)","601134","Trustworthy,Untrustworthy","","","","decisionFB","","null","","<div class='trialDiv'><img src='Fruit/lime.png'><br><font class='baseline'><strong>Limin' Large</strong><p>Choose number of points to bet.</font><div class='respPicDiv'><img src='img/responseButtonOffersNo0L5.png' class='respPic'></div></div>","null","8","Limin' Large","Fruit/lime.png","Lost","0.8,0.35","8","0.8","128","23","",""
"html-keyboard-response","78","323680","0.0-11.0-3.22","5fee456f8929f014481adff9","bdp_rwlrn","Wed Mar 15 2023 22:21:53 GMT-0400 (Eastern Daylight Time)","601134","Trustworthy,Untrustworthy","","","","feedback","","null","","<div class='respPicDiv'><img src='img/responseButtonOffersNo0_wht.png' class='respPic'></div><div class='trialDiv'><img src='Fruit/lime.png'><br><font class='baseline'><strong>Limin' Large</strong><p><strong><font class='negOutcome'>You LOST</font><p>You bet: 5</strong></font> &nbsp; &nbsp; &nbsp; &nbsp; &nbsp; &nbsp;<font class='negOutcome'>You receive: <strong>0</strong></font></div>","null","8","Limin' Large","Fruit/lime.png","Lost","0.8,0.35","8","0.8","128","23","",""
"html-keyboard-response","79","323688","0.0-11.0-1.23","5fee456f8929f014481adff9","bdp_rwlrn","Wed Mar 15 2023 22:21:53 GMT-0400 (Eastern Daylight Time)","601134","Trustworthy,Untrustworthy","","","","decision","","7","","<div class='trialDiv'><img src='Fruit/mango.png'><br><font class='baseline'><strong>Mega Mangos</strong><p>Choose number of points to bet.</font><div class='respPicDiv'><img src='img/responseButtonOffersNo0L.png' class='respPic'></div></div>","5","8","Mega Mangos","Fruit/mango.png","Won","0.65,0.35","11","0.65","133","24","",""
"html-keyboard-response","80","323951","0.0-11.0-2.23","5fee456f8929f014481adff9","bdp_rwlrn","Wed Mar 15 2023 22:21:53 GMT-0400 (Eastern Daylight Time)","601134","Trustworthy,Untrustworthy","","","","decisionFB","","null","","<div class='trialDiv'><img src='Fruit/mango.png'><br><font class='baseline'><strong>Mega Mangos</strong><p>Choose number of points to bet.</font><div class='respPicDiv'><img src='img/responseButtonOffersNo0L5.png' class='respPic'></div></div>","null","8","Mega Mangos","Fruit/mango.png","Won","0.65,0.35","11","0.65","128","24","",""
"html-keyboard-response","81","324953","0.0-11.0-3.23","5fee456f8929f014481adff9","bdp_rwlrn","Wed Mar 15 2023 22:21:53 GMT-0400 (Eastern Daylight Time)","601134","Trustworthy,Untrustworthy","","","","feedback","","null","","<div class='respPicDiv'><img src='img/responseButtonOffersNo0_wht.png' class='respPic'></div><div class='trialDiv'><img src='Fruit/mango.png'><br><font class='baseline'><strong>Mega Mangos</strong><p><strong><font class='posOutcome'>You WON</font><p>You bet: 5</strong></font> &nbsp; &nbsp; &nbsp; &nbsp; &nbsp; &nbsp;<font class='posOutcome'>you receive: <strong>10</strong></font></div>","null","8","Mega Mangos","Fruit/mango.png","Won","0.65,0.35","11","0.65","138","24","",""
"html-keyboard-response","82","325038","0.0-11.0-1.24","5fee456f8929f014481adff9","bdp_rwlrn","Wed Mar 15 2023 22:21:53 GMT-0400 (Eastern Daylight Time)","601134","Trustworthy,Untrustworthy","","","","decision","","84","","<div class='trialDiv'><img src='Fruit/apple.png'><br><font class='baseline'><strong>Awesome Apples</strong><p>Choose number of points to bet.</font><div class='respPicDiv'><img src='img/responseButtonOffersNo0L.png' class='respPic'></div></div>","5","9","Awesome Apples","Fruit/apple.png","Won","0.2,0.65","9","0.2","143","25","",""
"html-keyboard-response","83","325301","0.0-11.0-2.24","5fee456f8929f014481adff9","bdp_rwlrn","Wed Mar 15 2023 22:21:53 GMT-0400 (Eastern Daylight Time)","601134","Trustworthy,Untrustworthy","","","","decisionFB","","null","","<div class='trialDiv'><img src='Fruit/apple.png'><br><font class='baseline'><strong>Awesome Apples</strong><p>Choose number of points to bet.</font><div class='respPicDiv'><img src='img/responseButtonOffersNo0L5.png' class='respPic'></div></div>","null","9","Awesome Apples","Fruit/apple.png","Won","0.2,0.65","9","0.2","138","25","",""
"html-keyboard-response","84","326307","0.0-11.0-3.24","5fee456f8929f014481adff9","bdp_rwlrn","Wed Mar 15 2023 22:21:53 GMT-0400 (Eastern Daylight Time)","601134","Trustworthy,Untrustworthy","","","","feedback","","null","","<div class='respPicDiv'><img src='img/responseButtonOffersNo0_wht.png' class='respPic'></div><div class='trialDiv'><img src='Fruit/apple.png'><br><font class='baseline'><strong>Awesome Apples</strong><p><strong><font class='posOutcome'>You WON</font><p>You bet: 5</strong></font> &nbsp; &nbsp; &nbsp; &nbsp; &nbsp; &nbsp;<font class='posOutcome'>you receive: <strong>10</strong></font></div>","null","9","Awesome Apples","Fruit/apple.png","Won","0.2,0.65","9","0.2","148","25","",""
"html-keyboard-response","85","326525","0.0-11.0-1.25","5fee456f8929f014481adff9","bdp_rwlrn","Wed Mar 15 2023 22:21:53 GMT-0400 (Eastern Daylight Time)","601134","Trustworthy,Untrustworthy","","","","decision","","217","","<div class='trialDiv'><img src='Fruit/lime.png'><br><font class='baseline'><strong>Limin' Large</strong><p>Choose number of points to bet.</font><div class='respPicDiv'><img src='img/responseButtonOffersNo0L.png' class='respPic'></div></div>","5","9","Limin' Large","Fruit/lime.png","Lost","0.8,0.35","8","0.8","153","26","",""
"html-keyboard-response","86","326790","0.0-11.0-2.25","5fee456f8929f014481adff9","bdp_rwlrn","Wed Mar 15 2023 22:21:53 GMT-0400 (Eastern Daylight Time)","601134","Trustworthy,Untrustworthy","","","","decisionFB","","null","","<div class='trialDiv'><img src='Fruit/lime.png'><br><font class='baseline'><strong>Limin' Large</strong><p>Choose number of points to bet.</font><div class='respPicDiv'><img src='img/responseButtonOffersNo0L5.png' class='respPic'></div></div>","null","9","Limin' Large","Fruit/lime.png","Lost","0.8,0.35","8","0.8","148","26","",""
"html-keyboard-response","87","327807","0.0-11.0-3.25","5fee456f8929f014481adff9","bdp_rwlrn","Wed Mar 15 2023 22:21:53 GMT-0400 (Eastern Daylight Time)","601134","Trustworthy,Untrustworthy","","","","feedback","","null","","<div class='respPicDiv'><img src='img/responseButtonOffersNo0_wht.png' class='respPic'></div><div class='trialDiv'><img src='Fruit/lime.png'><br><font class='baseline'><strong>Limin' Large</strong><p><strong><font class='negOutcome'>You LOST</font><p>You bet: 5</strong></font> &nbsp; &nbsp; &nbsp; &nbsp; &nbsp; &nbsp;<font class='negOutcome'>You receive: <strong>0</strong></font></div>","null","9","Limin' Large","Fruit/lime.png","Lost","0.8,0.35","8","0.8","148","26","",""
"html-keyboard-response","88","327875","0.0-11.0-1.26","5fee456f8929f014481adff9","bdp_rwlrn","Wed Mar 15 2023 22:21:53 GMT-0400 (Eastern Daylight Time)","601134","Trustworthy,Untrustworthy","","","","decision","","66","","<div class='trialDiv'><img src='Fruit/mango.png'><br><font class='baseline'><strong>Mega Mangos</strong><p>Choose number of points to bet.</font><div class='respPicDiv'><img src='img/responseButtonOffersNo0L.png' class='respPic'></div></div>","5","9","Mega Mangos","Fruit/mango.png","Won","0.65,0.35","11","0.65","153","27","",""
"html-keyboard-response","89","328140","0.0-11.0-2.26","5fee456f8929f014481adff9","bdp_rwlrn","Wed Mar 15 2023 22:21:53 GMT-0400 (Eastern Daylight Time)","601134","Trustworthy,Untrustworthy","","","","decisionFB","","null","","<div class='trialDiv'><img src='Fruit/mango.png'><br><font class='baseline'><strong>Mega Mangos</strong><p>Choose number of points to bet.</font><div class='respPicDiv'><img src='img/responseButtonOffersNo0L5.png' class='respPic'></div></div>","null","9","Mega Mangos","Fruit/mango.png","Won","0.65,0.35","11","0.65","148","27","",""
"html-keyboard-response","90","329143","0.0-11.0-3.26","5fee456f8929f014481adff9","bdp_rwlrn","Wed Mar 15 2023 22:21:53 GMT-0400 (Eastern Daylight Time)","601134","Trustworthy,Untrustworthy","","","","feedback","","null","","<div class='respPicDiv'><img src='img/responseButtonOffersNo0_wht.png' class='respPic'></div><div class='trialDiv'><img src='Fruit/mango.png'><br><font class='baseline'><strong>Mega Mangos</strong><p><strong><font class='posOutcome'>You WON</font><p>You bet: 5</strong></font> &nbsp; &nbsp; &nbsp; &nbsp; &nbsp; &nbsp;<font class='posOutcome'>you receive: <strong>10</strong></font></div>","null","9","Mega Mangos","Fruit/mango.png","Won","0.65,0.35","11","0.65","158","27","",""
"html-keyboard-response","91","329663","0.0-11.0-1.27","5fee456f8929f014481adff9","bdp_rwlrn","Wed Mar 15 2023 22:21:53 GMT-0400 (Eastern Daylight Time)","601134","Trustworthy,Untrustworthy","","","","decision","","520","","<div class='trialDiv'><img src='Fruit/lime.png'><br><font class='baseline'><strong>Limin' Large</strong><p>Choose number of points to bet.</font><div class='respPicDiv'><img src='img/responseButtonOffersNo0L.png' class='respPic'></div></div>","5","10","Limin' Large","Fruit/lime.png","Won","0.8,0.35","8","0.8","163","28","",""
"html-keyboard-response","92","329924","0.0-11.0-2.27","5fee456f8929f014481adff9","bdp_rwlrn","Wed Mar 15 2023 22:21:53 GMT-0400 (Eastern Daylight Time)","601134","Trustworthy,Untrustworthy","","","","decisionFB","","null","","<div class='trialDiv'><img src='Fruit/lime.png'><br><font class='baseline'><strong>Limin' Large</strong><p>Choose number of points to bet.</font><div class='respPicDiv'><img src='img/responseButtonOffersNo0L5.png' class='respPic'></div></div>","null","10","Limin' Large","Fruit/lime.png","Won","0.8,0.35","8","0.8","158","28","",""
"html-keyboard-response","93","330930","0.0-11.0-3.27","5fee456f8929f014481adff9","bdp_rwlrn","Wed Mar 15 2023 22:21:53 GMT-0400 (Eastern Daylight Time)","601134","Trustworthy,Untrustworthy","","","","feedback","","null","","<div class='respPicDiv'><img src='img/responseButtonOffersNo0_wht.png' class='respPic'></div><div class='trialDiv'><img src='Fruit/lime.png'><br><font class='baseline'><strong>Limin' Large</strong><p><strong><font class='posOutcome'>You WON</font><p>You bet: 5</strong></font> &nbsp; &nbsp; &nbsp; &nbsp; &nbsp; &nbsp;<font class='posOutcome'>you receive: <strong>10</strong></font></div>","null","10","Limin' Large","Fruit/lime.png","Won","0.8,0.35","8","0.8","168","28","",""
"html-keyboard-response","94","331112","0.0-11.0-1.28","5fee456f8929f014481adff9","bdp_rwlrn","Wed Mar 15 2023 22:21:53 GMT-0400 (Eastern Daylight Time)","601134","Trustworthy,Untrustworthy","","","","decision","","181","","<div class='trialDiv'><img src='Fruit/mango.png'><br><font class='baseline'><strong>Mega Mangos</strong><p>Choose number of points to bet.</font><div class='respPicDiv'><img src='img/responseButtonOffersNo0L.png' class='respPic'></div></div>","5","10","Mega Mangos","Fruit/mango.png","Lost","0.65,0.35","11","0.65","173","29","",""
"html-keyboard-response","95","331364","0.0-11.0-2.28","5fee456f8929f014481adff9","bdp_rwlrn","Wed Mar 15 2023 22:21:53 GMT-0400 (Eastern Daylight Time)","601134","Trustworthy,Untrustworthy","","","","decisionFB","","null","","<div class='trialDiv'><img src='Fruit/mango.png'><br><font class='baseline'><strong>Mega Mangos</strong><p>Choose number of points to bet.</font><div class='respPicDiv'><img src='img/responseButtonOffersNo0L5.png' class='respPic'></div></div>","null","10","Mega Mangos","Fruit/mango.png","Lost","0.65,0.35","11","0.65","168","29","",""
"html-keyboard-response","96","332366","0.0-11.0-3.28","5fee456f8929f014481adff9","bdp_rwlrn","Wed Mar 15 2023 22:21:53 GMT-0400 (Eastern Daylight Time)","601134","Trustworthy,Untrustworthy","","","","feedback","","null","","<div class='respPicDiv'><img src='img/responseButtonOffersNo0_wht.png' class='respPic'></div><div class='trialDiv'><img src='Fruit/mango.png'><br><font class='baseline'><strong>Mega Mangos</strong><p><strong><font class='negOutcome'>You LOST</font><p>You bet: 5</strong></font> &nbsp; &nbsp; &nbsp; &nbsp; &nbsp; &nbsp;<font class='negOutcome'>You receive: <strong>0</strong></font></div>","null","10","Mega Mangos","Fruit/mango.png","Lost","0.65,0.35","11","0.65","168","29","",""
"html-keyboard-response","97","333471","0.0-11.0-1.29","5fee456f8929f014481adff9","bdp_rwlrn","Wed Mar 15 2023 22:21:53 GMT-0400 (Eastern Daylight Time)","601134","Trustworthy,Untrustworthy","","","","decision","","1103","","<div class='trialDiv'><img src='Fruit/apple.png'><br><font class='baseline'><strong>Awesome Apples</strong><p>Choose number of points to bet.</font><div class='respPicDiv'><img src='img/responseButtonOffersNo0L.png' class='respPic'></div></div>","5","10","Awesome Apples","Fruit/apple.png","Lost","0.2,0.65","9","0.2","173","30","",""
"html-keyboard-response","98","333723","0.0-11.0-2.29","5fee456f8929f014481adff9","bdp_rwlrn","Wed Mar 15 2023 22:21:53 GMT-0400 (Eastern Daylight Time)","601134","Trustworthy,Untrustworthy","","","","decisionFB","","null","","<div class='trialDiv'><img src='Fruit/apple.png'><br><font class='baseline'><strong>Awesome Apples</strong><p>Choose number of points to bet.</font><div class='respPicDiv'><img src='img/responseButtonOffersNo0L5.png' class='respPic'></div></div>","null","10","Awesome Apples","Fruit/apple.png","Lost","0.2,0.65","9","0.2","168","30","",""
"html-keyboard-response","99","334738","0.0-11.0-3.29","5fee456f8929f014481adff9","bdp_rwlrn","Wed Mar 15 2023 22:21:53 GMT-0400 (Eastern Daylight Time)","601134","Trustworthy,Untrustworthy","","","","feedback","","null","","<div class='respPicDiv'><img src='img/responseButtonOffersNo0_wht.png' class='respPic'></div><div class='trialDiv'><img src='Fruit/apple.png'><br><font class='baseline'><strong>Awesome Apples</strong><p><strong><font class='negOutcome'>You LOST</font><p>You bet: 5</strong></font> &nbsp; &nbsp; &nbsp; &nbsp; &nbsp; &nbsp;<font class='negOutcome'>You receive: <strong>0</strong></font></div>","null","10","Awesome Apples","Fruit/apple.png","Lost","0.2,0.65","9","0.2","168","30","",""
"html-keyboard-response","100","334892","0.0-11.0-1.30","5fee456f8929f014481adff9","bdp_rwlrn","Wed Mar 15 2023 22:21:53 GMT-0400 (Eastern Daylight Time)","601134","Trustworthy,Untrustworthy","","","","decision","","153","","<div class='trialDiv'><img src='Fruit/lime.png'><br><font class='baseline'><strong>Limin' Large</strong><p>Choose number of points to bet.</font><div class='respPicDiv'><img src='img/responseButtonOffersNo0L.png' class='respPic'></div></div>","5","11","Limin' Large","Fruit/lime.png","Lost","0.8,0.35","8","0.8","173","31","",""
"html-keyboard-response","101","335145","0.0-11.0-2.30","5fee456f8929f014481adff9","bdp_rwlrn","Wed Mar 15 2023 22:21:53 GMT-0400 (Eastern Daylight Time)","601134","Trustworthy,Untrustworthy","","","","decisionFB","","null","","<div class='trialDiv'><img src='Fruit/lime.png'><br><font class='baseline'><strong>Limin' Large</strong><p>Choose number of points to bet.</font><div class='respPicDiv'><img src='img/responseButtonOffersNo0L5.png' class='respPic'></div></div>","null","11","Limin' Large","Fruit/lime.png","Lost","0.8,0.35","8","0.8","168","31","",""
"html-keyboard-response","102","336147","0.0-11.0-3.30","5fee456f8929f014481adff9","bdp_rwlrn","Wed Mar 15 2023 22:21:53 GMT-0400 (Eastern Daylight Time)","601134","Trustworthy,Untrustworthy","","","","feedback","","null","","<div class='respPicDiv'><img src='img/responseButtonOffersNo0_wht.png' class='respPic'></div><div class='trialDiv'><img src='Fruit/lime.png'><br><font class='baseline'><strong>Limin' Large</strong><p><strong><font class='negOutcome'>You LOST</font><p>You bet: 5</strong></font> &nbsp; &nbsp; &nbsp; &nbsp; &nbsp; &nbsp;<font class='negOutcome'>You receive: <strong>0</strong></font></div>","null","11","Limin' Large","Fruit/lime.png","Lost","0.8,0.35","8","0.8","168","31","",""
"html-keyboard-response","103","336286","0.0-11.0-1.31","5fee456f8929f014481adff9","bdp_rwlrn","Wed Mar 15 2023 22:21:53 GMT-0400 (Eastern Daylight Time)","601134","Trustworthy,Untrustworthy","","","","decision","","137","","<div class='trialDiv'><img src='Fruit/mango.png'><br><font class='baseline'><strong>Mega Mangos</strong><p>Choose number of points to bet.</font><div class='respPicDiv'><img src='img/responseButtonOffersNo0L.png' class='respPic'></div></div>","5","11","Mega Mangos","Fruit/mango.png","Lost","0.65,0.35","11","0.65","173","32","",""
"html-keyboard-response","104","336541","0.0-11.0-2.31","5fee456f8929f014481adff9","bdp_rwlrn","Wed Mar 15 2023 22:21:53 GMT-0400 (Eastern Daylight Time)","601134","Trustworthy,Untrustworthy","","","","decisionFB","","null","","<div class='trialDiv'><img src='Fruit/mango.png'><br><font class='baseline'><strong>Mega Mangos</strong><p>Choose number of points to bet.</font><div class='respPicDiv'><img src='img/responseButtonOffersNo0L5.png' class='respPic'></div></div>","null","11","Mega Mangos","Fruit/mango.png","Lost","0.65,0.35","11","0.65","168","32","",""
"html-keyboard-response","105","337549","0.0-11.0-3.31","5fee456f8929f014481adff9","bdp_rwlrn","Wed Mar 15 2023 22:21:53 GMT-0400 (Eastern Daylight Time)","601134","Trustworthy,Untrustworthy","","","","feedback","","null","","<div class='respPicDiv'><img src='img/responseButtonOffersNo0_wht.png' class='respPic'></div><div class='trialDiv'><img src='Fruit/mango.png'><br><font class='baseline'><strong>Mega Mangos</strong><p><strong><font class='negOutcome'>You LOST</font><p>You bet: 5</strong></font> &nbsp; &nbsp; &nbsp; &nbsp; &nbsp; &nbsp;<font class='negOutcome'>You receive: <strong>0</strong></font></div>","null","11","Mega Mangos","Fruit/mango.png","Lost","0.65,0.35","11","0.65","168","32","",""
"html-keyboard-response","106","337761","0.0-11.0-1.32","5fee456f8929f014481adff9","bdp_rwlrn","Wed Mar 15 2023 22:21:53 GMT-0400 (Eastern Daylight Time)","601134","Trustworthy,Untrustworthy","","","","decision","","212","","<div class='trialDiv'><img src='Fruit/apple.png'><br><font class='baseline'><strong>Awesome Apples</strong><p>Choose number of points to bet.</font><div class='respPicDiv'><img src='img/responseButtonOffersNo0L.png' class='respPic'></div></div>","5","11","Awesome Apples","Fruit/apple.png","Lost","0.2,0.65","9","0.2","173","33","",""
"html-keyboard-response","107","338018","0.0-11.0-2.32","5fee456f8929f014481adff9","bdp_rwlrn","Wed Mar 15 2023 22:21:53 GMT-0400 (Eastern Daylight Time)","601134","Trustworthy,Untrustworthy","","","","decisionFB","","null","","<div class='trialDiv'><img src='Fruit/apple.png'><br><font class='baseline'><strong>Awesome Apples</strong><p>Choose number of points to bet.</font><div class='respPicDiv'><img src='img/responseButtonOffersNo0L5.png' class='respPic'></div></div>","null","11","Awesome Apples","Fruit/apple.png","Lost","0.2,0.65","9","0.2","168","33","",""
"html-keyboard-response","108","339024","0.0-11.0-3.32","5fee456f8929f014481adff9","bdp_rwlrn","Wed Mar 15 2023 22:21:53 GMT-0400 (Eastern Daylight Time)","601134","Trustworthy,Untrustworthy","","","","feedback","","null","","<div class='respPicDiv'><img src='img/responseButtonOffersNo0_wht.png' class='respPic'></div><div class='trialDiv'><img src='Fruit/apple.png'><br><font class='baseline'><strong>Awesome Apples</strong><p><strong><font class='negOutcome'>You LOST</font><p>You bet: 5</strong></font> &nbsp; &nbsp; &nbsp; &nbsp; &nbsp; &nbsp;<font class='negOutcome'>You receive: <strong>0</strong></font></div>","null","11","Awesome Apples","Fruit/apple.png","Lost","0.2,0.65","9","0.2","168","33","",""
"html-keyboard-response","109","339125","0.0-11.0-1.33","5fee456f8929f014481adff9","bdp_rwlrn","Wed Mar 15 2023 22:21:53 GMT-0400 (Eastern Daylight Time)","601134","Trustworthy,Untrustworthy","","","","decision","","100","","<div class='trialDiv'><img src='Fruit/mango.png'><br><font class='baseline'><strong>Mega Mangos</strong><p>Choose number of points to bet.</font><div class='respPicDiv'><img src='img/responseButtonOffersNo0L.png' class='respPic'></div></div>","5","12","Mega Mangos","Fruit/mango.png","Lost","0.65,0.35","11","0.65","173","34","",""
"html-keyboard-response","110","339383","0.0-11.0-2.33","5fee456f8929f014481adff9","bdp_rwlrn","Wed Mar 15 2023 22:21:53 GMT-0400 (Eastern Daylight Time)","601134","Trustworthy,Untrustworthy","","","","decisionFB","","null","","<div class='trialDiv'><img src='Fruit/mango.png'><br><font class='baseline'><strong>Mega Mangos</strong><p>Choose number of points to bet.</font><div class='respPicDiv'><img src='img/responseButtonOffersNo0L5.png' class='respPic'></div></div>","null","12","Mega Mangos","Fruit/mango.png","Lost","0.65,0.35","11","0.65","168","34","",""
"html-keyboard-response","111","340385","0.0-11.0-3.33","5fee456f8929f014481adff9","bdp_rwlrn","Wed Mar 15 2023 22:21:53 GMT-0400 (Eastern Daylight Time)","601134","Trustworthy,Untrustworthy","","","","feedback","","null","","<div class='respPicDiv'><img src='img/responseButtonOffersNo0_wht.png' class='respPic'></div><div class='trialDiv'><img src='Fruit/mango.png'><br><font class='baseline'><strong>Mega Mangos</strong><p><strong><font class='negOutcome'>You LOST</font><p>You bet: 5</strong></font> &nbsp; &nbsp; &nbsp; &nbsp; &nbsp; &nbsp;<font class='negOutcome'>You receive: <strong>0</strong></font></div>","null","12","Mega Mangos","Fruit/mango.png","Lost","0.65,0.35","11","0.65","168","34","",""
"html-keyboard-response","112","340600","0.0-11.0-1.34","5fee456f8929f014481adff9","bdp_rwlrn","Wed Mar 15 2023 22:21:53 GMT-0400 (Eastern Daylight Time)","601134","Trustworthy,Untrustworthy","","","","decision","","214","","<div class='trialDiv'><img src='Fruit/lime.png'><br><font class='baseline'><strong>Limin' Large</strong><p>Choose number of points to bet.</font><div class='respPicDiv'><img src='img/responseButtonOffersNo0L.png' class='respPic'></div></div>","1","12","Limin' Large","Fruit/lime.png","Won","0.8,0.35","8","0.8","173","35","",""
"html-keyboard-response","113","340865","0.0-11.0-2.34","5fee456f8929f014481adff9","bdp_rwlrn","Wed Mar 15 2023 22:21:53 GMT-0400 (Eastern Daylight Time)","601134","Trustworthy,Untrustworthy","","","","decisionFB","","null","","<div class='trialDiv'><img src='Fruit/lime.png'><br><font class='baseline'><strong>Limin' Large</strong><p>Choose number of points to bet.</font><div class='respPicDiv'><img src='img/responseButtonOffersNo0L1.png' class='respPic'></div></div>","null","12","Limin' Large","Fruit/lime.png","Won","0.8,0.35","8","0.8","172","35","",""
"html-keyboard-response","114","341870","0.0-11.0-3.34","5fee456f8929f014481adff9","bdp_rwlrn","Wed Mar 15 2023 22:21:53 GMT-0400 (Eastern Daylight Time)","601134","Trustworthy,Untrustworthy","","","","feedback","","null","","<div class='respPicDiv'><img src='img/responseButtonOffersNo0_wht.png' class='respPic'></div><div class='trialDiv'><img src='Fruit/lime.png'><br><font class='baseline'><strong>Limin' Large</strong><p><strong><font class='posOutcome'>You WON</font><p>You bet: 1</strong></font> &nbsp; &nbsp; &nbsp; &nbsp; &nbsp; &nbsp;<font class='posOutcome'>you receive: <strong>2</strong></font></div>","null","12","Limin' Large","Fruit/lime.png","Won","0.8,0.35","8","0.8","174","35","",""
"html-keyboard-response","115","341874","0.0-11.0-1.35","5fee456f8929f014481adff9","bdp_rwlrn","Wed Mar 15 2023 22:21:53 GMT-0400 (Eastern Daylight Time)","601134","Trustworthy,Untrustworthy","","","","decision","","4","","<div class='trialDiv'><img src='Fruit/apple.png'><br><font class='baseline'><strong>Awesome Apples</strong><p>Choose number of points to bet.</font><div class='respPicDiv'><img src='img/responseButtonOffersNo0L.png' class='respPic'></div></div>","5","12","Awesome Apples","Fruit/apple.png","Won","0.2,0.65","9","0.2","179","36","",""
"html-keyboard-response","116","342129","0.0-11.0-2.35","5fee456f8929f014481adff9","bdp_rwlrn","Wed Mar 15 2023 22:21:53 GMT-0400 (Eastern Daylight Time)","601134","Trustworthy,Untrustworthy","","","","decisionFB","","null","","<div class='trialDiv'><img src='Fruit/apple.png'><br><font class='baseline'><strong>Awesome Apples</strong><p>Choose number of points to bet.</font><div class='respPicDiv'><img src='img/responseButtonOffersNo0L5.png' class='respPic'></div></div>","null","12","Awesome Apples","Fruit/apple.png","Won","0.2,0.65","9","0.2","174","36","",""
"html-keyboard-response","117","343136","0.0-11.0-3.35","5fee456f8929f014481adff9","bdp_rwlrn","Wed Mar 15 2023 22:21:53 GMT-0400 (Eastern Daylight Time)","601134","Trustworthy,Untrustworthy","","","","feedback","","null","","<div class='respPicDiv'><img src='img/responseButtonOffersNo0_wht.png' class='respPic'></div><div class='trialDiv'><img src='Fruit/apple.png'><br><font class='baseline'><strong>Awesome Apples</strong><p><strong><font class='posOutcome'>You WON</font><p>You bet: 5</strong></font> &nbsp; &nbsp; &nbsp; &nbsp; &nbsp; &nbsp;<font class='posOutcome'>you receive: <strong>10</strong></font></div>","null","12","Awesome Apples","Fruit/apple.png","Won","0.2,0.65","9","0.2","184","36","",""
"html-keyboard-response","118","343186","0.0-11.0-1.36","5fee456f8929f014481adff9","bdp_rwlrn","Wed Mar 15 2023 22:21:53 GMT-0400 (Eastern Daylight Time)","601134","Trustworthy,Untrustworthy","","","","decision","","49","","<div class='trialDiv'><img src='Fruit/lime.png'><br><font class='baseline'><strong>Limin' Large</strong><p>Choose number of points to bet.</font><div class='respPicDiv'><img src='img/responseButtonOffersNo0L.png' class='respPic'></div></div>","5","13","Limin' Large","Fruit/lime.png","Won","0.8,0.35","8","0.8","189","37","",""
"html-keyboard-response","119","343450","0.0-11.0-2.36","5fee456f8929f014481adff9","bdp_rwlrn","Wed Mar 15 2023 22:21:53 GMT-0400 (Eastern Daylight Time)","601134","Trustworthy,Untrustworthy","","","","decisionFB","","null","","<div class='trialDiv'><img src='Fruit/lime.png'><br><font class='baseline'><strong>Limin' Large</strong><p>Choose number of points to bet.</font><div class='respPicDiv'><img src='img/responseButtonOffersNo0L5.png' class='respPic'></div></div>","null","13","Limin' Large","Fruit/lime.png","Won","0.8,0.35","8","0.8","184","37","",""
"html-keyboard-response","120","344468","0.0-11.0-3.36","5fee456f8929f014481adff9","bdp_rwlrn","Wed Mar 15 2023 22:21:53 GMT-0400 (Eastern Daylight Time)","601134","Trustworthy,Untrustworthy","","","","feedback","","null","","<div class='respPicDiv'><img src='img/responseButtonOffersNo0_wht.png' class='respPic'></div><div class='trialDiv'><img src='Fruit/lime.png'><br><font class='baseline'><strong>Limin' Large</strong><p><strong><font class='posOutcome'>You WON</font><p>You bet: 5</strong></font> &nbsp; &nbsp; &nbsp; &nbsp; &nbsp; &nbsp;<font class='posOutcome'>you receive: <strong>10</strong></font></div>","null","13","Limin' Large","Fruit/lime.png","Won","0.8,0.35","8","0.8","194","37","",""
"html-keyboard-response","121","344529","0.0-11.0-1.37","5fee456f8929f014481adff9","bdp_rwlrn","Wed Mar 15 2023 22:21:53 GMT-0400 (Eastern Daylight Time)","601134","Trustworthy,Untrustworthy","","","","decision","","61","","<div class='trialDiv'><img src='Fruit/mango.png'><br><font class='baseline'><strong>Mega Mangos</strong><p>Choose number of points to bet.</font><div class='respPicDiv'><img src='img/responseButtonOffersNo0L.png' class='respPic'></div></div>","5","13","Mega Mangos","Fruit/mango.png","Won","0.65,0.35","11","0.65","199","38","",""
"html-keyboard-response","122","344790","0.0-11.0-2.37","5fee456f8929f014481adff9","bdp_rwlrn","Wed Mar 15 2023 22:21:53 GMT-0400 (Eastern Daylight Time)","601134","Trustworthy,Untrustworthy","","","","decisionFB","","null","","<div class='trialDiv'><img src='Fruit/mango.png'><br><font class='baseline'><strong>Mega Mangos</strong><p>Choose number of points to bet.</font><div class='respPicDiv'><img src='img/responseButtonOffersNo0L5.png' class='respPic'></div></div>","null","13","Mega Mangos","Fruit/mango.png","Won","0.65,0.35","11","0.65","194","38","",""
"html-keyboard-response","123","345805","0.0-11.0-3.37","5fee456f8929f014481adff9","bdp_rwlrn","Wed Mar 15 2023 22:21:53 GMT-0400 (Eastern Daylight Time)","601134","Trustworthy,Untrustworthy","","","","feedback","","null","","<div class='respPicDiv'><img src='img/responseButtonOffersNo0_wht.png' class='respPic'></div><div class='trialDiv'><img src='Fruit/mango.png'><br><font class='baseline'><strong>Mega Mangos</strong><p><strong><font class='posOutcome'>You WON</font><p>You bet: 5</strong></font> &nbsp; &nbsp; &nbsp; &nbsp; &nbsp; &nbsp;<font class='posOutcome'>you receive: <strong>10</strong></font></div>","null","13","Mega Mangos","Fruit/mango.png","Won","0.65,0.35","11","0.65","204","38","",""
"html-keyboard-response","124","346319","0.0-11.0-1.38","5fee456f8929f014481adff9","bdp_rwlrn","Wed Mar 15 2023 22:21:53 GMT-0400 (Eastern Daylight Time)","601134","Trustworthy,Untrustworthy","","","","decision","","514","","<div class='trialDiv'><img src='Fruit/apple.png'><br><font class='baseline'><strong>Awesome Apples</strong><p>Choose number of points to bet.</font><div class='respPicDiv'><img src='img/responseButtonOffersNo0L.png' class='respPic'></div></div>","5","13","Awesome Apples","Fruit/apple.png","Won","0.2,0.65","9","0.2","209","39","",""
"html-keyboard-response","125","346575","0.0-11.0-2.38","5fee456f8929f014481adff9","bdp_rwlrn","Wed Mar 15 2023 22:21:53 GMT-0400 (Eastern Daylight Time)","601134","Trustworthy,Untrustworthy","","","","decisionFB","","null","","<div class='trialDiv'><img src='Fruit/apple.png'><br><font class='baseline'><strong>Awesome Apples</strong><p>Choose number of points to bet.</font><div class='respPicDiv'><img src='img/responseButtonOffersNo0L5.png' class='respPic'></div></div>","null","13","Awesome Apples","Fruit/apple.png","Won","0.2,0.65","9","0.2","204","39","",""
"html-keyboard-response","126","347583","0.0-11.0-3.38","5fee456f8929f014481adff9","bdp_rwlrn","Wed Mar 15 2023 22:21:53 GMT-0400 (Eastern Daylight Time)","601134","Trustworthy,Untrustworthy","","","","feedback","","null","","<div class='respPicDiv'><img src='img/responseButtonOffersNo0_wht.png' class='respPic'></div><div class='trialDiv'><img src='Fruit/apple.png'><br><font class='baseline'><strong>Awesome Apples</strong><p><strong><font class='posOutcome'>You WON</font><p>You bet: 5</strong></font> &nbsp; &nbsp; &nbsp; &nbsp; &nbsp; &nbsp;<font class='posOutcome'>you receive: <strong>10</strong></font></div>","null","13","Awesome Apples","Fruit/apple.png","Won","0.2,0.65","9","0.2","214","39","",""
"html-keyboard-response","127","347670","0.0-11.0-1.39","5fee456f8929f014481adff9","bdp_rwlrn","Wed Mar 15 2023 22:21:53 GMT-0400 (Eastern Daylight Time)","601134","Trustworthy,Untrustworthy","","","","decision","","86","","<div class='trialDiv'><img src='Fruit/mango.png'><br><font class='baseline'><strong>Mega Mangos</strong><p>Choose number of points to bet.</font><div class='respPicDiv'><img src='img/responseButtonOffersNo0L.png' class='respPic'></div></div>","5","14","Mega Mangos","Fruit/mango.png","Lost","0.65,0.35","11","0.65","219","40","",""
"html-keyboard-response","128","347929","0.0-11.0-2.39","5fee456f8929f014481adff9","bdp_rwlrn","Wed Mar 15 2023 22:21:53 GMT-0400 (Eastern Daylight Time)","601134","Trustworthy,Untrustworthy","","","","decisionFB","","null","","<div class='trialDiv'><img src='Fruit/mango.png'><br><font class='baseline'><strong>Mega Mangos</strong><p>Choose number of points to bet.</font><div class='respPicDiv'><img src='img/responseButtonOffersNo0L5.png' class='respPic'></div></div>","null","14","Mega Mangos","Fruit/mango.png","Lost","0.65,0.35","11","0.65","214","40","",""
"html-keyboard-response","129","348943","0.0-11.0-3.39","5fee456f8929f014481adff9","bdp_rwlrn","Wed Mar 15 2023 22:21:53 GMT-0400 (Eastern Daylight Time)","601134","Trustworthy,Untrustworthy","","","","feedback","","null","","<div class='respPicDiv'><img src='img/responseButtonOffersNo0_wht.png' class='respPic'></div><div class='trialDiv'><img src='Fruit/mango.png'><br><font class='baseline'><strong>Mega Mangos</strong><p><strong><font class='negOutcome'>You LOST</font><p>You bet: 5</strong></font> &nbsp; &nbsp; &nbsp; &nbsp; &nbsp; &nbsp;<font class='negOutcome'>You receive: <strong>0</strong></font></div>","null","14","Mega Mangos","Fruit/mango.png","Lost","0.65,0.35","11","0.65","214","40","",""
"html-keyboard-response","130","349030","0.0-11.0-1.40","5fee456f8929f014481adff9","bdp_rwlrn","Wed Mar 15 2023 22:21:53 GMT-0400 (Eastern Daylight Time)","601134","Trustworthy,Untrustworthy","","","","decision","","86","","<div class='trialDiv'><img src='Fruit/apple.png'><br><font class='baseline'><strong>Awesome Apples</strong><p>Choose number of points to bet.</font><div class='respPicDiv'><img src='img/responseButtonOffersNo0L.png' class='respPic'></div></div>","5","14","Awesome Apples","Fruit/apple.png","Won","0.2,0.65","9","0.2","219","41","",""
"html-keyboard-response","131","349287","0.0-11.0-2.40","5fee456f8929f014481adff9","bdp_rwlrn","Wed Mar 15 2023 22:21:53 GMT-0400 (Eastern Daylight Time)","601134","Trustworthy,Untrustworthy","","","","decisionFB","","null","","<div class='trialDiv'><img src='Fruit/apple.png'><br><font class='baseline'><strong>Awesome Apples</strong><p>Choose number of points to bet.</font><div class='respPicDiv'><img src='img/responseButtonOffersNo0L5.png' class='respPic'></div></div>","null","14","Awesome Apples","Fruit/apple.png","Won","0.2,0.65","9","0.2","214","41","",""
"html-keyboard-response","132","350297","0.0-11.0-3.40","5fee456f8929f014481adff9","bdp_rwlrn","Wed Mar 15 2023 22:21:53 GMT-0400 (Eastern Daylight Time)","601134","Trustworthy,Untrustworthy","","","","feedback","","null","","<div class='respPicDiv'><img src='img/responseButtonOffersNo0_wht.png' class='respPic'></div><div class='trialDiv'><img src='Fruit/apple.png'><br><font class='baseline'><strong>Awesome Apples</strong><p><strong><font class='posOutcome'>You WON</font><p>You bet: 5</strong></font> &nbsp; &nbsp; &nbsp; &nbsp; &nbsp; &nbsp;<font class='posOutcome'>you receive: <strong>10</strong></font></div>","null","14","Awesome Apples","Fruit/apple.png","Won","0.2,0.65","9","0.2","224","41","",""
"html-keyboard-response","133","350730","0.0-11.0-1.41","5fee456f8929f014481adff9","bdp_rwlrn","Wed Mar 15 2023 22:21:53 GMT-0400 (Eastern Daylight Time)","601134","Trustworthy,Untrustworthy","","","","decision","","432","","<div class='trialDiv'><img src='Fruit/lime.png'><br><font class='baseline'><strong>Limin' Large</strong><p>Choose number of points to bet.</font><div class='respPicDiv'><img src='img/responseButtonOffersNo0L.png' class='respPic'></div></div>","5","14","Limin' Large","Fruit/lime.png","Won","0.8,0.35","8","0.8","229","42","",""
"html-keyboard-response","134","350983","0.0-11.0-2.41","5fee456f8929f014481adff9","bdp_rwlrn","Wed Mar 15 2023 22:21:53 GMT-0400 (Eastern Daylight Time)","601134","Trustworthy,Untrustworthy","","","","decisionFB","","null","","<div class='trialDiv'><img src='Fruit/lime.png'><br><font class='baseline'><strong>Limin' Large</strong><p>Choose number of points to bet.</font><div class='respPicDiv'><img src='img/responseButtonOffersNo0L5.png' class='respPic'></div></div>","null","14","Limin' Large","Fruit/lime.png","Won","0.8,0.35","8","0.8","224","42","",""
"html-keyboard-response","135","351993","0.0-11.0-3.41","5fee456f8929f014481adff9","bdp_rwlrn","Wed Mar 15 2023 22:21:53 GMT-0400 (Eastern Daylight Time)","601134","Trustworthy,Untrustworthy","","","","feedback","","null","","<div class='respPicDiv'><img src='img/responseButtonOffersNo0_wht.png' class='respPic'></div><div class='trialDiv'><img src='Fruit/lime.png'><br><font class='baseline'><strong>Limin' Large</strong><p><strong><font class='posOutcome'>You WON</font><p>You bet: 5</strong></font> &nbsp; &nbsp; &nbsp; &nbsp; &nbsp; &nbsp;<font class='posOutcome'>you receive: <strong>10</strong></font></div>","null","14","Limin' Large","Fruit/lime.png","Won","0.8,0.35","8","0.8","234","42","",""
"html-keyboard-response","136","352126","0.0-11.0-1.42","5fee456f8929f014481adff9","bdp_rwlrn","Wed Mar 15 2023 22:21:53 GMT-0400 (Eastern Daylight Time)","601134","Trustworthy,Untrustworthy","","","","decision","","133","","<div class='trialDiv'><img src='Fruit/apple.png'><br><font class='baseline'><strong>Awesome Apples</strong><p>Choose number of points to bet.</font><div class='respPicDiv'><img src='img/responseButtonOffersNo0L.png' class='respPic'></div></div>","5","15","Awesome Apples","Fruit/apple.png","Won","0.2,0.65","9","0.2","239","43","",""
"html-keyboard-response","137","352392","0.0-11.0-2.42","5fee456f8929f014481adff9","bdp_rwlrn","Wed Mar 15 2023 22:21:53 GMT-0400 (Eastern Daylight Time)","601134","Trustworthy,Untrustworthy","","","","decisionFB","","null","","<div class='trialDiv'><img src='Fruit/apple.png'><br><font class='baseline'><strong>Awesome Apples</strong><p>Choose number of points to bet.</font><div class='respPicDiv'><img src='img/responseButtonOffersNo0L5.png' class='respPic'></div></div>","null","15","Awesome Apples","Fruit/apple.png","Won","0.2,0.65","9","0.2","234","43","",""
"html-keyboard-response","138","353405","0.0-11.0-3.42","5fee456f8929f014481adff9","bdp_rwlrn","Wed Mar 15 2023 22:21:53 GMT-0400 (Eastern Daylight Time)","601134","Trustworthy,Untrustworthy","","","","feedback","","null","","<div class='respPicDiv'><img src='img/responseButtonOffersNo0_wht.png' class='respPic'></div><div class='trialDiv'><img src='Fruit/apple.png'><br><font class='baseline'><strong>Awesome Apples</strong><p><strong><font class='posOutcome'>You WON</font><p>You bet: 5</strong></font> &nbsp; &nbsp; &nbsp; &nbsp; &nbsp; &nbsp;<font class='posOutcome'>you receive: <strong>10</strong></font></div>","null","15","Awesome Apples","Fruit/apple.png","Won","0.2,0.65","9","0.2","244","43","",""
"html-keyboard-response","139","353421","0.0-11.0-1.43","5fee456f8929f014481adff9","bdp_rwlrn","Wed Mar 15 2023 22:21:53 GMT-0400 (Eastern Daylight Time)","601134","Trustworthy,Untrustworthy","","","","decision","","15","","<div class='trialDiv'><img src='Fruit/lime.png'><br><font class='baseline'><strong>Limin' Large</strong><p>Choose number of points to bet.</font><div class='respPicDiv'><img src='img/responseButtonOffersNo0L.png' class='respPic'></div></div>","5","15","Limin' Large","Fruit/lime.png","Won","0.8,0.35","8","0.8","249","44","",""
"html-keyboard-response","140","353687","0.0-11.0-2.43","5fee456f8929f014481adff9","bdp_rwlrn","Wed Mar 15 2023 22:21:53 GMT-0400 (Eastern Daylight Time)","601134","Trustworthy,Untrustworthy","","","","decisionFB","","null","","<div class='trialDiv'><img src='Fruit/lime.png'><br><font class='baseline'><strong>Limin' Large</strong><p>Choose number of points to bet.</font><div class='respPicDiv'><img src='img/responseButtonOffersNo0L5.png' class='respPic'></div></div>","null","15","Limin' Large","Fruit/lime.png","Won","0.8,0.35","8","0.8","244","44","",""
"html-keyboard-response","141","354698","0.0-11.0-3.43","5fee456f8929f014481adff9","bdp_rwlrn","Wed Mar 15 2023 22:21:53 GMT-0400 (Eastern Daylight Time)","601134","Trustworthy,Untrustworthy","","","","feedback","","null","","<div class='respPicDiv'><img src='img/responseButtonOffersNo0_wht.png' class='respPic'></div><div class='trialDiv'><img src='Fruit/lime.png'><br><font class='baseline'><strong>Limin' Large</strong><p><strong><font class='posOutcome'>You WON</font><p>You bet: 5</strong></font> &nbsp; &nbsp; &nbsp; &nbsp; &nbsp; &nbsp;<font class='posOutcome'>you receive: <strong>10</strong></font></div>","null","15","Limin' Large","Fruit/lime.png","Won","0.8,0.35","8","0.8","254","44","",""
"html-keyboard-response","142","354981","0.0-11.0-1.44","5fee456f8929f014481adff9","bdp_rwlrn","Wed Mar 15 2023 22:21:53 GMT-0400 (Eastern Daylight Time)","601134","Trustworthy,Untrustworthy","","","","decision","","281","","<div class='trialDiv'><img src='Fruit/mango.png'><br><font class='baseline'><strong>Mega Mangos</strong><p>Choose number of points to bet.</font><div class='respPicDiv'><img src='img/responseButtonOffersNo0L.png' class='respPic'></div></div>","5","15","Mega Mangos","Fruit/mango.png","Lost","0.65,0.35","11","0.65","259","45","",""
"html-keyboard-response","143","355239","0.0-11.0-2.44","5fee456f8929f014481adff9","bdp_rwlrn","Wed Mar 15 2023 22:21:53 GMT-0400 (Eastern Daylight Time)","601134","Trustworthy,Untrustworthy","","","","decisionFB","","null","","<div class='trialDiv'><img src='Fruit/mango.png'><br><font class='baseline'><strong>Mega Mangos</strong><p>Choose number of points to bet.</font><div class='respPicDiv'><img src='img/responseButtonOffersNo0L5.png' class='respPic'></div></div>","null","15","Mega Mangos","Fruit/mango.png","Lost","0.65,0.35","11","0.65","254","45","",""
"html-keyboard-response","144","356254","0.0-11.0-3.44","5fee456f8929f014481adff9","bdp_rwlrn","Wed Mar 15 2023 22:21:53 GMT-0400 (Eastern Daylight Time)","601134","Trustworthy,Untrustworthy","","","","feedback","","null","","<div class='respPicDiv'><img src='img/responseButtonOffersNo0_wht.png' class='respPic'></div><div class='trialDiv'><img src='Fruit/mango.png'><br><font class='baseline'><strong>Mega Mangos</strong><p><strong><font class='negOutcome'>You LOST</font><p>You bet: 5</strong></font> &nbsp; &nbsp; &nbsp; &nbsp; &nbsp; &nbsp;<font class='negOutcome'>You receive: <strong>0</strong></font></div>","null","15","Mega Mangos","Fruit/mango.png","Lost","0.65,0.35","11","0.65","254","45","",""
"html-keyboard-response","145","356538","0.0-11.0-1.45","5fee456f8929f014481adff9","bdp_rwlrn","Wed Mar 15 2023 22:21:53 GMT-0400 (Eastern Daylight Time)","601134","Trustworthy,Untrustworthy","","","","decision","","283","","<div class='trialDiv'><img src='Fruit/lime.png'><br><font class='baseline'><strong>Limin' Large</strong><p>Choose number of points to bet.</font><div class='respPicDiv'><img src='img/responseButtonOffersNo0L.png' class='respPic'></div></div>","5","16","Limin' Large","Fruit/lime.png","Lost","0.8,0.35","8","0.8","259","46","",""
"html-keyboard-response","146","356802","0.0-11.0-2.45","5fee456f8929f014481adff9","bdp_rwlrn","Wed Mar 15 2023 22:21:53 GMT-0400 (Eastern Daylight Time)","601134","Trustworthy,Untrustworthy","","","","decisionFB","","null","","<div class='trialDiv'><img src='Fruit/lime.png'><br><font class='baseline'><strong>Limin' Large</strong><p>Choose number of points to bet.</font><div class='respPicDiv'><img src='img/responseButtonOffersNo0L5.png' class='respPic'></div></div>","null","16","Limin' Large","Fruit/lime.png","Lost","0.8,0.35","8","0.8","254","46","",""
"html-keyboard-response","147","357817","0.0-11.0-3.45","5fee456f8929f014481adff9","bdp_rwlrn","Wed Mar 15 2023 22:21:53 GMT-0400 (Eastern Daylight Time)","601134","Trustworthy,Untrustworthy","","","","feedback","","null","","<div class='respPicDiv'><img src='img/responseButtonOffersNo0_wht.png' class='respPic'></div><div class='trialDiv'><img src='Fruit/lime.png'><br><font class='baseline'><strong>Limin' Large</strong><p><strong><font class='negOutcome'>You LOST</font><p>You bet: 5</strong></font> &nbsp; &nbsp; &nbsp; &nbsp; &nbsp; &nbsp;<font class='negOutcome'>You receive: <strong>0</strong></font></div>","null","16","Limin' Large","Fruit/lime.png","Lost","0.8,0.35","8","0.8","254","46","",""
"html-keyboard-response","148","357873","0.0-11.0-1.46","5fee456f8929f014481adff9","bdp_rwlrn","Wed Mar 15 2023 22:21:53 GMT-0400 (Eastern Daylight Time)","601134","Trustworthy,Untrustworthy","","","","decision","","55","","<div class='trialDiv'><img src='Fruit/apple.png'><br><font class='baseline'><strong>Awesome Apples</strong><p>Choose number of points to bet.</font><div class='respPicDiv'><img src='img/responseButtonOffersNo0L.png' class='respPic'></div></div>","5","16","Awesome Apples","Fruit/apple.png","Won","0.2,0.65","9","0.2","259","47","",""
"html-keyboard-response","149","358133","0.0-11.0-2.46","5fee456f8929f014481adff9","bdp_rwlrn","Wed Mar 15 2023 22:21:53 GMT-0400 (Eastern Daylight Time)","601134","Trustworthy,Untrustworthy","","","","decisionFB","","null","","<div class='trialDiv'><img src='Fruit/apple.png'><br><font class='baseline'><strong>Awesome Apples</strong><p>Choose number of points to bet.</font><div class='respPicDiv'><img src='img/responseButtonOffersNo0L5.png' class='respPic'></div></div>","null","16","Awesome Apples","Fruit/apple.png","Won","0.2,0.65","9","0.2","254","47","",""
"html-keyboard-response","150","359135","0.0-11.0-3.46","5fee456f8929f014481adff9","bdp_rwlrn","Wed Mar 15 2023 22:21:53 GMT-0400 (Eastern Daylight Time)","601134","Trustworthy,Untrustworthy","","","","feedback","","null","","<div class='respPicDiv'><img src='img/responseButtonOffersNo0_wht.png' class='respPic'></div><div class='trialDiv'><img src='Fruit/apple.png'><br><font class='baseline'><strong>Awesome Apples</strong><p><strong><font class='posOutcome'>You WON</font><p>You bet: 5</strong></font> &nbsp; &nbsp; &nbsp; &nbsp; &nbsp; &nbsp;<font class='posOutcome'>you receive: <strong>10</strong></font></div>","null","16","Awesome Apples","Fruit/apple.png","Won","0.2,0.65","9","0.2","264","47","",""
"html-keyboard-response","151","359282","0.0-11.0-1.47","5fee456f8929f014481adff9","bdp_rwlrn","Wed Mar 15 2023 22:21:53 GMT-0400 (Eastern Daylight Time)","601134","Trustworthy,Untrustworthy","","","","decision","","146","","<div class='trialDiv'><img src='Fruit/mango.png'><br><font class='baseline'><strong>Mega Mangos</strong><p>Choose number of points to bet.</font><div class='respPicDiv'><img src='img/responseButtonOffersNo0L.png' class='respPic'></div></div>","5","16","Mega Mangos","Fruit/mango.png","Lost","0.65,0.35","11","0.65","269","48","",""
"html-keyboard-response","152","359535","0.0-11.0-2.47","5fee456f8929f014481adff9","bdp_rwlrn","Wed Mar 15 2023 22:21:53 GMT-0400 (Eastern Daylight Time)","601134","Trustworthy,Untrustworthy","","","","decisionFB","","null","","<div class='trialDiv'><img src='Fruit/mango.png'><br><font class='baseline'><strong>Mega Mangos</strong><p>Choose number of points to bet.</font><div class='respPicDiv'><img src='img/responseButtonOffersNo0L5.png' class='respPic'></div></div>","null","16","Mega Mangos","Fruit/mango.png","Lost","0.65,0.35","11","0.65","264","48","",""
"html-keyboard-response","153","360536","0.0-11.0-3.47","5fee456f8929f014481adff9","bdp_rwlrn","Wed Mar 15 2023 22:21:53 GMT-0400 (Eastern Daylight Time)","601134","Trustworthy,Untrustworthy","","","","feedback","","null","","<div class='respPicDiv'><img src='img/responseButtonOffersNo0_wht.png' class='respPic'></div><div class='trialDiv'><img src='Fruit/mango.png'><br><font class='baseline'><strong>Mega Mangos</strong><p><strong><font class='negOutcome'>You LOST</font><p>You bet: 5</strong></font> &nbsp; &nbsp; &nbsp; &nbsp; &nbsp; &nbsp;<font class='negOutcome'>You receive: <strong>0</strong></font></div>","null","16","Mega Mangos","Fruit/mango.png","Lost","0.65,0.35","11","0.65","264","48","",""
"html-keyboard-response","154","360786","0.0-11.0-1.48","5fee456f8929f014481adff9","bdp_rwlrn","Wed Mar 15 2023 22:21:53 GMT-0400 (Eastern Daylight Time)","601134","Trustworthy,Untrustworthy","","","","decision","","249","","<div class='trialDiv'><img src='Fruit/apple.png'><br><font class='baseline'><strong>Awesome Apples</strong><p>Choose number of points to bet.</font><div class='respPicDiv'><img src='img/responseButtonOffersNo0L.png' class='respPic'></div></div>","5","17","Awesome Apples","Fruit/apple.png","Won","0.2,0.65","9","0.2","269","49","",""
"html-keyboard-response","155","361050","0.0-11.0-2.48","5fee456f8929f014481adff9","bdp_rwlrn","Wed Mar 15 2023 22:21:53 GMT-0400 (Eastern Daylight Time)","601134","Trustworthy,Untrustworthy","","","","decisionFB","","null","","<div class='trialDiv'><img src='Fruit/apple.png'><br><font class='baseline'><strong>Awesome Apples</strong><p>Choose number of points to bet.</font><div class='respPicDiv'><img src='img/responseButtonOffersNo0L5.png' class='respPic'></div></div>","null","17","Awesome Apples","Fruit/apple.png","Won","0.2,0.65","9","0.2","264","49","",""
"html-keyboard-response","156","362062","0.0-11.0-3.48","5fee456f8929f014481adff9","bdp_rwlrn","Wed Mar 15 2023 22:21:53 GMT-0400 (Eastern Daylight Time)","601134","Trustworthy,Untrustworthy","","","","feedback","","null","","<div class='respPicDiv'><img src='img/responseButtonOffersNo0_wht.png' class='respPic'></div><div class='trialDiv'><img src='Fruit/apple.png'><br><font class='baseline'><strong>Awesome Apples</strong><p><strong><font class='posOutcome'>You WON</font><p>You bet: 5</strong></font> &nbsp; &nbsp; &nbsp; &nbsp; &nbsp; &nbsp;<font class='posOutcome'>you receive: <strong>10</strong></font></div>","null","17","Awesome Apples","Fruit/apple.png","Won","0.2,0.65","9","0.2","274","49","",""
"html-keyboard-response","157","362850","0.0-11.0-1.49","5fee456f8929f014481adff9","bdp_rwlrn","Wed Mar 15 2023 22:21:53 GMT-0400 (Eastern Daylight Time)","601134","Trustworthy,Untrustworthy","","","","decision","","787","","<div class='trialDiv'><img src='Fruit/lime.png'><br><font class='baseline'><strong>Limin' Large</strong><p>Choose number of points to bet.</font><div class='respPicDiv'><img src='img/responseButtonOffersNo0L.png' class='respPic'></div></div>","5","17","Limin' Large","Fruit/lime.png","Won","0.8,0.35","8","0.8","279","50","",""
"html-keyboard-response","158","363109","0.0-11.0-2.49","5fee456f8929f014481adff9","bdp_rwlrn","Wed Mar 15 2023 22:21:53 GMT-0400 (Eastern Daylight Time)","601134","Trustworthy,Untrustworthy","","","","decisionFB","","null","","<div class='trialDiv'><img src='Fruit/lime.png'><br><font class='baseline'><strong>Limin' Large</strong><p>Choose number of points to bet.</font><div class='respPicDiv'><img src='img/responseButtonOffersNo0L5.png' class='respPic'></div></div>","null","17","Limin' Large","Fruit/lime.png","Won","0.8,0.35","8","0.8","274","50","",""
"html-keyboard-response","159","364124","0.0-11.0-3.49","5fee456f8929f014481adff9","bdp_rwlrn","Wed Mar 15 2023 22:21:53 GMT-0400 (Eastern Daylight Time)","601134","Trustworthy,Untrustworthy","","","","feedback","","null","","<div class='respPicDiv'><img src='img/responseButtonOffersNo0_wht.png' class='respPic'></div><div class='trialDiv'><img src='Fruit/lime.png'><br><font class='baseline'><strong>Limin' Large</strong><p><strong><font class='posOutcome'>You WON</font><p>You bet: 5</strong></font> &nbsp; &nbsp; &nbsp; &nbsp; &nbsp; &nbsp;<font class='posOutcome'>you receive: <strong>10</strong></font></div>","null","17","Limin' Large","Fruit/lime.png","Won","0.8,0.35","8","0.8","284","50","",""
"html-keyboard-response","160","364380","0.0-11.0-1.50","5fee456f8929f014481adff9","bdp_rwlrn","Wed Mar 15 2023 22:21:53 GMT-0400 (Eastern Daylight Time)","601134","Trustworthy,Untrustworthy","","","","decision","","255","","<div class='trialDiv'><img src='Fruit/mango.png'><br><font class='baseline'><strong>Mega Mangos</strong><p>Choose number of points to bet.</font><div class='respPicDiv'><img src='img/responseButtonOffersNo0L.png' class='respPic'></div></div>","5","17","Mega Mangos","Fruit/mango.png","Won","0.65,0.35","11","0.65","289","51","",""
"html-keyboard-response","161","364633","0.0-11.0-2.50","5fee456f8929f014481adff9","bdp_rwlrn","Wed Mar 15 2023 22:21:53 GMT-0400 (Eastern Daylight Time)","601134","Trustworthy,Untrustworthy","","","","decisionFB","","null","","<div class='trialDiv'><img src='Fruit/mango.png'><br><font class='baseline'><strong>Mega Mangos</strong><p>Choose number of points to bet.</font><div class='respPicDiv'><img src='img/responseButtonOffersNo0L5.png' class='respPic'></div></div>","null","17","Mega Mangos","Fruit/mango.png","Won","0.65,0.35","11","0.65","284","51","",""
"html-keyboard-response","162","365634","0.0-11.0-3.50","5fee456f8929f014481adff9","bdp_rwlrn","Wed Mar 15 2023 22:21:53 GMT-0400 (Eastern Daylight Time)","601134","Trustworthy,Untrustworthy","","","","feedback","","null","","<div class='respPicDiv'><img src='img/responseButtonOffersNo0_wht.png' class='respPic'></div><div class='trialDiv'><img src='Fruit/mango.png'><br><font class='baseline'><strong>Mega Mangos</strong><p><strong><font class='posOutcome'>You WON</font><p>You bet: 5</strong></font> &nbsp; &nbsp; &nbsp; &nbsp; &nbsp; &nbsp;<font class='posOutcome'>you receive: <strong>10</strong></font></div>","null","17","Mega Mangos","Fruit/mango.png","Won","0.65,0.35","11","0.65","294","51","",""
"html-keyboard-response","163","366090","0.0-11.0-1.51","5fee456f8929f014481adff9","bdp_rwlrn","Wed Mar 15 2023 22:21:53 GMT-0400 (Eastern Daylight Time)","601134","Trustworthy,Untrustworthy","","","","decision","","455","","<div class='trialDiv'><img src='Fruit/lime.png'><br><font class='baseline'><strong>Limin' Large</strong><p>Choose number of points to bet.</font><div class='respPicDiv'><img src='img/responseButtonOffersNo0L.png' class='respPic'></div></div>","5","18","Limin' Large","Fruit/lime.png","Won","0.8,0.35","8","0.8","299","52","",""
