"trial_type","trial_index","time_elapsed","internal_node_id","subject_id","task","startTime","totalTime","labels","view_history","rt","event","trial","time","trialtype","success","stimulus","key_press","ltround","name","fileID","outcome","lottotype","lottoswpt","lottocurrpshare","point_total","round","faceID","face"
"pavlovia","0","2","0.0-0.0","5d2a49241d8d930001c263a7","bdp_rwlrn","Tue Mar 14 2023 00:09:01 GMT-0400 (Eastern Daylight Time)","506116","Trustworthy,Untrustworthy","","","","","","","","","","","","","","","","","","","",""
"instructions","1","4618","0.0-1.0","5d2a49241d8d930001c263a7","bdp_rwlrn","Tue Mar 14 2023 00:09:01 GMT-0400 (Eastern Daylight Time)","506116","Trustworthy,Untrustworthy","[{""page_index"":0,""viewing_time"":4616}]","4616","","","","","","","","","","","","","","","","","",""
"","","","","5d2a49241d8d930001c263a7","bdp_rwlrn","Tue Mar 14 2023 00:09:01 GMT-0400 (Eastern Daylight Time)","506116","Trustworthy,Untrustworthy","","","fullscreenenter","2","9617","fullscreenenter","","","","","","","","","","","","","",""
"fullscreen","2","10586","0.0-2.0","5d2a49241d8d930001c263a7","bdp_rwlrn","Tue Mar 14 2023 00:09:01 GMT-0400 (Eastern Daylight Time)","506116","Trustworthy,Untrustworthy","","","","","","","true","","","","","","","","","","","","",""
"instructions","3","78415","0.0-4.0","5d2a49241d8d930001c263a7","bdp_rwlrn","Tue Mar 14 2023 00:09:01 GMT-0400 (Eastern Daylight Time)","506116","Trustworthy,Untrustworthy","[{""page_index"":0,""viewing_time"":10881},{""page_index"":1,""viewing_time"":11970},{""page_index"":2,""viewing_time"":10058},{""page_index"":3,""viewing_time"":4970},{""page_index"":4,""viewing_time"":26371},{""page_index"":5,""viewing_time"":3576}]","67826","","","","","","","","","","","","","","","","","",""
"html-keyboard-response","4","81184","0.0-5.0","5d2a49241d8d930001c263a7","bdp_rwlrn","Tue Mar 14 2023 00:09:01 GMT-0400 (Eastern Daylight Time)","506116","Trustworthy,Untrustworthy","","2768","","","","","","<div class='header' style='text-align:left; position: absolute; top: 5%; left: 5%;'><small>Task 1 of 5</small></div><div class='instruxDiv'><p><strong>1) What is the maximum number of points you can choose to bet on a lottery?</strong></p><p>a) 0</p><p>b) 1</p><p>c) 5</p>","C","","","","","","","","","","",""
"html-keyboard-response","5","83433","0.0-6.0","5d2a49241d8d930001c263a7","bdp_rwlrn","Tue Mar 14 2023 00:09:01 GMT-0400 (Eastern Daylight Time)","506116","Trustworthy,Untrustworthy","","2134","","","","","","<div class='header' style='text-align:left; position: absolute; top: 5%; left: 5%;'><small>Task 1 of 5</small></div><div class='instruxDiv'><p><strong>1) What is the maximum number of points you can choose to bet on a lottery?</strong></p><p>a) 1</p><p>b) 1</p><p style='color:#00FF00'>c) 5</p><h3 style='color:#00FF00'>Correct!</h3><h3 class='center-content'>The correct response is c).</h3><h3 class='center-content'>The maximum number of points you can choose to bet on a lottery is 5 points.</h3><p><em>Press SPACEBAR to continue</em></p></div>"," ","","","","","","","","","","",""
"html-keyboard-response","6","86226","0.0-7.0","5d2a49241d8d930001c263a7","bdp_rwlrn","Tue Mar 14 2023 00:09:01 GMT-0400 (Eastern Daylight Time)","506116","Trustworthy,Untrustworthy","","2687","","","","","","<div class='header' style='text-align:left; position: absolute; top: 5%; left: 5%;'><small>Task 1 of 5</small></div><div class='instruxDiv'><p><strong>2) How many points can you win each round?</strong></p><p>a) 10 points</p><p>b) Double what you bet</p><p>c) Quadruple what you bet</p>","B","","","","","","","","","","",""
"html-keyboard-response","7","87128","0.0-8.0","5d2a49241d8d930001c263a7","bdp_rwlrn","Tue Mar 14 2023 00:09:01 GMT-0400 (Eastern Daylight Time)","506116","Trustworthy,Untrustworthy","","789","","","","","","<div class='header' style='text-align:left; position: absolute; top: 5%; left: 5%;'><small>Task 1 of 5</small></div><div class='instruxDiv'><p><strong>2) How many points can you win each round?</strong></p><p>a) 10 points</p><p style='color:#00FF00'>b) Double what you bet</p><p>c) Quadruple what you bet</p><h3 style='color:#00FF00'>Correct!</h3><h3 class='center-content'>The correct response is b).</h3><h3 class='center-content'>You can win double the amount of points you bet.</h3><p><em>Press SPACEBAR to continue</em></p></div>"," ","","","","","","","","","","",""
"html-keyboard-response","8","92255","0.0-9.0","5d2a49241d8d930001c263a7","bdp_rwlrn","Tue Mar 14 2023 00:09:01 GMT-0400 (Eastern Daylight Time)","506116","Trustworthy,Untrustworthy","","null","","","","","","<div class='header' style='text-align:left; position: absolute; top: 5%; left: 5%;'><small>Task 1 of 5</small></div><div class='instruxDiv'><p>Thank you for completing the quiz<p>These are the actual lotteries you will be playing in the next block:<p><div class='tc' align='center'><img class='introPic' src='Fruit/mixed-berries2.png'><br><strong>Berry Bla$t</strong></div><div class='bl' align='center'><img class='introPic' src='Fruit/plums1.png'><br><strong>Plum Powerball</strong></div><div class='br' align='center'><img class='introPic' src='Fruit/apple.png'><br><strong>Awesome Apples</strong></div></div><p>Across <strong>66 rounds</strong> you will play each lottery <strong>22 times</strong> (in random order).<p style='align:center; color:white'><font <em>Press SPACEBAR to continue</em></p>","null","","","","","","","","","","",""
"instructions","9","96260","0.0-10.0","5d2a49241d8d930001c263a7","bdp_rwlrn","Tue Mar 14 2023 00:09:01 GMT-0400 (Eastern Daylight Time)","506116","Trustworthy,Untrustworthy","[{""page_index"":0,""viewing_time"":1212},{""page_index"":1,""viewing_time"":2791}]","4004","","","","","","","","","","","","","","","","","",""
"html-keyboard-response","10","99049","0.0-11.0-1.0","5d2a49241d8d930001c263a7","bdp_rwlrn","Tue Mar 14 2023 00:09:01 GMT-0400 (Eastern Daylight Time)","506116","Trustworthy,Untrustworthy","","2677","","","","decision","","<div class='trialDiv'><img src='Fruit/mixed-berries2.png'><br><font class='baseline'><strong>Berry Bla$t</strong><p>Choose number of points to bet.</font><div class='respPicDiv'><img src='img/responseButtonOffersNo0L.png' class='respPic'></div></div>","3","1","Berry Bla$t","Fruit/mixed-berries2.png","Won","0.65,0.2","9","0.65","5","1","",""
"html-keyboard-response","11","99303","0.0-11.0-2.0","5d2a49241d8d930001c263a7","bdp_rwlrn","Tue Mar 14 2023 00:09:01 GMT-0400 (Eastern Daylight Time)","506116","Trustworthy,Untrustworthy","","null","","","","decisionFB","","<div class='trialDiv'><img src='Fruit/mixed-berries2.png'><br><font class='baseline'><strong>Berry Bla$t</strong><p>Choose number of points to bet.</font><div class='respPicDiv'><img src='img/responseButtonOffersNo0L3.png' class='respPic'></div></div>","null","1","Berry Bla$t","Fruit/mixed-berries2.png","Won","0.65,0.2","9","0.65","2","1","",""
"html-keyboard-response","12","100318","0.0-11.0-3.0","5d2a49241d8d930001c263a7","bdp_rwlrn","Tue Mar 14 2023 00:09:01 GMT-0400 (Eastern Daylight Time)","506116","Trustworthy,Untrustworthy","","null","","","","feedback","","<div class='respPicDiv'><img src='img/responseButtonOffersNo0_wht.png' class='respPic'></div><div class='trialDiv'><img src='Fruit/mixed-berries2.png'><br><font class='baseline'><strong>Berry Bla$t</strong><p><strong><font class='posOutcome'>You WON</font><p>You bet: 3</strong></font> &nbsp; &nbsp; &nbsp; &nbsp; &nbsp; &nbsp;<font class='posOutcome'>you receive: <strong>6</strong></font></div>","null","1","Berry Bla$t","Fruit/mixed-berries2.png","Won","0.65,0.2","9","0.65","8","1","",""
"html-keyboard-response","13","106004","0.0-11.0-1.1","5d2a49241d8d930001c263a7","bdp_rwlrn","Tue Mar 14 2023 00:09:01 GMT-0400 (Eastern Daylight Time)","506116","Trustworthy,Untrustworthy","","5685","","","","decision","","<div class='trialDiv'><img src='Fruit/apple.png'><br><font class='baseline'><strong>Awesome Apples</strong><p>Choose number of points to bet.</font><div class='respPicDiv'><img src='img/responseButtonOffersNo0L.png' class='respPic'></div></div>","5","1","Awesome Apples","Fruit/apple.png","Lost","0.2,0.8","8","0.2","13","2","",""
"html-keyboard-response","14","106262","0.0-11.0-2.1","5d2a49241d8d930001c263a7","bdp_rwlrn","Tue Mar 14 2023 00:09:01 GMT-0400 (Eastern Daylight Time)","506116","Trustworthy,Untrustworthy","","null","","","","decisionFB","","<div class='trialDiv'><img src='Fruit/apple.png'><br><font class='baseline'><strong>Awesome Apples</strong><p>Choose number of points to bet.</font><div class='respPicDiv'><img src='img/responseButtonOffersNo0L5.png' class='respPic'></div></div>","null","1","Awesome Apples","Fruit/apple.png","Lost","0.2,0.8","8","0.2","8","2","",""
"html-keyboard-response","15","107263","0.0-11.0-3.1","5d2a49241d8d930001c263a7","bdp_rwlrn","Tue Mar 14 2023 00:09:01 GMT-0400 (Eastern Daylight Time)","506116","Trustworthy,Untrustworthy","","null","","","","feedback","","<div class='respPicDiv'><img src='img/responseButtonOffersNo0_wht.png' class='respPic'></div><div class='trialDiv'><img src='Fruit/apple.png'><br><font class='baseline'><strong>Awesome Apples</strong><p><strong><font class='negOutcome'>You LOST</font><p>You bet: 5</strong></font> &nbsp; &nbsp; &nbsp; &nbsp; &nbsp; &nbsp;<font class='negOutcome'>You receive: <strong>0</strong></font></div>","null","1","Awesome Apples","Fruit/apple.png","Lost","0.2,0.8","8","0.2","8","2","",""
"html-keyboard-response","16","109759","0.0-11.0-1.2","5d2a49241d8d930001c263a7","bdp_rwlrn","Tue Mar 14 2023 00:09:01 GMT-0400 (Eastern Daylight Time)","506116","Trustworthy,Untrustworthy","","2495","","","","decision","","<div class='trialDiv'><img src='Fruit/plums1.png'><br><font class='baseline'><strong>Plum Powerball</strong><p>Choose number of points to bet.</font><div class='respPicDiv'><img src='img/responseButtonOffersNo0L.png' class='respPic'></div></div>","2","1","Plum Powerball","Fruit/plums1.png","Lost","0.2,0.65","11","0.2","13","3","",""
"html-keyboard-response","17","110018","0.0-11.0-2.2","5d2a49241d8d930001c263a7","bdp_rwlrn","Tue Mar 14 2023 00:09:01 GMT-0400 (Eastern Daylight Time)","506116","Trustworthy,Untrustworthy","","null","","","","decisionFB","","<div class='trialDiv'><img src='Fruit/plums1.png'><br><font class='baseline'><strong>Plum Powerball</strong><p>Choose number of points to bet.</font><div class='respPicDiv'><img src='img/responseButtonOffersNo0L2.png' class='respPic'></div></div>","null","1","Plum Powerball","Fruit/plums1.png","Lost","0.2,0.65","11","0.2","11","3","",""
"html-keyboard-response","18","111024","0.0-11.0-3.2","5d2a49241d8d930001c263a7","bdp_rwlrn","Tue Mar 14 2023 00:09:01 GMT-0400 (Eastern Daylight Time)","506116","Trustworthy,Untrustworthy","","null","","","","feedback","","<div class='respPicDiv'><img src='img/responseButtonOffersNo0_wht.png' class='respPic'></div><div class='trialDiv'><img src='Fruit/plums1.png'><br><font class='baseline'><strong>Plum Powerball</strong><p><strong><font class='negOutcome'>You LOST</font><p>You bet: 2</strong></font> &nbsp; &nbsp; &nbsp; &nbsp; &nbsp; &nbsp;<font class='negOutcome'>You receive: <strong>0</strong></font></div>","null","1","Plum Powerball","Fruit/plums1.png","Lost","0.2,0.65","11","0.2","11","3","",""
"html-keyboard-response","19","112795","0.0-11.0-1.3","5d2a49241d8d930001c263a7","bdp_rwlrn","Tue Mar 14 2023 00:09:01 GMT-0400 (Eastern Daylight Time)","506116","Trustworthy,Untrustworthy","","1770","","","","decision","","<div class='trialDiv'><img src='Fruit/apple.png'><br><font class='baseline'><strong>Awesome Apples</strong><p>Choose number of points to bet.</font><div class='respPicDiv'><img src='img/responseButtonOffersNo0L.png' class='respPic'></div></div>","3","2","Awesome Apples","Fruit/apple.png","Lost","0.2,0.8","8","0.2","16","4","",""
"html-keyboard-response","20","113060","0.0-11.0-2.3","5d2a49241d8d930001c263a7","bdp_rwlrn","Tue Mar 14 2023 00:09:01 GMT-0400 (Eastern Daylight Time)","506116","Trustworthy,Untrustworthy","","null","","","","decisionFB","","<div class='trialDiv'><img src='Fruit/apple.png'><br><font class='baseline'><strong>Awesome Apples</strong><p>Choose number of points to bet.</font><div class='respPicDiv'><img src='img/responseButtonOffersNo0L3.png' class='respPic'></div></div>","null","2","Awesome Apples","Fruit/apple.png","Lost","0.2,0.8","8","0.2","13","4","",""
"html-keyboard-response","21","114062","0.0-11.0-3.3","5d2a49241d8d930001c263a7","bdp_rwlrn","Tue Mar 14 2023 00:09:01 GMT-0400 (Eastern Daylight Time)","506116","Trustworthy,Untrustworthy","","null","","","","feedback","","<div class='respPicDiv'><img src='img/responseButtonOffersNo0_wht.png' class='respPic'></div><div class='trialDiv'><img src='Fruit/apple.png'><br><font class='baseline'><strong>Awesome Apples</strong><p><strong><font class='negOutcome'>You LOST</font><p>You bet: 3</strong></font> &nbsp; &nbsp; &nbsp; &nbsp; &nbsp; &nbsp;<font class='negOutcome'>You receive: <strong>0</strong></font></div>","null","2","Awesome Apples","Fruit/apple.png","Lost","0.2,0.8","8","0.2","13","4","",""
"html-keyboard-response","22","117839","0.0-11.0-1.4","5d2a49241d8d930001c263a7","bdp_rwlrn","Tue Mar 14 2023 00:09:01 GMT-0400 (Eastern Daylight Time)","506116","Trustworthy,Untrustworthy","","3776","","","","decision","","<div class='trialDiv'><img src='Fruit/plums1.png'><br><font class='baseline'><strong>Plum Powerball</strong><p>Choose number of points to bet.</font><div class='respPicDiv'><img src='img/responseButtonOffersNo0L.png' class='respPic'></div></div>","5","2","Plum Powerball","Fruit/plums1.png","Won","0.2,0.65","11","0.2","18","5","",""
"html-keyboard-response","23","118093","0.0-11.0-2.4","5d2a49241d8d930001c263a7","bdp_rwlrn","Tue Mar 14 2023 00:09:01 GMT-0400 (Eastern Daylight Time)","506116","Trustworthy,Untrustworthy","","null","","","","decisionFB","","<div class='trialDiv'><img src='Fruit/plums1.png'><br><font class='baseline'><strong>Plum Powerball</strong><p>Choose number of points to bet.</font><div class='respPicDiv'><img src='img/responseButtonOffersNo0L5.png' class='respPic'></div></div>","null","2","Plum Powerball","Fruit/plums1.png","Won","0.2,0.65","11","0.2","13","5","",""
"html-keyboard-response","24","119095","0.0-11.0-3.4","5d2a49241d8d930001c263a7","bdp_rwlrn","Tue Mar 14 2023 00:09:01 GMT-0400 (Eastern Daylight Time)","506116","Trustworthy,Untrustworthy","","null","","","","feedback","","<div class='respPicDiv'><img src='img/responseButtonOffersNo0_wht.png' class='respPic'></div><div class='trialDiv'><img src='Fruit/plums1.png'><br><font class='baseline'><strong>Plum Powerball</strong><p><strong><font class='posOutcome'>You WON</font><p>You bet: 5</strong></font> &nbsp; &nbsp; &nbsp; &nbsp; &nbsp; &nbsp;<font class='posOutcome'>you receive: <strong>10</strong></font></div>","null","2","Plum Powerball","Fruit/plums1.png","Won","0.2,0.65","11","0.2","23","5","",""
"html-keyboard-response","25","122449","0.0-11.0-1.5","5d2a49241d8d930001c263a7","bdp_rwlrn","Tue Mar 14 2023 00:09:01 GMT-0400 (Eastern Daylight Time)","506116","Trustworthy,Untrustworthy","","3353","","","","decision","","<div class='trialDiv'><img src='Fruit/mixed-berries2.png'><br><font class='baseline'><strong>Berry Bla$t</strong><p>Choose number of points to bet.</font><div class='respPicDiv'><img src='img/responseButtonOffersNo0L.png' class='respPic'></div></div>","2","2","Berry Bla$t","Fruit/mixed-berries2.png","Lost","0.65,0.2","9","0.65","28","6","",""
"html-keyboard-response","26","122711","0.0-11.0-2.5","5d2a49241d8d930001c263a7","bdp_rwlrn","Tue Mar 14 2023 00:09:01 GMT-0400 (Eastern Daylight Time)","506116","Trustworthy,Untrustworthy","","null","","","","decisionFB","","<div class='trialDiv'><img src='Fruit/mixed-berries2.png'><br><font class='baseline'><strong>Berry Bla$t</strong><p>Choose number of points to bet.</font><div class='respPicDiv'><img src='img/responseButtonOffersNo0L2.png' class='respPic'></div></div>","null","2","Berry Bla$t","Fruit/mixed-berries2.png","Lost","0.65,0.2","9","0.65","26","6","",""
"html-keyboard-response","27","123721","0.0-11.0-3.5","5d2a49241d8d930001c263a7","bdp_rwlrn","Tue Mar 14 2023 00:09:01 GMT-0400 (Eastern Daylight Time)","506116","Trustworthy,Untrustworthy","","null","","","","feedback","","<div class='respPicDiv'><img src='img/responseButtonOffersNo0_wht.png' class='respPic'></div><div class='trialDiv'><img src='Fruit/mixed-berries2.png'><br><font class='baseline'><strong>Berry Bla$t</strong><p><strong><font class='negOutcome'>You LOST</font><p>You bet: 2</strong></font> &nbsp; &nbsp; &nbsp; &nbsp; &nbsp; &nbsp;<font class='negOutcome'>You receive: <strong>0</strong></font></div>","null","2","Berry Bla$t","Fruit/mixed-berries2.png","Lost","0.65,0.2","9","0.65","26","6","",""
"html-keyboard-response","28","126700","0.0-11.0-1.6","5d2a49241d8d930001c263a7","bdp_rwlrn","Tue Mar 14 2023 00:09:01 GMT-0400 (Eastern Daylight Time)","506116","Trustworthy,Untrustworthy","","2978","","","","decision","","<div class='trialDiv'><img src='Fruit/apple.png'><br><font class='baseline'><strong>Awesome Apples</strong><p>Choose number of points to bet.</font><div class='respPicDiv'><img src='img/responseButtonOffersNo0L.png' class='respPic'></div></div>","4","3","Awesome Apples","Fruit/apple.png","Lost","0.2,0.8","8","0.2","31","7","",""
"html-keyboard-response","29","126956","0.0-11.0-2.6","5d2a49241d8d930001c263a7","bdp_rwlrn","Tue Mar 14 2023 00:09:01 GMT-0400 (Eastern Daylight Time)","506116","Trustworthy,Untrustworthy","","null","","","","decisionFB","","<div class='trialDiv'><img src='Fruit/apple.png'><br><font class='baseline'><strong>Awesome Apples</strong><p>Choose number of points to bet.</font><div class='respPicDiv'><img src='img/responseButtonOffersNo0L4.png' class='respPic'></div></div>","null","3","Awesome Apples","Fruit/apple.png","Lost","0.2,0.8","8","0.2","27","7","",""
"html-keyboard-response","30","127964","0.0-11.0-3.6","5d2a49241d8d930001c263a7","bdp_rwlrn","Tue Mar 14 2023 00:09:01 GMT-0400 (Eastern Daylight Time)","506116","Trustworthy,Untrustworthy","","null","","","","feedback","","<div class='respPicDiv'><img src='img/responseButtonOffersNo0_wht.png' class='respPic'></div><div class='trialDiv'><img src='Fruit/apple.png'><br><font class='baseline'><strong>Awesome Apples</strong><p><strong><font class='negOutcome'>You LOST</font><p>You bet: 4</strong></font> &nbsp; &nbsp; &nbsp; &nbsp; &nbsp; &nbsp;<font class='negOutcome'>You receive: <strong>0</strong></font></div>","null","3","Awesome Apples","Fruit/apple.png","Lost","0.2,0.8","8","0.2","27","7","",""
"html-keyboard-response","31","130030","0.0-11.0-1.7","5d2a49241d8d930001c263a7","bdp_rwlrn","Tue Mar 14 2023 00:09:01 GMT-0400 (Eastern Daylight Time)","506116","Trustworthy,Untrustworthy","","2065","","","","decision","","<div class='trialDiv'><img src='Fruit/mixed-berries2.png'><br><font class='baseline'><strong>Berry Bla$t</strong><p>Choose number of points to bet.</font><div class='respPicDiv'><img src='img/responseButtonOffersNo0L.png' class='respPic'></div></div>","2","3","Berry Bla$t","Fruit/mixed-berries2.png","Lost","0.65,0.2","9","0.65","32","8","",""
"html-keyboard-response","32","130296","0.0-11.0-2.7","5d2a49241d8d930001c263a7","bdp_rwlrn","Tue Mar 14 2023 00:09:01 GMT-0400 (Eastern Daylight Time)","506116","Trustworthy,Untrustworthy","","null","","","","decisionFB","","<div class='trialDiv'><img src='Fruit/mixed-berries2.png'><br><font class='baseline'><strong>Berry Bla$t</strong><p>Choose number of points to bet.</font><div class='respPicDiv'><img src='img/responseButtonOffersNo0L2.png' class='respPic'></div></div>","null","3","Berry Bla$t","Fruit/mixed-berries2.png","Lost","0.65,0.2","9","0.65","30","8","",""
"html-keyboard-response","33","131310","0.0-11.0-3.7","5d2a49241d8d930001c263a7","bdp_rwlrn","Tue Mar 14 2023 00:09:01 GMT-0400 (Eastern Daylight Time)","506116","Trustworthy,Untrustworthy","","null","","","","feedback","","<div class='respPicDiv'><img src='img/responseButtonOffersNo0_wht.png' class='respPic'></div><div class='trialDiv'><img src='Fruit/mixed-berries2.png'><br><font class='baseline'><strong>Berry Bla$t</strong><p><strong><font class='negOutcome'>You LOST</font><p>You bet: 2</strong></font> &nbsp; &nbsp; &nbsp; &nbsp; &nbsp; &nbsp;<font class='negOutcome'>You receive: <strong>0</strong></font></div>","null","3","Berry Bla$t","Fruit/mixed-berries2.png","Lost","0.65,0.2","9","0.65","30","8","",""
"html-keyboard-response","34","133500","0.0-11.0-1.8","5d2a49241d8d930001c263a7","bdp_rwlrn","Tue Mar 14 2023 00:09:01 GMT-0400 (Eastern Daylight Time)","506116","Trustworthy,Untrustworthy","","2188","","","","decision","","<div class='trialDiv'><img src='Fruit/plums1.png'><br><font class='baseline'><strong>Plum Powerball</strong><p>Choose number of points to bet.</font><div class='respPicDiv'><img src='img/responseButtonOffersNo0L.png' class='respPic'></div></div>","5","3","Plum Powerball","Fruit/plums1.png","Lost","0.2,0.65","11","0.2","35","9","",""
"html-keyboard-response","35","133751","0.0-11.0-2.8","5d2a49241d8d930001c263a7","bdp_rwlrn","Tue Mar 14 2023 00:09:01 GMT-0400 (Eastern Daylight Time)","506116","Trustworthy,Untrustworthy","","null","","","","decisionFB","","<div class='trialDiv'><img src='Fruit/plums1.png'><br><font class='baseline'><strong>Plum Powerball</strong><p>Choose number of points to bet.</font><div class='respPicDiv'><img src='img/responseButtonOffersNo0L5.png' class='respPic'></div></div>","null","3","Plum Powerball","Fruit/plums1.png","Lost","0.2,0.65","11","0.2","30","9","",""
"html-keyboard-response","36","134765","0.0-11.0-3.8","5d2a49241d8d930001c263a7","bdp_rwlrn","Tue Mar 14 2023 00:09:01 GMT-0400 (Eastern Daylight Time)","506116","Trustworthy,Untrustworthy","","null","","","","feedback","","<div class='respPicDiv'><img src='img/responseButtonOffersNo0_wht.png' class='respPic'></div><div class='trialDiv'><img src='Fruit/plums1.png'><br><font class='baseline'><strong>Plum Powerball</strong><p><strong><font class='negOutcome'>You LOST</font><p>You bet: 5</strong></font> &nbsp; &nbsp; &nbsp; &nbsp; &nbsp; &nbsp;<font class='negOutcome'>You receive: <strong>0</strong></font></div>","null","3","Plum Powerball","Fruit/plums1.png","Lost","0.2,0.65","11","0.2","30","9","",""
"html-keyboard-response","37","136578","0.0-11.0-1.9","5d2a49241d8d930001c263a7","bdp_rwlrn","Tue Mar 14 2023 00:09:01 GMT-0400 (Eastern Daylight Time)","506116","Trustworthy,Untrustworthy","","1812","","","","decision","","<div class='trialDiv'><img src='Fruit/mixed-berries2.png'><br><font class='baseline'><strong>Berry Bla$t</strong><p>Choose number of points to bet.</font><div class='respPicDiv'><img src='img/responseButtonOffersNo0L.png' class='respPic'></div></div>","4","4","Berry Bla$t","Fruit/mixed-berries2.png","Won","0.65,0.2","9","0.65","35","10","",""
"html-keyboard-response","38","136833","0.0-11.0-2.9","5d2a49241d8d930001c263a7","bdp_rwlrn","Tue Mar 14 2023 00:09:01 GMT-0400 (Eastern Daylight Time)","506116","Trustworthy,Untrustworthy","","null","","","","decisionFB","","<div class='trialDiv'><img src='Fruit/mixed-berries2.png'><br><font class='baseline'><strong>Berry Bla$t</strong><p>Choose number of points to bet.</font><div class='respPicDiv'><img src='img/responseButtonOffersNo0L4.png' class='respPic'></div></div>","null","4","Berry Bla$t","Fruit/mixed-berries2.png","Won","0.65,0.2","9","0.65","31","10","",""
"html-keyboard-response","39","137835","0.0-11.0-3.9","5d2a49241d8d930001c263a7","bdp_rwlrn","Tue Mar 14 2023 00:09:01 GMT-0400 (Eastern Daylight Time)","506116","Trustworthy,Untrustworthy","","null","","","","feedback","","<div class='respPicDiv'><img src='img/responseButtonOffersNo0_wht.png' class='respPic'></div><div class='trialDiv'><img src='Fruit/mixed-berries2.png'><br><font class='baseline'><strong>Berry Bla$t</strong><p><strong><font class='posOutcome'>You WON</font><p>You bet: 4</strong></font> &nbsp; &nbsp; &nbsp; &nbsp; &nbsp; &nbsp;<font class='posOutcome'>you receive: <strong>8</strong></font></div>","null","4","Berry Bla$t","Fruit/mixed-berries2.png","Won","0.65,0.2","9","0.65","39","10","",""
"html-keyboard-response","40","139593","0.0-11.0-1.10","5d2a49241d8d930001c263a7","bdp_rwlrn","Tue Mar 14 2023 00:09:01 GMT-0400 (Eastern Daylight Time)","506116","Trustworthy,Untrustworthy","","1757","","","","decision","","<div class='trialDiv'><img src='Fruit/plums1.png'><br><font class='baseline'><strong>Plum Powerball</strong><p>Choose number of points to bet.</font><div class='respPicDiv'><img src='img/responseButtonOffersNo0L.png' class='respPic'></div></div>","4","4","Plum Powerball","Fruit/plums1.png","Lost","0.2,0.65","11","0.2","44","11","",""
"html-keyboard-response","41","139845","0.0-11.0-2.10","5d2a49241d8d930001c263a7","bdp_rwlrn","Tue Mar 14 2023 00:09:01 GMT-0400 (Eastern Daylight Time)","506116","Trustworthy,Untrustworthy","","null","","","","decisionFB","","<div class='trialDiv'><img src='Fruit/plums1.png'><br><font class='baseline'><strong>Plum Powerball</strong><p>Choose number of points to bet.</font><div class='respPicDiv'><img src='img/responseButtonOffersNo0L4.png' class='respPic'></div></div>","null","4","Plum Powerball","Fruit/plums1.png","Lost","0.2,0.65","11","0.2","40","11","",""
"html-keyboard-response","42","140856","0.0-11.0-3.10","5d2a49241d8d930001c263a7","bdp_rwlrn","Tue Mar 14 2023 00:09:01 GMT-0400 (Eastern Daylight Time)","506116","Trustworthy,Untrustworthy","","null","","","","feedback","","<div class='respPicDiv'><img src='img/responseButtonOffersNo0_wht.png' class='respPic'></div><div class='trialDiv'><img src='Fruit/plums1.png'><br><font class='baseline'><strong>Plum Powerball</strong><p><strong><font class='negOutcome'>You LOST</font><p>You bet: 4</strong></font> &nbsp; &nbsp; &nbsp; &nbsp; &nbsp; &nbsp;<font class='negOutcome'>You receive: <strong>0</strong></font></div>","null","4","Plum Powerball","Fruit/plums1.png","Lost","0.2,0.65","11","0.2","40","11","",""
"html-keyboard-response","43","142361","0.0-11.0-1.11","5d2a49241d8d930001c263a7","bdp_rwlrn","Tue Mar 14 2023 00:09:01 GMT-0400 (Eastern Daylight Time)","506116","Trustworthy,Untrustworthy","","1504","","","","decision","","<div class='trialDiv'><img src='Fruit/apple.png'><br><font class='baseline'><strong>Awesome Apples</strong><p>Choose number of points to bet.</font><div class='respPicDiv'><img src='img/responseButtonOffersNo0L.png' class='respPic'></div></div>","2","4","Awesome Apples","Fruit/apple.png","Won","0.2,0.8","8","0.2","45","12","",""
"html-keyboard-response","44","142624","0.0-11.0-2.11","5d2a49241d8d930001c263a7","bdp_rwlrn","Tue Mar 14 2023 00:09:01 GMT-0400 (Eastern Daylight Time)","506116","Trustworthy,Untrustworthy","","null","","","","decisionFB","","<div class='trialDiv'><img src='Fruit/apple.png'><br><font class='baseline'><strong>Awesome Apples</strong><p>Choose number of points to bet.</font><div class='respPicDiv'><img src='img/responseButtonOffersNo0L2.png' class='respPic'></div></div>","null","4","Awesome Apples","Fruit/apple.png","Won","0.2,0.8","8","0.2","43","12","",""
"html-keyboard-response","45","143633","0.0-11.0-3.11","5d2a49241d8d930001c263a7","bdp_rwlrn","Tue Mar 14 2023 00:09:01 GMT-0400 (Eastern Daylight Time)","506116","Trustworthy,Untrustworthy","","null","","","","feedback","","<div class='respPicDiv'><img src='img/responseButtonOffersNo0_wht.png' class='respPic'></div><div class='trialDiv'><img src='Fruit/apple.png'><br><font class='baseline'><strong>Awesome Apples</strong><p><strong><font class='posOutcome'>You WON</font><p>You bet: 2</strong></font> &nbsp; &nbsp; &nbsp; &nbsp; &nbsp; &nbsp;<font class='posOutcome'>you receive: <strong>4</strong></font></div>","null","4","Awesome Apples","Fruit/apple.png","Won","0.2,0.8","8","0.2","47","12","",""
"html-keyboard-response","46","146076","0.0-11.0-1.12","5d2a49241d8d930001c263a7","bdp_rwlrn","Tue Mar 14 2023 00:09:01 GMT-0400 (Eastern Daylight Time)","506116","Trustworthy,Untrustworthy","","2442","","","","decision","","<div class='trialDiv'><img src='Fruit/plums1.png'><br><font class='baseline'><strong>Plum Powerball</strong><p>Choose number of points to bet.</font><div class='respPicDiv'><img src='img/responseButtonOffersNo0L.png' class='respPic'></div></div>","5","5","Plum Powerball","Fruit/plums1.png","Lost","0.2,0.65","11","0.2","52","13","",""
"html-keyboard-response","47","146335","0.0-11.0-2.12","5d2a49241d8d930001c263a7","bdp_rwlrn","Tue Mar 14 2023 00:09:01 GMT-0400 (Eastern Daylight Time)","506116","Trustworthy,Untrustworthy","","null","","","","decisionFB","","<div class='trialDiv'><img src='Fruit/plums1.png'><br><font class='baseline'><strong>Plum Powerball</strong><p>Choose number of points to bet.</font><div class='respPicDiv'><img src='img/responseButtonOffersNo0L5.png' class='respPic'></div></div>","null","5","Plum Powerball","Fruit/plums1.png","Lost","0.2,0.65","11","0.2","47","13","",""
"html-keyboard-response","48","147346","0.0-11.0-3.12","5d2a49241d8d930001c263a7","bdp_rwlrn","Tue Mar 14 2023 00:09:01 GMT-0400 (Eastern Daylight Time)","506116","Trustworthy,Untrustworthy","","null","","","","feedback","","<div class='respPicDiv'><img src='img/responseButtonOffersNo0_wht.png' class='respPic'></div><div class='trialDiv'><img src='Fruit/plums1.png'><br><font class='baseline'><strong>Plum Powerball</strong><p><strong><font class='negOutcome'>You LOST</font><p>You bet: 5</strong></font> &nbsp; &nbsp; &nbsp; &nbsp; &nbsp; &nbsp;<font class='negOutcome'>You receive: <strong>0</strong></font></div>","null","5","Plum Powerball","Fruit/plums1.png","Lost","0.2,0.65","11","0.2","47","13","",""
"html-keyboard-response","49","148728","0.0-11.0-1.13","5d2a49241d8d930001c263a7","bdp_rwlrn","Tue Mar 14 2023 00:09:01 GMT-0400 (Eastern Daylight Time)","506116","Trustworthy,Untrustworthy","","1382","","","","decision","","<div class='trialDiv'><img src='Fruit/mixed-berries2.png'><br><font class='baseline'><strong>Berry Bla$t</strong><p>Choose number of points to bet.</font><div class='respPicDiv'><img src='img/responseButtonOffersNo0L.png' class='respPic'></div></div>","2","5","Berry Bla$t","Fruit/mixed-berries2.png","Won","0.65,0.2","9","0.65","52","14","",""
"html-keyboard-response","50","148981","0.0-11.0-2.13","5d2a49241d8d930001c263a7","bdp_rwlrn","Tue Mar 14 2023 00:09:01 GMT-0400 (Eastern Daylight Time)","506116","Trustworthy,Untrustworthy","","null","","","","decisionFB","","<div class='trialDiv'><img src='Fruit/mixed-berries2.png'><br><font class='baseline'><strong>Berry Bla$t</strong><p>Choose number of points to bet.</font><div class='respPicDiv'><img src='img/responseButtonOffersNo0L2.png' class='respPic'></div></div>","null","5","Berry Bla$t","Fruit/mixed-berries2.png","Won","0.65,0.2","9","0.65","50","14","",""
"html-keyboard-response","51","149995","0.0-11.0-3.13","5d2a49241d8d930001c263a7","bdp_rwlrn","Tue Mar 14 2023 00:09:01 GMT-0400 (Eastern Daylight Time)","506116","Trustworthy,Untrustworthy","","null","","","","feedback","","<div class='respPicDiv'><img src='img/responseButtonOffersNo0_wht.png' class='respPic'></div><div class='trialDiv'><img src='Fruit/mixed-berries2.png'><br><font class='baseline'><strong>Berry Bla$t</strong><p><strong><font class='posOutcome'>You WON</font><p>You bet: 2</strong></font> &nbsp; &nbsp; &nbsp; &nbsp; &nbsp; &nbsp;<font class='posOutcome'>you receive: <strong>4</strong></font></div>","null","5","Berry Bla$t","Fruit/mixed-berries2.png","Won","0.65,0.2","9","0.65","54","14","",""
"html-keyboard-response","52","151472","0.0-11.0-1.14","5d2a49241d8d930001c263a7","bdp_rwlrn","Tue Mar 14 2023 00:09:01 GMT-0400 (Eastern Daylight Time)","506116","Trustworthy,Untrustworthy","","1477","","","","decision","","<div class='trialDiv'><img src='Fruit/apple.png'><br><font class='baseline'><strong>Awesome Apples</strong><p>Choose number of points to bet.</font><div class='respPicDiv'><img src='img/responseButtonOffersNo0L.png' class='respPic'></div></div>","1","5","Awesome Apples","Fruit/apple.png","Lost","0.2,0.8","8","0.2","59","15","",""
"html-keyboard-response","53","151733","0.0-11.0-2.14","5d2a49241d8d930001c263a7","bdp_rwlrn","Tue Mar 14 2023 00:09:01 GMT-0400 (Eastern Daylight Time)","506116","Trustworthy,Untrustworthy","","null","","","","decisionFB","","<div class='trialDiv'><img src='Fruit/apple.png'><br><font class='baseline'><strong>Awesome Apples</strong><p>Choose number of points to bet.</font><div class='respPicDiv'><img src='img/responseButtonOffersNo0L1.png' class='respPic'></div></div>","null","5","Awesome Apples","Fruit/apple.png","Lost","0.2,0.8","8","0.2","58","15","",""
"html-keyboard-response","54","152735","0.0-11.0-3.14","5d2a49241d8d930001c263a7","bdp_rwlrn","Tue Mar 14 2023 00:09:01 GMT-0400 (Eastern Daylight Time)","506116","Trustworthy,Untrustworthy","","null","","","","feedback","","<div class='respPicDiv'><img src='img/responseButtonOffersNo0_wht.png' class='respPic'></div><div class='trialDiv'><img src='Fruit/apple.png'><br><font class='baseline'><strong>Awesome Apples</strong><p><strong><font class='negOutcome'>You LOST</font><p>You bet: 1</strong></font> &nbsp; &nbsp; &nbsp; &nbsp; &nbsp; &nbsp;<font class='negOutcome'>You receive: <strong>0</strong></font></div>","null","5","Awesome Apples","Fruit/apple.png","Lost","0.2,0.8","8","0.2","58","15","",""
"html-keyboard-response","55","154038","0.0-11.0-1.15","5d2a49241d8d930001c263a7","bdp_rwlrn","Tue Mar 14 2023 00:09:01 GMT-0400 (Eastern Daylight Time)","506116","Trustworthy,Untrustworthy","","1302","","","","decision","","<div class='trialDiv'><img src='Fruit/mixed-berries2.png'><br><font class='baseline'><strong>Berry Bla$t</strong><p>Choose number of points to bet.</font><div class='respPicDiv'><img src='img/responseButtonOffersNo0L.png' class='respPic'></div></div>","3","6","Berry Bla$t","Fruit/mixed-berries2.png","Lost","0.65,0.2","9","0.65","63","16","",""
"html-keyboard-response","56","154304","0.0-11.0-2.15","5d2a49241d8d930001c263a7","bdp_rwlrn","Tue Mar 14 2023 00:09:01 GMT-0400 (Eastern Daylight Time)","506116","Trustworthy,Untrustworthy","","null","","","","decisionFB","","<div class='trialDiv'><img src='Fruit/mixed-berries2.png'><br><font class='baseline'><strong>Berry Bla$t</strong><p>Choose number of points to bet.</font><div class='respPicDiv'><img src='img/responseButtonOffersNo0L3.png' class='respPic'></div></div>","null","6","Berry Bla$t","Fruit/mixed-berries2.png","Lost","0.65,0.2","9","0.65","60","16","",""
"html-keyboard-response","57","155312","0.0-11.0-3.15","5d2a49241d8d930001c263a7","bdp_rwlrn","Tue Mar 14 2023 00:09:01 GMT-0400 (Eastern Daylight Time)","506116","Trustworthy,Untrustworthy","","null","","","","feedback","","<div class='respPicDiv'><img src='img/responseButtonOffersNo0_wht.png' class='respPic'></div><div class='trialDiv'><img src='Fruit/mixed-berries2.png'><br><font class='baseline'><strong>Berry Bla$t</strong><p><strong><font class='negOutcome'>You LOST</font><p>You bet: 3</strong></font> &nbsp; &nbsp; &nbsp; &nbsp; &nbsp; &nbsp;<font class='negOutcome'>You receive: <strong>0</strong></font></div>","null","6","Berry Bla$t","Fruit/mixed-berries2.png","Lost","0.65,0.2","9","0.65","60","16","",""
"html-keyboard-response","58","157552","0.0-11.0-1.16","5d2a49241d8d930001c263a7","bdp_rwlrn","Tue Mar 14 2023 00:09:01 GMT-0400 (Eastern Daylight Time)","506116","Trustworthy,Untrustworthy","","2240","","","","decision","","<div class='trialDiv'><img src='Fruit/apple.png'><br><font class='baseline'><strong>Awesome Apples</strong><p>Choose number of points to bet.</font><div class='respPicDiv'><img src='img/responseButtonOffersNo0L.png' class='respPic'></div></div>","5","6","Awesome Apples","Fruit/apple.png","Lost","0.2,0.8","8","0.2","65","17","",""
"html-keyboard-response","59","157811","0.0-11.0-2.16","5d2a49241d8d930001c263a7","bdp_rwlrn","Tue Mar 14 2023 00:09:01 GMT-0400 (Eastern Daylight Time)","506116","Trustworthy,Untrustworthy","","null","","","","decisionFB","","<div class='trialDiv'><img src='Fruit/apple.png'><br><font class='baseline'><strong>Awesome Apples</strong><p>Choose number of points to bet.</font><div class='respPicDiv'><img src='img/responseButtonOffersNo0L5.png' class='respPic'></div></div>","null","6","Awesome Apples","Fruit/apple.png","Lost","0.2,0.8","8","0.2","60","17","",""
"html-keyboard-response","60","158825","0.0-11.0-3.16","5d2a49241d8d930001c263a7","bdp_rwlrn","Tue Mar 14 2023 00:09:01 GMT-0400 (Eastern Daylight Time)","506116","Trustworthy,Untrustworthy","","null","","","","feedback","","<div class='respPicDiv'><img src='img/responseButtonOffersNo0_wht.png' class='respPic'></div><div class='trialDiv'><img src='Fruit/apple.png'><br><font class='baseline'><strong>Awesome Apples</strong><p><strong><font class='negOutcome'>You LOST</font><p>You bet: 5</strong></font> &nbsp; &nbsp; &nbsp; &nbsp; &nbsp; &nbsp;<font class='negOutcome'>You receive: <strong>0</strong></font></div>","null","6","Awesome Apples","Fruit/apple.png","Lost","0.2,0.8","8","0.2","60","17","",""
"html-keyboard-response","61","161282","0.0-11.0-1.17","5d2a49241d8d930001c263a7","bdp_rwlrn","Tue Mar 14 2023 00:09:01 GMT-0400 (Eastern Daylight Time)","506116","Trustworthy,Untrustworthy","","2456","","","","decision","","<div class='trialDiv'><img src='Fruit/plums1.png'><br><font class='baseline'><strong>Plum Powerball</strong><p>Choose number of points to bet.</font><div class='respPicDiv'><img src='img/responseButtonOffersNo0L.png' class='respPic'></div></div>","4","6","Plum Powerball","Fruit/plums1.png","Lost","0.2,0.65","11","0.2","65","18","",""
"html-keyboard-response","62","161543","0.0-11.0-2.17","5d2a49241d8d930001c263a7","bdp_rwlrn","Tue Mar 14 2023 00:09:01 GMT-0400 (Eastern Daylight Time)","506116","Trustworthy,Untrustworthy","","null","","","","decisionFB","","<div class='trialDiv'><img src='Fruit/plums1.png'><br><font class='baseline'><strong>Plum Powerball</strong><p>Choose number of points to bet.</font><div class='respPicDiv'><img src='img/responseButtonOffersNo0L4.png' class='respPic'></div></div>","null","6","Plum Powerball","Fruit/plums1.png","Lost","0.2,0.65","11","0.2","61","18","",""
"html-keyboard-response","63","162551","0.0-11.0-3.17","5d2a49241d8d930001c263a7","bdp_rwlrn","Tue Mar 14 2023 00:09:01 GMT-0400 (Eastern Daylight Time)","506116","Trustworthy,Untrustworthy","","null","","","","feedback","","<div class='respPicDiv'><img src='img/responseButtonOffersNo0_wht.png' class='respPic'></div><div class='trialDiv'><img src='Fruit/plums1.png'><br><font class='baseline'><strong>Plum Powerball</strong><p><strong><font class='negOutcome'>You LOST</font><p>You bet: 4</strong></font> &nbsp; &nbsp; &nbsp; &nbsp; &nbsp; &nbsp;<font class='negOutcome'>You receive: <strong>0</strong></font></div>","null","6","Plum Powerball","Fruit/plums1.png","Lost","0.2,0.65","11","0.2","61","18","",""
"html-keyboard-response","64","163802","0.0-11.0-1.18","5d2a49241d8d930001c263a7","bdp_rwlrn","Tue Mar 14 2023 00:09:01 GMT-0400 (Eastern Daylight Time)","506116","Trustworthy,Untrustworthy","","1250","","","","decision","","<div class='trialDiv'><img src='Fruit/mixed-berries2.png'><br><font class='baseline'><strong>Berry Bla$t</strong><p>Choose number of points to bet.</font><div class='respPicDiv'><img src='img/responseButtonOffersNo0L.png' class='respPic'></div></div>","4","7","Berry Bla$t","Fruit/mixed-berries2.png","Won","0.65,0.2","9","0.65","66","19","",""
"html-keyboard-response","65","164069","0.0-11.0-2.18","5d2a49241d8d930001c263a7","bdp_rwlrn","Tue Mar 14 2023 00:09:01 GMT-0400 (Eastern Daylight Time)","506116","Trustworthy,Untrustworthy","","null","","","","decisionFB","","<div class='trialDiv'><img src='Fruit/mixed-berries2.png'><br><font class='baseline'><strong>Berry Bla$t</strong><p>Choose number of points to bet.</font><div class='respPicDiv'><img src='img/responseButtonOffersNo0L4.png' class='respPic'></div></div>","null","7","Berry Bla$t","Fruit/mixed-berries2.png","Won","0.65,0.2","9","0.65","62","19","",""
"html-keyboard-response","66","165078","0.0-11.0-3.18","5d2a49241d8d930001c263a7","bdp_rwlrn","Tue Mar 14 2023 00:09:01 GMT-0400 (Eastern Daylight Time)","506116","Trustworthy,Untrustworthy","","null","","","","feedback","","<div class='respPicDiv'><img src='img/responseButtonOffersNo0_wht.png' class='respPic'></div><div class='trialDiv'><img src='Fruit/mixed-berries2.png'><br><font class='baseline'><strong>Berry Bla$t</strong><p><strong><font class='posOutcome'>You WON</font><p>You bet: 4</strong></font> &nbsp; &nbsp; &nbsp; &nbsp; &nbsp; &nbsp;<font class='posOutcome'>you receive: <strong>8</strong></font></div>","null","7","Berry Bla$t","Fruit/mixed-berries2.png","Won","0.65,0.2","9","0.65","70","19","",""
"html-keyboard-response","67","167834","0.0-11.0-1.19","5d2a49241d8d930001c263a7","bdp_rwlrn","Tue Mar 14 2023 00:09:01 GMT-0400 (Eastern Daylight Time)","506116","Trustworthy,Untrustworthy","","2755","","","","decision","","<div class='trialDiv'><img src='Fruit/apple.png'><br><font class='baseline'><strong>Awesome Apples</strong><p>Choose number of points to bet.</font><div class='respPicDiv'><img src='img/responseButtonOffersNo0L.png' class='respPic'></div></div>","5","7","Awesome Apples","Fruit/apple.png","Lost","0.2,0.8","8","0.2","75","20","",""
"html-keyboard-response","68","168091","0.0-11.0-2.19","5d2a49241d8d930001c263a7","bdp_rwlrn","Tue Mar 14 2023 00:09:01 GMT-0400 (Eastern Daylight Time)","506116","Trustworthy,Untrustworthy","","null","","","","decisionFB","","<div class='trialDiv'><img src='Fruit/apple.png'><br><font class='baseline'><strong>Awesome Apples</strong><p>Choose number of points to bet.</font><div class='respPicDiv'><img src='img/responseButtonOffersNo0L5.png' class='respPic'></div></div>","null","7","Awesome Apples","Fruit/apple.png","Lost","0.2,0.8","8","0.2","70","20","",""
"html-keyboard-response","69","169106","0.0-11.0-3.19","5d2a49241d8d930001c263a7","bdp_rwlrn","Tue Mar 14 2023 00:09:01 GMT-0400 (Eastern Daylight Time)","506116","Trustworthy,Untrustworthy","","null","","","","feedback","","<div class='respPicDiv'><img src='img/responseButtonOffersNo0_wht.png' class='respPic'></div><div class='trialDiv'><img src='Fruit/apple.png'><br><font class='baseline'><strong>Awesome Apples</strong><p><strong><font class='negOutcome'>You LOST</font><p>You bet: 5</strong></font> &nbsp; &nbsp; &nbsp; &nbsp; &nbsp; &nbsp;<font class='negOutcome'>You receive: <strong>0</strong></font></div>","null","7","Awesome Apples","Fruit/apple.png","Lost","0.2,0.8","8","0.2","70","20","",""
"html-keyboard-response","70","170755","0.0-11.0-1.20","5d2a49241d8d930001c263a7","bdp_rwlrn","Tue Mar 14 2023 00:09:01 GMT-0400 (Eastern Daylight Time)","506116","Trustworthy,Untrustworthy","","1648","","","","decision","","<div class='trialDiv'><img src='Fruit/plums1.png'><br><font class='baseline'><strong>Plum Powerball</strong><p>Choose number of points to bet.</font><div class='respPicDiv'><img src='img/responseButtonOffersNo0L.png' class='respPic'></div></div>","3","7","Plum Powerball","Fruit/plums1.png","Lost","0.2,0.65","11","0.2","75","21","",""
"html-keyboard-response","71","171018","0.0-11.0-2.20","5d2a49241d8d930001c263a7","bdp_rwlrn","Tue Mar 14 2023 00:09:01 GMT-0400 (Eastern Daylight Time)","506116","Trustworthy,Untrustworthy","","null","","","","decisionFB","","<div class='trialDiv'><img src='Fruit/plums1.png'><br><font class='baseline'><strong>Plum Powerball</strong><p>Choose number of points to bet.</font><div class='respPicDiv'><img src='img/responseButtonOffersNo0L3.png' class='respPic'></div></div>","null","7","Plum Powerball","Fruit/plums1.png","Lost","0.2,0.65","11","0.2","72","21","",""
"html-keyboard-response","72","172035","0.0-11.0-3.20","5d2a49241d8d930001c263a7","bdp_rwlrn","Tue Mar 14 2023 00:09:01 GMT-0400 (Eastern Daylight Time)","506116","Trustworthy,Untrustworthy","","null","","","","feedback","","<div class='respPicDiv'><img src='img/responseButtonOffersNo0_wht.png' class='respPic'></div><div class='trialDiv'><img src='Fruit/plums1.png'><br><font class='baseline'><strong>Plum Powerball</strong><p><strong><font class='negOutcome'>You LOST</font><p>You bet: 3</strong></font> &nbsp; &nbsp; &nbsp; &nbsp; &nbsp; &nbsp;<font class='negOutcome'>You receive: <strong>0</strong></font></div>","null","7","Plum Powerball","Fruit/plums1.png","Lost","0.2,0.65","11","0.2","72","21","",""
"html-keyboard-response","73","173478","0.0-11.0-1.21","5d2a49241d8d930001c263a7","bdp_rwlrn","Tue Mar 14 2023 00:09:01 GMT-0400 (Eastern Daylight Time)","506116","Trustworthy,Untrustworthy","","1443","","","","decision","","<div class='trialDiv'><img src='Fruit/apple.png'><br><font class='baseline'><strong>Awesome Apples</strong><p>Choose number of points to bet.</font><div class='respPicDiv'><img src='img/responseButtonOffersNo0L.png' class='respPic'></div></div>","2","8","Awesome Apples","Fruit/apple.png","Won","0.2,0.8","8","0.2","77","22","",""
"html-keyboard-response","74","173735","0.0-11.0-2.21","5d2a49241d8d930001c263a7","bdp_rwlrn","Tue Mar 14 2023 00:09:01 GMT-0400 (Eastern Daylight Time)","506116","Trustworthy,Untrustworthy","","null","","","","decisionFB","","<div class='trialDiv'><img src='Fruit/apple.png'><br><font class='baseline'><strong>Awesome Apples</strong><p>Choose number of points to bet.</font><div class='respPicDiv'><img src='img/responseButtonOffersNo0L2.png' class='respPic'></div></div>","null","8","Awesome Apples","Fruit/apple.png","Won","0.2,0.8","8","0.2","75","22","",""
"html-keyboard-response","75","174743","0.0-11.0-3.21","5d2a49241d8d930001c263a7","bdp_rwlrn","Tue Mar 14 2023 00:09:01 GMT-0400 (Eastern Daylight Time)","506116","Trustworthy,Untrustworthy","","null","","","","feedback","","<div class='respPicDiv'><img src='img/responseButtonOffersNo0_wht.png' class='respPic'></div><div class='trialDiv'><img src='Fruit/apple.png'><br><font class='baseline'><strong>Awesome Apples</strong><p><strong><font class='posOutcome'>You WON</font><p>You bet: 2</strong></font> &nbsp; &nbsp; &nbsp; &nbsp; &nbsp; &nbsp;<font class='posOutcome'>you receive: <strong>4</strong></font></div>","null","8","Awesome Apples","Fruit/apple.png","Won","0.2,0.8","8","0.2","79","22","",""
"html-keyboard-response","76","176628","0.0-11.0-1.22","5d2a49241d8d930001c263a7","bdp_rwlrn","Tue Mar 14 2023 00:09:01 GMT-0400 (Eastern Daylight Time)","506116","Trustworthy,Untrustworthy","","1884","","","","decision","","<div class='trialDiv'><img src='Fruit/plums1.png'><br><font class='baseline'><strong>Plum Powerball</strong><p>Choose number of points to bet.</font><div class='respPicDiv'><img src='img/responseButtonOffersNo0L.png' class='respPic'></div></div>","4","8","Plum Powerball","Fruit/plums1.png","Lost","0.2,0.65","11","0.2","84","23","",""
"html-keyboard-response","77","176883","0.0-11.0-2.22","5d2a49241d8d930001c263a7","bdp_rwlrn","Tue Mar 14 2023 00:09:01 GMT-0400 (Eastern Daylight Time)","506116","Trustworthy,Untrustworthy","","null","","","","decisionFB","","<div class='trialDiv'><img src='Fruit/plums1.png'><br><font class='baseline'><strong>Plum Powerball</strong><p>Choose number of points to bet.</font><div class='respPicDiv'><img src='img/responseButtonOffersNo0L4.png' class='respPic'></div></div>","null","8","Plum Powerball","Fruit/plums1.png","Lost","0.2,0.65","11","0.2","80","23","",""
"html-keyboard-response","78","177894","0.0-11.0-3.22","5d2a49241d8d930001c263a7","bdp_rwlrn","Tue Mar 14 2023 00:09:01 GMT-0400 (Eastern Daylight Time)","506116","Trustworthy,Untrustworthy","","null","","","","feedback","","<div class='respPicDiv'><img src='img/responseButtonOffersNo0_wht.png' class='respPic'></div><div class='trialDiv'><img src='Fruit/plums1.png'><br><font class='baseline'><strong>Plum Powerball</strong><p><strong><font class='negOutcome'>You LOST</font><p>You bet: 4</strong></font> &nbsp; &nbsp; &nbsp; &nbsp; &nbsp; &nbsp;<font class='negOutcome'>You receive: <strong>0</strong></font></div>","null","8","Plum Powerball","Fruit/plums1.png","Lost","0.2,0.65","11","0.2","80","23","",""
"html-keyboard-response","79","179804","0.0-11.0-1.23","5d2a49241d8d930001c263a7","bdp_rwlrn","Tue Mar 14 2023 00:09:01 GMT-0400 (Eastern Daylight Time)","506116","Trustworthy,Untrustworthy","","1909","","","","decision","","<div class='trialDiv'><img src='Fruit/mixed-berries2.png'><br><font class='baseline'><strong>Berry Bla$t</strong><p>Choose number of points to bet.</font><div class='respPicDiv'><img src='img/responseButtonOffersNo0L.png' class='respPic'></div></div>","5","8","Berry Bla$t","Fruit/mixed-berries2.png","Lost","0.65,0.2","9","0.65","85","24","",""
"html-keyboard-response","80","180057","0.0-11.0-2.23","5d2a49241d8d930001c263a7","bdp_rwlrn","Tue Mar 14 2023 00:09:01 GMT-0400 (Eastern Daylight Time)","506116","Trustworthy,Untrustworthy","","null","","","","decisionFB","","<div class='trialDiv'><img src='Fruit/mixed-berries2.png'><br><font class='baseline'><strong>Berry Bla$t</strong><p>Choose number of points to bet.</font><div class='respPicDiv'><img src='img/responseButtonOffersNo0L5.png' class='respPic'></div></div>","null","8","Berry Bla$t","Fruit/mixed-berries2.png","Lost","0.65,0.2","9","0.65","80","24","",""
"html-keyboard-response","81","181072","0.0-11.0-3.23","5d2a49241d8d930001c263a7","bdp_rwlrn","Tue Mar 14 2023 00:09:01 GMT-0400 (Eastern Daylight Time)","506116","Trustworthy,Untrustworthy","","null","","","","feedback","","<div class='respPicDiv'><img src='img/responseButtonOffersNo0_wht.png' class='respPic'></div><div class='trialDiv'><img src='Fruit/mixed-berries2.png'><br><font class='baseline'><strong>Berry Bla$t</strong><p><strong><font class='negOutcome'>You LOST</font><p>You bet: 5</strong></font> &nbsp; &nbsp; &nbsp; &nbsp; &nbsp; &nbsp;<font class='negOutcome'>You receive: <strong>0</strong></font></div>","null","8","Berry Bla$t","Fruit/mixed-berries2.png","Lost","0.65,0.2","9","0.65","80","24","",""
"html-keyboard-response","82","182028","0.0-11.0-1.24","5d2a49241d8d930001c263a7","bdp_rwlrn","Tue Mar 14 2023 00:09:01 GMT-0400 (Eastern Daylight Time)","506116","Trustworthy,Untrustworthy","","955","","","","decision","","<div class='trialDiv'><img src='Fruit/plums1.png'><br><font class='baseline'><strong>Plum Powerball</strong><p>Choose number of points to bet.</font><div class='respPicDiv'><img src='img/responseButtonOffersNo0L.png' class='respPic'></div></div>","5","9","Plum Powerball","Fruit/plums1.png","Lost","0.2,0.65","11","0.2","85","25","",""
"html-keyboard-response","83","182289","0.0-11.0-2.24","5d2a49241d8d930001c263a7","bdp_rwlrn","Tue Mar 14 2023 00:09:01 GMT-0400 (Eastern Daylight Time)","506116","Trustworthy,Untrustworthy","","null","","","","decisionFB","","<div class='trialDiv'><img src='Fruit/plums1.png'><br><font class='baseline'><strong>Plum Powerball</strong><p>Choose number of points to bet.</font><div class='respPicDiv'><img src='img/responseButtonOffersNo0L5.png' class='respPic'></div></div>","null","9","Plum Powerball","Fruit/plums1.png","Lost","0.2,0.65","11","0.2","80","25","",""
"html-keyboard-response","84","183300","0.0-11.0-3.24","5d2a49241d8d930001c263a7","bdp_rwlrn","Tue Mar 14 2023 00:09:01 GMT-0400 (Eastern Daylight Time)","506116","Trustworthy,Untrustworthy","","null","","","","feedback","","<div class='respPicDiv'><img src='img/responseButtonOffersNo0_wht.png' class='respPic'></div><div class='trialDiv'><img src='Fruit/plums1.png'><br><font class='baseline'><strong>Plum Powerball</strong><p><strong><font class='negOutcome'>You LOST</font><p>You bet: 5</strong></font> &nbsp; &nbsp; &nbsp; &nbsp; &nbsp; &nbsp;<font class='negOutcome'>You receive: <strong>0</strong></font></div>","null","9","Plum Powerball","Fruit/plums1.png","Lost","0.2,0.65","11","0.2","80","25","",""
"html-keyboard-response","85","184233","0.0-11.0-1.25","5d2a49241d8d930001c263a7","bdp_rwlrn","Tue Mar 14 2023 00:09:01 GMT-0400 (Eastern Daylight Time)","506116","Trustworthy,Untrustworthy","","933","","","","decision","","<div class='trialDiv'><img src='Fruit/mixed-berries2.png'><br><font class='baseline'><strong>Berry Bla$t</strong><p>Choose number of points to bet.</font><div class='respPicDiv'><img src='img/responseButtonOffersNo0L.png' class='respPic'></div></div>","5","9","Berry Bla$t","Fruit/mixed-berries2.png","Lost","0.65,0.2","9","0.65","85","26","",""
"html-keyboard-response","86","184494","0.0-11.0-2.25","5d2a49241d8d930001c263a7","bdp_rwlrn","Tue Mar 14 2023 00:09:01 GMT-0400 (Eastern Daylight Time)","506116","Trustworthy,Untrustworthy","","null","","","","decisionFB","","<div class='trialDiv'><img src='Fruit/mixed-berries2.png'><br><font class='baseline'><strong>Berry Bla$t</strong><p>Choose number of points to bet.</font><div class='respPicDiv'><img src='img/responseButtonOffersNo0L5.png' class='respPic'></div></div>","null","9","Berry Bla$t","Fruit/mixed-berries2.png","Lost","0.65,0.2","9","0.65","80","26","",""
"html-keyboard-response","87","185504","0.0-11.0-3.25","5d2a49241d8d930001c263a7","bdp_rwlrn","Tue Mar 14 2023 00:09:01 GMT-0400 (Eastern Daylight Time)","506116","Trustworthy,Untrustworthy","","null","","","","feedback","","<div class='respPicDiv'><img src='img/responseButtonOffersNo0_wht.png' class='respPic'></div><div class='trialDiv'><img src='Fruit/mixed-berries2.png'><br><font class='baseline'><strong>Berry Bla$t</strong><p><strong><font class='negOutcome'>You LOST</font><p>You bet: 5</strong></font> &nbsp; &nbsp; &nbsp; &nbsp; &nbsp; &nbsp;<font class='negOutcome'>You receive: <strong>0</strong></font></div>","null","9","Berry Bla$t","Fruit/mixed-berries2.png","Lost","0.65,0.2","9","0.65","80","26","",""
"html-keyboard-response","88","187381","0.0-11.0-1.26","5d2a49241d8d930001c263a7","bdp_rwlrn","Tue Mar 14 2023 00:09:01 GMT-0400 (Eastern Daylight Time)","506116","Trustworthy,Untrustworthy","","1877","","","","decision","","<div class='trialDiv'><img src='Fruit/apple.png'><br><font class='baseline'><strong>Awesome Apples</strong><p>Choose number of points to bet.</font><div class='respPicDiv'><img src='img/responseButtonOffersNo0L.png' class='respPic'></div></div>","4","9","Awesome Apples","Fruit/apple.png","Lost","0.2,0.8","8","0.2","85","27","",""
"html-keyboard-response","89","187642","0.0-11.0-2.26","5d2a49241d8d930001c263a7","bdp_rwlrn","Tue Mar 14 2023 00:09:01 GMT-0400 (Eastern Daylight Time)","506116","Trustworthy,Untrustworthy","","null","","","","decisionFB","","<div class='trialDiv'><img src='Fruit/apple.png'><br><font class='baseline'><strong>Awesome Apples</strong><p>Choose number of points to bet.</font><div class='respPicDiv'><img src='img/responseButtonOffersNo0L4.png' class='respPic'></div></div>","null","9","Awesome Apples","Fruit/apple.png","Lost","0.2,0.8","8","0.2","81","27","",""
"html-keyboard-response","90","188649","0.0-11.0-3.26","5d2a49241d8d930001c263a7","bdp_rwlrn","Tue Mar 14 2023 00:09:01 GMT-0400 (Eastern Daylight Time)","506116","Trustworthy,Untrustworthy","","null","","","","feedback","","<div class='respPicDiv'><img src='img/responseButtonOffersNo0_wht.png' class='respPic'></div><div class='trialDiv'><img src='Fruit/apple.png'><br><font class='baseline'><strong>Awesome Apples</strong><p><strong><font class='negOutcome'>You LOST</font><p>You bet: 4</strong></font> &nbsp; &nbsp; &nbsp; &nbsp; &nbsp; &nbsp;<font class='negOutcome'>You receive: <strong>0</strong></font></div>","null","9","Awesome Apples","Fruit/apple.png","Lost","0.2,0.8","8","0.2","81","27","",""
"html-keyboard-response","91","189659","0.0-11.0-1.27","5d2a49241d8d930001c263a7","bdp_rwlrn","Tue Mar 14 2023 00:09:01 GMT-0400 (Eastern Daylight Time)","506116","Trustworthy,Untrustworthy","","1009","","","","decision","","<div class='trialDiv'><img src='Fruit/plums1.png'><br><font class='baseline'><strong>Plum Powerball</strong><p>Choose number of points to bet.</font><div class='respPicDiv'><img src='img/responseButtonOffersNo0L.png' class='respPic'></div></div>","3","10","Plum Powerball","Fruit/plums1.png","Lost","0.2,0.65","11","0.2","86","28","",""
"html-keyboard-response","92","189919","0.0-11.0-2.27","5d2a49241d8d930001c263a7","bdp_rwlrn","Tue Mar 14 2023 00:09:01 GMT-0400 (Eastern Daylight Time)","506116","Trustworthy,Untrustworthy","","null","","","","decisionFB","","<div class='trialDiv'><img src='Fruit/plums1.png'><br><font class='baseline'><strong>Plum Powerball</strong><p>Choose number of points to bet.</font><div class='respPicDiv'><img src='img/responseButtonOffersNo0L3.png' class='respPic'></div></div>","null","10","Plum Powerball","Fruit/plums1.png","Lost","0.2,0.65","11","0.2","83","28","",""
"html-keyboard-response","93","190929","0.0-11.0-3.27","5d2a49241d8d930001c263a7","bdp_rwlrn","Tue Mar 14 2023 00:09:01 GMT-0400 (Eastern Daylight Time)","506116","Trustworthy,Untrustworthy","","null","","","","feedback","","<div class='respPicDiv'><img src='img/responseButtonOffersNo0_wht.png' class='respPic'></div><div class='trialDiv'><img src='Fruit/plums1.png'><br><font class='baseline'><strong>Plum Powerball</strong><p><strong><font class='negOutcome'>You LOST</font><p>You bet: 3</strong></font> &nbsp; &nbsp; &nbsp; &nbsp; &nbsp; &nbsp;<font class='negOutcome'>You receive: <strong>0</strong></font></div>","null","10","Plum Powerball","Fruit/plums1.png","Lost","0.2,0.65","11","0.2","83","28","",""
"html-keyboard-response","94","191527","0.0-11.0-1.28","5d2a49241d8d930001c263a7","bdp_rwlrn","Tue Mar 14 2023 00:09:01 GMT-0400 (Eastern Daylight Time)","506116","Trustworthy,Untrustworthy","","597","","","","decision","","<div class='trialDiv'><img src='Fruit/apple.png'><br><font class='baseline'><strong>Awesome Apples</strong><p>Choose number of points to bet.</font><div class='respPicDiv'><img src='img/responseButtonOffersNo0L.png' class='respPic'></div></div>","1","10","Awesome Apples","Fruit/apple.png","Lost","0.2,0.8","8","0.2","88","29","",""
"html-keyboard-response","95","191784","0.0-11.0-2.28","5d2a49241d8d930001c263a7","bdp_rwlrn","Tue Mar 14 2023 00:09:01 GMT-0400 (Eastern Daylight Time)","506116","Trustworthy,Untrustworthy","","null","","","","decisionFB","","<div class='trialDiv'><img src='Fruit/apple.png'><br><font class='baseline'><strong>Awesome Apples</strong><p>Choose number of points to bet.</font><div class='respPicDiv'><img src='img/responseButtonOffersNo0L1.png' class='respPic'></div></div>","null","10","Awesome Apples","Fruit/apple.png","Lost","0.2,0.8","8","0.2","87","29","",""
"html-keyboard-response","96","192797","0.0-11.0-3.28","5d2a49241d8d930001c263a7","bdp_rwlrn","Tue Mar 14 2023 00:09:01 GMT-0400 (Eastern Daylight Time)","506116","Trustworthy,Untrustworthy","","null","","","","feedback","","<div class='respPicDiv'><img src='img/responseButtonOffersNo0_wht.png' class='respPic'></div><div class='trialDiv'><img src='Fruit/apple.png'><br><font class='baseline'><strong>Awesome Apples</strong><p><strong><font class='negOutcome'>You LOST</font><p>You bet: 1</strong></font> &nbsp; &nbsp; &nbsp; &nbsp; &nbsp; &nbsp;<font class='negOutcome'>You receive: <strong>0</strong></font></div>","null","10","Awesome Apples","Fruit/apple.png","Lost","0.2,0.8","8","0.2","87","29","",""
"html-keyboard-response","97","194541","0.0-11.0-1.29","5d2a49241d8d930001c263a7","bdp_rwlrn","Tue Mar 14 2023 00:09:01 GMT-0400 (Eastern Daylight Time)","506116","Trustworthy,Untrustworthy","","1743","","","","decision","","<div class='trialDiv'><img src='Fruit/mixed-berries2.png'><br><font class='baseline'><strong>Berry Bla$t</strong><p>Choose number of points to bet.</font><div class='respPicDiv'><img src='img/responseButtonOffersNo0L.png' class='respPic'></div></div>","5","10","Berry Bla$t","Fruit/mixed-berries2.png","Lost","0.65,0.2","9","0.65","92","30","",""
"html-keyboard-response","98","194804","0.0-11.0-2.29","5d2a49241d8d930001c263a7","bdp_rwlrn","Tue Mar 14 2023 00:09:01 GMT-0400 (Eastern Daylight Time)","506116","Trustworthy,Untrustworthy","","null","","","","decisionFB","","<div class='trialDiv'><img src='Fruit/mixed-berries2.png'><br><font class='baseline'><strong>Berry Bla$t</strong><p>Choose number of points to bet.</font><div class='respPicDiv'><img src='img/responseButtonOffersNo0L5.png' class='respPic'></div></div>","null","10","Berry Bla$t","Fruit/mixed-berries2.png","Lost","0.65,0.2","9","0.65","87","30","",""
"html-keyboard-response","99","195818","0.0-11.0-3.29","5d2a49241d8d930001c263a7","bdp_rwlrn","Tue Mar 14 2023 00:09:01 GMT-0400 (Eastern Daylight Time)","506116","Trustworthy,Untrustworthy","","null","","","","feedback","","<div class='respPicDiv'><img src='img/responseButtonOffersNo0_wht.png' class='respPic'></div><div class='trialDiv'><img src='Fruit/mixed-berries2.png'><br><font class='baseline'><strong>Berry Bla$t</strong><p><strong><font class='negOutcome'>You LOST</font><p>You bet: 5</strong></font> &nbsp; &nbsp; &nbsp; &nbsp; &nbsp; &nbsp;<font class='negOutcome'>You receive: <strong>0</strong></font></div>","null","10","Berry Bla$t","Fruit/mixed-berries2.png","Lost","0.65,0.2","9","0.65","87","30","",""
"html-keyboard-response","100","196900","0.0-11.0-1.30","5d2a49241d8d930001c263a7","bdp_rwlrn","Tue Mar 14 2023 00:09:01 GMT-0400 (Eastern Daylight Time)","506116","Trustworthy,Untrustworthy","","1081","","","","decision","","<div class='trialDiv'><img src='Fruit/plums1.png'><br><font class='baseline'><strong>Plum Powerball</strong><p>Choose number of points to bet.</font><div class='respPicDiv'><img src='img/responseButtonOffersNo0L.png' class='respPic'></div></div>","3","11","Plum Powerball","Fruit/plums1.png","Won","0.2,0.65","11","0.2","92","31","",""
"html-keyboard-response","101","197162","0.0-11.0-2.30","5d2a49241d8d930001c263a7","bdp_rwlrn","Tue Mar 14 2023 00:09:01 GMT-0400 (Eastern Daylight Time)","506116","Trustworthy,Untrustworthy","","null","","","","decisionFB","","<div class='trialDiv'><img src='Fruit/plums1.png'><br><font class='baseline'><strong>Plum Powerball</strong><p>Choose number of points to bet.</font><div class='respPicDiv'><img src='img/responseButtonOffersNo0L3.png' class='respPic'></div></div>","null","11","Plum Powerball","Fruit/plums1.png","Won","0.2,0.65","11","0.2","89","31","",""
"html-keyboard-response","102","198177","0.0-11.0-3.30","5d2a49241d8d930001c263a7","bdp_rwlrn","Tue Mar 14 2023 00:09:01 GMT-0400 (Eastern Daylight Time)","506116","Trustworthy,Untrustworthy","","null","","","","feedback","","<div class='respPicDiv'><img src='img/responseButtonOffersNo0_wht.png' class='respPic'></div><div class='trialDiv'><img src='Fruit/plums1.png'><br><font class='baseline'><strong>Plum Powerball</strong><p><strong><font class='posOutcome'>You WON</font><p>You bet: 3</strong></font> &nbsp; &nbsp; &nbsp; &nbsp; &nbsp; &nbsp;<font class='posOutcome'>you receive: <strong>6</strong></font></div>","null","11","Plum Powerball","Fruit/plums1.png","Won","0.2,0.65","11","0.2","95","31","",""
"html-keyboard-response","103","199240","0.0-11.0-1.31","5d2a49241d8d930001c263a7","bdp_rwlrn","Tue Mar 14 2023 00:09:01 GMT-0400 (Eastern Daylight Time)","506116","Trustworthy,Untrustworthy","","1062","","","","decision","","<div class='trialDiv'><img src='Fruit/apple.png'><br><font class='baseline'><strong>Awesome Apples</strong><p>Choose number of points to bet.</font><div class='respPicDiv'><img src='img/responseButtonOffersNo0L.png' class='respPic'></div></div>","4","11","Awesome Apples","Fruit/apple.png","Won","0.2,0.8","8","0.2","100","32","",""
"html-keyboard-response","104","199498","0.0-11.0-2.31","5d2a49241d8d930001c263a7","bdp_rwlrn","Tue Mar 14 2023 00:09:01 GMT-0400 (Eastern Daylight Time)","506116","Trustworthy,Untrustworthy","","null","","","","decisionFB","","<div class='trialDiv'><img src='Fruit/apple.png'><br><font class='baseline'><strong>Awesome Apples</strong><p>Choose number of points to bet.</font><div class='respPicDiv'><img src='img/responseButtonOffersNo0L4.png' class='respPic'></div></div>","null","11","Awesome Apples","Fruit/apple.png","Won","0.2,0.8","8","0.2","96","32","",""
"html-keyboard-response","105","200512","0.0-11.0-3.31","5d2a49241d8d930001c263a7","bdp_rwlrn","Tue Mar 14 2023 00:09:01 GMT-0400 (Eastern Daylight Time)","506116","Trustworthy,Untrustworthy","","null","","","","feedback","","<div class='respPicDiv'><img src='img/responseButtonOffersNo0_wht.png' class='respPic'></div><div class='trialDiv'><img src='Fruit/apple.png'><br><font class='baseline'><strong>Awesome Apples</strong><p><strong><font class='posOutcome'>You WON</font><p>You bet: 4</strong></font> &nbsp; &nbsp; &nbsp; &nbsp; &nbsp; &nbsp;<font class='posOutcome'>you receive: <strong>8</strong></font></div>","null","11","Awesome Apples","Fruit/apple.png","Won","0.2,0.8","8","0.2","104","32","",""
"html-keyboard-response","106","201651","0.0-11.0-1.32","5d2a49241d8d930001c263a7","bdp_rwlrn","Tue Mar 14 2023 00:09:01 GMT-0400 (Eastern Daylight Time)","506116","Trustworthy,Untrustworthy","","1138","","","","decision","","<div class='trialDiv'><img src='Fruit/mixed-berries2.png'><br><font class='baseline'><strong>Berry Bla$t</strong><p>Choose number of points to bet.</font><div class='respPicDiv'><img src='img/responseButtonOffersNo0L.png' class='respPic'></div></div>","5","11","Berry Bla$t","Fruit/mixed-berries2.png","Lost","0.65,0.2","9","0.65","109","33","",""
"html-keyboard-response","107","201906","0.0-11.0-2.32","5d2a49241d8d930001c263a7","bdp_rwlrn","Tue Mar 14 2023 00:09:01 GMT-0400 (Eastern Daylight Time)","506116","Trustworthy,Untrustworthy","","null","","","","decisionFB","","<div class='trialDiv'><img src='Fruit/mixed-berries2.png'><br><font class='baseline'><strong>Berry Bla$t</strong><p>Choose number of points to bet.</font><div class='respPicDiv'><img src='img/responseButtonOffersNo0L5.png' class='respPic'></div></div>","null","11","Berry Bla$t","Fruit/mixed-berries2.png","Lost","0.65,0.2","9","0.65","104","33","",""
"html-keyboard-response","108","202917","0.0-11.0-3.32","5d2a49241d8d930001c263a7","bdp_rwlrn","Tue Mar 14 2023 00:09:01 GMT-0400 (Eastern Daylight Time)","506116","Trustworthy,Untrustworthy","","null","","","","feedback","","<div class='respPicDiv'><img src='img/responseButtonOffersNo0_wht.png' class='respPic'></div><div class='trialDiv'><img src='Fruit/mixed-berries2.png'><br><font class='baseline'><strong>Berry Bla$t</strong><p><strong><font class='negOutcome'>You LOST</font><p>You bet: 5</strong></font> &nbsp; &nbsp; &nbsp; &nbsp; &nbsp; &nbsp;<font class='negOutcome'>You receive: <strong>0</strong></font></div>","null","11","Berry Bla$t","Fruit/mixed-berries2.png","Lost","0.65,0.2","9","0.65","104","33","",""
"html-keyboard-response","109","204325","0.0-11.0-1.33","5d2a49241d8d930001c263a7","bdp_rwlrn","Tue Mar 14 2023 00:09:01 GMT-0400 (Eastern Daylight Time)","506116","Trustworthy,Untrustworthy","","1408","","","","decision","","<div class='trialDiv'><img src='Fruit/plums1.png'><br><font class='baseline'><strong>Plum Powerball</strong><p>Choose number of points to bet.</font><div class='respPicDiv'><img src='img/responseButtonOffersNo0L.png' class='respPic'></div></div>","5","12","Plum Powerball","Fruit/plums1.png","Won","0.2,0.65","11","0.2","109","34","",""
"html-keyboard-response","110","204591","0.0-11.0-2.33","5d2a49241d8d930001c263a7","bdp_rwlrn","Tue Mar 14 2023 00:09:01 GMT-0400 (Eastern Daylight Time)","506116","Trustworthy,Untrustworthy","","null","","","","decisionFB","","<div class='trialDiv'><img src='Fruit/plums1.png'><br><font class='baseline'><strong>Plum Powerball</strong><p>Choose number of points to bet.</font><div class='respPicDiv'><img src='img/responseButtonOffersNo0L5.png' class='respPic'></div></div>","null","12","Plum Powerball","Fruit/plums1.png","Won","0.2,0.65","11","0.2","104","34","",""
"html-keyboard-response","111","205598","0.0-11.0-3.33","5d2a49241d8d930001c263a7","bdp_rwlrn","Tue Mar 14 2023 00:09:01 GMT-0400 (Eastern Daylight Time)","506116","Trustworthy,Untrustworthy","","null","","","","feedback","","<div class='respPicDiv'><img src='img/responseButtonOffersNo0_wht.png' class='respPic'></div><div class='trialDiv'><img src='Fruit/plums1.png'><br><font class='baseline'><strong>Plum Powerball</strong><p><strong><font class='posOutcome'>You WON</font><p>You bet: 5</strong></font> &nbsp; &nbsp; &nbsp; &nbsp; &nbsp; &nbsp;<font class='posOutcome'>you receive: <strong>10</strong></font></div>","null","12","Plum Powerball","Fruit/plums1.png","Won","0.2,0.65","11","0.2","114","34","",""
"html-keyboard-response","112","207160","0.0-11.0-1.34","5d2a49241d8d930001c263a7","bdp_rwlrn","Tue Mar 14 2023 00:09:01 GMT-0400 (Eastern Daylight Time)","506116","Trustworthy,Untrustworthy","","1561","","","","decision","","<div class='trialDiv'><img src='Fruit/apple.png'><br><font class='baseline'><strong>Awesome Apples</strong><p>Choose number of points to bet.</font><div class='respPicDiv'><img src='img/responseButtonOffersNo0L.png' class='respPic'></div></div>","4","12","Awesome Apples","Fruit/apple.png","Won","0.2,0.8","8","0.2","119","35","",""
"html-keyboard-response","113","207417","0.0-11.0-2.34","5d2a49241d8d930001c263a7","bdp_rwlrn","Tue Mar 14 2023 00:09:01 GMT-0400 (Eastern Daylight Time)","506116","Trustworthy,Untrustworthy","","null","","","","decisionFB","","<div class='trialDiv'><img src='Fruit/apple.png'><br><font class='baseline'><strong>Awesome Apples</strong><p>Choose number of points to bet.</font><div class='respPicDiv'><img src='img/responseButtonOffersNo0L4.png' class='respPic'></div></div>","null","12","Awesome Apples","Fruit/apple.png","Won","0.2,0.8","8","0.2","115","35","",""
"html-keyboard-response","114","208429","0.0-11.0-3.34","5d2a49241d8d930001c263a7","bdp_rwlrn","Tue Mar 14 2023 00:09:01 GMT-0400 (Eastern Daylight Time)","506116","Trustworthy,Untrustworthy","","null","","","","feedback","","<div class='respPicDiv'><img src='img/responseButtonOffersNo0_wht.png' class='respPic'></div><div class='trialDiv'><img src='Fruit/apple.png'><br><font class='baseline'><strong>Awesome Apples</strong><p><strong><font class='posOutcome'>You WON</font><p>You bet: 4</strong></font> &nbsp; &nbsp; &nbsp; &nbsp; &nbsp; &nbsp;<font class='posOutcome'>you receive: <strong>8</strong></font></div>","null","12","Awesome Apples","Fruit/apple.png","Won","0.2,0.8","8","0.2","123","35","",""
"html-keyboard-response","115","209973","0.0-11.0-1.35","5d2a49241d8d930001c263a7","bdp_rwlrn","Tue Mar 14 2023 00:09:01 GMT-0400 (Eastern Daylight Time)","506116","Trustworthy,Untrustworthy","","1543","","","","decision","","<div class='trialDiv'><img src='Fruit/mixed-berries2.png'><br><font class='baseline'><strong>Berry Bla$t</strong><p>Choose number of points to bet.</font><div class='respPicDiv'><img src='img/responseButtonOffersNo0L.png' class='respPic'></div></div>","2","12","Berry Bla$t","Fruit/mixed-berries2.png","Lost","0.65,0.2","9","0.65","128","36","",""
"html-keyboard-response","116","210230","0.0-11.0-2.35","5d2a49241d8d930001c263a7","bdp_rwlrn","Tue Mar 14 2023 00:09:01 GMT-0400 (Eastern Daylight Time)","506116","Trustworthy,Untrustworthy","","null","","","","decisionFB","","<div class='trialDiv'><img src='Fruit/mixed-berries2.png'><br><font class='baseline'><strong>Berry Bla$t</strong><p>Choose number of points to bet.</font><div class='respPicDiv'><img src='img/responseButtonOffersNo0L2.png' class='respPic'></div></div>","null","12","Berry Bla$t","Fruit/mixed-berries2.png","Lost","0.65,0.2","9","0.65","126","36","",""
"html-keyboard-response","117","211245","0.0-11.0-3.35","5d2a49241d8d930001c263a7","bdp_rwlrn","Tue Mar 14 2023 00:09:01 GMT-0400 (Eastern Daylight Time)","506116","Trustworthy,Untrustworthy","","null","","","","feedback","","<div class='respPicDiv'><img src='img/responseButtonOffersNo0_wht.png' class='respPic'></div><div class='trialDiv'><img src='Fruit/mixed-berries2.png'><br><font class='baseline'><strong>Berry Bla$t</strong><p><strong><font class='negOutcome'>You LOST</font><p>You bet: 2</strong></font> &nbsp; &nbsp; &nbsp; &nbsp; &nbsp; &nbsp;<font class='negOutcome'>You receive: <strong>0</strong></font></div>","null","12","Berry Bla$t","Fruit/mixed-berries2.png","Lost","0.65,0.2","9","0.65","126","36","",""
"html-keyboard-response","118","212291","0.0-11.0-1.36","5d2a49241d8d930001c263a7","bdp_rwlrn","Tue Mar 14 2023 00:09:01 GMT-0400 (Eastern Daylight Time)","506116","Trustworthy,Untrustworthy","","1045","","","","decision","","<div class='trialDiv'><img src='Fruit/apple.png'><br><font class='baseline'><strong>Awesome Apples</strong><p>Choose number of points to bet.</font><div class='respPicDiv'><img src='img/responseButtonOffersNo0L.png' class='respPic'></div></div>","1","13","Awesome Apples","Fruit/apple.png","Won","0.2,0.8","8","0.2","131","37","",""
"html-keyboard-response","119","212545","0.0-11.0-2.36","5d2a49241d8d930001c263a7","bdp_rwlrn","Tue Mar 14 2023 00:09:01 GMT-0400 (Eastern Daylight Time)","506116","Trustworthy,Untrustworthy","","null","","","","decisionFB","","<div class='trialDiv'><img src='Fruit/apple.png'><br><font class='baseline'><strong>Awesome Apples</strong><p>Choose number of points to bet.</font><div class='respPicDiv'><img src='img/responseButtonOffersNo0L1.png' class='respPic'></div></div>","null","13","Awesome Apples","Fruit/apple.png","Won","0.2,0.8","8","0.2","130","37","",""
"html-keyboard-response","120","213555","0.0-11.0-3.36","5d2a49241d8d930001c263a7","bdp_rwlrn","Tue Mar 14 2023 00:09:01 GMT-0400 (Eastern Daylight Time)","506116","Trustworthy,Untrustworthy","","null","","","","feedback","","<div class='respPicDiv'><img src='img/responseButtonOffersNo0_wht.png' class='respPic'></div><div class='trialDiv'><img src='Fruit/apple.png'><br><font class='baseline'><strong>Awesome Apples</strong><p><strong><font class='posOutcome'>You WON</font><p>You bet: 1</strong></font> &nbsp; &nbsp; &nbsp; &nbsp; &nbsp; &nbsp;<font class='posOutcome'>you receive: <strong>2</strong></font></div>","null","13","Awesome Apples","Fruit/apple.png","Won","0.2,0.8","8","0.2","132","37","",""
"html-keyboard-response","121","215102","0.0-11.0-1.37","5d2a49241d8d930001c263a7","bdp_rwlrn","Tue Mar 14 2023 00:09:01 GMT-0400 (Eastern Daylight Time)","506116","Trustworthy,Untrustworthy","","1547","","","","decision","","<div class='trialDiv'><img src='Fruit/plums1.png'><br><font class='baseline'><strong>Plum Powerball</strong><p>Choose number of points to bet.</font><div class='respPicDiv'><img src='img/responseButtonOffersNo0L.png' class='respPic'></div></div>","1","13","Plum Powerball","Fruit/plums1.png","Lost","0.2,0.65","11","0.2","137","38","",""
"html-keyboard-response","122","215368","0.0-11.0-2.37","5d2a49241d8d930001c263a7","bdp_rwlrn","Tue Mar 14 2023 00:09:01 GMT-0400 (Eastern Daylight Time)","506116","Trustworthy,Untrustworthy","","null","","","","decisionFB","","<div class='trialDiv'><img src='Fruit/plums1.png'><br><font class='baseline'><strong>Plum Powerball</strong><p>Choose number of points to bet.</font><div class='respPicDiv'><img src='img/responseButtonOffersNo0L1.png' class='respPic'></div></div>","null","13","Plum Powerball","Fruit/plums1.png","Lost","0.2,0.65","11","0.2","136","38","",""
"html-keyboard-response","123","216372","0.0-11.0-3.37","5d2a49241d8d930001c263a7","bdp_rwlrn","Tue Mar 14 2023 00:09:01 GMT-0400 (Eastern Daylight Time)","506116","Trustworthy,Untrustworthy","","null","","","","feedback","","<div class='respPicDiv'><img src='img/responseButtonOffersNo0_wht.png' class='respPic'></div><div class='trialDiv'><img src='Fruit/plums1.png'><br><font class='baseline'><strong>Plum Powerball</strong><p><strong><font class='negOutcome'>You LOST</font><p>You bet: 1</strong></font> &nbsp; &nbsp; &nbsp; &nbsp; &nbsp; &nbsp;<font class='negOutcome'>You receive: <strong>0</strong></font></div>","null","13","Plum Powerball","Fruit/plums1.png","Lost","0.2,0.65","11","0.2","136","38","",""
"html-keyboard-response","124","216973","0.0-11.0-1.38","5d2a49241d8d930001c263a7","bdp_rwlrn","Tue Mar 14 2023 00:09:01 GMT-0400 (Eastern Daylight Time)","506116","Trustworthy,Untrustworthy","","601","","","","decision","","<div class='trialDiv'><img src='Fruit/mixed-berries2.png'><br><font class='baseline'><strong>Berry Bla$t</strong><p>Choose number of points to bet.</font><div class='respPicDiv'><img src='img/responseButtonOffersNo0L.png' class='respPic'></div></div>","3","13","Berry Bla$t","Fruit/mixed-berries2.png","Lost","0.65,0.2","9","0.65","141","39","",""
"html-keyboard-response","125","217240","0.0-11.0-2.38","5d2a49241d8d930001c263a7","bdp_rwlrn","Tue Mar 14 2023 00:09:01 GMT-0400 (Eastern Daylight Time)","506116","Trustworthy,Untrustworthy","","null","","","","decisionFB","","<div class='trialDiv'><img src='Fruit/mixed-berries2.png'><br><font class='baseline'><strong>Berry Bla$t</strong><p>Choose number of points to bet.</font><div class='respPicDiv'><img src='img/responseButtonOffersNo0L3.png' class='respPic'></div></div>","null","13","Berry Bla$t","Fruit/mixed-berries2.png","Lost","0.65,0.2","9","0.65","138","39","",""
"html-keyboard-response","126","218247","0.0-11.0-3.38","5d2a49241d8d930001c263a7","bdp_rwlrn","Tue Mar 14 2023 00:09:01 GMT-0400 (Eastern Daylight Time)","506116","Trustworthy,Untrustworthy","","null","","","","feedback","","<div class='respPicDiv'><img src='img/responseButtonOffersNo0_wht.png' class='respPic'></div><div class='trialDiv'><img src='Fruit/mixed-berries2.png'><br><font class='baseline'><strong>Berry Bla$t</strong><p><strong><font class='negOutcome'>You LOST</font><p>You bet: 3</strong></font> &nbsp; &nbsp; &nbsp; &nbsp; &nbsp; &nbsp;<font class='negOutcome'>You receive: <strong>0</strong></font></div>","null","13","Berry Bla$t","Fruit/mixed-berries2.png","Lost","0.65,0.2","9","0.65","138","39","",""
"html-keyboard-response","127","219152","0.0-11.0-1.39","5d2a49241d8d930001c263a7","bdp_rwlrn","Tue Mar 14 2023 00:09:01 GMT-0400 (Eastern Daylight Time)","506116","Trustworthy,Untrustworthy","","905","","","","decision","","<div class='trialDiv'><img src='Fruit/plums1.png'><br><font class='baseline'><strong>Plum Powerball</strong><p>Choose number of points to bet.</font><div class='respPicDiv'><img src='img/responseButtonOffersNo0L.png' class='respPic'></div></div>","4","14","Plum Powerball","Fruit/plums1.png","Won","0.2,0.65","11","0.2","143","40","",""
"html-keyboard-response","128","219410","0.0-11.0-2.39","5d2a49241d8d930001c263a7","bdp_rwlrn","Tue Mar 14 2023 00:09:01 GMT-0400 (Eastern Daylight Time)","506116","Trustworthy,Untrustworthy","","null","","","","decisionFB","","<div class='trialDiv'><img src='Fruit/plums1.png'><br><font class='baseline'><strong>Plum Powerball</strong><p>Choose number of points to bet.</font><div class='respPicDiv'><img src='img/responseButtonOffersNo0L4.png' class='respPic'></div></div>","null","14","Plum Powerball","Fruit/plums1.png","Won","0.2,0.65","11","0.2","139","40","",""
"html-keyboard-response","129","220424","0.0-11.0-3.39","5d2a49241d8d930001c263a7","bdp_rwlrn","Tue Mar 14 2023 00:09:01 GMT-0400 (Eastern Daylight Time)","506116","Trustworthy,Untrustworthy","","null","","","","feedback","","<div class='respPicDiv'><img src='img/responseButtonOffersNo0_wht.png' class='respPic'></div><div class='trialDiv'><img src='Fruit/plums1.png'><br><font class='baseline'><strong>Plum Powerball</strong><p><strong><font class='posOutcome'>You WON</font><p>You bet: 4</strong></font> &nbsp; &nbsp; &nbsp; &nbsp; &nbsp; &nbsp;<font class='posOutcome'>you receive: <strong>8</strong></font></div>","null","14","Plum Powerball","Fruit/plums1.png","Won","0.2,0.65","11","0.2","147","40","",""
"html-keyboard-response","130","221582","0.0-11.0-1.40","5d2a49241d8d930001c263a7","bdp_rwlrn","Tue Mar 14 2023 00:09:01 GMT-0400 (Eastern Daylight Time)","506116","Trustworthy,Untrustworthy","","1157","","","","decision","","<div class='trialDiv'><img src='Fruit/apple.png'><br><font class='baseline'><strong>Awesome Apples</strong><p>Choose number of points to bet.</font><div class='respPicDiv'><img src='img/responseButtonOffersNo0L.png' class='respPic'></div></div>","2","14","Awesome Apples","Fruit/apple.png","Won","0.2,0.8","8","0.2","152","41","",""
"html-keyboard-response","131","221834","0.0-11.0-2.40","5d2a49241d8d930001c263a7","bdp_rwlrn","Tue Mar 14 2023 00:09:01 GMT-0400 (Eastern Daylight Time)","506116","Trustworthy,Untrustworthy","","null","","","","decisionFB","","<div class='trialDiv'><img src='Fruit/apple.png'><br><font class='baseline'><strong>Awesome Apples</strong><p>Choose number of points to bet.</font><div class='respPicDiv'><img src='img/responseButtonOffersNo0L2.png' class='respPic'></div></div>","null","14","Awesome Apples","Fruit/apple.png","Won","0.2,0.8","8","0.2","150","41","",""
"html-keyboard-response","132","222849","0.0-11.0-3.40","5d2a49241d8d930001c263a7","bdp_rwlrn","Tue Mar 14 2023 00:09:01 GMT-0400 (Eastern Daylight Time)","506116","Trustworthy,Untrustworthy","","null","","","","feedback","","<div class='respPicDiv'><img src='img/responseButtonOffersNo0_wht.png' class='respPic'></div><div class='trialDiv'><img src='Fruit/apple.png'><br><font class='baseline'><strong>Awesome Apples</strong><p><strong><font class='posOutcome'>You WON</font><p>You bet: 2</strong></font> &nbsp; &nbsp; &nbsp; &nbsp; &nbsp; &nbsp;<font class='posOutcome'>you receive: <strong>4</strong></font></div>","null","14","Awesome Apples","Fruit/apple.png","Won","0.2,0.8","8","0.2","154","41","",""
"html-keyboard-response","133","223590","0.0-11.0-1.41","5d2a49241d8d930001c263a7","bdp_rwlrn","Tue Mar 14 2023 00:09:01 GMT-0400 (Eastern Daylight Time)","506116","Trustworthy,Untrustworthy","","741","","","","decision","","<div class='trialDiv'><img src='Fruit/mixed-berries2.png'><br><font class='baseline'><strong>Berry Bla$t</strong><p>Choose number of points to bet.</font><div class='respPicDiv'><img src='img/responseButtonOffersNo0L.png' class='respPic'></div></div>","3","14","Berry Bla$t","Fruit/mixed-berries2.png","Lost","0.65,0.2","9","0.65","159","42","",""
"html-keyboard-response","134","223847","0.0-11.0-2.41","5d2a49241d8d930001c263a7","bdp_rwlrn","Tue Mar 14 2023 00:09:01 GMT-0400 (Eastern Daylight Time)","506116","Trustworthy,Untrustworthy","","null","","","","decisionFB","","<div class='trialDiv'><img src='Fruit/mixed-berries2.png'><br><font class='baseline'><strong>Berry Bla$t</strong><p>Choose number of points to bet.</font><div class='respPicDiv'><img src='img/responseButtonOffersNo0L3.png' class='respPic'></div></div>","null","14","Berry Bla$t","Fruit/mixed-berries2.png","Lost","0.65,0.2","9","0.65","156","42","",""
"html-keyboard-response","135","224863","0.0-11.0-3.41","5d2a49241d8d930001c263a7","bdp_rwlrn","Tue Mar 14 2023 00:09:01 GMT-0400 (Eastern Daylight Time)","506116","Trustworthy,Untrustworthy","","null","","","","feedback","","<div class='respPicDiv'><img src='img/responseButtonOffersNo0_wht.png' class='respPic'></div><div class='trialDiv'><img src='Fruit/mixed-berries2.png'><br><font class='baseline'><strong>Berry Bla$t</strong><p><strong><font class='negOutcome'>You LOST</font><p>You bet: 3</strong></font> &nbsp; &nbsp; &nbsp; &nbsp; &nbsp; &nbsp;<font class='negOutcome'>You receive: <strong>0</strong></font></div>","null","14","Berry Bla$t","Fruit/mixed-berries2.png","Lost","0.65,0.2","9","0.65","156","42","",""
"html-keyboard-response","136","225478","0.0-11.0-1.42","5d2a49241d8d930001c263a7","bdp_rwlrn","Tue Mar 14 2023 00:09:01 GMT-0400 (Eastern Daylight Time)","506116","Trustworthy,Untrustworthy","","615","","","","decision","","<div class='trialDiv'><img src='Fruit/plums1.png'><br><font class='baseline'><strong>Plum Powerball</strong><p>Choose number of points to bet.</font><div class='respPicDiv'><img src='img/responseButtonOffersNo0L.png' class='respPic'></div></div>","3","15","Plum Powerball","Fruit/plums1.png","Lost","0.2,0.65","11","0.2","161","43","",""
"html-keyboard-response","137","225737","0.0-11.0-2.42","5d2a49241d8d930001c263a7","bdp_rwlrn","Tue Mar 14 2023 00:09:01 GMT-0400 (Eastern Daylight Time)","506116","Trustworthy,Untrustworthy","","null","","","","decisionFB","","<div class='trialDiv'><img src='Fruit/plums1.png'><br><font class='baseline'><strong>Plum Powerball</strong><p>Choose number of points to bet.</font><div class='respPicDiv'><img src='img/responseButtonOffersNo0L3.png' class='respPic'></div></div>","null","15","Plum Powerball","Fruit/plums1.png","Lost","0.2,0.65","11","0.2","158","43","",""
"html-keyboard-response","138","226749","0.0-11.0-3.42","5d2a49241d8d930001c263a7","bdp_rwlrn","Tue Mar 14 2023 00:09:01 GMT-0400 (Eastern Daylight Time)","506116","Trustworthy,Untrustworthy","","null","","","","feedback","","<div class='respPicDiv'><img src='img/responseButtonOffersNo0_wht.png' class='respPic'></div><div class='trialDiv'><img src='Fruit/plums1.png'><br><font class='baseline'><strong>Plum Powerball</strong><p><strong><font class='negOutcome'>You LOST</font><p>You bet: 3</strong></font> &nbsp; &nbsp; &nbsp; &nbsp; &nbsp; &nbsp;<font class='negOutcome'>You receive: <strong>0</strong></font></div>","null","15","Plum Powerball","Fruit/plums1.png","Lost","0.2,0.65","11","0.2","158","43","",""
"html-keyboard-response","139","226965","0.0-11.0-1.43","5d2a49241d8d930001c263a7","bdp_rwlrn","Tue Mar 14 2023 00:09:01 GMT-0400 (Eastern Daylight Time)","506116","Trustworthy,Untrustworthy","","215","","","","decision","","<div class='trialDiv'><img src='Fruit/apple.png'><br><font class='baseline'><strong>Awesome Apples</strong><p>Choose number of points to bet.</font><div class='respPicDiv'><img src='img/responseButtonOffersNo0L.png' class='respPic'></div></div>","2","15","Awesome Apples","Fruit/apple.png","Lost","0.2,0.8","8","0.2","163","44","",""
"html-keyboard-response","140","227230","0.0-11.0-2.43","5d2a49241d8d930001c263a7","bdp_rwlrn","Tue Mar 14 2023 00:09:01 GMT-0400 (Eastern Daylight Time)","506116","Trustworthy,Untrustworthy","","null","","","","decisionFB","","<div class='trialDiv'><img src='Fruit/apple.png'><br><font class='baseline'><strong>Awesome Apples</strong><p>Choose number of points to bet.</font><div class='respPicDiv'><img src='img/responseButtonOffersNo0L2.png' class='respPic'></div></div>","null","15","Awesome Apples","Fruit/apple.png","Lost","0.2,0.8","8","0.2","161","44","",""
"html-keyboard-response","141","228244","0.0-11.0-3.43","5d2a49241d8d930001c263a7","bdp_rwlrn","Tue Mar 14 2023 00:09:01 GMT-0400 (Eastern Daylight Time)","506116","Trustworthy,Untrustworthy","","null","","","","feedback","","<div class='respPicDiv'><img src='img/responseButtonOffersNo0_wht.png' class='respPic'></div><div class='trialDiv'><img src='Fruit/apple.png'><br><font class='baseline'><strong>Awesome Apples</strong><p><strong><font class='negOutcome'>You LOST</font><p>You bet: 2</strong></font> &nbsp; &nbsp; &nbsp; &nbsp; &nbsp; &nbsp;<font class='negOutcome'>You receive: <strong>0</strong></font></div>","null","15","Awesome Apples","Fruit/apple.png","Lost","0.2,0.8","8","0.2","161","44","",""
"html-keyboard-response","142","229283","0.0-11.0-1.44","5d2a49241d8d930001c263a7","bdp_rwlrn","Tue Mar 14 2023 00:09:01 GMT-0400 (Eastern Daylight Time)","506116","Trustworthy,Untrustworthy","","1037","","","","decision","","<div class='trialDiv'><img src='Fruit/mixed-berries2.png'><br><font class='baseline'><strong>Berry Bla$t</strong><p>Choose number of points to bet.</font><div class='respPicDiv'><img src='img/responseButtonOffersNo0L.png' class='respPic'></div></div>","5","15","Berry Bla$t","Fruit/mixed-berries2.png","Lost","0.65,0.2","9","0.65","166","45","",""
"html-keyboard-response","143","229548","0.0-11.0-2.44","5d2a49241d8d930001c263a7","bdp_rwlrn","Tue Mar 14 2023 00:09:01 GMT-0400 (Eastern Daylight Time)","506116","Trustworthy,Untrustworthy","","null","","","","decisionFB","","<div class='trialDiv'><img src='Fruit/mixed-berries2.png'><br><font class='baseline'><strong>Berry Bla$t</strong><p>Choose number of points to bet.</font><div class='respPicDiv'><img src='img/responseButtonOffersNo0L5.png' class='respPic'></div></div>","null","15","Berry Bla$t","Fruit/mixed-berries2.png","Lost","0.65,0.2","9","0.65","161","45","",""
"html-keyboard-response","144","230560","0.0-11.0-3.44","5d2a49241d8d930001c263a7","bdp_rwlrn","Tue Mar 14 2023 00:09:01 GMT-0400 (Eastern Daylight Time)","506116","Trustworthy,Untrustworthy","","null","","","","feedback","","<div class='respPicDiv'><img src='img/responseButtonOffersNo0_wht.png' class='respPic'></div><div class='trialDiv'><img src='Fruit/mixed-berries2.png'><br><font class='baseline'><strong>Berry Bla$t</strong><p><strong><font class='negOutcome'>You LOST</font><p>You bet: 5</strong></font> &nbsp; &nbsp; &nbsp; &nbsp; &nbsp; &nbsp;<font class='negOutcome'>You receive: <strong>0</strong></font></div>","null","15","Berry Bla$t","Fruit/mixed-berries2.png","Lost","0.65,0.2","9","0.65","161","45","",""
"html-keyboard-response","145","232924","0.0-11.0-1.45","5d2a49241d8d930001c263a7","bdp_rwlrn","Tue Mar 14 2023 00:09:01 GMT-0400 (Eastern Daylight Time)","506116","Trustworthy,Untrustworthy","","2362","","","","decision","","<div class='trialDiv'><img src='Fruit/apple.png'><br><font class='baseline'><strong>Awesome Apples</strong><p>Choose number of points to bet.</font><div class='respPicDiv'><img src='img/responseButtonOffersNo0L.png' class='respPic'></div></div>","5","16","Awesome Apples","Fruit/apple.png","Lost","0.2,0.8","8","0.2","166","46","",""
"html-keyboard-response","146","233178","0.0-11.0-2.45","5d2a49241d8d930001c263a7","bdp_rwlrn","Tue Mar 14 2023 00:09:01 GMT-0400 (Eastern Daylight Time)","506116","Trustworthy,Untrustworthy","","null","","","","decisionFB","","<div class='trialDiv'><img src='Fruit/apple.png'><br><font class='baseline'><strong>Awesome Apples</strong><p>Choose number of points to bet.</font><div class='respPicDiv'><img src='img/responseButtonOffersNo0L5.png' class='respPic'></div></div>","null","16","Awesome Apples","Fruit/apple.png","Lost","0.2,0.8","8","0.2","161","46","",""
"html-keyboard-response","147","234187","0.0-11.0-3.45","5d2a49241d8d930001c263a7","bdp_rwlrn","Tue Mar 14 2023 00:09:01 GMT-0400 (Eastern Daylight Time)","506116","Trustworthy,Untrustworthy","","null","","","","feedback","","<div class='respPicDiv'><img src='img/responseButtonOffersNo0_wht.png' class='respPic'></div><div class='trialDiv'><img src='Fruit/apple.png'><br><font class='baseline'><strong>Awesome Apples</strong><p><strong><font class='negOutcome'>You LOST</font><p>You bet: 5</strong></font> &nbsp; &nbsp; &nbsp; &nbsp; &nbsp; &nbsp;<font class='negOutcome'>You receive: <strong>0</strong></font></div>","null","16","Awesome Apples","Fruit/apple.png","Lost","0.2,0.8","8","0.2","161","46","",""
"html-keyboard-response","148","235897","0.0-11.0-1.46","5d2a49241d8d930001c263a7","bdp_rwlrn","Tue Mar 14 2023 00:09:01 GMT-0400 (Eastern Daylight Time)","506116","Trustworthy,Untrustworthy","","1710","","","","decision","","<div class='trialDiv'><img src='Fruit/mixed-berries2.png'><br><font class='baseline'><strong>Berry Bla$t</strong><p>Choose number of points to bet.</font><div class='respPicDiv'><img src='img/responseButtonOffersNo0L.png' class='respPic'></div></div>","3","16","Berry Bla$t","Fruit/mixed-berries2.png","Lost","0.65,0.2","9","0.65","166","47","",""
"html-keyboard-response","149","236160","0.0-11.0-2.46","5d2a49241d8d930001c263a7","bdp_rwlrn","Tue Mar 14 2023 00:09:01 GMT-0400 (Eastern Daylight Time)","506116","Trustworthy,Untrustworthy","","null","","","","decisionFB","","<div class='trialDiv'><img src='Fruit/mixed-berries2.png'><br><font class='baseline'><strong>Berry Bla$t</strong><p>Choose number of points to bet.</font><div class='respPicDiv'><img src='img/responseButtonOffersNo0L3.png' class='respPic'></div></div>","null","16","Berry Bla$t","Fruit/mixed-berries2.png","Lost","0.65,0.2","9","0.65","163","47","",""
"html-keyboard-response","150","237175","0.0-11.0-3.46","5d2a49241d8d930001c263a7","bdp_rwlrn","Tue Mar 14 2023 00:09:01 GMT-0400 (Eastern Daylight Time)","506116","Trustworthy,Untrustworthy","","null","","","","feedback","","<div class='respPicDiv'><img src='img/responseButtonOffersNo0_wht.png' class='respPic'></div><div class='trialDiv'><img src='Fruit/mixed-berries2.png'><br><font class='baseline'><strong>Berry Bla$t</strong><p><strong><font class='negOutcome'>You LOST</font><p>You bet: 3</strong></font> &nbsp; &nbsp; &nbsp; &nbsp; &nbsp; &nbsp;<font class='negOutcome'>You receive: <strong>0</strong></font></div>","null","16","Berry Bla$t","Fruit/mixed-berries2.png","Lost","0.65,0.2","9","0.65","163","47","",""
"html-keyboard-response","151","242912","0.0-11.0-1.47","5d2a49241d8d930001c263a7","bdp_rwlrn","Tue Mar 14 2023 00:09:01 GMT-0400 (Eastern Daylight Time)","506116","Trustworthy,Untrustworthy","","5736","","","","decision","","<div class='trialDiv'><img src='Fruit/plums1.png'><br><font class='baseline'><strong>Plum Powerball</strong><p>Choose number of points to bet.</font><div class='respPicDiv'><img src='img/responseButtonOffersNo0L.png' class='respPic'></div></div>","5","16","Plum Powerball","Fruit/plums1.png","Won","0.2,0.65","11","0.2","168","48","",""
"html-keyboard-response","152","243163","0.0-11.0-2.47","5d2a49241d8d930001c263a7","bdp_rwlrn","Tue Mar 14 2023 00:09:01 GMT-0400 (Eastern Daylight Time)","506116","Trustworthy,Untrustworthy","","null","","","","decisionFB","","<div class='trialDiv'><img src='Fruit/plums1.png'><br><font class='baseline'><strong>Plum Powerball</strong><p>Choose number of points to bet.</font><div class='respPicDiv'><img src='img/responseButtonOffersNo0L5.png' class='respPic'></div></div>","null","16","Plum Powerball","Fruit/plums1.png","Won","0.2,0.65","11","0.2","163","48","",""
"html-keyboard-response","153","244176","0.0-11.0-3.47","5d2a49241d8d930001c263a7","bdp_rwlrn","Tue Mar 14 2023 00:09:01 GMT-0400 (Eastern Daylight Time)","506116","Trustworthy,Untrustworthy","","null","","","","feedback","","<div class='respPicDiv'><img src='img/responseButtonOffersNo0_wht.png' class='respPic'></div><div class='trialDiv'><img src='Fruit/plums1.png'><br><font class='baseline'><strong>Plum Powerball</strong><p><strong><font class='posOutcome'>You WON</font><p>You bet: 5</strong></font> &nbsp; &nbsp; &nbsp; &nbsp; &nbsp; &nbsp;<font class='posOutcome'>you receive: <strong>10</strong></font></div>","null","16","Plum Powerball","Fruit/plums1.png","Won","0.2,0.65","11","0.2","173","48","",""
"html-keyboard-response","154","248091","0.0-11.0-1.48","5d2a49241d8d930001c263a7","bdp_rwlrn","Tue Mar 14 2023 00:09:01 GMT-0400 (Eastern Daylight Time)","506116","Trustworthy,Untrustworthy","","3915","","","","decision","","<div class='trialDiv'><img src='Fruit/mixed-berries2.png'><br><font class='baseline'><strong>Berry Bla$t</strong><p>Choose number of points to bet.</font><div class='respPicDiv'><img src='img/responseButtonOffersNo0L.png' class='respPic'></div></div>","3","17","Berry Bla$t","Fruit/mixed-berries2.png","Lost","0.65,0.2","9","0.65","178","49","",""
"html-keyboard-response","155","248353","0.0-11.0-2.48","5d2a49241d8d930001c263a7","bdp_rwlrn","Tue Mar 14 2023 00:09:01 GMT-0400 (Eastern Daylight Time)","506116","Trustworthy,Untrustworthy","","null","","","","decisionFB","","<div class='trialDiv'><img src='Fruit/mixed-berries2.png'><br><font class='baseline'><strong>Berry Bla$t</strong><p>Choose number of points to bet.</font><div class='respPicDiv'><img src='img/responseButtonOffersNo0L3.png' class='respPic'></div></div>","null","17","Berry Bla$t","Fruit/mixed-berries2.png","Lost","0.65,0.2","9","0.65","175","49","",""
"html-keyboard-response","156","249366","0.0-11.0-3.48","5d2a49241d8d930001c263a7","bdp_rwlrn","Tue Mar 14 2023 00:09:01 GMT-0400 (Eastern Daylight Time)","506116","Trustworthy,Untrustworthy","","null","","","","feedback","","<div class='respPicDiv'><img src='img/responseButtonOffersNo0_wht.png' class='respPic'></div><div class='trialDiv'><img src='Fruit/mixed-berries2.png'><br><font class='baseline'><strong>Berry Bla$t</strong><p><strong><font class='negOutcome'>You LOST</font><p>You bet: 3</strong></font> &nbsp; &nbsp; &nbsp; &nbsp; &nbsp; &nbsp;<font class='negOutcome'>You receive: <strong>0</strong></font></div>","null","17","Berry Bla$t","Fruit/mixed-berries2.png","Lost","0.65,0.2","9","0.65","175","49","",""
"html-keyboard-response","157","250247","0.0-11.0-1.49","5d2a49241d8d930001c263a7","bdp_rwlrn","Tue Mar 14 2023 00:09:01 GMT-0400 (Eastern Daylight Time)","506116","Trustworthy,Untrustworthy","","880","","","","decision","","<div class='trialDiv'><img src='Fruit/apple.png'><br><font class='baseline'><strong>Awesome Apples</strong><p>Choose number of points to bet.</font><div class='respPicDiv'><img src='img/responseButtonOffersNo0L.png' class='respPic'></div></div>","4","17","Awesome Apples","Fruit/apple.png","Lost","0.2,0.8","8","0.2","180","50","",""
"html-keyboard-response","158","250502","0.0-11.0-2.49","5d2a49241d8d930001c263a7","bdp_rwlrn","Tue Mar 14 2023 00:09:01 GMT-0400 (Eastern Daylight Time)","506116","Trustworthy,Untrustworthy","","null","","","","decisionFB","","<div class='trialDiv'><img src='Fruit/apple.png'><br><font class='baseline'><strong>Awesome Apples</strong><p>Choose number of points to bet.</font><div class='respPicDiv'><img src='img/responseButtonOffersNo0L4.png' class='respPic'></div></div>","null","17","Awesome Apples","Fruit/apple.png","Lost","0.2,0.8","8","0.2","176","50","",""
"html-keyboard-response","159","251517","0.0-11.0-3.49","5d2a49241d8d930001c263a7","bdp_rwlrn","Tue Mar 14 2023 00:09:01 GMT-0400 (Eastern Daylight Time)","506116","Trustworthy,Untrustworthy","","null","","","","feedback","","<div class='respPicDiv'><img src='img/responseButtonOffersNo0_wht.png' class='respPic'></div><div class='trialDiv'><img src='Fruit/apple.png'><br><font class='baseline'><strong>Awesome Apples</strong><p><strong><font class='negOutcome'>You LOST</font><p>You bet: 4</strong></font> &nbsp; &nbsp; &nbsp; &nbsp; &nbsp; &nbsp;<font class='negOutcome'>You receive: <strong>0</strong></font></div>","null","17","Awesome Apples","Fruit/apple.png","Lost","0.2,0.8","8","0.2","176","50","",""
"html-keyboard-response","160","251939","0.0-11.0-1.50","5d2a49241d8d930001c263a7","bdp_rwlrn","Tue Mar 14 2023 00:09:01 GMT-0400 (Eastern Daylight Time)","506116","Trustworthy,Untrustworthy","","421","","","","decision","","<div class='trialDiv'><img src='Fruit/plums1.png'><br><font class='baseline'><strong>Plum Powerball</strong><p>Choose number of points to bet.</font><div class='respPicDiv'><img src='img/responseButtonOffersNo0L.png' class='respPic'></div></div>","3","17","Plum Powerball","Fruit/plums1.png","Won","0.2,0.65","11","0.2","181","51","",""
"html-keyboard-response","161","252201","0.0-11.0-2.50","5d2a49241d8d930001c263a7","bdp_rwlrn","Tue Mar 14 2023 00:09:01 GMT-0400 (Eastern Daylight Time)","506116","Trustworthy,Untrustworthy","","null","","","","decisionFB","","<div class='trialDiv'><img src='Fruit/plums1.png'><br><font class='baseline'><strong>Plum Powerball</strong><p>Choose number of points to bet.</font><div class='respPicDiv'><img src='img/responseButtonOffersNo0L3.png' class='respPic'></div></div>","null","17","Plum Powerball","Fruit/plums1.png","Won","0.2,0.65","11","0.2","178","51","",""
"html-keyboard-response","162","253207","0.0-11.0-3.50","5d2a49241d8d930001c263a7","bdp_rwlrn","Tue Mar 14 2023 00:09:01 GMT-0400 (Eastern Daylight Time)","506116","Trustworthy,Untrustworthy","","null","","","","feedback","","<div class='respPicDiv'><img src='img/responseButtonOffersNo0_wht.png' class='respPic'></div><div class='trialDiv'><img src='Fruit/plums1.png'><br><font class='baseline'><strong>Plum Powerball</strong><p><strong><font class='posOutcome'>You WON</font><p>You bet: 3</strong></font> &nbsp; &nbsp; &nbsp; &nbsp; &nbsp; &nbsp;<font class='posOutcome'>you receive: <strong>6</strong></font></div>","null","17","Plum Powerball","Fruit/plums1.png","Won","0.2,0.65","11","0.2","184","51","",""
