"trial_type","trial_index","time_elapsed","internal_node_id","subject_id","task","startTime","totalTime","labels","view_history","rt","event","trial","time","trialtype","success","stimulus","key_press","ltround","name","fileID","outcome","lottotype","lottoswpt","lottocurrpshare","point_total","round","faceID","face"
"pavlovia","0","6","0.0-0.0","6400df3b4bd1fb13b52727fe","bdp_rwlrn","Tue Mar 14 2023 21:56:30 GMT-0400 (Eastern Daylight Time)","391232","Untrustworthy,Trustworthy","","","","","","","","","","","","","","","","","","","",""
"instructions","1","3836","0.0-1.0","6400df3b4bd1fb13b52727fe","bdp_rwlrn","Tue Mar 14 2023 21:56:30 GMT-0400 (Eastern Daylight Time)","391232","Untrustworthy,Trustworthy","[{""page_index"":0,""viewing_time"":3829}]","3829","","","","","","","","","","","","","","","","","",""
"","","","","6400df3b4bd1fb13b52727fe","bdp_rwlrn","Tue Mar 14 2023 21:56:30 GMT-0400 (Eastern Daylight Time)","391232","Untrustworthy,Trustworthy","","","fullscreenenter","2","6224","fullscreenenter","","","","","","","","","","","","","",""
"fullscreen","2","7221","0.0-2.0","6400df3b4bd1fb13b52727fe","bdp_rwlrn","Tue Mar 14 2023 21:56:30 GMT-0400 (Eastern Daylight Time)","391232","Untrustworthy,Trustworthy","","","","","","","true","","","","","","","","","","","","",""
"instructions","3","50098","0.0-4.0","6400df3b4bd1fb13b52727fe","bdp_rwlrn","Tue Mar 14 2023 21:56:30 GMT-0400 (Eastern Daylight Time)","391232","Untrustworthy,Trustworthy","[{""page_index"":0,""viewing_time"":10078},{""page_index"":1,""viewing_time"":8376},{""page_index"":2,""viewing_time"":4031},{""page_index"":3,""viewing_time"":3450},{""page_index"":4,""viewing_time"":14082},{""page_index"":5,""viewing_time"":2856}]","42874","","","","","","","","","","","","","","","","","",""
"html-keyboard-response","4","54955","0.0-5.0","6400df3b4bd1fb13b52727fe","bdp_rwlrn","Tue Mar 14 2023 21:56:30 GMT-0400 (Eastern Daylight Time)","391232","Untrustworthy,Trustworthy","","4854","","","","","","<div class='header' style='text-align:left; position: absolute; top: 5%; left: 5%;'><small>Task 3 of 5</small></div><div class='instruxDiv'><p><strong>1) What is the maximum number of points you can choose to bet on a lottery?</strong></p><p>a) 0</p><p>b) 1</p><p>c) 5</p>","C","","","","","","","","","","",""
"html-keyboard-response","5","56296","0.0-6.0","6400df3b4bd1fb13b52727fe","bdp_rwlrn","Tue Mar 14 2023 21:56:30 GMT-0400 (Eastern Daylight Time)","391232","Untrustworthy,Trustworthy","","1233","","","","","","<div class='header' style='text-align:left; position: absolute; top: 5%; left: 5%;'><small>Task 3 of 5</small></div><div class='instruxDiv'><p><strong>1) What is the maximum number of points you can choose to bet on a lottery?</strong></p><p>a) 1</p><p>b) 1</p><p style='color:#00FF00'>c) 5</p><h3 style='color:#00FF00'>Correct!</h3><h3 class='center-content'>The correct response is c).</h3><h3 class='center-content'>The maximum number of points you can choose to bet on a lottery is 5 points.</h3><p><em>Press SPACEBAR to continue</em></p></div>"," ","","","","","","","","","","",""
"html-keyboard-response","6","60182","0.0-7.0","6400df3b4bd1fb13b52727fe","bdp_rwlrn","Tue Mar 14 2023 21:56:30 GMT-0400 (Eastern Daylight Time)","391232","Untrustworthy,Trustworthy","","3785","","","","","","<div class='header' style='text-align:left; position: absolute; top: 5%; left: 5%;'><small>Task 3 of 5</small></div><div class='instruxDiv'><p><strong>2) How many points can you win each round?</strong></p><p>a) 10 points</p><p>b) Double what you bet</p><p>c) Quadruple what you bet</p>","B","","","","","","","","","","",""
"html-keyboard-response","7","61720","0.0-8.0","6400df3b4bd1fb13b52727fe","bdp_rwlrn","Tue Mar 14 2023 21:56:30 GMT-0400 (Eastern Daylight Time)","391232","Untrustworthy,Trustworthy","","1428","","","","","","<div class='header' style='text-align:left; position: absolute; top: 5%; left: 5%;'><small>Task 3 of 5</small></div><div class='instruxDiv'><p><strong>2) How many points can you win each round?</strong></p><p>a) 10 points</p><p style='color:#00FF00'>b) Double what you bet</p><p>c) Quadruple what you bet</p><h3 style='color:#00FF00'>Correct!</h3><h3 class='center-content'>The correct response is b).</h3><h3 class='center-content'>You can win double the amount of points you bet.</h3><p><em>Press SPACEBAR to continue</em></p></div>"," ","","","","","","","","","","",""
"html-keyboard-response","8","66840","0.0-9.0","6400df3b4bd1fb13b52727fe","bdp_rwlrn","Tue Mar 14 2023 21:56:30 GMT-0400 (Eastern Daylight Time)","391232","Untrustworthy,Trustworthy","","null","","","","","","<div class='header' style='text-align:left; position: absolute; top: 5%; left: 5%;'><small>Task 3 of 5</small></div><div class='instruxDiv'><p>Thank you for completing the quiz<p>These are the actual lotteries you will be playing in the next block:<p><div class='tc' align='center'><img class='introPic' src='Fruit/bananas.png'><br><strong>Banana Bonanza</strong></div><div class='bl' align='center'><img class='introPic' src='Fruit/plums1.png'><br><strong>Plum Powerball</strong></div><div class='br' align='center'><img class='introPic' src='Fruit/papayas.png'><br><strong>Papaya Payday</strong></div></div><p>Across <strong>66 rounds</strong> you will play each lottery <strong>22 times</strong> (in random order).<p style='align:center; color:white'><font <em>Press SPACEBAR to continue</em></p>","null","","","","","","","","","","",""
"instructions","9","106494","0.0-10.0","6400df3b4bd1fb13b52727fe","bdp_rwlrn","Tue Mar 14 2023 21:56:30 GMT-0400 (Eastern Daylight Time)","391232","Untrustworthy,Trustworthy","[{""page_index"":0,""viewing_time"":37776},{""page_index"":1,""viewing_time"":1876}]","39652","","","","","","","","","","","","","","","","","",""
"html-keyboard-response","10","108473","0.0-11.0-1.0","6400df3b4bd1fb13b52727fe","bdp_rwlrn","Tue Mar 14 2023 21:56:30 GMT-0400 (Eastern Daylight Time)","391232","Untrustworthy,Trustworthy","","1870","","","","decision","","<div class='trialDiv'><img src='Fruit/bananas.png'><br><font class='baseline'><strong>Banana Bonanza</strong><p>Choose number of points to bet.</font><div class='respPicDiv'><img src='img/responseButtonOffersNo0L.png' class='respPic'></div></div>","5","1","Banana Bonanza","Fruit/bananas.png","Won","0.35,0.8","12","0.35","5","1","",""
"html-keyboard-response","11","108737","0.0-11.0-2.0","6400df3b4bd1fb13b52727fe","bdp_rwlrn","Tue Mar 14 2023 21:56:30 GMT-0400 (Eastern Daylight Time)","391232","Untrustworthy,Trustworthy","","null","","","","decisionFB","","<div class='trialDiv'><img src='Fruit/bananas.png'><br><font class='baseline'><strong>Banana Bonanza</strong><p>Choose number of points to bet.</font><div class='respPicDiv'><img src='img/responseButtonOffersNo0L5.png' class='respPic'></div></div>","null","1","Banana Bonanza","Fruit/bananas.png","Won","0.35,0.8","12","0.35","0","1","",""
"html-keyboard-response","12","109743","0.0-11.0-3.0","6400df3b4bd1fb13b52727fe","bdp_rwlrn","Tue Mar 14 2023 21:56:30 GMT-0400 (Eastern Daylight Time)","391232","Untrustworthy,Trustworthy","","null","","","","feedback","","<div class='respPicDiv'><img src='img/responseButtonOffersNo0_wht.png' class='respPic'></div><div class='trialDiv'><img src='Fruit/bananas.png'><br><font class='baseline'><strong>Banana Bonanza</strong><p><strong><font class='posOutcome'>You WON</font><p>You bet: 5</strong></font> &nbsp; &nbsp; &nbsp; &nbsp; &nbsp; &nbsp;<font class='posOutcome'>you receive: <strong>10</strong></font></div>","null","1","Banana Bonanza","Fruit/bananas.png","Won","0.35,0.8","12","0.35","10","1","",""
"html-keyboard-response","13","110613","0.0-11.0-1.1","6400df3b4bd1fb13b52727fe","bdp_rwlrn","Tue Mar 14 2023 21:56:30 GMT-0400 (Eastern Daylight Time)","391232","Untrustworthy,Trustworthy","","868","","","","decision","","<div class='trialDiv'><img src='Fruit/papayas.png'><br><font class='baseline'><strong>Papaya Payday</strong><p>Choose number of points to bet.</font><div class='respPicDiv'><img src='img/responseButtonOffersNo0L.png' class='respPic'></div></div>","5","1","Papaya Payday","Fruit/papayas.png","Won","0.65,0.2","9","0.65","15","2","",""
"html-keyboard-response","14","110867","0.0-11.0-2.1","6400df3b4bd1fb13b52727fe","bdp_rwlrn","Tue Mar 14 2023 21:56:30 GMT-0400 (Eastern Daylight Time)","391232","Untrustworthy,Trustworthy","","null","","","","decisionFB","","<div class='trialDiv'><img src='Fruit/papayas.png'><br><font class='baseline'><strong>Papaya Payday</strong><p>Choose number of points to bet.</font><div class='respPicDiv'><img src='img/responseButtonOffersNo0L5.png' class='respPic'></div></div>","null","1","Papaya Payday","Fruit/papayas.png","Won","0.65,0.2","9","0.65","10","2","",""
"html-keyboard-response","15","111874","0.0-11.0-3.1","6400df3b4bd1fb13b52727fe","bdp_rwlrn","Tue Mar 14 2023 21:56:30 GMT-0400 (Eastern Daylight Time)","391232","Untrustworthy,Trustworthy","","null","","","","feedback","","<div class='respPicDiv'><img src='img/responseButtonOffersNo0_wht.png' class='respPic'></div><div class='trialDiv'><img src='Fruit/papayas.png'><br><font class='baseline'><strong>Papaya Payday</strong><p><strong><font class='posOutcome'>You WON</font><p>You bet: 5</strong></font> &nbsp; &nbsp; &nbsp; &nbsp; &nbsp; &nbsp;<font class='posOutcome'>you receive: <strong>10</strong></font></div>","null","1","Papaya Payday","Fruit/papayas.png","Won","0.65,0.2","9","0.65","20","2","",""
"html-keyboard-response","16","112411","0.0-11.0-1.2","6400df3b4bd1fb13b52727fe","bdp_rwlrn","Tue Mar 14 2023 21:56:30 GMT-0400 (Eastern Daylight Time)","391232","Untrustworthy,Trustworthy","","536","","","","decision","","<div class='trialDiv'><img src='Fruit/plums1.png'><br><font class='baseline'><strong>Plum Powerball</strong><p>Choose number of points to bet.</font><div class='respPicDiv'><img src='img/responseButtonOffersNo0L.png' class='respPic'></div></div>","5","1","Plum Powerball","Fruit/plums1.png","Lost","0.35,0.65","14","0.35","25","3","",""
"html-keyboard-response","17","112672","0.0-11.0-2.2","6400df3b4bd1fb13b52727fe","bdp_rwlrn","Tue Mar 14 2023 21:56:30 GMT-0400 (Eastern Daylight Time)","391232","Untrustworthy,Trustworthy","","null","","","","decisionFB","","<div class='trialDiv'><img src='Fruit/plums1.png'><br><font class='baseline'><strong>Plum Powerball</strong><p>Choose number of points to bet.</font><div class='respPicDiv'><img src='img/responseButtonOffersNo0L5.png' class='respPic'></div></div>","null","1","Plum Powerball","Fruit/plums1.png","Lost","0.35,0.65","14","0.35","20","3","",""
"html-keyboard-response","18","113683","0.0-11.0-3.2","6400df3b4bd1fb13b52727fe","bdp_rwlrn","Tue Mar 14 2023 21:56:30 GMT-0400 (Eastern Daylight Time)","391232","Untrustworthy,Trustworthy","","null","","","","feedback","","<div class='respPicDiv'><img src='img/responseButtonOffersNo0_wht.png' class='respPic'></div><div class='trialDiv'><img src='Fruit/plums1.png'><br><font class='baseline'><strong>Plum Powerball</strong><p><strong><font class='negOutcome'>You LOST</font><p>You bet: 5</strong></font> &nbsp; &nbsp; &nbsp; &nbsp; &nbsp; &nbsp;<font class='negOutcome'>You receive: <strong>0</strong></font></div>","null","1","Plum Powerball","Fruit/plums1.png","Lost","0.35,0.65","14","0.35","20","3","",""
"html-keyboard-response","19","114349","0.0-11.0-1.3","6400df3b4bd1fb13b52727fe","bdp_rwlrn","Tue Mar 14 2023 21:56:30 GMT-0400 (Eastern Daylight Time)","391232","Untrustworthy,Trustworthy","","664","","","","decision","","<div class='trialDiv'><img src='Fruit/bananas.png'><br><font class='baseline'><strong>Banana Bonanza</strong><p>Choose number of points to bet.</font><div class='respPicDiv'><img src='img/responseButtonOffersNo0L.png' class='respPic'></div></div>","5","2","Banana Bonanza","Fruit/bananas.png","Lost","0.35,0.8","12","0.35","25","4","",""
"html-keyboard-response","20","114609","0.0-11.0-2.3","6400df3b4bd1fb13b52727fe","bdp_rwlrn","Tue Mar 14 2023 21:56:30 GMT-0400 (Eastern Daylight Time)","391232","Untrustworthy,Trustworthy","","null","","","","decisionFB","","<div class='trialDiv'><img src='Fruit/bananas.png'><br><font class='baseline'><strong>Banana Bonanza</strong><p>Choose number of points to bet.</font><div class='respPicDiv'><img src='img/responseButtonOffersNo0L5.png' class='respPic'></div></div>","null","2","Banana Bonanza","Fruit/bananas.png","Lost","0.35,0.8","12","0.35","20","4","",""
"html-keyboard-response","21","115627","0.0-11.0-3.3","6400df3b4bd1fb13b52727fe","bdp_rwlrn","Tue Mar 14 2023 21:56:30 GMT-0400 (Eastern Daylight Time)","391232","Untrustworthy,Trustworthy","","null","","","","feedback","","<div class='respPicDiv'><img src='img/responseButtonOffersNo0_wht.png' class='respPic'></div><div class='trialDiv'><img src='Fruit/bananas.png'><br><font class='baseline'><strong>Banana Bonanza</strong><p><strong><font class='negOutcome'>You LOST</font><p>You bet: 5</strong></font> &nbsp; &nbsp; &nbsp; &nbsp; &nbsp; &nbsp;<font class='negOutcome'>You receive: <strong>0</strong></font></div>","null","2","Banana Bonanza","Fruit/bananas.png","Lost","0.35,0.8","12","0.35","20","4","",""
"html-keyboard-response","22","116763","0.0-11.0-1.4","6400df3b4bd1fb13b52727fe","bdp_rwlrn","Tue Mar 14 2023 21:56:30 GMT-0400 (Eastern Daylight Time)","391232","Untrustworthy,Trustworthy","","1134","","","","decision","","<div class='trialDiv'><img src='Fruit/plums1.png'><br><font class='baseline'><strong>Plum Powerball</strong><p>Choose number of points to bet.</font><div class='respPicDiv'><img src='img/responseButtonOffersNo0L.png' class='respPic'></div></div>","5","2","Plum Powerball","Fruit/plums1.png","Won","0.35,0.65","14","0.35","25","5","",""
"html-keyboard-response","23","117020","0.0-11.0-2.4","6400df3b4bd1fb13b52727fe","bdp_rwlrn","Tue Mar 14 2023 21:56:30 GMT-0400 (Eastern Daylight Time)","391232","Untrustworthy,Trustworthy","","null","","","","decisionFB","","<div class='trialDiv'><img src='Fruit/plums1.png'><br><font class='baseline'><strong>Plum Powerball</strong><p>Choose number of points to bet.</font><div class='respPicDiv'><img src='img/responseButtonOffersNo0L5.png' class='respPic'></div></div>","null","2","Plum Powerball","Fruit/plums1.png","Won","0.35,0.65","14","0.35","20","5","",""
"html-keyboard-response","24","118023","0.0-11.0-3.4","6400df3b4bd1fb13b52727fe","bdp_rwlrn","Tue Mar 14 2023 21:56:30 GMT-0400 (Eastern Daylight Time)","391232","Untrustworthy,Trustworthy","","null","","","","feedback","","<div class='respPicDiv'><img src='img/responseButtonOffersNo0_wht.png' class='respPic'></div><div class='trialDiv'><img src='Fruit/plums1.png'><br><font class='baseline'><strong>Plum Powerball</strong><p><strong><font class='posOutcome'>You WON</font><p>You bet: 5</strong></font> &nbsp; &nbsp; &nbsp; &nbsp; &nbsp; &nbsp;<font class='posOutcome'>you receive: <strong>10</strong></font></div>","null","2","Plum Powerball","Fruit/plums1.png","Won","0.35,0.65","14","0.35","30","5","",""
"html-keyboard-response","25","118861","0.0-11.0-1.5","6400df3b4bd1fb13b52727fe","bdp_rwlrn","Tue Mar 14 2023 21:56:30 GMT-0400 (Eastern Daylight Time)","391232","Untrustworthy,Trustworthy","","836","","","","decision","","<div class='trialDiv'><img src='Fruit/papayas.png'><br><font class='baseline'><strong>Papaya Payday</strong><p>Choose number of points to bet.</font><div class='respPicDiv'><img src='img/responseButtonOffersNo0L.png' class='respPic'></div></div>","5","2","Papaya Payday","Fruit/papayas.png","Won","0.65,0.2","9","0.65","35","6","",""
"html-keyboard-response","26","119114","0.0-11.0-2.5","6400df3b4bd1fb13b52727fe","bdp_rwlrn","Tue Mar 14 2023 21:56:30 GMT-0400 (Eastern Daylight Time)","391232","Untrustworthy,Trustworthy","","null","","","","decisionFB","","<div class='trialDiv'><img src='Fruit/papayas.png'><br><font class='baseline'><strong>Papaya Payday</strong><p>Choose number of points to bet.</font><div class='respPicDiv'><img src='img/responseButtonOffersNo0L5.png' class='respPic'></div></div>","null","2","Papaya Payday","Fruit/papayas.png","Won","0.65,0.2","9","0.65","30","6","",""
"html-keyboard-response","27","120118","0.0-11.0-3.5","6400df3b4bd1fb13b52727fe","bdp_rwlrn","Tue Mar 14 2023 21:56:30 GMT-0400 (Eastern Daylight Time)","391232","Untrustworthy,Trustworthy","","null","","","","feedback","","<div class='respPicDiv'><img src='img/responseButtonOffersNo0_wht.png' class='respPic'></div><div class='trialDiv'><img src='Fruit/papayas.png'><br><font class='baseline'><strong>Papaya Payday</strong><p><strong><font class='posOutcome'>You WON</font><p>You bet: 5</strong></font> &nbsp; &nbsp; &nbsp; &nbsp; &nbsp; &nbsp;<font class='posOutcome'>you receive: <strong>10</strong></font></div>","null","2","Papaya Payday","Fruit/papayas.png","Won","0.65,0.2","9","0.65","40","6","",""
"html-keyboard-response","28","121927","0.0-11.0-1.6","6400df3b4bd1fb13b52727fe","bdp_rwlrn","Tue Mar 14 2023 21:56:30 GMT-0400 (Eastern Daylight Time)","391232","Untrustworthy,Trustworthy","","1806","","","","decision","","<div class='trialDiv'><img src='Fruit/plums1.png'><br><font class='baseline'><strong>Plum Powerball</strong><p>Choose number of points to bet.</font><div class='respPicDiv'><img src='img/responseButtonOffersNo0L.png' class='respPic'></div></div>","5","3","Plum Powerball","Fruit/plums1.png","Lost","0.35,0.65","14","0.35","45","7","",""
"html-keyboard-response","29","122185","0.0-11.0-2.6","6400df3b4bd1fb13b52727fe","bdp_rwlrn","Tue Mar 14 2023 21:56:30 GMT-0400 (Eastern Daylight Time)","391232","Untrustworthy,Trustworthy","","null","","","","decisionFB","","<div class='trialDiv'><img src='Fruit/plums1.png'><br><font class='baseline'><strong>Plum Powerball</strong><p>Choose number of points to bet.</font><div class='respPicDiv'><img src='img/responseButtonOffersNo0L5.png' class='respPic'></div></div>","null","3","Plum Powerball","Fruit/plums1.png","Lost","0.35,0.65","14","0.35","40","7","",""
"html-keyboard-response","30","123193","0.0-11.0-3.6","6400df3b4bd1fb13b52727fe","bdp_rwlrn","Tue Mar 14 2023 21:56:30 GMT-0400 (Eastern Daylight Time)","391232","Untrustworthy,Trustworthy","","null","","","","feedback","","<div class='respPicDiv'><img src='img/responseButtonOffersNo0_wht.png' class='respPic'></div><div class='trialDiv'><img src='Fruit/plums1.png'><br><font class='baseline'><strong>Plum Powerball</strong><p><strong><font class='negOutcome'>You LOST</font><p>You bet: 5</strong></font> &nbsp; &nbsp; &nbsp; &nbsp; &nbsp; &nbsp;<font class='negOutcome'>You receive: <strong>0</strong></font></div>","null","3","Plum Powerball","Fruit/plums1.png","Lost","0.35,0.65","14","0.35","40","7","",""
"html-keyboard-response","31","123720","0.0-11.0-1.7","6400df3b4bd1fb13b52727fe","bdp_rwlrn","Tue Mar 14 2023 21:56:30 GMT-0400 (Eastern Daylight Time)","391232","Untrustworthy,Trustworthy","","525","","","","decision","","<div class='trialDiv'><img src='Fruit/bananas.png'><br><font class='baseline'><strong>Banana Bonanza</strong><p>Choose number of points to bet.</font><div class='respPicDiv'><img src='img/responseButtonOffersNo0L.png' class='respPic'></div></div>","5","3","Banana Bonanza","Fruit/bananas.png","Won","0.35,0.8","12","0.35","45","8","",""
"html-keyboard-response","32","123985","0.0-11.0-2.7","6400df3b4bd1fb13b52727fe","bdp_rwlrn","Tue Mar 14 2023 21:56:30 GMT-0400 (Eastern Daylight Time)","391232","Untrustworthy,Trustworthy","","null","","","","decisionFB","","<div class='trialDiv'><img src='Fruit/bananas.png'><br><font class='baseline'><strong>Banana Bonanza</strong><p>Choose number of points to bet.</font><div class='respPicDiv'><img src='img/responseButtonOffersNo0L5.png' class='respPic'></div></div>","null","3","Banana Bonanza","Fruit/bananas.png","Won","0.35,0.8","12","0.35","40","8","",""
"html-keyboard-response","33","124996","0.0-11.0-3.7","6400df3b4bd1fb13b52727fe","bdp_rwlrn","Tue Mar 14 2023 21:56:30 GMT-0400 (Eastern Daylight Time)","391232","Untrustworthy,Trustworthy","","null","","","","feedback","","<div class='respPicDiv'><img src='img/responseButtonOffersNo0_wht.png' class='respPic'></div><div class='trialDiv'><img src='Fruit/bananas.png'><br><font class='baseline'><strong>Banana Bonanza</strong><p><strong><font class='posOutcome'>You WON</font><p>You bet: 5</strong></font> &nbsp; &nbsp; &nbsp; &nbsp; &nbsp; &nbsp;<font class='posOutcome'>you receive: <strong>10</strong></font></div>","null","3","Banana Bonanza","Fruit/bananas.png","Won","0.35,0.8","12","0.35","50","8","",""
"html-keyboard-response","34","125553","0.0-11.0-1.8","6400df3b4bd1fb13b52727fe","bdp_rwlrn","Tue Mar 14 2023 21:56:30 GMT-0400 (Eastern Daylight Time)","391232","Untrustworthy,Trustworthy","","554","","","","decision","","<div class='trialDiv'><img src='Fruit/papayas.png'><br><font class='baseline'><strong>Papaya Payday</strong><p>Choose number of points to bet.</font><div class='respPicDiv'><img src='img/responseButtonOffersNo0L.png' class='respPic'></div></div>","5","3","Papaya Payday","Fruit/papayas.png","Won","0.65,0.2","9","0.65","55","9","",""
"html-keyboard-response","35","125810","0.0-11.0-2.8","6400df3b4bd1fb13b52727fe","bdp_rwlrn","Tue Mar 14 2023 21:56:30 GMT-0400 (Eastern Daylight Time)","391232","Untrustworthy,Trustworthy","","null","","","","decisionFB","","<div class='trialDiv'><img src='Fruit/papayas.png'><br><font class='baseline'><strong>Papaya Payday</strong><p>Choose number of points to bet.</font><div class='respPicDiv'><img src='img/responseButtonOffersNo0L5.png' class='respPic'></div></div>","null","3","Papaya Payday","Fruit/papayas.png","Won","0.65,0.2","9","0.65","50","9","",""
"html-keyboard-response","36","126817","0.0-11.0-3.8","6400df3b4bd1fb13b52727fe","bdp_rwlrn","Tue Mar 14 2023 21:56:30 GMT-0400 (Eastern Daylight Time)","391232","Untrustworthy,Trustworthy","","null","","","","feedback","","<div class='respPicDiv'><img src='img/responseButtonOffersNo0_wht.png' class='respPic'></div><div class='trialDiv'><img src='Fruit/papayas.png'><br><font class='baseline'><strong>Papaya Payday</strong><p><strong><font class='posOutcome'>You WON</font><p>You bet: 5</strong></font> &nbsp; &nbsp; &nbsp; &nbsp; &nbsp; &nbsp;<font class='posOutcome'>you receive: <strong>10</strong></font></div>","null","3","Papaya Payday","Fruit/papayas.png","Won","0.65,0.2","9","0.65","60","9","",""
"html-keyboard-response","37","127789","0.0-11.0-1.9","6400df3b4bd1fb13b52727fe","bdp_rwlrn","Tue Mar 14 2023 21:56:30 GMT-0400 (Eastern Daylight Time)","391232","Untrustworthy,Trustworthy","","970","","","","decision","","<div class='trialDiv'><img src='Fruit/bananas.png'><br><font class='baseline'><strong>Banana Bonanza</strong><p>Choose number of points to bet.</font><div class='respPicDiv'><img src='img/responseButtonOffersNo0L.png' class='respPic'></div></div>","5","4","Banana Bonanza","Fruit/bananas.png","Lost","0.35,0.8","12","0.35","65","10","",""
"html-keyboard-response","38","128044","0.0-11.0-2.9","6400df3b4bd1fb13b52727fe","bdp_rwlrn","Tue Mar 14 2023 21:56:30 GMT-0400 (Eastern Daylight Time)","391232","Untrustworthy,Trustworthy","","null","","","","decisionFB","","<div class='trialDiv'><img src='Fruit/bananas.png'><br><font class='baseline'><strong>Banana Bonanza</strong><p>Choose number of points to bet.</font><div class='respPicDiv'><img src='img/responseButtonOffersNo0L5.png' class='respPic'></div></div>","null","4","Banana Bonanza","Fruit/bananas.png","Lost","0.35,0.8","12","0.35","60","10","",""
"html-keyboard-response","39","129057","0.0-11.0-3.9","6400df3b4bd1fb13b52727fe","bdp_rwlrn","Tue Mar 14 2023 21:56:30 GMT-0400 (Eastern Daylight Time)","391232","Untrustworthy,Trustworthy","","null","","","","feedback","","<div class='respPicDiv'><img src='img/responseButtonOffersNo0_wht.png' class='respPic'></div><div class='trialDiv'><img src='Fruit/bananas.png'><br><font class='baseline'><strong>Banana Bonanza</strong><p><strong><font class='negOutcome'>You LOST</font><p>You bet: 5</strong></font> &nbsp; &nbsp; &nbsp; &nbsp; &nbsp; &nbsp;<font class='negOutcome'>You receive: <strong>0</strong></font></div>","null","4","Banana Bonanza","Fruit/bananas.png","Lost","0.35,0.8","12","0.35","60","10","",""
"html-keyboard-response","40","129515","0.0-11.0-1.10","6400df3b4bd1fb13b52727fe","bdp_rwlrn","Tue Mar 14 2023 21:56:30 GMT-0400 (Eastern Daylight Time)","391232","Untrustworthy,Trustworthy","","457","","","","decision","","<div class='trialDiv'><img src='Fruit/plums1.png'><br><font class='baseline'><strong>Plum Powerball</strong><p>Choose number of points to bet.</font><div class='respPicDiv'><img src='img/responseButtonOffersNo0L.png' class='respPic'></div></div>","5","4","Plum Powerball","Fruit/plums1.png","Lost","0.35,0.65","14","0.35","65","11","",""
"html-keyboard-response","41","129769","0.0-11.0-2.10","6400df3b4bd1fb13b52727fe","bdp_rwlrn","Tue Mar 14 2023 21:56:30 GMT-0400 (Eastern Daylight Time)","391232","Untrustworthy,Trustworthy","","null","","","","decisionFB","","<div class='trialDiv'><img src='Fruit/plums1.png'><br><font class='baseline'><strong>Plum Powerball</strong><p>Choose number of points to bet.</font><div class='respPicDiv'><img src='img/responseButtonOffersNo0L5.png' class='respPic'></div></div>","null","4","Plum Powerball","Fruit/plums1.png","Lost","0.35,0.65","14","0.35","60","11","",""
"html-keyboard-response","42","130777","0.0-11.0-3.10","6400df3b4bd1fb13b52727fe","bdp_rwlrn","Tue Mar 14 2023 21:56:30 GMT-0400 (Eastern Daylight Time)","391232","Untrustworthy,Trustworthy","","null","","","","feedback","","<div class='respPicDiv'><img src='img/responseButtonOffersNo0_wht.png' class='respPic'></div><div class='trialDiv'><img src='Fruit/plums1.png'><br><font class='baseline'><strong>Plum Powerball</strong><p><strong><font class='negOutcome'>You LOST</font><p>You bet: 5</strong></font> &nbsp; &nbsp; &nbsp; &nbsp; &nbsp; &nbsp;<font class='negOutcome'>You receive: <strong>0</strong></font></div>","null","4","Plum Powerball","Fruit/plums1.png","Lost","0.35,0.65","14","0.35","60","11","",""
"html-keyboard-response","43","131138","0.0-11.0-1.11","6400df3b4bd1fb13b52727fe","bdp_rwlrn","Tue Mar 14 2023 21:56:30 GMT-0400 (Eastern Daylight Time)","391232","Untrustworthy,Trustworthy","","359","","","","decision","","<div class='trialDiv'><img src='Fruit/papayas.png'><br><font class='baseline'><strong>Papaya Payday</strong><p>Choose number of points to bet.</font><div class='respPicDiv'><img src='img/responseButtonOffersNo0L.png' class='respPic'></div></div>","5","4","Papaya Payday","Fruit/papayas.png","Won","0.65,0.2","9","0.65","65","12","",""
"html-keyboard-response","44","131391","0.0-11.0-2.11","6400df3b4bd1fb13b52727fe","bdp_rwlrn","Tue Mar 14 2023 21:56:30 GMT-0400 (Eastern Daylight Time)","391232","Untrustworthy,Trustworthy","","null","","","","decisionFB","","<div class='trialDiv'><img src='Fruit/papayas.png'><br><font class='baseline'><strong>Papaya Payday</strong><p>Choose number of points to bet.</font><div class='respPicDiv'><img src='img/responseButtonOffersNo0L5.png' class='respPic'></div></div>","null","4","Papaya Payday","Fruit/papayas.png","Won","0.65,0.2","9","0.65","60","12","",""
"html-keyboard-response","45","132404","0.0-11.0-3.11","6400df3b4bd1fb13b52727fe","bdp_rwlrn","Tue Mar 14 2023 21:56:30 GMT-0400 (Eastern Daylight Time)","391232","Untrustworthy,Trustworthy","","null","","","","feedback","","<div class='respPicDiv'><img src='img/responseButtonOffersNo0_wht.png' class='respPic'></div><div class='trialDiv'><img src='Fruit/papayas.png'><br><font class='baseline'><strong>Papaya Payday</strong><p><strong><font class='posOutcome'>You WON</font><p>You bet: 5</strong></font> &nbsp; &nbsp; &nbsp; &nbsp; &nbsp; &nbsp;<font class='posOutcome'>you receive: <strong>10</strong></font></div>","null","4","Papaya Payday","Fruit/papayas.png","Won","0.65,0.2","9","0.65","70","12","",""
"html-keyboard-response","46","132881","0.0-11.0-1.12","6400df3b4bd1fb13b52727fe","bdp_rwlrn","Tue Mar 14 2023 21:56:30 GMT-0400 (Eastern Daylight Time)","391232","Untrustworthy,Trustworthy","","476","","","","decision","","<div class='trialDiv'><img src='Fruit/plums1.png'><br><font class='baseline'><strong>Plum Powerball</strong><p>Choose number of points to bet.</font><div class='respPicDiv'><img src='img/responseButtonOffersNo0L.png' class='respPic'></div></div>","5","5","Plum Powerball","Fruit/plums1.png","Lost","0.35,0.65","14","0.35","75","13","",""
"html-keyboard-response","47","133137","0.0-11.0-2.12","6400df3b4bd1fb13b52727fe","bdp_rwlrn","Tue Mar 14 2023 21:56:30 GMT-0400 (Eastern Daylight Time)","391232","Untrustworthy,Trustworthy","","null","","","","decisionFB","","<div class='trialDiv'><img src='Fruit/plums1.png'><br><font class='baseline'><strong>Plum Powerball</strong><p>Choose number of points to bet.</font><div class='respPicDiv'><img src='img/responseButtonOffersNo0L5.png' class='respPic'></div></div>","null","5","Plum Powerball","Fruit/plums1.png","Lost","0.35,0.65","14","0.35","70","13","",""
"html-keyboard-response","48","134144","0.0-11.0-3.12","6400df3b4bd1fb13b52727fe","bdp_rwlrn","Tue Mar 14 2023 21:56:30 GMT-0400 (Eastern Daylight Time)","391232","Untrustworthy,Trustworthy","","null","","","","feedback","","<div class='respPicDiv'><img src='img/responseButtonOffersNo0_wht.png' class='respPic'></div><div class='trialDiv'><img src='Fruit/plums1.png'><br><font class='baseline'><strong>Plum Powerball</strong><p><strong><font class='negOutcome'>You LOST</font><p>You bet: 5</strong></font> &nbsp; &nbsp; &nbsp; &nbsp; &nbsp; &nbsp;<font class='negOutcome'>You receive: <strong>0</strong></font></div>","null","5","Plum Powerball","Fruit/plums1.png","Lost","0.35,0.65","14","0.35","70","13","",""
"html-keyboard-response","49","134999","0.0-11.0-1.13","6400df3b4bd1fb13b52727fe","bdp_rwlrn","Tue Mar 14 2023 21:56:30 GMT-0400 (Eastern Daylight Time)","391232","Untrustworthy,Trustworthy","","853","","","","decision","","<div class='trialDiv'><img src='Fruit/bananas.png'><br><font class='baseline'><strong>Banana Bonanza</strong><p>Choose number of points to bet.</font><div class='respPicDiv'><img src='img/responseButtonOffersNo0L.png' class='respPic'></div></div>","5","5","Banana Bonanza","Fruit/bananas.png","Lost","0.35,0.8","12","0.35","75","14","",""
"html-keyboard-response","50","135262","0.0-11.0-2.13","6400df3b4bd1fb13b52727fe","bdp_rwlrn","Tue Mar 14 2023 21:56:30 GMT-0400 (Eastern Daylight Time)","391232","Untrustworthy,Trustworthy","","null","","","","decisionFB","","<div class='trialDiv'><img src='Fruit/bananas.png'><br><font class='baseline'><strong>Banana Bonanza</strong><p>Choose number of points to bet.</font><div class='respPicDiv'><img src='img/responseButtonOffersNo0L5.png' class='respPic'></div></div>","null","5","Banana Bonanza","Fruit/bananas.png","Lost","0.35,0.8","12","0.35","70","14","",""
"html-keyboard-response","51","136274","0.0-11.0-3.13","6400df3b4bd1fb13b52727fe","bdp_rwlrn","Tue Mar 14 2023 21:56:30 GMT-0400 (Eastern Daylight Time)","391232","Untrustworthy,Trustworthy","","null","","","","feedback","","<div class='respPicDiv'><img src='img/responseButtonOffersNo0_wht.png' class='respPic'></div><div class='trialDiv'><img src='Fruit/bananas.png'><br><font class='baseline'><strong>Banana Bonanza</strong><p><strong><font class='negOutcome'>You LOST</font><p>You bet: 5</strong></font> &nbsp; &nbsp; &nbsp; &nbsp; &nbsp; &nbsp;<font class='negOutcome'>You receive: <strong>0</strong></font></div>","null","5","Banana Bonanza","Fruit/bananas.png","Lost","0.35,0.8","12","0.35","70","14","",""
"html-keyboard-response","52","136813","0.0-11.0-1.14","6400df3b4bd1fb13b52727fe","bdp_rwlrn","Tue Mar 14 2023 21:56:30 GMT-0400 (Eastern Daylight Time)","391232","Untrustworthy,Trustworthy","","537","","","","decision","","<div class='trialDiv'><img src='Fruit/papayas.png'><br><font class='baseline'><strong>Papaya Payday</strong><p>Choose number of points to bet.</font><div class='respPicDiv'><img src='img/responseButtonOffersNo0L.png' class='respPic'></div></div>","5","5","Papaya Payday","Fruit/papayas.png","Lost","0.65,0.2","9","0.65","75","15","",""
"html-keyboard-response","53","137072","0.0-11.0-2.14","6400df3b4bd1fb13b52727fe","bdp_rwlrn","Tue Mar 14 2023 21:56:30 GMT-0400 (Eastern Daylight Time)","391232","Untrustworthy,Trustworthy","","null","","","","decisionFB","","<div class='trialDiv'><img src='Fruit/papayas.png'><br><font class='baseline'><strong>Papaya Payday</strong><p>Choose number of points to bet.</font><div class='respPicDiv'><img src='img/responseButtonOffersNo0L5.png' class='respPic'></div></div>","null","5","Papaya Payday","Fruit/papayas.png","Lost","0.65,0.2","9","0.65","70","15","",""
"html-keyboard-response","54","138087","0.0-11.0-3.14","6400df3b4bd1fb13b52727fe","bdp_rwlrn","Tue Mar 14 2023 21:56:30 GMT-0400 (Eastern Daylight Time)","391232","Untrustworthy,Trustworthy","","null","","","","feedback","","<div class='respPicDiv'><img src='img/responseButtonOffersNo0_wht.png' class='respPic'></div><div class='trialDiv'><img src='Fruit/papayas.png'><br><font class='baseline'><strong>Papaya Payday</strong><p><strong><font class='negOutcome'>You LOST</font><p>You bet: 5</strong></font> &nbsp; &nbsp; &nbsp; &nbsp; &nbsp; &nbsp;<font class='negOutcome'>You receive: <strong>0</strong></font></div>","null","5","Papaya Payday","Fruit/papayas.png","Lost","0.65,0.2","9","0.65","70","15","",""
"html-keyboard-response","55","148769","0.0-11.0-1.15","6400df3b4bd1fb13b52727fe","bdp_rwlrn","Tue Mar 14 2023 21:56:30 GMT-0400 (Eastern Daylight Time)","391232","Untrustworthy,Trustworthy","","10680","","","","decision","","<div class='trialDiv'><img src='Fruit/plums1.png'><br><font class='baseline'><strong>Plum Powerball</strong><p>Choose number of points to bet.</font><div class='respPicDiv'><img src='img/responseButtonOffersNo0L.png' class='respPic'></div></div>","3","6","Plum Powerball","Fruit/plums1.png","Won","0.35,0.65","14","0.35","75","16","",""
"html-keyboard-response","56","149023","0.0-11.0-2.15","6400df3b4bd1fb13b52727fe","bdp_rwlrn","Tue Mar 14 2023 21:56:30 GMT-0400 (Eastern Daylight Time)","391232","Untrustworthy,Trustworthy","","null","","","","decisionFB","","<div class='trialDiv'><img src='Fruit/plums1.png'><br><font class='baseline'><strong>Plum Powerball</strong><p>Choose number of points to bet.</font><div class='respPicDiv'><img src='img/responseButtonOffersNo0L3.png' class='respPic'></div></div>","null","6","Plum Powerball","Fruit/plums1.png","Won","0.35,0.65","14","0.35","72","16","",""
"html-keyboard-response","57","150026","0.0-11.0-3.15","6400df3b4bd1fb13b52727fe","bdp_rwlrn","Tue Mar 14 2023 21:56:30 GMT-0400 (Eastern Daylight Time)","391232","Untrustworthy,Trustworthy","","null","","","","feedback","","<div class='respPicDiv'><img src='img/responseButtonOffersNo0_wht.png' class='respPic'></div><div class='trialDiv'><img src='Fruit/plums1.png'><br><font class='baseline'><strong>Plum Powerball</strong><p><strong><font class='posOutcome'>You WON</font><p>You bet: 3</strong></font> &nbsp; &nbsp; &nbsp; &nbsp; &nbsp; &nbsp;<font class='posOutcome'>you receive: <strong>6</strong></font></div>","null","6","Plum Powerball","Fruit/plums1.png","Won","0.35,0.65","14","0.35","78","16","",""
"html-keyboard-response","58","150452","0.0-11.0-1.16","6400df3b4bd1fb13b52727fe","bdp_rwlrn","Tue Mar 14 2023 21:56:30 GMT-0400 (Eastern Daylight Time)","391232","Untrustworthy,Trustworthy","","424","","","","decision","","<div class='trialDiv'><img src='Fruit/papayas.png'><br><font class='baseline'><strong>Papaya Payday</strong><p>Choose number of points to bet.</font><div class='respPicDiv'><img src='img/responseButtonOffersNo0L.png' class='respPic'></div></div>","3","6","Papaya Payday","Fruit/papayas.png","Won","0.65,0.2","9","0.65","83","17","",""
"html-keyboard-response","59","150706","0.0-11.0-2.16","6400df3b4bd1fb13b52727fe","bdp_rwlrn","Tue Mar 14 2023 21:56:30 GMT-0400 (Eastern Daylight Time)","391232","Untrustworthy,Trustworthy","","null","","","","decisionFB","","<div class='trialDiv'><img src='Fruit/papayas.png'><br><font class='baseline'><strong>Papaya Payday</strong><p>Choose number of points to bet.</font><div class='respPicDiv'><img src='img/responseButtonOffersNo0L3.png' class='respPic'></div></div>","null","6","Papaya Payday","Fruit/papayas.png","Won","0.65,0.2","9","0.65","80","17","",""
"html-keyboard-response","60","151710","0.0-11.0-3.16","6400df3b4bd1fb13b52727fe","bdp_rwlrn","Tue Mar 14 2023 21:56:30 GMT-0400 (Eastern Daylight Time)","391232","Untrustworthy,Trustworthy","","null","","","","feedback","","<div class='respPicDiv'><img src='img/responseButtonOffersNo0_wht.png' class='respPic'></div><div class='trialDiv'><img src='Fruit/papayas.png'><br><font class='baseline'><strong>Papaya Payday</strong><p><strong><font class='posOutcome'>You WON</font><p>You bet: 3</strong></font> &nbsp; &nbsp; &nbsp; &nbsp; &nbsp; &nbsp;<font class='posOutcome'>you receive: <strong>6</strong></font></div>","null","6","Papaya Payday","Fruit/papayas.png","Won","0.65,0.2","9","0.65","86","17","",""
"html-keyboard-response","61","152113","0.0-11.0-1.17","6400df3b4bd1fb13b52727fe","bdp_rwlrn","Tue Mar 14 2023 21:56:30 GMT-0400 (Eastern Daylight Time)","391232","Untrustworthy,Trustworthy","","402","","","","decision","","<div class='trialDiv'><img src='Fruit/bananas.png'><br><font class='baseline'><strong>Banana Bonanza</strong><p>Choose number of points to bet.</font><div class='respPicDiv'><img src='img/responseButtonOffersNo0L.png' class='respPic'></div></div>","3","6","Banana Bonanza","Fruit/bananas.png","Won","0.35,0.8","12","0.35","91","18","",""
"html-keyboard-response","62","152375","0.0-11.0-2.17","6400df3b4bd1fb13b52727fe","bdp_rwlrn","Tue Mar 14 2023 21:56:30 GMT-0400 (Eastern Daylight Time)","391232","Untrustworthy,Trustworthy","","null","","","","decisionFB","","<div class='trialDiv'><img src='Fruit/bananas.png'><br><font class='baseline'><strong>Banana Bonanza</strong><p>Choose number of points to bet.</font><div class='respPicDiv'><img src='img/responseButtonOffersNo0L3.png' class='respPic'></div></div>","null","6","Banana Bonanza","Fruit/bananas.png","Won","0.35,0.8","12","0.35","88","18","",""
"html-keyboard-response","63","153386","0.0-11.0-3.17","6400df3b4bd1fb13b52727fe","bdp_rwlrn","Tue Mar 14 2023 21:56:30 GMT-0400 (Eastern Daylight Time)","391232","Untrustworthy,Trustworthy","","null","","","","feedback","","<div class='respPicDiv'><img src='img/responseButtonOffersNo0_wht.png' class='respPic'></div><div class='trialDiv'><img src='Fruit/bananas.png'><br><font class='baseline'><strong>Banana Bonanza</strong><p><strong><font class='posOutcome'>You WON</font><p>You bet: 3</strong></font> &nbsp; &nbsp; &nbsp; &nbsp; &nbsp; &nbsp;<font class='posOutcome'>you receive: <strong>6</strong></font></div>","null","6","Banana Bonanza","Fruit/bananas.png","Won","0.35,0.8","12","0.35","94","18","",""
"html-keyboard-response","64","153680","0.0-11.0-1.18","6400df3b4bd1fb13b52727fe","bdp_rwlrn","Tue Mar 14 2023 21:56:30 GMT-0400 (Eastern Daylight Time)","391232","Untrustworthy,Trustworthy","","293","","","","decision","","<div class='trialDiv'><img src='Fruit/papayas.png'><br><font class='baseline'><strong>Papaya Payday</strong><p>Choose number of points to bet.</font><div class='respPicDiv'><img src='img/responseButtonOffersNo0L.png' class='respPic'></div></div>","3","7","Papaya Payday","Fruit/papayas.png","Won","0.65,0.2","9","0.65","99","19","",""
"html-keyboard-response","65","153942","0.0-11.0-2.18","6400df3b4bd1fb13b52727fe","bdp_rwlrn","Tue Mar 14 2023 21:56:30 GMT-0400 (Eastern Daylight Time)","391232","Untrustworthy,Trustworthy","","null","","","","decisionFB","","<div class='trialDiv'><img src='Fruit/papayas.png'><br><font class='baseline'><strong>Papaya Payday</strong><p>Choose number of points to bet.</font><div class='respPicDiv'><img src='img/responseButtonOffersNo0L3.png' class='respPic'></div></div>","null","7","Papaya Payday","Fruit/papayas.png","Won","0.65,0.2","9","0.65","96","19","",""
"html-keyboard-response","66","154955","0.0-11.0-3.18","6400df3b4bd1fb13b52727fe","bdp_rwlrn","Tue Mar 14 2023 21:56:30 GMT-0400 (Eastern Daylight Time)","391232","Untrustworthy,Trustworthy","","null","","","","feedback","","<div class='respPicDiv'><img src='img/responseButtonOffersNo0_wht.png' class='respPic'></div><div class='trialDiv'><img src='Fruit/papayas.png'><br><font class='baseline'><strong>Papaya Payday</strong><p><strong><font class='posOutcome'>You WON</font><p>You bet: 3</strong></font> &nbsp; &nbsp; &nbsp; &nbsp; &nbsp; &nbsp;<font class='posOutcome'>you receive: <strong>6</strong></font></div>","null","7","Papaya Payday","Fruit/papayas.png","Won","0.65,0.2","9","0.65","102","19","",""
"html-keyboard-response","67","155299","0.0-11.0-1.19","6400df3b4bd1fb13b52727fe","bdp_rwlrn","Tue Mar 14 2023 21:56:30 GMT-0400 (Eastern Daylight Time)","391232","Untrustworthy,Trustworthy","","342","","","","decision","","<div class='trialDiv'><img src='Fruit/bananas.png'><br><font class='baseline'><strong>Banana Bonanza</strong><p>Choose number of points to bet.</font><div class='respPicDiv'><img src='img/responseButtonOffersNo0L.png' class='respPic'></div></div>","3","7","Banana Bonanza","Fruit/bananas.png","Won","0.35,0.8","12","0.35","107","20","",""
"html-keyboard-response","68","155554","0.0-11.0-2.19","6400df3b4bd1fb13b52727fe","bdp_rwlrn","Tue Mar 14 2023 21:56:30 GMT-0400 (Eastern Daylight Time)","391232","Untrustworthy,Trustworthy","","null","","","","decisionFB","","<div class='trialDiv'><img src='Fruit/bananas.png'><br><font class='baseline'><strong>Banana Bonanza</strong><p>Choose number of points to bet.</font><div class='respPicDiv'><img src='img/responseButtonOffersNo0L3.png' class='respPic'></div></div>","null","7","Banana Bonanza","Fruit/bananas.png","Won","0.35,0.8","12","0.35","104","20","",""
"html-keyboard-response","69","156563","0.0-11.0-3.19","6400df3b4bd1fb13b52727fe","bdp_rwlrn","Tue Mar 14 2023 21:56:30 GMT-0400 (Eastern Daylight Time)","391232","Untrustworthy,Trustworthy","","null","","","","feedback","","<div class='respPicDiv'><img src='img/responseButtonOffersNo0_wht.png' class='respPic'></div><div class='trialDiv'><img src='Fruit/bananas.png'><br><font class='baseline'><strong>Banana Bonanza</strong><p><strong><font class='posOutcome'>You WON</font><p>You bet: 3</strong></font> &nbsp; &nbsp; &nbsp; &nbsp; &nbsp; &nbsp;<font class='posOutcome'>you receive: <strong>6</strong></font></div>","null","7","Banana Bonanza","Fruit/bananas.png","Won","0.35,0.8","12","0.35","110","20","",""
"html-keyboard-response","70","156993","0.0-11.0-1.20","6400df3b4bd1fb13b52727fe","bdp_rwlrn","Tue Mar 14 2023 21:56:30 GMT-0400 (Eastern Daylight Time)","391232","Untrustworthy,Trustworthy","","428","","","","decision","","<div class='trialDiv'><img src='Fruit/plums1.png'><br><font class='baseline'><strong>Plum Powerball</strong><p>Choose number of points to bet.</font><div class='respPicDiv'><img src='img/responseButtonOffersNo0L.png' class='respPic'></div></div>","3","7","Plum Powerball","Fruit/plums1.png","Lost","0.35,0.65","14","0.35","115","21","",""
"html-keyboard-response","71","157252","0.0-11.0-2.20","6400df3b4bd1fb13b52727fe","bdp_rwlrn","Tue Mar 14 2023 21:56:30 GMT-0400 (Eastern Daylight Time)","391232","Untrustworthy,Trustworthy","","null","","","","decisionFB","","<div class='trialDiv'><img src='Fruit/plums1.png'><br><font class='baseline'><strong>Plum Powerball</strong><p>Choose number of points to bet.</font><div class='respPicDiv'><img src='img/responseButtonOffersNo0L3.png' class='respPic'></div></div>","null","7","Plum Powerball","Fruit/plums1.png","Lost","0.35,0.65","14","0.35","112","21","",""
"html-keyboard-response","72","158271","0.0-11.0-3.20","6400df3b4bd1fb13b52727fe","bdp_rwlrn","Tue Mar 14 2023 21:56:30 GMT-0400 (Eastern Daylight Time)","391232","Untrustworthy,Trustworthy","","null","","","","feedback","","<div class='respPicDiv'><img src='img/responseButtonOffersNo0_wht.png' class='respPic'></div><div class='trialDiv'><img src='Fruit/plums1.png'><br><font class='baseline'><strong>Plum Powerball</strong><p><strong><font class='negOutcome'>You LOST</font><p>You bet: 3</strong></font> &nbsp; &nbsp; &nbsp; &nbsp; &nbsp; &nbsp;<font class='negOutcome'>You receive: <strong>0</strong></font></div>","null","7","Plum Powerball","Fruit/plums1.png","Lost","0.35,0.65","14","0.35","112","21","",""
"html-keyboard-response","73","158650","0.0-11.0-1.21","6400df3b4bd1fb13b52727fe","bdp_rwlrn","Tue Mar 14 2023 21:56:30 GMT-0400 (Eastern Daylight Time)","391232","Untrustworthy,Trustworthy","","377","","","","decision","","<div class='trialDiv'><img src='Fruit/bananas.png'><br><font class='baseline'><strong>Banana Bonanza</strong><p>Choose number of points to bet.</font><div class='respPicDiv'><img src='img/responseButtonOffersNo0L.png' class='respPic'></div></div>","3","8","Banana Bonanza","Fruit/bananas.png","Lost","0.35,0.8","12","0.35","117","22","",""
"html-keyboard-response","74","158906","0.0-11.0-2.21","6400df3b4bd1fb13b52727fe","bdp_rwlrn","Tue Mar 14 2023 21:56:30 GMT-0400 (Eastern Daylight Time)","391232","Untrustworthy,Trustworthy","","null","","","","decisionFB","","<div class='trialDiv'><img src='Fruit/bananas.png'><br><font class='baseline'><strong>Banana Bonanza</strong><p>Choose number of points to bet.</font><div class='respPicDiv'><img src='img/responseButtonOffersNo0L3.png' class='respPic'></div></div>","null","8","Banana Bonanza","Fruit/bananas.png","Lost","0.35,0.8","12","0.35","114","22","",""
"html-keyboard-response","75","159916","0.0-11.0-3.21","6400df3b4bd1fb13b52727fe","bdp_rwlrn","Tue Mar 14 2023 21:56:30 GMT-0400 (Eastern Daylight Time)","391232","Untrustworthy,Trustworthy","","null","","","","feedback","","<div class='respPicDiv'><img src='img/responseButtonOffersNo0_wht.png' class='respPic'></div><div class='trialDiv'><img src='Fruit/bananas.png'><br><font class='baseline'><strong>Banana Bonanza</strong><p><strong><font class='negOutcome'>You LOST</font><p>You bet: 3</strong></font> &nbsp; &nbsp; &nbsp; &nbsp; &nbsp; &nbsp;<font class='negOutcome'>You receive: <strong>0</strong></font></div>","null","8","Banana Bonanza","Fruit/bananas.png","Lost","0.35,0.8","12","0.35","114","22","",""
"html-keyboard-response","76","160455","0.0-11.0-1.22","6400df3b4bd1fb13b52727fe","bdp_rwlrn","Tue Mar 14 2023 21:56:30 GMT-0400 (Eastern Daylight Time)","391232","Untrustworthy,Trustworthy","","538","","","","decision","","<div class='trialDiv'><img src='Fruit/papayas.png'><br><font class='baseline'><strong>Papaya Payday</strong><p>Choose number of points to bet.</font><div class='respPicDiv'><img src='img/responseButtonOffersNo0L.png' class='respPic'></div></div>","3","8","Papaya Payday","Fruit/papayas.png","Won","0.65,0.2","9","0.65","119","23","",""
"html-keyboard-response","77","160716","0.0-11.0-2.22","6400df3b4bd1fb13b52727fe","bdp_rwlrn","Tue Mar 14 2023 21:56:30 GMT-0400 (Eastern Daylight Time)","391232","Untrustworthy,Trustworthy","","null","","","","decisionFB","","<div class='trialDiv'><img src='Fruit/papayas.png'><br><font class='baseline'><strong>Papaya Payday</strong><p>Choose number of points to bet.</font><div class='respPicDiv'><img src='img/responseButtonOffersNo0L3.png' class='respPic'></div></div>","null","8","Papaya Payday","Fruit/papayas.png","Won","0.65,0.2","9","0.65","116","23","",""
"html-keyboard-response","78","161725","0.0-11.0-3.22","6400df3b4bd1fb13b52727fe","bdp_rwlrn","Tue Mar 14 2023 21:56:30 GMT-0400 (Eastern Daylight Time)","391232","Untrustworthy,Trustworthy","","null","","","","feedback","","<div class='respPicDiv'><img src='img/responseButtonOffersNo0_wht.png' class='respPic'></div><div class='trialDiv'><img src='Fruit/papayas.png'><br><font class='baseline'><strong>Papaya Payday</strong><p><strong><font class='posOutcome'>You WON</font><p>You bet: 3</strong></font> &nbsp; &nbsp; &nbsp; &nbsp; &nbsp; &nbsp;<font class='posOutcome'>you receive: <strong>6</strong></font></div>","null","8","Papaya Payday","Fruit/papayas.png","Won","0.65,0.2","9","0.65","122","23","",""
"html-keyboard-response","79","162162","0.0-11.0-1.23","6400df3b4bd1fb13b52727fe","bdp_rwlrn","Tue Mar 14 2023 21:56:30 GMT-0400 (Eastern Daylight Time)","391232","Untrustworthy,Trustworthy","","435","","","","decision","","<div class='trialDiv'><img src='Fruit/plums1.png'><br><font class='baseline'><strong>Plum Powerball</strong><p>Choose number of points to bet.</font><div class='respPicDiv'><img src='img/responseButtonOffersNo0L.png' class='respPic'></div></div>","3","8","Plum Powerball","Fruit/plums1.png","Lost","0.35,0.65","14","0.35","127","24","",""
"html-keyboard-response","80","162423","0.0-11.0-2.23","6400df3b4bd1fb13b52727fe","bdp_rwlrn","Tue Mar 14 2023 21:56:30 GMT-0400 (Eastern Daylight Time)","391232","Untrustworthy,Trustworthy","","null","","","","decisionFB","","<div class='trialDiv'><img src='Fruit/plums1.png'><br><font class='baseline'><strong>Plum Powerball</strong><p>Choose number of points to bet.</font><div class='respPicDiv'><img src='img/responseButtonOffersNo0L3.png' class='respPic'></div></div>","null","8","Plum Powerball","Fruit/plums1.png","Lost","0.35,0.65","14","0.35","124","24","",""
"html-keyboard-response","81","163442","0.0-11.0-3.23","6400df3b4bd1fb13b52727fe","bdp_rwlrn","Tue Mar 14 2023 21:56:30 GMT-0400 (Eastern Daylight Time)","391232","Untrustworthy,Trustworthy","","null","","","","feedback","","<div class='respPicDiv'><img src='img/responseButtonOffersNo0_wht.png' class='respPic'></div><div class='trialDiv'><img src='Fruit/plums1.png'><br><font class='baseline'><strong>Plum Powerball</strong><p><strong><font class='negOutcome'>You LOST</font><p>You bet: 3</strong></font> &nbsp; &nbsp; &nbsp; &nbsp; &nbsp; &nbsp;<font class='negOutcome'>You receive: <strong>0</strong></font></div>","null","8","Plum Powerball","Fruit/plums1.png","Lost","0.35,0.65","14","0.35","124","24","",""
"html-keyboard-response","82","164487","0.0-11.0-1.24","6400df3b4bd1fb13b52727fe","bdp_rwlrn","Tue Mar 14 2023 21:56:30 GMT-0400 (Eastern Daylight Time)","391232","Untrustworthy,Trustworthy","","1043","","","","decision","","<div class='trialDiv'><img src='Fruit/papayas.png'><br><font class='baseline'><strong>Papaya Payday</strong><p>Choose number of points to bet.</font><div class='respPicDiv'><img src='img/responseButtonOffersNo0L.png' class='respPic'></div></div>","1","9","Papaya Payday","Fruit/papayas.png","Lost","0.65,0.2","9","0.65","129","25","",""
"html-keyboard-response","83","164745","0.0-11.0-2.24","6400df3b4bd1fb13b52727fe","bdp_rwlrn","Tue Mar 14 2023 21:56:30 GMT-0400 (Eastern Daylight Time)","391232","Untrustworthy,Trustworthy","","null","","","","decisionFB","","<div class='trialDiv'><img src='Fruit/papayas.png'><br><font class='baseline'><strong>Papaya Payday</strong><p>Choose number of points to bet.</font><div class='respPicDiv'><img src='img/responseButtonOffersNo0L1.png' class='respPic'></div></div>","null","9","Papaya Payday","Fruit/papayas.png","Lost","0.65,0.2","9","0.65","128","25","",""
"html-keyboard-response","84","165754","0.0-11.0-3.24","6400df3b4bd1fb13b52727fe","bdp_rwlrn","Tue Mar 14 2023 21:56:30 GMT-0400 (Eastern Daylight Time)","391232","Untrustworthy,Trustworthy","","null","","","","feedback","","<div class='respPicDiv'><img src='img/responseButtonOffersNo0_wht.png' class='respPic'></div><div class='trialDiv'><img src='Fruit/papayas.png'><br><font class='baseline'><strong>Papaya Payday</strong><p><strong><font class='negOutcome'>You LOST</font><p>You bet: 1</strong></font> &nbsp; &nbsp; &nbsp; &nbsp; &nbsp; &nbsp;<font class='negOutcome'>You receive: <strong>0</strong></font></div>","null","9","Papaya Payday","Fruit/papayas.png","Lost","0.65,0.2","9","0.65","128","25","",""
"html-keyboard-response","85","166195","0.0-11.0-1.25","6400df3b4bd1fb13b52727fe","bdp_rwlrn","Tue Mar 14 2023 21:56:30 GMT-0400 (Eastern Daylight Time)","391232","Untrustworthy,Trustworthy","","439","","","","decision","","<div class='trialDiv'><img src='Fruit/bananas.png'><br><font class='baseline'><strong>Banana Bonanza</strong><p>Choose number of points to bet.</font><div class='respPicDiv'><img src='img/responseButtonOffersNo0L.png' class='respPic'></div></div>","1","9","Banana Bonanza","Fruit/bananas.png","Lost","0.35,0.8","12","0.35","133","26","",""
"html-keyboard-response","86","166450","0.0-11.0-2.25","6400df3b4bd1fb13b52727fe","bdp_rwlrn","Tue Mar 14 2023 21:56:30 GMT-0400 (Eastern Daylight Time)","391232","Untrustworthy,Trustworthy","","null","","","","decisionFB","","<div class='trialDiv'><img src='Fruit/bananas.png'><br><font class='baseline'><strong>Banana Bonanza</strong><p>Choose number of points to bet.</font><div class='respPicDiv'><img src='img/responseButtonOffersNo0L1.png' class='respPic'></div></div>","null","9","Banana Bonanza","Fruit/bananas.png","Lost","0.35,0.8","12","0.35","132","26","",""
"html-keyboard-response","87","167457","0.0-11.0-3.25","6400df3b4bd1fb13b52727fe","bdp_rwlrn","Tue Mar 14 2023 21:56:30 GMT-0400 (Eastern Daylight Time)","391232","Untrustworthy,Trustworthy","","null","","","","feedback","","<div class='respPicDiv'><img src='img/responseButtonOffersNo0_wht.png' class='respPic'></div><div class='trialDiv'><img src='Fruit/bananas.png'><br><font class='baseline'><strong>Banana Bonanza</strong><p><strong><font class='negOutcome'>You LOST</font><p>You bet: 1</strong></font> &nbsp; &nbsp; &nbsp; &nbsp; &nbsp; &nbsp;<font class='negOutcome'>You receive: <strong>0</strong></font></div>","null","9","Banana Bonanza","Fruit/bananas.png","Lost","0.35,0.8","12","0.35","132","26","",""
"html-keyboard-response","88","168228","0.0-11.0-1.26","6400df3b4bd1fb13b52727fe","bdp_rwlrn","Tue Mar 14 2023 21:56:30 GMT-0400 (Eastern Daylight Time)","391232","Untrustworthy,Trustworthy","","768","","","","decision","","<div class='trialDiv'><img src='Fruit/plums1.png'><br><font class='baseline'><strong>Plum Powerball</strong><p>Choose number of points to bet.</font><div class='respPicDiv'><img src='img/responseButtonOffersNo0L.png' class='respPic'></div></div>","5","9","Plum Powerball","Fruit/plums1.png","Won","0.35,0.65","14","0.35","137","27","",""
"html-keyboard-response","89","168485","0.0-11.0-2.26","6400df3b4bd1fb13b52727fe","bdp_rwlrn","Tue Mar 14 2023 21:56:30 GMT-0400 (Eastern Daylight Time)","391232","Untrustworthy,Trustworthy","","null","","","","decisionFB","","<div class='trialDiv'><img src='Fruit/plums1.png'><br><font class='baseline'><strong>Plum Powerball</strong><p>Choose number of points to bet.</font><div class='respPicDiv'><img src='img/responseButtonOffersNo0L5.png' class='respPic'></div></div>","null","9","Plum Powerball","Fruit/plums1.png","Won","0.35,0.65","14","0.35","132","27","",""
"html-keyboard-response","90","169491","0.0-11.0-3.26","6400df3b4bd1fb13b52727fe","bdp_rwlrn","Tue Mar 14 2023 21:56:30 GMT-0400 (Eastern Daylight Time)","391232","Untrustworthy,Trustworthy","","null","","","","feedback","","<div class='respPicDiv'><img src='img/responseButtonOffersNo0_wht.png' class='respPic'></div><div class='trialDiv'><img src='Fruit/plums1.png'><br><font class='baseline'><strong>Plum Powerball</strong><p><strong><font class='posOutcome'>You WON</font><p>You bet: 5</strong></font> &nbsp; &nbsp; &nbsp; &nbsp; &nbsp; &nbsp;<font class='posOutcome'>you receive: <strong>10</strong></font></div>","null","9","Plum Powerball","Fruit/plums1.png","Won","0.35,0.65","14","0.35","142","27","",""
"html-keyboard-response","91","169973","0.0-11.0-1.27","6400df3b4bd1fb13b52727fe","bdp_rwlrn","Tue Mar 14 2023 21:56:30 GMT-0400 (Eastern Daylight Time)","391232","Untrustworthy,Trustworthy","","480","","","","decision","","<div class='trialDiv'><img src='Fruit/bananas.png'><br><font class='baseline'><strong>Banana Bonanza</strong><p>Choose number of points to bet.</font><div class='respPicDiv'><img src='img/responseButtonOffersNo0L.png' class='respPic'></div></div>","5","10","Banana Bonanza","Fruit/bananas.png","Won","0.35,0.8","12","0.35","147","28","",""
"html-keyboard-response","92","170232","0.0-11.0-2.27","6400df3b4bd1fb13b52727fe","bdp_rwlrn","Tue Mar 14 2023 21:56:30 GMT-0400 (Eastern Daylight Time)","391232","Untrustworthy,Trustworthy","","null","","","","decisionFB","","<div class='trialDiv'><img src='Fruit/bananas.png'><br><font class='baseline'><strong>Banana Bonanza</strong><p>Choose number of points to bet.</font><div class='respPicDiv'><img src='img/responseButtonOffersNo0L5.png' class='respPic'></div></div>","null","10","Banana Bonanza","Fruit/bananas.png","Won","0.35,0.8","12","0.35","142","28","",""
"html-keyboard-response","93","171244","0.0-11.0-3.27","6400df3b4bd1fb13b52727fe","bdp_rwlrn","Tue Mar 14 2023 21:56:30 GMT-0400 (Eastern Daylight Time)","391232","Untrustworthy,Trustworthy","","null","","","","feedback","","<div class='respPicDiv'><img src='img/responseButtonOffersNo0_wht.png' class='respPic'></div><div class='trialDiv'><img src='Fruit/bananas.png'><br><font class='baseline'><strong>Banana Bonanza</strong><p><strong><font class='posOutcome'>You WON</font><p>You bet: 5</strong></font> &nbsp; &nbsp; &nbsp; &nbsp; &nbsp; &nbsp;<font class='posOutcome'>you receive: <strong>10</strong></font></div>","null","10","Banana Bonanza","Fruit/bananas.png","Won","0.35,0.8","12","0.35","152","28","",""
"html-keyboard-response","94","171995","0.0-11.0-1.28","6400df3b4bd1fb13b52727fe","bdp_rwlrn","Tue Mar 14 2023 21:56:30 GMT-0400 (Eastern Daylight Time)","391232","Untrustworthy,Trustworthy","","749","","","","decision","","<div class='trialDiv'><img src='Fruit/plums1.png'><br><font class='baseline'><strong>Plum Powerball</strong><p>Choose number of points to bet.</font><div class='respPicDiv'><img src='img/responseButtonOffersNo0L.png' class='respPic'></div></div>","1","10","Plum Powerball","Fruit/plums1.png","Lost","0.35,0.65","14","0.35","157","29","",""
"html-keyboard-response","95","172253","0.0-11.0-2.28","6400df3b4bd1fb13b52727fe","bdp_rwlrn","Tue Mar 14 2023 21:56:30 GMT-0400 (Eastern Daylight Time)","391232","Untrustworthy,Trustworthy","","null","","","","decisionFB","","<div class='trialDiv'><img src='Fruit/plums1.png'><br><font class='baseline'><strong>Plum Powerball</strong><p>Choose number of points to bet.</font><div class='respPicDiv'><img src='img/responseButtonOffersNo0L1.png' class='respPic'></div></div>","null","10","Plum Powerball","Fruit/plums1.png","Lost","0.35,0.65","14","0.35","156","29","",""
"html-keyboard-response","96","173262","0.0-11.0-3.28","6400df3b4bd1fb13b52727fe","bdp_rwlrn","Tue Mar 14 2023 21:56:30 GMT-0400 (Eastern Daylight Time)","391232","Untrustworthy,Trustworthy","","null","","","","feedback","","<div class='respPicDiv'><img src='img/responseButtonOffersNo0_wht.png' class='respPic'></div><div class='trialDiv'><img src='Fruit/plums1.png'><br><font class='baseline'><strong>Plum Powerball</strong><p><strong><font class='negOutcome'>You LOST</font><p>You bet: 1</strong></font> &nbsp; &nbsp; &nbsp; &nbsp; &nbsp; &nbsp;<font class='negOutcome'>You receive: <strong>0</strong></font></div>","null","10","Plum Powerball","Fruit/plums1.png","Lost","0.35,0.65","14","0.35","156","29","",""
"html-keyboard-response","97","174074","0.0-11.0-1.29","6400df3b4bd1fb13b52727fe","bdp_rwlrn","Tue Mar 14 2023 21:56:30 GMT-0400 (Eastern Daylight Time)","391232","Untrustworthy,Trustworthy","","810","","","","decision","","<div class='trialDiv'><img src='Fruit/papayas.png'><br><font class='baseline'><strong>Papaya Payday</strong><p>Choose number of points to bet.</font><div class='respPicDiv'><img src='img/responseButtonOffersNo0L.png' class='respPic'></div></div>","5","10","Papaya Payday","Fruit/papayas.png","Won","0.65,0.2","9","0.65","161","30","",""
"html-keyboard-response","98","174331","0.0-11.0-2.29","6400df3b4bd1fb13b52727fe","bdp_rwlrn","Tue Mar 14 2023 21:56:30 GMT-0400 (Eastern Daylight Time)","391232","Untrustworthy,Trustworthy","","null","","","","decisionFB","","<div class='trialDiv'><img src='Fruit/papayas.png'><br><font class='baseline'><strong>Papaya Payday</strong><p>Choose number of points to bet.</font><div class='respPicDiv'><img src='img/responseButtonOffersNo0L5.png' class='respPic'></div></div>","null","10","Papaya Payday","Fruit/papayas.png","Won","0.65,0.2","9","0.65","156","30","",""
"html-keyboard-response","99","175347","0.0-11.0-3.29","6400df3b4bd1fb13b52727fe","bdp_rwlrn","Tue Mar 14 2023 21:56:30 GMT-0400 (Eastern Daylight Time)","391232","Untrustworthy,Trustworthy","","null","","","","feedback","","<div class='respPicDiv'><img src='img/responseButtonOffersNo0_wht.png' class='respPic'></div><div class='trialDiv'><img src='Fruit/papayas.png'><br><font class='baseline'><strong>Papaya Payday</strong><p><strong><font class='posOutcome'>You WON</font><p>You bet: 5</strong></font> &nbsp; &nbsp; &nbsp; &nbsp; &nbsp; &nbsp;<font class='posOutcome'>you receive: <strong>10</strong></font></div>","null","10","Papaya Payday","Fruit/papayas.png","Won","0.65,0.2","9","0.65","166","30","",""
"html-keyboard-response","100","175730","0.0-11.0-1.30","6400df3b4bd1fb13b52727fe","bdp_rwlrn","Tue Mar 14 2023 21:56:30 GMT-0400 (Eastern Daylight Time)","391232","Untrustworthy,Trustworthy","","380","","","","decision","","<div class='trialDiv'><img src='Fruit/bananas.png'><br><font class='baseline'><strong>Banana Bonanza</strong><p>Choose number of points to bet.</font><div class='respPicDiv'><img src='img/responseButtonOffersNo0L.png' class='respPic'></div></div>","5","11","Banana Bonanza","Fruit/bananas.png","Lost","0.35,0.8","12","0.35","171","31","",""
"html-keyboard-response","101","175987","0.0-11.0-2.30","6400df3b4bd1fb13b52727fe","bdp_rwlrn","Tue Mar 14 2023 21:56:30 GMT-0400 (Eastern Daylight Time)","391232","Untrustworthy,Trustworthy","","null","","","","decisionFB","","<div class='trialDiv'><img src='Fruit/bananas.png'><br><font class='baseline'><strong>Banana Bonanza</strong><p>Choose number of points to bet.</font><div class='respPicDiv'><img src='img/responseButtonOffersNo0L5.png' class='respPic'></div></div>","null","11","Banana Bonanza","Fruit/bananas.png","Lost","0.35,0.8","12","0.35","166","31","",""
"html-keyboard-response","102","176992","0.0-11.0-3.30","6400df3b4bd1fb13b52727fe","bdp_rwlrn","Tue Mar 14 2023 21:56:30 GMT-0400 (Eastern Daylight Time)","391232","Untrustworthy,Trustworthy","","null","","","","feedback","","<div class='respPicDiv'><img src='img/responseButtonOffersNo0_wht.png' class='respPic'></div><div class='trialDiv'><img src='Fruit/bananas.png'><br><font class='baseline'><strong>Banana Bonanza</strong><p><strong><font class='negOutcome'>You LOST</font><p>You bet: 5</strong></font> &nbsp; &nbsp; &nbsp; &nbsp; &nbsp; &nbsp;<font class='negOutcome'>You receive: <strong>0</strong></font></div>","null","11","Banana Bonanza","Fruit/bananas.png","Lost","0.35,0.8","12","0.35","166","31","",""
"html-keyboard-response","103","177358","0.0-11.0-1.31","6400df3b4bd1fb13b52727fe","bdp_rwlrn","Tue Mar 14 2023 21:56:30 GMT-0400 (Eastern Daylight Time)","391232","Untrustworthy,Trustworthy","","364","","","","decision","","<div class='trialDiv'><img src='Fruit/papayas.png'><br><font class='baseline'><strong>Papaya Payday</strong><p>Choose number of points to bet.</font><div class='respPicDiv'><img src='img/responseButtonOffersNo0L.png' class='respPic'></div></div>","5","11","Papaya Payday","Fruit/papayas.png","Won","0.65,0.2","9","0.65","171","32","",""
"html-keyboard-response","104","177621","0.0-11.0-2.31","6400df3b4bd1fb13b52727fe","bdp_rwlrn","Tue Mar 14 2023 21:56:30 GMT-0400 (Eastern Daylight Time)","391232","Untrustworthy,Trustworthy","","null","","","","decisionFB","","<div class='trialDiv'><img src='Fruit/papayas.png'><br><font class='baseline'><strong>Papaya Payday</strong><p>Choose number of points to bet.</font><div class='respPicDiv'><img src='img/responseButtonOffersNo0L5.png' class='respPic'></div></div>","null","11","Papaya Payday","Fruit/papayas.png","Won","0.65,0.2","9","0.65","166","32","",""
"html-keyboard-response","105","178633","0.0-11.0-3.31","6400df3b4bd1fb13b52727fe","bdp_rwlrn","Tue Mar 14 2023 21:56:30 GMT-0400 (Eastern Daylight Time)","391232","Untrustworthy,Trustworthy","","null","","","","feedback","","<div class='respPicDiv'><img src='img/responseButtonOffersNo0_wht.png' class='respPic'></div><div class='trialDiv'><img src='Fruit/papayas.png'><br><font class='baseline'><strong>Papaya Payday</strong><p><strong><font class='posOutcome'>You WON</font><p>You bet: 5</strong></font> &nbsp; &nbsp; &nbsp; &nbsp; &nbsp; &nbsp;<font class='posOutcome'>you receive: <strong>10</strong></font></div>","null","11","Papaya Payday","Fruit/papayas.png","Won","0.65,0.2","9","0.65","176","32","",""
"html-keyboard-response","106","179032","0.0-11.0-1.32","6400df3b4bd1fb13b52727fe","bdp_rwlrn","Tue Mar 14 2023 21:56:30 GMT-0400 (Eastern Daylight Time)","391232","Untrustworthy,Trustworthy","","397","","","","decision","","<div class='trialDiv'><img src='Fruit/plums1.png'><br><font class='baseline'><strong>Plum Powerball</strong><p>Choose number of points to bet.</font><div class='respPicDiv'><img src='img/responseButtonOffersNo0L.png' class='respPic'></div></div>","1","11","Plum Powerball","Fruit/plums1.png","Lost","0.35,0.65","14","0.35","181","33","",""
"html-keyboard-response","107","179286","0.0-11.0-2.32","6400df3b4bd1fb13b52727fe","bdp_rwlrn","Tue Mar 14 2023 21:56:30 GMT-0400 (Eastern Daylight Time)","391232","Untrustworthy,Trustworthy","","null","","","","decisionFB","","<div class='trialDiv'><img src='Fruit/plums1.png'><br><font class='baseline'><strong>Plum Powerball</strong><p>Choose number of points to bet.</font><div class='respPicDiv'><img src='img/responseButtonOffersNo0L1.png' class='respPic'></div></div>","null","11","Plum Powerball","Fruit/plums1.png","Lost","0.35,0.65","14","0.35","180","33","",""
"html-keyboard-response","108","180297","0.0-11.0-3.32","6400df3b4bd1fb13b52727fe","bdp_rwlrn","Tue Mar 14 2023 21:56:30 GMT-0400 (Eastern Daylight Time)","391232","Untrustworthy,Trustworthy","","null","","","","feedback","","<div class='respPicDiv'><img src='img/responseButtonOffersNo0_wht.png' class='respPic'></div><div class='trialDiv'><img src='Fruit/plums1.png'><br><font class='baseline'><strong>Plum Powerball</strong><p><strong><font class='negOutcome'>You LOST</font><p>You bet: 1</strong></font> &nbsp; &nbsp; &nbsp; &nbsp; &nbsp; &nbsp;<font class='negOutcome'>You receive: <strong>0</strong></font></div>","null","11","Plum Powerball","Fruit/plums1.png","Lost","0.35,0.65","14","0.35","180","33","",""
"html-keyboard-response","109","180625","0.0-11.0-1.33","6400df3b4bd1fb13b52727fe","bdp_rwlrn","Tue Mar 14 2023 21:56:30 GMT-0400 (Eastern Daylight Time)","391232","Untrustworthy,Trustworthy","","325","","","","decision","","<div class='trialDiv'><img src='Fruit/papayas.png'><br><font class='baseline'><strong>Papaya Payday</strong><p>Choose number of points to bet.</font><div class='respPicDiv'><img src='img/responseButtonOffersNo0L.png' class='respPic'></div></div>","1","12","Papaya Payday","Fruit/papayas.png","Lost","0.65,0.2","9","0.65","185","34","",""
"html-keyboard-response","110","180887","0.0-11.0-2.33","6400df3b4bd1fb13b52727fe","bdp_rwlrn","Tue Mar 14 2023 21:56:30 GMT-0400 (Eastern Daylight Time)","391232","Untrustworthy,Trustworthy","","null","","","","decisionFB","","<div class='trialDiv'><img src='Fruit/papayas.png'><br><font class='baseline'><strong>Papaya Payday</strong><p>Choose number of points to bet.</font><div class='respPicDiv'><img src='img/responseButtonOffersNo0L1.png' class='respPic'></div></div>","null","12","Papaya Payday","Fruit/papayas.png","Lost","0.65,0.2","9","0.65","184","34","",""
"html-keyboard-response","111","181897","0.0-11.0-3.33","6400df3b4bd1fb13b52727fe","bdp_rwlrn","Tue Mar 14 2023 21:56:30 GMT-0400 (Eastern Daylight Time)","391232","Untrustworthy,Trustworthy","","null","","","","feedback","","<div class='respPicDiv'><img src='img/responseButtonOffersNo0_wht.png' class='respPic'></div><div class='trialDiv'><img src='Fruit/papayas.png'><br><font class='baseline'><strong>Papaya Payday</strong><p><strong><font class='negOutcome'>You LOST</font><p>You bet: 1</strong></font> &nbsp; &nbsp; &nbsp; &nbsp; &nbsp; &nbsp;<font class='negOutcome'>You receive: <strong>0</strong></font></div>","null","12","Papaya Payday","Fruit/papayas.png","Lost","0.65,0.2","9","0.65","184","34","",""
"html-keyboard-response","112","182452","0.0-11.0-1.34","6400df3b4bd1fb13b52727fe","bdp_rwlrn","Tue Mar 14 2023 21:56:30 GMT-0400 (Eastern Daylight Time)","391232","Untrustworthy,Trustworthy","","552","","","","decision","","<div class='trialDiv'><img src='Fruit/bananas.png'><br><font class='baseline'><strong>Banana Bonanza</strong><p>Choose number of points to bet.</font><div class='respPicDiv'><img src='img/responseButtonOffersNo0L.png' class='respPic'></div></div>","5","12","Banana Bonanza","Fruit/bananas.png","Won","0.35,0.8","12","0.35","189","35","",""
"html-keyboard-response","113","182710","0.0-11.0-2.34","6400df3b4bd1fb13b52727fe","bdp_rwlrn","Tue Mar 14 2023 21:56:30 GMT-0400 (Eastern Daylight Time)","391232","Untrustworthy,Trustworthy","","null","","","","decisionFB","","<div class='trialDiv'><img src='Fruit/bananas.png'><br><font class='baseline'><strong>Banana Bonanza</strong><p>Choose number of points to bet.</font><div class='respPicDiv'><img src='img/responseButtonOffersNo0L5.png' class='respPic'></div></div>","null","12","Banana Bonanza","Fruit/bananas.png","Won","0.35,0.8","12","0.35","184","35","",""
"html-keyboard-response","114","183721","0.0-11.0-3.34","6400df3b4bd1fb13b52727fe","bdp_rwlrn","Tue Mar 14 2023 21:56:30 GMT-0400 (Eastern Daylight Time)","391232","Untrustworthy,Trustworthy","","null","","","","feedback","","<div class='respPicDiv'><img src='img/responseButtonOffersNo0_wht.png' class='respPic'></div><div class='trialDiv'><img src='Fruit/bananas.png'><br><font class='baseline'><strong>Banana Bonanza</strong><p><strong><font class='posOutcome'>You WON</font><p>You bet: 5</strong></font> &nbsp; &nbsp; &nbsp; &nbsp; &nbsp; &nbsp;<font class='posOutcome'>you receive: <strong>10</strong></font></div>","null","12","Banana Bonanza","Fruit/bananas.png","Won","0.35,0.8","12","0.35","194","35","",""
"html-keyboard-response","115","184208","0.0-11.0-1.35","6400df3b4bd1fb13b52727fe","bdp_rwlrn","Tue Mar 14 2023 21:56:30 GMT-0400 (Eastern Daylight Time)","391232","Untrustworthy,Trustworthy","","486","","","","decision","","<div class='trialDiv'><img src='Fruit/plums1.png'><br><font class='baseline'><strong>Plum Powerball</strong><p>Choose number of points to bet.</font><div class='respPicDiv'><img src='img/responseButtonOffersNo0L.png' class='respPic'></div></div>","5","12","Plum Powerball","Fruit/plums1.png","Won","0.35,0.65","14","0.35","199","36","",""
"html-keyboard-response","116","184462","0.0-11.0-2.35","6400df3b4bd1fb13b52727fe","bdp_rwlrn","Tue Mar 14 2023 21:56:30 GMT-0400 (Eastern Daylight Time)","391232","Untrustworthy,Trustworthy","","null","","","","decisionFB","","<div class='trialDiv'><img src='Fruit/plums1.png'><br><font class='baseline'><strong>Plum Powerball</strong><p>Choose number of points to bet.</font><div class='respPicDiv'><img src='img/responseButtonOffersNo0L5.png' class='respPic'></div></div>","null","12","Plum Powerball","Fruit/plums1.png","Won","0.35,0.65","14","0.35","194","36","",""
"html-keyboard-response","117","185470","0.0-11.0-3.35","6400df3b4bd1fb13b52727fe","bdp_rwlrn","Tue Mar 14 2023 21:56:30 GMT-0400 (Eastern Daylight Time)","391232","Untrustworthy,Trustworthy","","null","","","","feedback","","<div class='respPicDiv'><img src='img/responseButtonOffersNo0_wht.png' class='respPic'></div><div class='trialDiv'><img src='Fruit/plums1.png'><br><font class='baseline'><strong>Plum Powerball</strong><p><strong><font class='posOutcome'>You WON</font><p>You bet: 5</strong></font> &nbsp; &nbsp; &nbsp; &nbsp; &nbsp; &nbsp;<font class='posOutcome'>you receive: <strong>10</strong></font></div>","null","12","Plum Powerball","Fruit/plums1.png","Won","0.35,0.65","14","0.35","204","36","",""
"html-keyboard-response","118","185827","0.0-11.0-1.36","6400df3b4bd1fb13b52727fe","bdp_rwlrn","Tue Mar 14 2023 21:56:30 GMT-0400 (Eastern Daylight Time)","391232","Untrustworthy,Trustworthy","","355","","","","decision","","<div class='trialDiv'><img src='Fruit/bananas.png'><br><font class='baseline'><strong>Banana Bonanza</strong><p>Choose number of points to bet.</font><div class='respPicDiv'><img src='img/responseButtonOffersNo0L.png' class='respPic'></div></div>","1","13","Banana Bonanza","Fruit/bananas.png","Won","0.35,0.8","12","0.35","209","37","",""
"html-keyboard-response","119","186095","0.0-11.0-2.36","6400df3b4bd1fb13b52727fe","bdp_rwlrn","Tue Mar 14 2023 21:56:30 GMT-0400 (Eastern Daylight Time)","391232","Untrustworthy,Trustworthy","","null","","","","decisionFB","","<div class='trialDiv'><img src='Fruit/bananas.png'><br><font class='baseline'><strong>Banana Bonanza</strong><p>Choose number of points to bet.</font><div class='respPicDiv'><img src='img/responseButtonOffersNo0L1.png' class='respPic'></div></div>","null","13","Banana Bonanza","Fruit/bananas.png","Won","0.35,0.8","12","0.35","208","37","",""
"html-keyboard-response","120","187103","0.0-11.0-3.36","6400df3b4bd1fb13b52727fe","bdp_rwlrn","Tue Mar 14 2023 21:56:30 GMT-0400 (Eastern Daylight Time)","391232","Untrustworthy,Trustworthy","","null","","","","feedback","","<div class='respPicDiv'><img src='img/responseButtonOffersNo0_wht.png' class='respPic'></div><div class='trialDiv'><img src='Fruit/bananas.png'><br><font class='baseline'><strong>Banana Bonanza</strong><p><strong><font class='posOutcome'>You WON</font><p>You bet: 1</strong></font> &nbsp; &nbsp; &nbsp; &nbsp; &nbsp; &nbsp;<font class='posOutcome'>you receive: <strong>2</strong></font></div>","null","13","Banana Bonanza","Fruit/bananas.png","Won","0.35,0.8","12","0.35","210","37","",""
"html-keyboard-response","121","188270","0.0-11.0-1.37","6400df3b4bd1fb13b52727fe","bdp_rwlrn","Tue Mar 14 2023 21:56:30 GMT-0400 (Eastern Daylight Time)","391232","Untrustworthy,Trustworthy","","1166","","","","decision","","<div class='trialDiv'><img src='Fruit/papayas.png'><br><font class='baseline'><strong>Papaya Payday</strong><p>Choose number of points to bet.</font><div class='respPicDiv'><img src='img/responseButtonOffersNo0L.png' class='respPic'></div></div>","5","13","Papaya Payday","Fruit/papayas.png","Lost","0.65,0.2","9","0.65","215","38","",""
"html-keyboard-response","122","188527","0.0-11.0-2.37","6400df3b4bd1fb13b52727fe","bdp_rwlrn","Tue Mar 14 2023 21:56:30 GMT-0400 (Eastern Daylight Time)","391232","Untrustworthy,Trustworthy","","null","","","","decisionFB","","<div class='trialDiv'><img src='Fruit/papayas.png'><br><font class='baseline'><strong>Papaya Payday</strong><p>Choose number of points to bet.</font><div class='respPicDiv'><img src='img/responseButtonOffersNo0L5.png' class='respPic'></div></div>","null","13","Papaya Payday","Fruit/papayas.png","Lost","0.65,0.2","9","0.65","210","38","",""
"html-keyboard-response","123","189537","0.0-11.0-3.37","6400df3b4bd1fb13b52727fe","bdp_rwlrn","Tue Mar 14 2023 21:56:30 GMT-0400 (Eastern Daylight Time)","391232","Untrustworthy,Trustworthy","","null","","","","feedback","","<div class='respPicDiv'><img src='img/responseButtonOffersNo0_wht.png' class='respPic'></div><div class='trialDiv'><img src='Fruit/papayas.png'><br><font class='baseline'><strong>Papaya Payday</strong><p><strong><font class='negOutcome'>You LOST</font><p>You bet: 5</strong></font> &nbsp; &nbsp; &nbsp; &nbsp; &nbsp; &nbsp;<font class='negOutcome'>You receive: <strong>0</strong></font></div>","null","13","Papaya Payday","Fruit/papayas.png","Lost","0.65,0.2","9","0.65","210","38","",""
"html-keyboard-response","124","190166","0.0-11.0-1.38","6400df3b4bd1fb13b52727fe","bdp_rwlrn","Tue Mar 14 2023 21:56:30 GMT-0400 (Eastern Daylight Time)","391232","Untrustworthy,Trustworthy","","626","","","","decision","","<div class='trialDiv'><img src='Fruit/plums1.png'><br><font class='baseline'><strong>Plum Powerball</strong><p>Choose number of points to bet.</font><div class='respPicDiv'><img src='img/responseButtonOffersNo0L.png' class='respPic'></div></div>","5","13","Plum Powerball","Fruit/plums1.png","Won","0.35,0.65","14","0.35","215","39","",""
"html-keyboard-response","125","190424","0.0-11.0-2.38","6400df3b4bd1fb13b52727fe","bdp_rwlrn","Tue Mar 14 2023 21:56:30 GMT-0400 (Eastern Daylight Time)","391232","Untrustworthy,Trustworthy","","null","","","","decisionFB","","<div class='trialDiv'><img src='Fruit/plums1.png'><br><font class='baseline'><strong>Plum Powerball</strong><p>Choose number of points to bet.</font><div class='respPicDiv'><img src='img/responseButtonOffersNo0L5.png' class='respPic'></div></div>","null","13","Plum Powerball","Fruit/plums1.png","Won","0.35,0.65","14","0.35","210","39","",""
"html-keyboard-response","126","191429","0.0-11.0-3.38","6400df3b4bd1fb13b52727fe","bdp_rwlrn","Tue Mar 14 2023 21:56:30 GMT-0400 (Eastern Daylight Time)","391232","Untrustworthy,Trustworthy","","null","","","","feedback","","<div class='respPicDiv'><img src='img/responseButtonOffersNo0_wht.png' class='respPic'></div><div class='trialDiv'><img src='Fruit/plums1.png'><br><font class='baseline'><strong>Plum Powerball</strong><p><strong><font class='posOutcome'>You WON</font><p>You bet: 5</strong></font> &nbsp; &nbsp; &nbsp; &nbsp; &nbsp; &nbsp;<font class='posOutcome'>you receive: <strong>10</strong></font></div>","null","13","Plum Powerball","Fruit/plums1.png","Won","0.35,0.65","14","0.35","220","39","",""
"html-keyboard-response","127","191890","0.0-11.0-1.39","6400df3b4bd1fb13b52727fe","bdp_rwlrn","Tue Mar 14 2023 21:56:30 GMT-0400 (Eastern Daylight Time)","391232","Untrustworthy,Trustworthy","","459","","","","decision","","<div class='trialDiv'><img src='Fruit/bananas.png'><br><font class='baseline'><strong>Banana Bonanza</strong><p>Choose number of points to bet.</font><div class='respPicDiv'><img src='img/responseButtonOffersNo0L.png' class='respPic'></div></div>","1","14","Banana Bonanza","Fruit/bananas.png","Won","0.35,0.8","12","0.35","225","40","",""
"html-keyboard-response","128","192148","0.0-11.0-2.39","6400df3b4bd1fb13b52727fe","bdp_rwlrn","Tue Mar 14 2023 21:56:30 GMT-0400 (Eastern Daylight Time)","391232","Untrustworthy,Trustworthy","","null","","","","decisionFB","","<div class='trialDiv'><img src='Fruit/bananas.png'><br><font class='baseline'><strong>Banana Bonanza</strong><p>Choose number of points to bet.</font><div class='respPicDiv'><img src='img/responseButtonOffersNo0L1.png' class='respPic'></div></div>","null","14","Banana Bonanza","Fruit/bananas.png","Won","0.35,0.8","12","0.35","224","40","",""
"html-keyboard-response","129","193152","0.0-11.0-3.39","6400df3b4bd1fb13b52727fe","bdp_rwlrn","Tue Mar 14 2023 21:56:30 GMT-0400 (Eastern Daylight Time)","391232","Untrustworthy,Trustworthy","","null","","","","feedback","","<div class='respPicDiv'><img src='img/responseButtonOffersNo0_wht.png' class='respPic'></div><div class='trialDiv'><img src='Fruit/bananas.png'><br><font class='baseline'><strong>Banana Bonanza</strong><p><strong><font class='posOutcome'>You WON</font><p>You bet: 1</strong></font> &nbsp; &nbsp; &nbsp; &nbsp; &nbsp; &nbsp;<font class='posOutcome'>you receive: <strong>2</strong></font></div>","null","14","Banana Bonanza","Fruit/bananas.png","Won","0.35,0.8","12","0.35","226","40","",""
"html-keyboard-response","130","193549","0.0-11.0-1.40","6400df3b4bd1fb13b52727fe","bdp_rwlrn","Tue Mar 14 2023 21:56:30 GMT-0400 (Eastern Daylight Time)","391232","Untrustworthy,Trustworthy","","395","","","","decision","","<div class='trialDiv'><img src='Fruit/plums1.png'><br><font class='baseline'><strong>Plum Powerball</strong><p>Choose number of points to bet.</font><div class='respPicDiv'><img src='img/responseButtonOffersNo0L.png' class='respPic'></div></div>","1","14","Plum Powerball","Fruit/plums1.png","Won","0.35,0.65","14","0.35","231","41","",""
"html-keyboard-response","131","193810","0.0-11.0-2.40","6400df3b4bd1fb13b52727fe","bdp_rwlrn","Tue Mar 14 2023 21:56:30 GMT-0400 (Eastern Daylight Time)","391232","Untrustworthy,Trustworthy","","null","","","","decisionFB","","<div class='trialDiv'><img src='Fruit/plums1.png'><br><font class='baseline'><strong>Plum Powerball</strong><p>Choose number of points to bet.</font><div class='respPicDiv'><img src='img/responseButtonOffersNo0L1.png' class='respPic'></div></div>","null","14","Plum Powerball","Fruit/plums1.png","Won","0.35,0.65","14","0.35","230","41","",""
"html-keyboard-response","132","194819","0.0-11.0-3.40","6400df3b4bd1fb13b52727fe","bdp_rwlrn","Tue Mar 14 2023 21:56:30 GMT-0400 (Eastern Daylight Time)","391232","Untrustworthy,Trustworthy","","null","","","","feedback","","<div class='respPicDiv'><img src='img/responseButtonOffersNo0_wht.png' class='respPic'></div><div class='trialDiv'><img src='Fruit/plums1.png'><br><font class='baseline'><strong>Plum Powerball</strong><p><strong><font class='posOutcome'>You WON</font><p>You bet: 1</strong></font> &nbsp; &nbsp; &nbsp; &nbsp; &nbsp; &nbsp;<font class='posOutcome'>you receive: <strong>2</strong></font></div>","null","14","Plum Powerball","Fruit/plums1.png","Won","0.35,0.65","14","0.35","232","41","",""
"html-keyboard-response","133","195219","0.0-11.0-1.41","6400df3b4bd1fb13b52727fe","bdp_rwlrn","Tue Mar 14 2023 21:56:30 GMT-0400 (Eastern Daylight Time)","391232","Untrustworthy,Trustworthy","","397","","","","decision","","<div class='trialDiv'><img src='Fruit/papayas.png'><br><font class='baseline'><strong>Papaya Payday</strong><p>Choose number of points to bet.</font><div class='respPicDiv'><img src='img/responseButtonOffersNo0L.png' class='respPic'></div></div>","1","14","Papaya Payday","Fruit/papayas.png","Lost","0.65,0.2","9","0.65","237","42","",""
"html-keyboard-response","134","195474","0.0-11.0-2.41","6400df3b4bd1fb13b52727fe","bdp_rwlrn","Tue Mar 14 2023 21:56:30 GMT-0400 (Eastern Daylight Time)","391232","Untrustworthy,Trustworthy","","null","","","","decisionFB","","<div class='trialDiv'><img src='Fruit/papayas.png'><br><font class='baseline'><strong>Papaya Payday</strong><p>Choose number of points to bet.</font><div class='respPicDiv'><img src='img/responseButtonOffersNo0L1.png' class='respPic'></div></div>","null","14","Papaya Payday","Fruit/papayas.png","Lost","0.65,0.2","9","0.65","236","42","",""
"html-keyboard-response","135","196486","0.0-11.0-3.41","6400df3b4bd1fb13b52727fe","bdp_rwlrn","Tue Mar 14 2023 21:56:30 GMT-0400 (Eastern Daylight Time)","391232","Untrustworthy,Trustworthy","","null","","","","feedback","","<div class='respPicDiv'><img src='img/responseButtonOffersNo0_wht.png' class='respPic'></div><div class='trialDiv'><img src='Fruit/papayas.png'><br><font class='baseline'><strong>Papaya Payday</strong><p><strong><font class='negOutcome'>You LOST</font><p>You bet: 1</strong></font> &nbsp; &nbsp; &nbsp; &nbsp; &nbsp; &nbsp;<font class='negOutcome'>You receive: <strong>0</strong></font></div>","null","14","Papaya Payday","Fruit/papayas.png","Lost","0.65,0.2","9","0.65","236","42","",""
"html-keyboard-response","136","196892","0.0-11.0-1.42","6400df3b4bd1fb13b52727fe","bdp_rwlrn","Tue Mar 14 2023 21:56:30 GMT-0400 (Eastern Daylight Time)","391232","Untrustworthy,Trustworthy","","404","","","","decision","","<div class='trialDiv'><img src='Fruit/plums1.png'><br><font class='baseline'><strong>Plum Powerball</strong><p>Choose number of points to bet.</font><div class='respPicDiv'><img src='img/responseButtonOffersNo0L.png' class='respPic'></div></div>","5","15","Plum Powerball","Fruit/plums1.png","Lost","0.35,0.65","14","0.35","241","43","",""
"html-keyboard-response","137","197146","0.0-11.0-2.42","6400df3b4bd1fb13b52727fe","bdp_rwlrn","Tue Mar 14 2023 21:56:30 GMT-0400 (Eastern Daylight Time)","391232","Untrustworthy,Trustworthy","","null","","","","decisionFB","","<div class='trialDiv'><img src='Fruit/plums1.png'><br><font class='baseline'><strong>Plum Powerball</strong><p>Choose number of points to bet.</font><div class='respPicDiv'><img src='img/responseButtonOffersNo0L5.png' class='respPic'></div></div>","null","15","Plum Powerball","Fruit/plums1.png","Lost","0.35,0.65","14","0.35","236","43","",""
"html-keyboard-response","138","198156","0.0-11.0-3.42","6400df3b4bd1fb13b52727fe","bdp_rwlrn","Tue Mar 14 2023 21:56:30 GMT-0400 (Eastern Daylight Time)","391232","Untrustworthy,Trustworthy","","null","","","","feedback","","<div class='respPicDiv'><img src='img/responseButtonOffersNo0_wht.png' class='respPic'></div><div class='trialDiv'><img src='Fruit/plums1.png'><br><font class='baseline'><strong>Plum Powerball</strong><p><strong><font class='negOutcome'>You LOST</font><p>You bet: 5</strong></font> &nbsp; &nbsp; &nbsp; &nbsp; &nbsp; &nbsp;<font class='negOutcome'>You receive: <strong>0</strong></font></div>","null","15","Plum Powerball","Fruit/plums1.png","Lost","0.35,0.65","14","0.35","236","43","",""
"html-keyboard-response","139","198518","0.0-11.0-1.43","6400df3b4bd1fb13b52727fe","bdp_rwlrn","Tue Mar 14 2023 21:56:30 GMT-0400 (Eastern Daylight Time)","391232","Untrustworthy,Trustworthy","","361","","","","decision","","<div class='trialDiv'><img src='Fruit/papayas.png'><br><font class='baseline'><strong>Papaya Payday</strong><p>Choose number of points to bet.</font><div class='respPicDiv'><img src='img/responseButtonOffersNo0L.png' class='respPic'></div></div>","1","15","Papaya Payday","Fruit/papayas.png","Lost","0.65,0.2","9","0.65","241","44","",""
"html-keyboard-response","140","198781","0.0-11.0-2.43","6400df3b4bd1fb13b52727fe","bdp_rwlrn","Tue Mar 14 2023 21:56:30 GMT-0400 (Eastern Daylight Time)","391232","Untrustworthy,Trustworthy","","null","","","","decisionFB","","<div class='trialDiv'><img src='Fruit/papayas.png'><br><font class='baseline'><strong>Papaya Payday</strong><p>Choose number of points to bet.</font><div class='respPicDiv'><img src='img/responseButtonOffersNo0L1.png' class='respPic'></div></div>","null","15","Papaya Payday","Fruit/papayas.png","Lost","0.65,0.2","9","0.65","240","44","",""
"html-keyboard-response","141","199792","0.0-11.0-3.43","6400df3b4bd1fb13b52727fe","bdp_rwlrn","Tue Mar 14 2023 21:56:30 GMT-0400 (Eastern Daylight Time)","391232","Untrustworthy,Trustworthy","","null","","","","feedback","","<div class='respPicDiv'><img src='img/responseButtonOffersNo0_wht.png' class='respPic'></div><div class='trialDiv'><img src='Fruit/papayas.png'><br><font class='baseline'><strong>Papaya Payday</strong><p><strong><font class='negOutcome'>You LOST</font><p>You bet: 1</strong></font> &nbsp; &nbsp; &nbsp; &nbsp; &nbsp; &nbsp;<font class='negOutcome'>You receive: <strong>0</strong></font></div>","null","15","Papaya Payday","Fruit/papayas.png","Lost","0.65,0.2","9","0.65","240","44","",""
"html-keyboard-response","142","200155","0.0-11.0-1.44","6400df3b4bd1fb13b52727fe","bdp_rwlrn","Tue Mar 14 2023 21:56:30 GMT-0400 (Eastern Daylight Time)","391232","Untrustworthy,Trustworthy","","361","","","","decision","","<div class='trialDiv'><img src='Fruit/bananas.png'><br><font class='baseline'><strong>Banana Bonanza</strong><p>Choose number of points to bet.</font><div class='respPicDiv'><img src='img/responseButtonOffersNo0L.png' class='respPic'></div></div>","5","15","Banana Bonanza","Fruit/bananas.png","Won","0.35,0.8","12","0.35","245","45","",""
"html-keyboard-response","143","200424","0.0-11.0-2.44","6400df3b4bd1fb13b52727fe","bdp_rwlrn","Tue Mar 14 2023 21:56:30 GMT-0400 (Eastern Daylight Time)","391232","Untrustworthy,Trustworthy","","null","","","","decisionFB","","<div class='trialDiv'><img src='Fruit/bananas.png'><br><font class='baseline'><strong>Banana Bonanza</strong><p>Choose number of points to bet.</font><div class='respPicDiv'><img src='img/responseButtonOffersNo0L5.png' class='respPic'></div></div>","null","15","Banana Bonanza","Fruit/bananas.png","Won","0.35,0.8","12","0.35","240","45","",""
"html-keyboard-response","144","201435","0.0-11.0-3.44","6400df3b4bd1fb13b52727fe","bdp_rwlrn","Tue Mar 14 2023 21:56:30 GMT-0400 (Eastern Daylight Time)","391232","Untrustworthy,Trustworthy","","null","","","","feedback","","<div class='respPicDiv'><img src='img/responseButtonOffersNo0_wht.png' class='respPic'></div><div class='trialDiv'><img src='Fruit/bananas.png'><br><font class='baseline'><strong>Banana Bonanza</strong><p><strong><font class='posOutcome'>You WON</font><p>You bet: 5</strong></font> &nbsp; &nbsp; &nbsp; &nbsp; &nbsp; &nbsp;<font class='posOutcome'>you receive: <strong>10</strong></font></div>","null","15","Banana Bonanza","Fruit/bananas.png","Won","0.35,0.8","12","0.35","250","45","",""
"html-keyboard-response","145","201881","0.0-11.0-1.45","6400df3b4bd1fb13b52727fe","bdp_rwlrn","Tue Mar 14 2023 21:56:30 GMT-0400 (Eastern Daylight Time)","391232","Untrustworthy,Trustworthy","","443","","","","decision","","<div class='trialDiv'><img src='Fruit/papayas.png'><br><font class='baseline'><strong>Papaya Payday</strong><p>Choose number of points to bet.</font><div class='respPicDiv'><img src='img/responseButtonOffersNo0L.png' class='respPic'></div></div>","5","16","Papaya Payday","Fruit/papayas.png","Lost","0.65,0.2","9","0.65","255","46","",""
"html-keyboard-response","146","202148","0.0-11.0-2.45","6400df3b4bd1fb13b52727fe","bdp_rwlrn","Tue Mar 14 2023 21:56:30 GMT-0400 (Eastern Daylight Time)","391232","Untrustworthy,Trustworthy","","null","","","","decisionFB","","<div class='trialDiv'><img src='Fruit/papayas.png'><br><font class='baseline'><strong>Papaya Payday</strong><p>Choose number of points to bet.</font><div class='respPicDiv'><img src='img/responseButtonOffersNo0L5.png' class='respPic'></div></div>","null","16","Papaya Payday","Fruit/papayas.png","Lost","0.65,0.2","9","0.65","250","46","",""
"html-keyboard-response","147","203158","0.0-11.0-3.45","6400df3b4bd1fb13b52727fe","bdp_rwlrn","Tue Mar 14 2023 21:56:30 GMT-0400 (Eastern Daylight Time)","391232","Untrustworthy,Trustworthy","","null","","","","feedback","","<div class='respPicDiv'><img src='img/responseButtonOffersNo0_wht.png' class='respPic'></div><div class='trialDiv'><img src='Fruit/papayas.png'><br><font class='baseline'><strong>Papaya Payday</strong><p><strong><font class='negOutcome'>You LOST</font><p>You bet: 5</strong></font> &nbsp; &nbsp; &nbsp; &nbsp; &nbsp; &nbsp;<font class='negOutcome'>You receive: <strong>0</strong></font></div>","null","16","Papaya Payday","Fruit/papayas.png","Lost","0.65,0.2","9","0.65","250","46","",""
"html-keyboard-response","148","203430","0.0-11.0-1.46","6400df3b4bd1fb13b52727fe","bdp_rwlrn","Tue Mar 14 2023 21:56:30 GMT-0400 (Eastern Daylight Time)","391232","Untrustworthy,Trustworthy","","270","","","","decision","","<div class='trialDiv'><img src='Fruit/plums1.png'><br><font class='baseline'><strong>Plum Powerball</strong><p>Choose number of points to bet.</font><div class='respPicDiv'><img src='img/responseButtonOffersNo0L.png' class='respPic'></div></div>","5","16","Plum Powerball","Fruit/plums1.png","Won","0.35,0.65","14","0.35","255","47","",""
"html-keyboard-response","149","203687","0.0-11.0-2.46","6400df3b4bd1fb13b52727fe","bdp_rwlrn","Tue Mar 14 2023 21:56:30 GMT-0400 (Eastern Daylight Time)","391232","Untrustworthy,Trustworthy","","null","","","","decisionFB","","<div class='trialDiv'><img src='Fruit/plums1.png'><br><font class='baseline'><strong>Plum Powerball</strong><p>Choose number of points to bet.</font><div class='respPicDiv'><img src='img/responseButtonOffersNo0L5.png' class='respPic'></div></div>","null","16","Plum Powerball","Fruit/plums1.png","Won","0.35,0.65","14","0.35","250","47","",""
"html-keyboard-response","150","204696","0.0-11.0-3.46","6400df3b4bd1fb13b52727fe","bdp_rwlrn","Tue Mar 14 2023 21:56:30 GMT-0400 (Eastern Daylight Time)","391232","Untrustworthy,Trustworthy","","null","","","","feedback","","<div class='respPicDiv'><img src='img/responseButtonOffersNo0_wht.png' class='respPic'></div><div class='trialDiv'><img src='Fruit/plums1.png'><br><font class='baseline'><strong>Plum Powerball</strong><p><strong><font class='posOutcome'>You WON</font><p>You bet: 5</strong></font> &nbsp; &nbsp; &nbsp; &nbsp; &nbsp; &nbsp;<font class='posOutcome'>you receive: <strong>10</strong></font></div>","null","16","Plum Powerball","Fruit/plums1.png","Won","0.35,0.65","14","0.35","260","47","",""
"html-keyboard-response","151","204959","0.0-11.0-1.47","6400df3b4bd1fb13b52727fe","bdp_rwlrn","Tue Mar 14 2023 21:56:30 GMT-0400 (Eastern Daylight Time)","391232","Untrustworthy,Trustworthy","","261","","","","decision","","<div class='trialDiv'><img src='Fruit/bananas.png'><br><font class='baseline'><strong>Banana Bonanza</strong><p>Choose number of points to bet.</font><div class='respPicDiv'><img src='img/responseButtonOffersNo0L.png' class='respPic'></div></div>","5","16","Banana Bonanza","Fruit/bananas.png","Won","0.35,0.8","12","0.35","265","48","",""
"html-keyboard-response","152","205216","0.0-11.0-2.47","6400df3b4bd1fb13b52727fe","bdp_rwlrn","Tue Mar 14 2023 21:56:30 GMT-0400 (Eastern Daylight Time)","391232","Untrustworthy,Trustworthy","","null","","","","decisionFB","","<div class='trialDiv'><img src='Fruit/bananas.png'><br><font class='baseline'><strong>Banana Bonanza</strong><p>Choose number of points to bet.</font><div class='respPicDiv'><img src='img/responseButtonOffersNo0L5.png' class='respPic'></div></div>","null","16","Banana Bonanza","Fruit/bananas.png","Won","0.35,0.8","12","0.35","260","48","",""
"html-keyboard-response","153","206224","0.0-11.0-3.47","6400df3b4bd1fb13b52727fe","bdp_rwlrn","Tue Mar 14 2023 21:56:30 GMT-0400 (Eastern Daylight Time)","391232","Untrustworthy,Trustworthy","","null","","","","feedback","","<div class='respPicDiv'><img src='img/responseButtonOffersNo0_wht.png' class='respPic'></div><div class='trialDiv'><img src='Fruit/bananas.png'><br><font class='baseline'><strong>Banana Bonanza</strong><p><strong><font class='posOutcome'>You WON</font><p>You bet: 5</strong></font> &nbsp; &nbsp; &nbsp; &nbsp; &nbsp; &nbsp;<font class='posOutcome'>you receive: <strong>10</strong></font></div>","null","16","Banana Bonanza","Fruit/bananas.png","Won","0.35,0.8","12","0.35","270","48","",""
"html-keyboard-response","154","206569","0.0-11.0-1.48","6400df3b4bd1fb13b52727fe","bdp_rwlrn","Tue Mar 14 2023 21:56:30 GMT-0400 (Eastern Daylight Time)","391232","Untrustworthy,Trustworthy","","344","","","","decision","","<div class='trialDiv'><img src='Fruit/plums1.png'><br><font class='baseline'><strong>Plum Powerball</strong><p>Choose number of points to bet.</font><div class='respPicDiv'><img src='img/responseButtonOffersNo0L.png' class='respPic'></div></div>","1","17","Plum Powerball","Fruit/plums1.png","Won","0.35,0.65","14","0.35","275","49","",""
"html-keyboard-response","155","206829","0.0-11.0-2.48","6400df3b4bd1fb13b52727fe","bdp_rwlrn","Tue Mar 14 2023 21:56:30 GMT-0400 (Eastern Daylight Time)","391232","Untrustworthy,Trustworthy","","null","","","","decisionFB","","<div class='trialDiv'><img src='Fruit/plums1.png'><br><font class='baseline'><strong>Plum Powerball</strong><p>Choose number of points to bet.</font><div class='respPicDiv'><img src='img/responseButtonOffersNo0L1.png' class='respPic'></div></div>","null","17","Plum Powerball","Fruit/plums1.png","Won","0.35,0.65","14","0.35","274","49","",""
"html-keyboard-response","156","207836","0.0-11.0-3.48","6400df3b4bd1fb13b52727fe","bdp_rwlrn","Tue Mar 14 2023 21:56:30 GMT-0400 (Eastern Daylight Time)","391232","Untrustworthy,Trustworthy","","null","","","","feedback","","<div class='respPicDiv'><img src='img/responseButtonOffersNo0_wht.png' class='respPic'></div><div class='trialDiv'><img src='Fruit/plums1.png'><br><font class='baseline'><strong>Plum Powerball</strong><p><strong><font class='posOutcome'>You WON</font><p>You bet: 1</strong></font> &nbsp; &nbsp; &nbsp; &nbsp; &nbsp; &nbsp;<font class='posOutcome'>you receive: <strong>2</strong></font></div>","null","17","Plum Powerball","Fruit/plums1.png","Won","0.35,0.65","14","0.35","276","49","",""
"html-keyboard-response","157","208163","0.0-11.0-1.49","6400df3b4bd1fb13b52727fe","bdp_rwlrn","Tue Mar 14 2023 21:56:30 GMT-0400 (Eastern Daylight Time)","391232","Untrustworthy,Trustworthy","","325","","","","decision","","<div class='trialDiv'><img src='Fruit/bananas.png'><br><font class='baseline'><strong>Banana Bonanza</strong><p>Choose number of points to bet.</font><div class='respPicDiv'><img src='img/responseButtonOffersNo0L.png' class='respPic'></div></div>","1","17","Banana Bonanza","Fruit/bananas.png","Won","0.35,0.8","12","0.35","281","50","",""
"html-keyboard-response","158","208423","0.0-11.0-2.49","6400df3b4bd1fb13b52727fe","bdp_rwlrn","Tue Mar 14 2023 21:56:30 GMT-0400 (Eastern Daylight Time)","391232","Untrustworthy,Trustworthy","","null","","","","decisionFB","","<div class='trialDiv'><img src='Fruit/bananas.png'><br><font class='baseline'><strong>Banana Bonanza</strong><p>Choose number of points to bet.</font><div class='respPicDiv'><img src='img/responseButtonOffersNo0L1.png' class='respPic'></div></div>","null","17","Banana Bonanza","Fruit/bananas.png","Won","0.35,0.8","12","0.35","280","50","",""
"html-keyboard-response","159","209438","0.0-11.0-3.49","6400df3b4bd1fb13b52727fe","bdp_rwlrn","Tue Mar 14 2023 21:56:30 GMT-0400 (Eastern Daylight Time)","391232","Untrustworthy,Trustworthy","","null","","","","feedback","","<div class='respPicDiv'><img src='img/responseButtonOffersNo0_wht.png' class='respPic'></div><div class='trialDiv'><img src='Fruit/bananas.png'><br><font class='baseline'><strong>Banana Bonanza</strong><p><strong><font class='posOutcome'>You WON</font><p>You bet: 1</strong></font> &nbsp; &nbsp; &nbsp; &nbsp; &nbsp; &nbsp;<font class='posOutcome'>you receive: <strong>2</strong></font></div>","null","17","Banana Bonanza","Fruit/bananas.png","Won","0.35,0.8","12","0.35","282","50","",""
"html-keyboard-response","160","209730","0.0-11.0-1.50","6400df3b4bd1fb13b52727fe","bdp_rwlrn","Tue Mar 14 2023 21:56:30 GMT-0400 (Eastern Daylight Time)","391232","Untrustworthy,Trustworthy","","290","","","","decision","","<div class='trialDiv'><img src='Fruit/papayas.png'><br><font class='baseline'><strong>Papaya Payday</strong><p>Choose number of points to bet.</font><div class='respPicDiv'><img src='img/responseButtonOffersNo0L.png' class='respPic'></div></div>","1","17","Papaya Payday","Fruit/papayas.png","Lost","0.65,0.2","9","0.65","287","51","",""
"html-keyboard-response","161","209990","0.0-11.0-2.50","6400df3b4bd1fb13b52727fe","bdp_rwlrn","Tue Mar 14 2023 21:56:30 GMT-0400 (Eastern Daylight Time)","391232","Untrustworthy,Trustworthy","","null","","","","decisionFB","","<div class='trialDiv'><img src='Fruit/papayas.png'><br><font class='baseline'><strong>Papaya Payday</strong><p>Choose number of points to bet.</font><div class='respPicDiv'><img src='img/responseButtonOffersNo0L1.png' class='respPic'></div></div>","null","17","Papaya Payday","Fruit/papayas.png","Lost","0.65,0.2","9","0.65","286","51","",""
"html-keyboard-response","162","211004","0.0-11.0-3.50","6400df3b4bd1fb13b52727fe","bdp_rwlrn","Tue Mar 14 2023 21:56:30 GMT-0400 (Eastern Daylight Time)","391232","Untrustworthy,Trustworthy","","null","","","","feedback","","<div class='respPicDiv'><img src='img/responseButtonOffersNo0_wht.png' class='respPic'></div><div class='trialDiv'><img src='Fruit/papayas.png'><br><font class='baseline'><strong>Papaya Payday</strong><p><strong><font class='negOutcome'>You LOST</font><p>You bet: 1</strong></font> &nbsp; &nbsp; &nbsp; &nbsp; &nbsp; &nbsp;<font class='negOutcome'>You receive: <strong>0</strong></font></div>","null","17","Papaya Payday","Fruit/papayas.png","Lost","0.65,0.2","9","0.65","286","51","",""
