"trial_type","trial_index","time_elapsed","internal_node_id","subject_id","task","startTime","totalTime","labels","view_history","rt","event","trial","time","trialtype","success","stimulus","key_press","ltround","name","fileID","outcome","lottotype","lottoswpt","lottocurrpshare","point_total","round","faceID","face"
"pavlovia","0","3","0.0-0.0","5d5a48a67ca41f0001e97f8b","bdp_rwlrn","Sun Mar 12 2023 23:59:17 GMT-0400 (Eastern Daylight Time)","407271","Untrustworthy,Trustworthy","","","","","","","","","","","","","","","","","","","",""
"instructions","1","8885","0.0-1.0","5d5a48a67ca41f0001e97f8b","bdp_rwlrn","Sun Mar 12 2023 23:59:17 GMT-0400 (Eastern Daylight Time)","407271","Untrustworthy,Trustworthy","[{""page_index"":0,""viewing_time"":8882}]","8882","","","","","","","","","","","","","","","","","",""
"","","","","5d5a48a67ca41f0001e97f8b","bdp_rwlrn","Sun Mar 12 2023 23:59:17 GMT-0400 (Eastern Daylight Time)","407271","Untrustworthy,Trustworthy","","","fullscreenenter","2","12235","fullscreenenter","","","","","","","","","","","","","",""
"fullscreen","2","13222","0.0-2.0","5d5a48a67ca41f0001e97f8b","bdp_rwlrn","Sun Mar 12 2023 23:59:17 GMT-0400 (Eastern Daylight Time)","407271","Untrustworthy,Trustworthy","","","","","","","true","","","","","","","","","","","","",""
"instructions","3","48799","0.0-4.0","5d5a48a67ca41f0001e97f8b","bdp_rwlrn","Sun Mar 12 2023 23:59:17 GMT-0400 (Eastern Daylight Time)","407271","Untrustworthy,Trustworthy","[{""page_index"":0,""viewing_time"":8278},{""page_index"":1,""viewing_time"":7621},{""page_index"":2,""viewing_time"":2360},{""page_index"":3,""viewing_time"":3774},{""page_index"":4,""viewing_time"":11442},{""page_index"":5,""viewing_time"":2100}]","35576","","","","","","","","","","","","","","","","","",""
"html-keyboard-response","4","52005","0.0-5.0","5d5a48a67ca41f0001e97f8b","bdp_rwlrn","Sun Mar 12 2023 23:59:17 GMT-0400 (Eastern Daylight Time)","407271","Untrustworthy,Trustworthy","","3204","","","","","","<div class='header' style='text-align:left; position: absolute; top: 5%; left: 5%;'><small>Task 3 of 5</small></div><div class='instruxDiv'><p><strong>1) What is the maximum number of points you can choose to bet on a lottery?</strong></p><p>a) 0</p><p>b) 1</p><p>c) 5</p>","C","","","","","","","","","","",""
"html-keyboard-response","5","52825","0.0-6.0","5d5a48a67ca41f0001e97f8b","bdp_rwlrn","Sun Mar 12 2023 23:59:17 GMT-0400 (Eastern Daylight Time)","407271","Untrustworthy,Trustworthy","","719","","","","","","<div class='header' style='text-align:left; position: absolute; top: 5%; left: 5%;'><small>Task 3 of 5</small></div><div class='instruxDiv'><p><strong>1) What is the maximum number of points you can choose to bet on a lottery?</strong></p><p>a) 1</p><p>b) 1</p><p style='color:#00FF00'>c) 5</p><h3 style='color:#00FF00'>Correct!</h3><h3 class='center-content'>The correct response is c).</h3><h3 class='center-content'>The maximum number of points you can choose to bet on a lottery is 5 points.</h3><p><em>Press SPACEBAR to continue</em></p></div>"," ","","","","","","","","","","",""
"html-keyboard-response","6","55664","0.0-7.0","5d5a48a67ca41f0001e97f8b","bdp_rwlrn","Sun Mar 12 2023 23:59:17 GMT-0400 (Eastern Daylight Time)","407271","Untrustworthy,Trustworthy","","2737","","","","","","<div class='header' style='text-align:left; position: absolute; top: 5%; left: 5%;'><small>Task 3 of 5</small></div><div class='instruxDiv'><p><strong>2) How many points can you win each round?</strong></p><p>a) 10 points</p><p>b) Double what you bet</p><p>c) Quadruple what you bet</p>","B","","","","","","","","","","",""
"html-keyboard-response","7","56516","0.0-8.0","5d5a48a67ca41f0001e97f8b","bdp_rwlrn","Sun Mar 12 2023 23:59:17 GMT-0400 (Eastern Daylight Time)","407271","Untrustworthy,Trustworthy","","750","","","","","","<div class='header' style='text-align:left; position: absolute; top: 5%; left: 5%;'><small>Task 3 of 5</small></div><div class='instruxDiv'><p><strong>2) How many points can you win each round?</strong></p><p>a) 10 points</p><p style='color:#00FF00'>b) Double what you bet</p><p>c) Quadruple what you bet</p><h3 style='color:#00FF00'>Correct!</h3><h3 class='center-content'>The correct response is b).</h3><h3 class='center-content'>You can win double the amount of points you bet.</h3><p><em>Press SPACEBAR to continue</em></p></div>"," ","","","","","","","","","","",""
"html-keyboard-response","8","61620","0.0-9.0","5d5a48a67ca41f0001e97f8b","bdp_rwlrn","Sun Mar 12 2023 23:59:17 GMT-0400 (Eastern Daylight Time)","407271","Untrustworthy,Trustworthy","","null","","","","","","<div class='header' style='text-align:left; position: absolute; top: 5%; left: 5%;'><small>Task 3 of 5</small></div><div class='instruxDiv'><p>Thank you for completing the quiz<p>These are the actual lotteries you will be playing in the next block:<p><div class='tc' align='center'><img class='introPic' src='Fruit/melon.png'><br><strong>Melon Millions</strong></div><div class='bl' align='center'><img class='introPic' src='Fruit/grapes.png'><br><strong>Great Grapes</strong></div><div class='br' align='center'><img class='introPic' src='Fruit/pineapple.png'><br><strong>Primo Pineapple</strong></div></div><p>Across <strong>66 rounds</strong> you will play each lottery <strong>22 times</strong> (in random order).<p style='align:center; color:white'><font <em>Press SPACEBAR to continue</em></p>","null","","","","","","","","","","",""
"instructions","9","77947","0.0-10.0","5d5a48a67ca41f0001e97f8b","bdp_rwlrn","Sun Mar 12 2023 23:59:17 GMT-0400 (Eastern Daylight Time)","407271","Untrustworthy,Trustworthy","[{""page_index"":0,""viewing_time"":14512},{""page_index"":1,""viewing_time"":1813}]","16326","","","","","","","","","","","","","","","","","",""
"html-keyboard-response","10","79938","0.0-11.0-1.0","5d5a48a67ca41f0001e97f8b","bdp_rwlrn","Sun Mar 12 2023 23:59:17 GMT-0400 (Eastern Daylight Time)","407271","Untrustworthy,Trustworthy","","1887","","","","decision","","<div class='trialDiv'><img src='Fruit/pineapple.png'><br><font class='baseline'><strong>Primo Pineapple</strong><p>Choose number of points to bet.</font><div class='respPicDiv'><img src='img/responseButtonOffersNo0L.png' class='respPic'></div></div>","1","1","Primo Pineapple","Fruit/pineapple.png","Lost","0.35,0.8","11","0.35","5","1","",""
"html-keyboard-response","11","80190","0.0-11.0-2.0","5d5a48a67ca41f0001e97f8b","bdp_rwlrn","Sun Mar 12 2023 23:59:17 GMT-0400 (Eastern Daylight Time)","407271","Untrustworthy,Trustworthy","","null","","","","decisionFB","","<div class='trialDiv'><img src='Fruit/pineapple.png'><br><font class='baseline'><strong>Primo Pineapple</strong><p>Choose number of points to bet.</font><div class='respPicDiv'><img src='img/responseButtonOffersNo0L1.png' class='respPic'></div></div>","null","1","Primo Pineapple","Fruit/pineapple.png","Lost","0.35,0.8","11","0.35","4","1","",""
"html-keyboard-response","12","81192","0.0-11.0-3.0","5d5a48a67ca41f0001e97f8b","bdp_rwlrn","Sun Mar 12 2023 23:59:17 GMT-0400 (Eastern Daylight Time)","407271","Untrustworthy,Trustworthy","","null","","","","feedback","","<div class='respPicDiv'><img src='img/responseButtonOffersNo0_wht.png' class='respPic'></div><div class='trialDiv'><img src='Fruit/pineapple.png'><br><font class='baseline'><strong>Primo Pineapple</strong><p><strong><font class='negOutcome'>You LOST</font><p>You bet: 1</strong></font> &nbsp; &nbsp; &nbsp; &nbsp; &nbsp; &nbsp;<font class='negOutcome'>You receive: <strong>0</strong></font></div>","null","1","Primo Pineapple","Fruit/pineapple.png","Lost","0.35,0.8","11","0.35","4","1","",""
"html-keyboard-response","13","83301","0.0-11.0-1.1","5d5a48a67ca41f0001e97f8b","bdp_rwlrn","Sun Mar 12 2023 23:59:17 GMT-0400 (Eastern Daylight Time)","407271","Untrustworthy,Trustworthy","","2107","","","","decision","","<div class='trialDiv'><img src='Fruit/grapes.png'><br><font class='baseline'><strong>Great Grapes</strong><p>Choose number of points to bet.</font><div class='respPicDiv'><img src='img/responseButtonOffersNo0L.png' class='respPic'></div></div>","3","1","Great Grapes","Fruit/grapes.png","Won","0.65,0.35","11","0.65","9","2","",""
"html-keyboard-response","14","83554","0.0-11.0-2.1","5d5a48a67ca41f0001e97f8b","bdp_rwlrn","Sun Mar 12 2023 23:59:17 GMT-0400 (Eastern Daylight Time)","407271","Untrustworthy,Trustworthy","","null","","","","decisionFB","","<div class='trialDiv'><img src='Fruit/grapes.png'><br><font class='baseline'><strong>Great Grapes</strong><p>Choose number of points to bet.</font><div class='respPicDiv'><img src='img/responseButtonOffersNo0L3.png' class='respPic'></div></div>","null","1","Great Grapes","Fruit/grapes.png","Won","0.65,0.35","11","0.65","6","2","",""
"html-keyboard-response","15","84556","0.0-11.0-3.1","5d5a48a67ca41f0001e97f8b","bdp_rwlrn","Sun Mar 12 2023 23:59:17 GMT-0400 (Eastern Daylight Time)","407271","Untrustworthy,Trustworthy","","null","","","","feedback","","<div class='respPicDiv'><img src='img/responseButtonOffersNo0_wht.png' class='respPic'></div><div class='trialDiv'><img src='Fruit/grapes.png'><br><font class='baseline'><strong>Great Grapes</strong><p><strong><font class='posOutcome'>You WON</font><p>You bet: 3</strong></font> &nbsp; &nbsp; &nbsp; &nbsp; &nbsp; &nbsp;<font class='posOutcome'>you receive: <strong>6</strong></font></div>","null","1","Great Grapes","Fruit/grapes.png","Won","0.65,0.35","11","0.65","12","2","",""
"html-keyboard-response","16","85779","0.0-11.0-1.2","5d5a48a67ca41f0001e97f8b","bdp_rwlrn","Sun Mar 12 2023 23:59:17 GMT-0400 (Eastern Daylight Time)","407271","Untrustworthy,Trustworthy","","1221","","","","decision","","<div class='trialDiv'><img src='Fruit/melon.png'><br><font class='baseline'><strong>Melon Millions</strong><p>Choose number of points to bet.</font><div class='respPicDiv'><img src='img/responseButtonOffersNo0L.png' class='respPic'></div></div>","2","1","Melon Millions","Fruit/melon.png","Won","0.8,0.35","8","0.8","17","3","",""
"html-keyboard-response","17","86032","0.0-11.0-2.2","5d5a48a67ca41f0001e97f8b","bdp_rwlrn","Sun Mar 12 2023 23:59:17 GMT-0400 (Eastern Daylight Time)","407271","Untrustworthy,Trustworthy","","null","","","","decisionFB","","<div class='trialDiv'><img src='Fruit/melon.png'><br><font class='baseline'><strong>Melon Millions</strong><p>Choose number of points to bet.</font><div class='respPicDiv'><img src='img/responseButtonOffersNo0L2.png' class='respPic'></div></div>","null","1","Melon Millions","Fruit/melon.png","Won","0.8,0.35","8","0.8","15","3","",""
"html-keyboard-response","18","87034","0.0-11.0-3.2","5d5a48a67ca41f0001e97f8b","bdp_rwlrn","Sun Mar 12 2023 23:59:17 GMT-0400 (Eastern Daylight Time)","407271","Untrustworthy,Trustworthy","","null","","","","feedback","","<div class='respPicDiv'><img src='img/responseButtonOffersNo0_wht.png' class='respPic'></div><div class='trialDiv'><img src='Fruit/melon.png'><br><font class='baseline'><strong>Melon Millions</strong><p><strong><font class='posOutcome'>You WON</font><p>You bet: 2</strong></font> &nbsp; &nbsp; &nbsp; &nbsp; &nbsp; &nbsp;<font class='posOutcome'>you receive: <strong>4</strong></font></div>","null","1","Melon Millions","Fruit/melon.png","Won","0.8,0.35","8","0.8","19","3","",""
"html-keyboard-response","19","88205","0.0-11.0-1.3","5d5a48a67ca41f0001e97f8b","bdp_rwlrn","Sun Mar 12 2023 23:59:17 GMT-0400 (Eastern Daylight Time)","407271","Untrustworthy,Trustworthy","","1170","","","","decision","","<div class='trialDiv'><img src='Fruit/pineapple.png'><br><font class='baseline'><strong>Primo Pineapple</strong><p>Choose number of points to bet.</font><div class='respPicDiv'><img src='img/responseButtonOffersNo0L.png' class='respPic'></div></div>","1","2","Primo Pineapple","Fruit/pineapple.png","Won","0.35,0.8","11","0.35","24","4","",""
"html-keyboard-response","20","88457","0.0-11.0-2.3","5d5a48a67ca41f0001e97f8b","bdp_rwlrn","Sun Mar 12 2023 23:59:17 GMT-0400 (Eastern Daylight Time)","407271","Untrustworthy,Trustworthy","","null","","","","decisionFB","","<div class='trialDiv'><img src='Fruit/pineapple.png'><br><font class='baseline'><strong>Primo Pineapple</strong><p>Choose number of points to bet.</font><div class='respPicDiv'><img src='img/responseButtonOffersNo0L1.png' class='respPic'></div></div>","null","2","Primo Pineapple","Fruit/pineapple.png","Won","0.35,0.8","11","0.35","23","4","",""
"html-keyboard-response","21","89459","0.0-11.0-3.3","5d5a48a67ca41f0001e97f8b","bdp_rwlrn","Sun Mar 12 2023 23:59:17 GMT-0400 (Eastern Daylight Time)","407271","Untrustworthy,Trustworthy","","null","","","","feedback","","<div class='respPicDiv'><img src='img/responseButtonOffersNo0_wht.png' class='respPic'></div><div class='trialDiv'><img src='Fruit/pineapple.png'><br><font class='baseline'><strong>Primo Pineapple</strong><p><strong><font class='posOutcome'>You WON</font><p>You bet: 1</strong></font> &nbsp; &nbsp; &nbsp; &nbsp; &nbsp; &nbsp;<font class='posOutcome'>you receive: <strong>2</strong></font></div>","null","2","Primo Pineapple","Fruit/pineapple.png","Won","0.35,0.8","11","0.35","25","4","",""
"html-keyboard-response","22","90482","0.0-11.0-1.4","5d5a48a67ca41f0001e97f8b","bdp_rwlrn","Sun Mar 12 2023 23:59:17 GMT-0400 (Eastern Daylight Time)","407271","Untrustworthy,Trustworthy","","1022","","","","decision","","<div class='trialDiv'><img src='Fruit/grapes.png'><br><font class='baseline'><strong>Great Grapes</strong><p>Choose number of points to bet.</font><div class='respPicDiv'><img src='img/responseButtonOffersNo0L.png' class='respPic'></div></div>","5","2","Great Grapes","Fruit/grapes.png","Won","0.65,0.35","11","0.65","30","5","",""
"html-keyboard-response","23","90735","0.0-11.0-2.4","5d5a48a67ca41f0001e97f8b","bdp_rwlrn","Sun Mar 12 2023 23:59:17 GMT-0400 (Eastern Daylight Time)","407271","Untrustworthy,Trustworthy","","null","","","","decisionFB","","<div class='trialDiv'><img src='Fruit/grapes.png'><br><font class='baseline'><strong>Great Grapes</strong><p>Choose number of points to bet.</font><div class='respPicDiv'><img src='img/responseButtonOffersNo0L5.png' class='respPic'></div></div>","null","2","Great Grapes","Fruit/grapes.png","Won","0.65,0.35","11","0.65","25","5","",""
"html-keyboard-response","24","91737","0.0-11.0-3.4","5d5a48a67ca41f0001e97f8b","bdp_rwlrn","Sun Mar 12 2023 23:59:17 GMT-0400 (Eastern Daylight Time)","407271","Untrustworthy,Trustworthy","","null","","","","feedback","","<div class='respPicDiv'><img src='img/responseButtonOffersNo0_wht.png' class='respPic'></div><div class='trialDiv'><img src='Fruit/grapes.png'><br><font class='baseline'><strong>Great Grapes</strong><p><strong><font class='posOutcome'>You WON</font><p>You bet: 5</strong></font> &nbsp; &nbsp; &nbsp; &nbsp; &nbsp; &nbsp;<font class='posOutcome'>you receive: <strong>10</strong></font></div>","null","2","Great Grapes","Fruit/grapes.png","Won","0.65,0.35","11","0.65","35","5","",""
"html-keyboard-response","25","92739","0.0-11.0-1.5","5d5a48a67ca41f0001e97f8b","bdp_rwlrn","Sun Mar 12 2023 23:59:17 GMT-0400 (Eastern Daylight Time)","407271","Untrustworthy,Trustworthy","","1000","","","","decision","","<div class='trialDiv'><img src='Fruit/melon.png'><br><font class='baseline'><strong>Melon Millions</strong><p>Choose number of points to bet.</font><div class='respPicDiv'><img src='img/responseButtonOffersNo0L.png' class='respPic'></div></div>","3","2","Melon Millions","Fruit/melon.png","Won","0.8,0.35","8","0.8","40","6","",""
"html-keyboard-response","26","92990","0.0-11.0-2.5","5d5a48a67ca41f0001e97f8b","bdp_rwlrn","Sun Mar 12 2023 23:59:17 GMT-0400 (Eastern Daylight Time)","407271","Untrustworthy,Trustworthy","","null","","","","decisionFB","","<div class='trialDiv'><img src='Fruit/melon.png'><br><font class='baseline'><strong>Melon Millions</strong><p>Choose number of points to bet.</font><div class='respPicDiv'><img src='img/responseButtonOffersNo0L3.png' class='respPic'></div></div>","null","2","Melon Millions","Fruit/melon.png","Won","0.8,0.35","8","0.8","37","6","",""
"html-keyboard-response","27","93993","0.0-11.0-3.5","5d5a48a67ca41f0001e97f8b","bdp_rwlrn","Sun Mar 12 2023 23:59:17 GMT-0400 (Eastern Daylight Time)","407271","Untrustworthy,Trustworthy","","null","","","","feedback","","<div class='respPicDiv'><img src='img/responseButtonOffersNo0_wht.png' class='respPic'></div><div class='trialDiv'><img src='Fruit/melon.png'><br><font class='baseline'><strong>Melon Millions</strong><p><strong><font class='posOutcome'>You WON</font><p>You bet: 3</strong></font> &nbsp; &nbsp; &nbsp; &nbsp; &nbsp; &nbsp;<font class='posOutcome'>you receive: <strong>6</strong></font></div>","null","2","Melon Millions","Fruit/melon.png","Won","0.8,0.35","8","0.8","43","6","",""
"html-keyboard-response","28","94881","0.0-11.0-1.6","5d5a48a67ca41f0001e97f8b","bdp_rwlrn","Sun Mar 12 2023 23:59:17 GMT-0400 (Eastern Daylight Time)","407271","Untrustworthy,Trustworthy","","886","","","","decision","","<div class='trialDiv'><img src='Fruit/pineapple.png'><br><font class='baseline'><strong>Primo Pineapple</strong><p>Choose number of points to bet.</font><div class='respPicDiv'><img src='img/responseButtonOffersNo0L.png' class='respPic'></div></div>","1","3","Primo Pineapple","Fruit/pineapple.png","Lost","0.35,0.8","11","0.35","48","7","",""
"html-keyboard-response","29","95132","0.0-11.0-2.6","5d5a48a67ca41f0001e97f8b","bdp_rwlrn","Sun Mar 12 2023 23:59:17 GMT-0400 (Eastern Daylight Time)","407271","Untrustworthy,Trustworthy","","null","","","","decisionFB","","<div class='trialDiv'><img src='Fruit/pineapple.png'><br><font class='baseline'><strong>Primo Pineapple</strong><p>Choose number of points to bet.</font><div class='respPicDiv'><img src='img/responseButtonOffersNo0L1.png' class='respPic'></div></div>","null","3","Primo Pineapple","Fruit/pineapple.png","Lost","0.35,0.8","11","0.35","47","7","",""
"html-keyboard-response","30","96134","0.0-11.0-3.6","5d5a48a67ca41f0001e97f8b","bdp_rwlrn","Sun Mar 12 2023 23:59:17 GMT-0400 (Eastern Daylight Time)","407271","Untrustworthy,Trustworthy","","null","","","","feedback","","<div class='respPicDiv'><img src='img/responseButtonOffersNo0_wht.png' class='respPic'></div><div class='trialDiv'><img src='Fruit/pineapple.png'><br><font class='baseline'><strong>Primo Pineapple</strong><p><strong><font class='negOutcome'>You LOST</font><p>You bet: 1</strong></font> &nbsp; &nbsp; &nbsp; &nbsp; &nbsp; &nbsp;<font class='negOutcome'>You receive: <strong>0</strong></font></div>","null","3","Primo Pineapple","Fruit/pineapple.png","Lost","0.35,0.8","11","0.35","47","7","",""
"html-keyboard-response","31","97083","0.0-11.0-1.7","5d5a48a67ca41f0001e97f8b","bdp_rwlrn","Sun Mar 12 2023 23:59:17 GMT-0400 (Eastern Daylight Time)","407271","Untrustworthy,Trustworthy","","947","","","","decision","","<div class='trialDiv'><img src='Fruit/grapes.png'><br><font class='baseline'><strong>Great Grapes</strong><p>Choose number of points to bet.</font><div class='respPicDiv'><img src='img/responseButtonOffersNo0L.png' class='respPic'></div></div>","5","3","Great Grapes","Fruit/grapes.png","Won","0.65,0.35","11","0.65","52","8","",""
"html-keyboard-response","32","97336","0.0-11.0-2.7","5d5a48a67ca41f0001e97f8b","bdp_rwlrn","Sun Mar 12 2023 23:59:17 GMT-0400 (Eastern Daylight Time)","407271","Untrustworthy,Trustworthy","","null","","","","decisionFB","","<div class='trialDiv'><img src='Fruit/grapes.png'><br><font class='baseline'><strong>Great Grapes</strong><p>Choose number of points to bet.</font><div class='respPicDiv'><img src='img/responseButtonOffersNo0L5.png' class='respPic'></div></div>","null","3","Great Grapes","Fruit/grapes.png","Won","0.65,0.35","11","0.65","47","8","",""
"html-keyboard-response","33","98338","0.0-11.0-3.7","5d5a48a67ca41f0001e97f8b","bdp_rwlrn","Sun Mar 12 2023 23:59:17 GMT-0400 (Eastern Daylight Time)","407271","Untrustworthy,Trustworthy","","null","","","","feedback","","<div class='respPicDiv'><img src='img/responseButtonOffersNo0_wht.png' class='respPic'></div><div class='trialDiv'><img src='Fruit/grapes.png'><br><font class='baseline'><strong>Great Grapes</strong><p><strong><font class='posOutcome'>You WON</font><p>You bet: 5</strong></font> &nbsp; &nbsp; &nbsp; &nbsp; &nbsp; &nbsp;<font class='posOutcome'>you receive: <strong>10</strong></font></div>","null","3","Great Grapes","Fruit/grapes.png","Won","0.65,0.35","11","0.65","57","8","",""
"html-keyboard-response","34","99565","0.0-11.0-1.8","5d5a48a67ca41f0001e97f8b","bdp_rwlrn","Sun Mar 12 2023 23:59:17 GMT-0400 (Eastern Daylight Time)","407271","Untrustworthy,Trustworthy","","1226","","","","decision","","<div class='trialDiv'><img src='Fruit/melon.png'><br><font class='baseline'><strong>Melon Millions</strong><p>Choose number of points to bet.</font><div class='respPicDiv'><img src='img/responseButtonOffersNo0L.png' class='respPic'></div></div>","3","3","Melon Millions","Fruit/melon.png","Won","0.8,0.35","8","0.8","62","9","",""
"html-keyboard-response","35","99817","0.0-11.0-2.8","5d5a48a67ca41f0001e97f8b","bdp_rwlrn","Sun Mar 12 2023 23:59:17 GMT-0400 (Eastern Daylight Time)","407271","Untrustworthy,Trustworthy","","null","","","","decisionFB","","<div class='trialDiv'><img src='Fruit/melon.png'><br><font class='baseline'><strong>Melon Millions</strong><p>Choose number of points to bet.</font><div class='respPicDiv'><img src='img/responseButtonOffersNo0L3.png' class='respPic'></div></div>","null","3","Melon Millions","Fruit/melon.png","Won","0.8,0.35","8","0.8","59","9","",""
"html-keyboard-response","36","100819","0.0-11.0-3.8","5d5a48a67ca41f0001e97f8b","bdp_rwlrn","Sun Mar 12 2023 23:59:17 GMT-0400 (Eastern Daylight Time)","407271","Untrustworthy,Trustworthy","","null","","","","feedback","","<div class='respPicDiv'><img src='img/responseButtonOffersNo0_wht.png' class='respPic'></div><div class='trialDiv'><img src='Fruit/melon.png'><br><font class='baseline'><strong>Melon Millions</strong><p><strong><font class='posOutcome'>You WON</font><p>You bet: 3</strong></font> &nbsp; &nbsp; &nbsp; &nbsp; &nbsp; &nbsp;<font class='posOutcome'>you receive: <strong>6</strong></font></div>","null","3","Melon Millions","Fruit/melon.png","Won","0.8,0.35","8","0.8","65","9","",""
"html-keyboard-response","37","101297","0.0-11.0-1.9","5d5a48a67ca41f0001e97f8b","bdp_rwlrn","Sun Mar 12 2023 23:59:17 GMT-0400 (Eastern Daylight Time)","407271","Untrustworthy,Trustworthy","","476","","","","decision","","<div class='trialDiv'><img src='Fruit/pineapple.png'><br><font class='baseline'><strong>Primo Pineapple</strong><p>Choose number of points to bet.</font><div class='respPicDiv'><img src='img/responseButtonOffersNo0L.png' class='respPic'></div></div>","1","4","Primo Pineapple","Fruit/pineapple.png","Won","0.35,0.8","11","0.35","70","10","",""
"html-keyboard-response","38","101550","0.0-11.0-2.9","5d5a48a67ca41f0001e97f8b","bdp_rwlrn","Sun Mar 12 2023 23:59:17 GMT-0400 (Eastern Daylight Time)","407271","Untrustworthy,Trustworthy","","null","","","","decisionFB","","<div class='trialDiv'><img src='Fruit/pineapple.png'><br><font class='baseline'><strong>Primo Pineapple</strong><p>Choose number of points to bet.</font><div class='respPicDiv'><img src='img/responseButtonOffersNo0L1.png' class='respPic'></div></div>","null","4","Primo Pineapple","Fruit/pineapple.png","Won","0.35,0.8","11","0.35","69","10","",""
"html-keyboard-response","39","102553","0.0-11.0-3.9","5d5a48a67ca41f0001e97f8b","bdp_rwlrn","Sun Mar 12 2023 23:59:17 GMT-0400 (Eastern Daylight Time)","407271","Untrustworthy,Trustworthy","","null","","","","feedback","","<div class='respPicDiv'><img src='img/responseButtonOffersNo0_wht.png' class='respPic'></div><div class='trialDiv'><img src='Fruit/pineapple.png'><br><font class='baseline'><strong>Primo Pineapple</strong><p><strong><font class='posOutcome'>You WON</font><p>You bet: 1</strong></font> &nbsp; &nbsp; &nbsp; &nbsp; &nbsp; &nbsp;<font class='posOutcome'>you receive: <strong>2</strong></font></div>","null","4","Primo Pineapple","Fruit/pineapple.png","Won","0.35,0.8","11","0.35","71","10","",""
"html-keyboard-response","40","103440","0.0-11.0-1.10","5d5a48a67ca41f0001e97f8b","bdp_rwlrn","Sun Mar 12 2023 23:59:17 GMT-0400 (Eastern Daylight Time)","407271","Untrustworthy,Trustworthy","","886","","","","decision","","<div class='trialDiv'><img src='Fruit/melon.png'><br><font class='baseline'><strong>Melon Millions</strong><p>Choose number of points to bet.</font><div class='respPicDiv'><img src='img/responseButtonOffersNo0L.png' class='respPic'></div></div>","3","4","Melon Millions","Fruit/melon.png","Lost","0.8,0.35","8","0.8","76","11","",""
"html-keyboard-response","41","103692","0.0-11.0-2.10","5d5a48a67ca41f0001e97f8b","bdp_rwlrn","Sun Mar 12 2023 23:59:17 GMT-0400 (Eastern Daylight Time)","407271","Untrustworthy,Trustworthy","","null","","","","decisionFB","","<div class='trialDiv'><img src='Fruit/melon.png'><br><font class='baseline'><strong>Melon Millions</strong><p>Choose number of points to bet.</font><div class='respPicDiv'><img src='img/responseButtonOffersNo0L3.png' class='respPic'></div></div>","null","4","Melon Millions","Fruit/melon.png","Lost","0.8,0.35","8","0.8","73","11","",""
"html-keyboard-response","42","104693","0.0-11.0-3.10","5d5a48a67ca41f0001e97f8b","bdp_rwlrn","Sun Mar 12 2023 23:59:17 GMT-0400 (Eastern Daylight Time)","407271","Untrustworthy,Trustworthy","","null","","","","feedback","","<div class='respPicDiv'><img src='img/responseButtonOffersNo0_wht.png' class='respPic'></div><div class='trialDiv'><img src='Fruit/melon.png'><br><font class='baseline'><strong>Melon Millions</strong><p><strong><font class='negOutcome'>You LOST</font><p>You bet: 3</strong></font> &nbsp; &nbsp; &nbsp; &nbsp; &nbsp; &nbsp;<font class='negOutcome'>You receive: <strong>0</strong></font></div>","null","4","Melon Millions","Fruit/melon.png","Lost","0.8,0.35","8","0.8","73","11","",""
"html-keyboard-response","43","105901","0.0-11.0-1.11","5d5a48a67ca41f0001e97f8b","bdp_rwlrn","Sun Mar 12 2023 23:59:17 GMT-0400 (Eastern Daylight Time)","407271","Untrustworthy,Trustworthy","","1206","","","","decision","","<div class='trialDiv'><img src='Fruit/grapes.png'><br><font class='baseline'><strong>Great Grapes</strong><p>Choose number of points to bet.</font><div class='respPicDiv'><img src='img/responseButtonOffersNo0L.png' class='respPic'></div></div>","2","4","Great Grapes","Fruit/grapes.png","Lost","0.65,0.35","11","0.65","78","12","",""
"html-keyboard-response","44","106153","0.0-11.0-2.11","5d5a48a67ca41f0001e97f8b","bdp_rwlrn","Sun Mar 12 2023 23:59:17 GMT-0400 (Eastern Daylight Time)","407271","Untrustworthy,Trustworthy","","null","","","","decisionFB","","<div class='trialDiv'><img src='Fruit/grapes.png'><br><font class='baseline'><strong>Great Grapes</strong><p>Choose number of points to bet.</font><div class='respPicDiv'><img src='img/responseButtonOffersNo0L2.png' class='respPic'></div></div>","null","4","Great Grapes","Fruit/grapes.png","Lost","0.65,0.35","11","0.65","76","12","",""
"html-keyboard-response","45","107155","0.0-11.0-3.11","5d5a48a67ca41f0001e97f8b","bdp_rwlrn","Sun Mar 12 2023 23:59:17 GMT-0400 (Eastern Daylight Time)","407271","Untrustworthy,Trustworthy","","null","","","","feedback","","<div class='respPicDiv'><img src='img/responseButtonOffersNo0_wht.png' class='respPic'></div><div class='trialDiv'><img src='Fruit/grapes.png'><br><font class='baseline'><strong>Great Grapes</strong><p><strong><font class='negOutcome'>You LOST</font><p>You bet: 2</strong></font> &nbsp; &nbsp; &nbsp; &nbsp; &nbsp; &nbsp;<font class='negOutcome'>You receive: <strong>0</strong></font></div>","null","4","Great Grapes","Fruit/grapes.png","Lost","0.65,0.35","11","0.65","76","12","",""
"html-keyboard-response","46","107907","0.0-11.0-1.12","5d5a48a67ca41f0001e97f8b","bdp_rwlrn","Sun Mar 12 2023 23:59:17 GMT-0400 (Eastern Daylight Time)","407271","Untrustworthy,Trustworthy","","751","","","","decision","","<div class='trialDiv'><img src='Fruit/pineapple.png'><br><font class='baseline'><strong>Primo Pineapple</strong><p>Choose number of points to bet.</font><div class='respPicDiv'><img src='img/responseButtonOffersNo0L.png' class='respPic'></div></div>","5","5","Primo Pineapple","Fruit/pineapple.png","Won","0.35,0.8","11","0.35","81","13","",""
"html-keyboard-response","47","108159","0.0-11.0-2.12","5d5a48a67ca41f0001e97f8b","bdp_rwlrn","Sun Mar 12 2023 23:59:17 GMT-0400 (Eastern Daylight Time)","407271","Untrustworthy,Trustworthy","","null","","","","decisionFB","","<div class='trialDiv'><img src='Fruit/pineapple.png'><br><font class='baseline'><strong>Primo Pineapple</strong><p>Choose number of points to bet.</font><div class='respPicDiv'><img src='img/responseButtonOffersNo0L5.png' class='respPic'></div></div>","null","5","Primo Pineapple","Fruit/pineapple.png","Won","0.35,0.8","11","0.35","76","13","",""
"html-keyboard-response","48","109160","0.0-11.0-3.12","5d5a48a67ca41f0001e97f8b","bdp_rwlrn","Sun Mar 12 2023 23:59:17 GMT-0400 (Eastern Daylight Time)","407271","Untrustworthy,Trustworthy","","null","","","","feedback","","<div class='respPicDiv'><img src='img/responseButtonOffersNo0_wht.png' class='respPic'></div><div class='trialDiv'><img src='Fruit/pineapple.png'><br><font class='baseline'><strong>Primo Pineapple</strong><p><strong><font class='posOutcome'>You WON</font><p>You bet: 5</strong></font> &nbsp; &nbsp; &nbsp; &nbsp; &nbsp; &nbsp;<font class='posOutcome'>you receive: <strong>10</strong></font></div>","null","5","Primo Pineapple","Fruit/pineapple.png","Won","0.35,0.8","11","0.35","86","13","",""
"html-keyboard-response","49","110552","0.0-11.0-1.13","5d5a48a67ca41f0001e97f8b","bdp_rwlrn","Sun Mar 12 2023 23:59:17 GMT-0400 (Eastern Daylight Time)","407271","Untrustworthy,Trustworthy","","1391","","","","decision","","<div class='trialDiv'><img src='Fruit/melon.png'><br><font class='baseline'><strong>Melon Millions</strong><p>Choose number of points to bet.</font><div class='respPicDiv'><img src='img/responseButtonOffersNo0L.png' class='respPic'></div></div>","3","5","Melon Millions","Fruit/melon.png","Won","0.8,0.35","8","0.8","91","14","",""
"html-keyboard-response","50","110804","0.0-11.0-2.13","5d5a48a67ca41f0001e97f8b","bdp_rwlrn","Sun Mar 12 2023 23:59:17 GMT-0400 (Eastern Daylight Time)","407271","Untrustworthy,Trustworthy","","null","","","","decisionFB","","<div class='trialDiv'><img src='Fruit/melon.png'><br><font class='baseline'><strong>Melon Millions</strong><p>Choose number of points to bet.</font><div class='respPicDiv'><img src='img/responseButtonOffersNo0L3.png' class='respPic'></div></div>","null","5","Melon Millions","Fruit/melon.png","Won","0.8,0.35","8","0.8","88","14","",""
"html-keyboard-response","51","111806","0.0-11.0-3.13","5d5a48a67ca41f0001e97f8b","bdp_rwlrn","Sun Mar 12 2023 23:59:17 GMT-0400 (Eastern Daylight Time)","407271","Untrustworthy,Trustworthy","","null","","","","feedback","","<div class='respPicDiv'><img src='img/responseButtonOffersNo0_wht.png' class='respPic'></div><div class='trialDiv'><img src='Fruit/melon.png'><br><font class='baseline'><strong>Melon Millions</strong><p><strong><font class='posOutcome'>You WON</font><p>You bet: 3</strong></font> &nbsp; &nbsp; &nbsp; &nbsp; &nbsp; &nbsp;<font class='posOutcome'>you receive: <strong>6</strong></font></div>","null","5","Melon Millions","Fruit/melon.png","Won","0.8,0.35","8","0.8","94","14","",""
"html-keyboard-response","52","112792","0.0-11.0-1.14","5d5a48a67ca41f0001e97f8b","bdp_rwlrn","Sun Mar 12 2023 23:59:17 GMT-0400 (Eastern Daylight Time)","407271","Untrustworthy,Trustworthy","","984","","","","decision","","<div class='trialDiv'><img src='Fruit/grapes.png'><br><font class='baseline'><strong>Great Grapes</strong><p>Choose number of points to bet.</font><div class='respPicDiv'><img src='img/responseButtonOffersNo0L.png' class='respPic'></div></div>","4","5","Great Grapes","Fruit/grapes.png","Won","0.65,0.35","11","0.65","99","15","",""
"html-keyboard-response","53","113044","0.0-11.0-2.14","5d5a48a67ca41f0001e97f8b","bdp_rwlrn","Sun Mar 12 2023 23:59:17 GMT-0400 (Eastern Daylight Time)","407271","Untrustworthy,Trustworthy","","null","","","","decisionFB","","<div class='trialDiv'><img src='Fruit/grapes.png'><br><font class='baseline'><strong>Great Grapes</strong><p>Choose number of points to bet.</font><div class='respPicDiv'><img src='img/responseButtonOffersNo0L4.png' class='respPic'></div></div>","null","5","Great Grapes","Fruit/grapes.png","Won","0.65,0.35","11","0.65","95","15","",""
"html-keyboard-response","54","114046","0.0-11.0-3.14","5d5a48a67ca41f0001e97f8b","bdp_rwlrn","Sun Mar 12 2023 23:59:17 GMT-0400 (Eastern Daylight Time)","407271","Untrustworthy,Trustworthy","","null","","","","feedback","","<div class='respPicDiv'><img src='img/responseButtonOffersNo0_wht.png' class='respPic'></div><div class='trialDiv'><img src='Fruit/grapes.png'><br><font class='baseline'><strong>Great Grapes</strong><p><strong><font class='posOutcome'>You WON</font><p>You bet: 4</strong></font> &nbsp; &nbsp; &nbsp; &nbsp; &nbsp; &nbsp;<font class='posOutcome'>you receive: <strong>8</strong></font></div>","null","5","Great Grapes","Fruit/grapes.png","Won","0.65,0.35","11","0.65","103","15","",""
"html-keyboard-response","55","116676","0.0-11.0-1.15","5d5a48a67ca41f0001e97f8b","bdp_rwlrn","Sun Mar 12 2023 23:59:17 GMT-0400 (Eastern Daylight Time)","407271","Untrustworthy,Trustworthy","","2628","","","","decision","","<div class='trialDiv'><img src='Fruit/melon.png'><br><font class='baseline'><strong>Melon Millions</strong><p>Choose number of points to bet.</font><div class='respPicDiv'><img src='img/responseButtonOffersNo0L.png' class='respPic'></div></div>","1","6","Melon Millions","Fruit/melon.png","Lost","0.8,0.35","8","0.8","108","16","",""
"html-keyboard-response","56","116928","0.0-11.0-2.15","5d5a48a67ca41f0001e97f8b","bdp_rwlrn","Sun Mar 12 2023 23:59:17 GMT-0400 (Eastern Daylight Time)","407271","Untrustworthy,Trustworthy","","null","","","","decisionFB","","<div class='trialDiv'><img src='Fruit/melon.png'><br><font class='baseline'><strong>Melon Millions</strong><p>Choose number of points to bet.</font><div class='respPicDiv'><img src='img/responseButtonOffersNo0L1.png' class='respPic'></div></div>","null","6","Melon Millions","Fruit/melon.png","Lost","0.8,0.35","8","0.8","107","16","",""
"html-keyboard-response","57","117930","0.0-11.0-3.15","5d5a48a67ca41f0001e97f8b","bdp_rwlrn","Sun Mar 12 2023 23:59:17 GMT-0400 (Eastern Daylight Time)","407271","Untrustworthy,Trustworthy","","null","","","","feedback","","<div class='respPicDiv'><img src='img/responseButtonOffersNo0_wht.png' class='respPic'></div><div class='trialDiv'><img src='Fruit/melon.png'><br><font class='baseline'><strong>Melon Millions</strong><p><strong><font class='negOutcome'>You LOST</font><p>You bet: 1</strong></font> &nbsp; &nbsp; &nbsp; &nbsp; &nbsp; &nbsp;<font class='negOutcome'>You receive: <strong>0</strong></font></div>","null","6","Melon Millions","Fruit/melon.png","Lost","0.8,0.35","8","0.8","107","16","",""
"html-keyboard-response","58","118477","0.0-11.0-1.16","5d5a48a67ca41f0001e97f8b","bdp_rwlrn","Sun Mar 12 2023 23:59:17 GMT-0400 (Eastern Daylight Time)","407271","Untrustworthy,Trustworthy","","546","","","","decision","","<div class='trialDiv'><img src='Fruit/pineapple.png'><br><font class='baseline'><strong>Primo Pineapple</strong><p>Choose number of points to bet.</font><div class='respPicDiv'><img src='img/responseButtonOffersNo0L.png' class='respPic'></div></div>","1","6","Primo Pineapple","Fruit/pineapple.png","Lost","0.35,0.8","11","0.35","112","17","",""
"html-keyboard-response","59","118730","0.0-11.0-2.16","5d5a48a67ca41f0001e97f8b","bdp_rwlrn","Sun Mar 12 2023 23:59:17 GMT-0400 (Eastern Daylight Time)","407271","Untrustworthy,Trustworthy","","null","","","","decisionFB","","<div class='trialDiv'><img src='Fruit/pineapple.png'><br><font class='baseline'><strong>Primo Pineapple</strong><p>Choose number of points to bet.</font><div class='respPicDiv'><img src='img/responseButtonOffersNo0L1.png' class='respPic'></div></div>","null","6","Primo Pineapple","Fruit/pineapple.png","Lost","0.35,0.8","11","0.35","111","17","",""
"html-keyboard-response","60","119732","0.0-11.0-3.16","5d5a48a67ca41f0001e97f8b","bdp_rwlrn","Sun Mar 12 2023 23:59:17 GMT-0400 (Eastern Daylight Time)","407271","Untrustworthy,Trustworthy","","null","","","","feedback","","<div class='respPicDiv'><img src='img/responseButtonOffersNo0_wht.png' class='respPic'></div><div class='trialDiv'><img src='Fruit/pineapple.png'><br><font class='baseline'><strong>Primo Pineapple</strong><p><strong><font class='negOutcome'>You LOST</font><p>You bet: 1</strong></font> &nbsp; &nbsp; &nbsp; &nbsp; &nbsp; &nbsp;<font class='negOutcome'>You receive: <strong>0</strong></font></div>","null","6","Primo Pineapple","Fruit/pineapple.png","Lost","0.35,0.8","11","0.35","111","17","",""
"html-keyboard-response","61","120242","0.0-11.0-1.17","5d5a48a67ca41f0001e97f8b","bdp_rwlrn","Sun Mar 12 2023 23:59:17 GMT-0400 (Eastern Daylight Time)","407271","Untrustworthy,Trustworthy","","508","","","","decision","","<div class='trialDiv'><img src='Fruit/grapes.png'><br><font class='baseline'><strong>Great Grapes</strong><p>Choose number of points to bet.</font><div class='respPicDiv'><img src='img/responseButtonOffersNo0L.png' class='respPic'></div></div>","1","6","Great Grapes","Fruit/grapes.png","Won","0.65,0.35","11","0.65","116","18","",""
"html-keyboard-response","62","120493","0.0-11.0-2.17","5d5a48a67ca41f0001e97f8b","bdp_rwlrn","Sun Mar 12 2023 23:59:17 GMT-0400 (Eastern Daylight Time)","407271","Untrustworthy,Trustworthy","","null","","","","decisionFB","","<div class='trialDiv'><img src='Fruit/grapes.png'><br><font class='baseline'><strong>Great Grapes</strong><p>Choose number of points to bet.</font><div class='respPicDiv'><img src='img/responseButtonOffersNo0L1.png' class='respPic'></div></div>","null","6","Great Grapes","Fruit/grapes.png","Won","0.65,0.35","11","0.65","115","18","",""
"html-keyboard-response","63","121496","0.0-11.0-3.17","5d5a48a67ca41f0001e97f8b","bdp_rwlrn","Sun Mar 12 2023 23:59:17 GMT-0400 (Eastern Daylight Time)","407271","Untrustworthy,Trustworthy","","null","","","","feedback","","<div class='respPicDiv'><img src='img/responseButtonOffersNo0_wht.png' class='respPic'></div><div class='trialDiv'><img src='Fruit/grapes.png'><br><font class='baseline'><strong>Great Grapes</strong><p><strong><font class='posOutcome'>You WON</font><p>You bet: 1</strong></font> &nbsp; &nbsp; &nbsp; &nbsp; &nbsp; &nbsp;<font class='posOutcome'>you receive: <strong>2</strong></font></div>","null","6","Great Grapes","Fruit/grapes.png","Won","0.65,0.35","11","0.65","117","18","",""
"html-keyboard-response","64","122086","0.0-11.0-1.18","5d5a48a67ca41f0001e97f8b","bdp_rwlrn","Sun Mar 12 2023 23:59:17 GMT-0400 (Eastern Daylight Time)","407271","Untrustworthy,Trustworthy","","589","","","","decision","","<div class='trialDiv'><img src='Fruit/melon.png'><br><font class='baseline'><strong>Melon Millions</strong><p>Choose number of points to bet.</font><div class='respPicDiv'><img src='img/responseButtonOffersNo0L.png' class='respPic'></div></div>","5","7","Melon Millions","Fruit/melon.png","Lost","0.8,0.35","8","0.8","122","19","",""
"html-keyboard-response","65","122339","0.0-11.0-2.18","5d5a48a67ca41f0001e97f8b","bdp_rwlrn","Sun Mar 12 2023 23:59:17 GMT-0400 (Eastern Daylight Time)","407271","Untrustworthy,Trustworthy","","null","","","","decisionFB","","<div class='trialDiv'><img src='Fruit/melon.png'><br><font class='baseline'><strong>Melon Millions</strong><p>Choose number of points to bet.</font><div class='respPicDiv'><img src='img/responseButtonOffersNo0L5.png' class='respPic'></div></div>","null","7","Melon Millions","Fruit/melon.png","Lost","0.8,0.35","8","0.8","117","19","",""
"html-keyboard-response","66","123341","0.0-11.0-3.18","5d5a48a67ca41f0001e97f8b","bdp_rwlrn","Sun Mar 12 2023 23:59:17 GMT-0400 (Eastern Daylight Time)","407271","Untrustworthy,Trustworthy","","null","","","","feedback","","<div class='respPicDiv'><img src='img/responseButtonOffersNo0_wht.png' class='respPic'></div><div class='trialDiv'><img src='Fruit/melon.png'><br><font class='baseline'><strong>Melon Millions</strong><p><strong><font class='negOutcome'>You LOST</font><p>You bet: 5</strong></font> &nbsp; &nbsp; &nbsp; &nbsp; &nbsp; &nbsp;<font class='negOutcome'>You receive: <strong>0</strong></font></div>","null","7","Melon Millions","Fruit/melon.png","Lost","0.8,0.35","8","0.8","117","19","",""
"html-keyboard-response","67","124462","0.0-11.0-1.19","5d5a48a67ca41f0001e97f8b","bdp_rwlrn","Sun Mar 12 2023 23:59:17 GMT-0400 (Eastern Daylight Time)","407271","Untrustworthy,Trustworthy","","1120","","","","decision","","<div class='trialDiv'><img src='Fruit/pineapple.png'><br><font class='baseline'><strong>Primo Pineapple</strong><p>Choose number of points to bet.</font><div class='respPicDiv'><img src='img/responseButtonOffersNo0L.png' class='respPic'></div></div>","3","7","Primo Pineapple","Fruit/pineapple.png","Lost","0.35,0.8","11","0.35","122","20","",""
"html-keyboard-response","68","124714","0.0-11.0-2.19","5d5a48a67ca41f0001e97f8b","bdp_rwlrn","Sun Mar 12 2023 23:59:17 GMT-0400 (Eastern Daylight Time)","407271","Untrustworthy,Trustworthy","","null","","","","decisionFB","","<div class='trialDiv'><img src='Fruit/pineapple.png'><br><font class='baseline'><strong>Primo Pineapple</strong><p>Choose number of points to bet.</font><div class='respPicDiv'><img src='img/responseButtonOffersNo0L3.png' class='respPic'></div></div>","null","7","Primo Pineapple","Fruit/pineapple.png","Lost","0.35,0.8","11","0.35","119","20","",""
"html-keyboard-response","69","125715","0.0-11.0-3.19","5d5a48a67ca41f0001e97f8b","bdp_rwlrn","Sun Mar 12 2023 23:59:17 GMT-0400 (Eastern Daylight Time)","407271","Untrustworthy,Trustworthy","","null","","","","feedback","","<div class='respPicDiv'><img src='img/responseButtonOffersNo0_wht.png' class='respPic'></div><div class='trialDiv'><img src='Fruit/pineapple.png'><br><font class='baseline'><strong>Primo Pineapple</strong><p><strong><font class='negOutcome'>You LOST</font><p>You bet: 3</strong></font> &nbsp; &nbsp; &nbsp; &nbsp; &nbsp; &nbsp;<font class='negOutcome'>You receive: <strong>0</strong></font></div>","null","7","Primo Pineapple","Fruit/pineapple.png","Lost","0.35,0.8","11","0.35","119","20","",""
"html-keyboard-response","70","126624","0.0-11.0-1.20","5d5a48a67ca41f0001e97f8b","bdp_rwlrn","Sun Mar 12 2023 23:59:17 GMT-0400 (Eastern Daylight Time)","407271","Untrustworthy,Trustworthy","","906","","","","decision","","<div class='trialDiv'><img src='Fruit/grapes.png'><br><font class='baseline'><strong>Great Grapes</strong><p>Choose number of points to bet.</font><div class='respPicDiv'><img src='img/responseButtonOffersNo0L.png' class='respPic'></div></div>","2","7","Great Grapes","Fruit/grapes.png","Lost","0.65,0.35","11","0.65","124","21","",""
"html-keyboard-response","71","126875","0.0-11.0-2.20","5d5a48a67ca41f0001e97f8b","bdp_rwlrn","Sun Mar 12 2023 23:59:17 GMT-0400 (Eastern Daylight Time)","407271","Untrustworthy,Trustworthy","","null","","","","decisionFB","","<div class='trialDiv'><img src='Fruit/grapes.png'><br><font class='baseline'><strong>Great Grapes</strong><p>Choose number of points to bet.</font><div class='respPicDiv'><img src='img/responseButtonOffersNo0L2.png' class='respPic'></div></div>","null","7","Great Grapes","Fruit/grapes.png","Lost","0.65,0.35","11","0.65","122","21","",""
"html-keyboard-response","72","127877","0.0-11.0-3.20","5d5a48a67ca41f0001e97f8b","bdp_rwlrn","Sun Mar 12 2023 23:59:17 GMT-0400 (Eastern Daylight Time)","407271","Untrustworthy,Trustworthy","","null","","","","feedback","","<div class='respPicDiv'><img src='img/responseButtonOffersNo0_wht.png' class='respPic'></div><div class='trialDiv'><img src='Fruit/grapes.png'><br><font class='baseline'><strong>Great Grapes</strong><p><strong><font class='negOutcome'>You LOST</font><p>You bet: 2</strong></font> &nbsp; &nbsp; &nbsp; &nbsp; &nbsp; &nbsp;<font class='negOutcome'>You receive: <strong>0</strong></font></div>","null","7","Great Grapes","Fruit/grapes.png","Lost","0.65,0.35","11","0.65","122","21","",""
"html-keyboard-response","73","128502","0.0-11.0-1.21","5d5a48a67ca41f0001e97f8b","bdp_rwlrn","Sun Mar 12 2023 23:59:17 GMT-0400 (Eastern Daylight Time)","407271","Untrustworthy,Trustworthy","","623","","","","decision","","<div class='trialDiv'><img src='Fruit/melon.png'><br><font class='baseline'><strong>Melon Millions</strong><p>Choose number of points to bet.</font><div class='respPicDiv'><img src='img/responseButtonOffersNo0L.png' class='respPic'></div></div>","1","8","Melon Millions","Fruit/melon.png","Lost","0.8,0.35","8","0.8","127","22","",""
"html-keyboard-response","74","128754","0.0-11.0-2.21","5d5a48a67ca41f0001e97f8b","bdp_rwlrn","Sun Mar 12 2023 23:59:17 GMT-0400 (Eastern Daylight Time)","407271","Untrustworthy,Trustworthy","","null","","","","decisionFB","","<div class='trialDiv'><img src='Fruit/melon.png'><br><font class='baseline'><strong>Melon Millions</strong><p>Choose number of points to bet.</font><div class='respPicDiv'><img src='img/responseButtonOffersNo0L1.png' class='respPic'></div></div>","null","8","Melon Millions","Fruit/melon.png","Lost","0.8,0.35","8","0.8","126","22","",""
"html-keyboard-response","75","129756","0.0-11.0-3.21","5d5a48a67ca41f0001e97f8b","bdp_rwlrn","Sun Mar 12 2023 23:59:17 GMT-0400 (Eastern Daylight Time)","407271","Untrustworthy,Trustworthy","","null","","","","feedback","","<div class='respPicDiv'><img src='img/responseButtonOffersNo0_wht.png' class='respPic'></div><div class='trialDiv'><img src='Fruit/melon.png'><br><font class='baseline'><strong>Melon Millions</strong><p><strong><font class='negOutcome'>You LOST</font><p>You bet: 1</strong></font> &nbsp; &nbsp; &nbsp; &nbsp; &nbsp; &nbsp;<font class='negOutcome'>You receive: <strong>0</strong></font></div>","null","8","Melon Millions","Fruit/melon.png","Lost","0.8,0.35","8","0.8","126","22","",""
"html-keyboard-response","76","130609","0.0-11.0-1.22","5d5a48a67ca41f0001e97f8b","bdp_rwlrn","Sun Mar 12 2023 23:59:17 GMT-0400 (Eastern Daylight Time)","407271","Untrustworthy,Trustworthy","","852","","","","decision","","<div class='trialDiv'><img src='Fruit/grapes.png'><br><font class='baseline'><strong>Great Grapes</strong><p>Choose number of points to bet.</font><div class='respPicDiv'><img src='img/responseButtonOffersNo0L.png' class='respPic'></div></div>","1","8","Great Grapes","Fruit/grapes.png","Won","0.65,0.35","11","0.65","131","23","",""
"html-keyboard-response","77","130861","0.0-11.0-2.22","5d5a48a67ca41f0001e97f8b","bdp_rwlrn","Sun Mar 12 2023 23:59:17 GMT-0400 (Eastern Daylight Time)","407271","Untrustworthy,Trustworthy","","null","","","","decisionFB","","<div class='trialDiv'><img src='Fruit/grapes.png'><br><font class='baseline'><strong>Great Grapes</strong><p>Choose number of points to bet.</font><div class='respPicDiv'><img src='img/responseButtonOffersNo0L1.png' class='respPic'></div></div>","null","8","Great Grapes","Fruit/grapes.png","Won","0.65,0.35","11","0.65","130","23","",""
"html-keyboard-response","78","131864","0.0-11.0-3.22","5d5a48a67ca41f0001e97f8b","bdp_rwlrn","Sun Mar 12 2023 23:59:17 GMT-0400 (Eastern Daylight Time)","407271","Untrustworthy,Trustworthy","","null","","","","feedback","","<div class='respPicDiv'><img src='img/responseButtonOffersNo0_wht.png' class='respPic'></div><div class='trialDiv'><img src='Fruit/grapes.png'><br><font class='baseline'><strong>Great Grapes</strong><p><strong><font class='posOutcome'>You WON</font><p>You bet: 1</strong></font> &nbsp; &nbsp; &nbsp; &nbsp; &nbsp; &nbsp;<font class='posOutcome'>you receive: <strong>2</strong></font></div>","null","8","Great Grapes","Fruit/grapes.png","Won","0.65,0.35","11","0.65","132","23","",""
"html-keyboard-response","79","133012","0.0-11.0-1.23","5d5a48a67ca41f0001e97f8b","bdp_rwlrn","Sun Mar 12 2023 23:59:17 GMT-0400 (Eastern Daylight Time)","407271","Untrustworthy,Trustworthy","","1148","","","","decision","","<div class='trialDiv'><img src='Fruit/pineapple.png'><br><font class='baseline'><strong>Primo Pineapple</strong><p>Choose number of points to bet.</font><div class='respPicDiv'><img src='img/responseButtonOffersNo0L.png' class='respPic'></div></div>","2","8","Primo Pineapple","Fruit/pineapple.png","Won","0.35,0.8","11","0.35","137","24","",""
"html-keyboard-response","80","133264","0.0-11.0-2.23","5d5a48a67ca41f0001e97f8b","bdp_rwlrn","Sun Mar 12 2023 23:59:17 GMT-0400 (Eastern Daylight Time)","407271","Untrustworthy,Trustworthy","","null","","","","decisionFB","","<div class='trialDiv'><img src='Fruit/pineapple.png'><br><font class='baseline'><strong>Primo Pineapple</strong><p>Choose number of points to bet.</font><div class='respPicDiv'><img src='img/responseButtonOffersNo0L2.png' class='respPic'></div></div>","null","8","Primo Pineapple","Fruit/pineapple.png","Won","0.35,0.8","11","0.35","135","24","",""
"html-keyboard-response","81","134266","0.0-11.0-3.23","5d5a48a67ca41f0001e97f8b","bdp_rwlrn","Sun Mar 12 2023 23:59:17 GMT-0400 (Eastern Daylight Time)","407271","Untrustworthy,Trustworthy","","null","","","","feedback","","<div class='respPicDiv'><img src='img/responseButtonOffersNo0_wht.png' class='respPic'></div><div class='trialDiv'><img src='Fruit/pineapple.png'><br><font class='baseline'><strong>Primo Pineapple</strong><p><strong><font class='posOutcome'>You WON</font><p>You bet: 2</strong></font> &nbsp; &nbsp; &nbsp; &nbsp; &nbsp; &nbsp;<font class='posOutcome'>you receive: <strong>4</strong></font></div>","null","8","Primo Pineapple","Fruit/pineapple.png","Won","0.35,0.8","11","0.35","139","24","",""
"html-keyboard-response","82","134680","0.0-11.0-1.24","5d5a48a67ca41f0001e97f8b","bdp_rwlrn","Sun Mar 12 2023 23:59:17 GMT-0400 (Eastern Daylight Time)","407271","Untrustworthy,Trustworthy","","412","","","","decision","","<div class='trialDiv'><img src='Fruit/grapes.png'><br><font class='baseline'><strong>Great Grapes</strong><p>Choose number of points to bet.</font><div class='respPicDiv'><img src='img/responseButtonOffersNo0L.png' class='respPic'></div></div>","5","9","Great Grapes","Fruit/grapes.png","Won","0.65,0.35","11","0.65","144","25","",""
"html-keyboard-response","83","134932","0.0-11.0-2.24","5d5a48a67ca41f0001e97f8b","bdp_rwlrn","Sun Mar 12 2023 23:59:17 GMT-0400 (Eastern Daylight Time)","407271","Untrustworthy,Trustworthy","","null","","","","decisionFB","","<div class='trialDiv'><img src='Fruit/grapes.png'><br><font class='baseline'><strong>Great Grapes</strong><p>Choose number of points to bet.</font><div class='respPicDiv'><img src='img/responseButtonOffersNo0L5.png' class='respPic'></div></div>","null","9","Great Grapes","Fruit/grapes.png","Won","0.65,0.35","11","0.65","139","25","",""
"html-keyboard-response","84","135933","0.0-11.0-3.24","5d5a48a67ca41f0001e97f8b","bdp_rwlrn","Sun Mar 12 2023 23:59:17 GMT-0400 (Eastern Daylight Time)","407271","Untrustworthy,Trustworthy","","null","","","","feedback","","<div class='respPicDiv'><img src='img/responseButtonOffersNo0_wht.png' class='respPic'></div><div class='trialDiv'><img src='Fruit/grapes.png'><br><font class='baseline'><strong>Great Grapes</strong><p><strong><font class='posOutcome'>You WON</font><p>You bet: 5</strong></font> &nbsp; &nbsp; &nbsp; &nbsp; &nbsp; &nbsp;<font class='posOutcome'>you receive: <strong>10</strong></font></div>","null","9","Great Grapes","Fruit/grapes.png","Won","0.65,0.35","11","0.65","149","25","",""
"html-keyboard-response","85","136948","0.0-11.0-1.25","5d5a48a67ca41f0001e97f8b","bdp_rwlrn","Sun Mar 12 2023 23:59:17 GMT-0400 (Eastern Daylight Time)","407271","Untrustworthy,Trustworthy","","1013","","","","decision","","<div class='trialDiv'><img src='Fruit/pineapple.png'><br><font class='baseline'><strong>Primo Pineapple</strong><p>Choose number of points to bet.</font><div class='respPicDiv'><img src='img/responseButtonOffersNo0L.png' class='respPic'></div></div>","2","9","Primo Pineapple","Fruit/pineapple.png","Won","0.35,0.8","11","0.35","154","26","",""
"html-keyboard-response","86","137200","0.0-11.0-2.25","5d5a48a67ca41f0001e97f8b","bdp_rwlrn","Sun Mar 12 2023 23:59:17 GMT-0400 (Eastern Daylight Time)","407271","Untrustworthy,Trustworthy","","null","","","","decisionFB","","<div class='trialDiv'><img src='Fruit/pineapple.png'><br><font class='baseline'><strong>Primo Pineapple</strong><p>Choose number of points to bet.</font><div class='respPicDiv'><img src='img/responseButtonOffersNo0L2.png' class='respPic'></div></div>","null","9","Primo Pineapple","Fruit/pineapple.png","Won","0.35,0.8","11","0.35","152","26","",""
"html-keyboard-response","87","138202","0.0-11.0-3.25","5d5a48a67ca41f0001e97f8b","bdp_rwlrn","Sun Mar 12 2023 23:59:17 GMT-0400 (Eastern Daylight Time)","407271","Untrustworthy,Trustworthy","","null","","","","feedback","","<div class='respPicDiv'><img src='img/responseButtonOffersNo0_wht.png' class='respPic'></div><div class='trialDiv'><img src='Fruit/pineapple.png'><br><font class='baseline'><strong>Primo Pineapple</strong><p><strong><font class='posOutcome'>You WON</font><p>You bet: 2</strong></font> &nbsp; &nbsp; &nbsp; &nbsp; &nbsp; &nbsp;<font class='posOutcome'>you receive: <strong>4</strong></font></div>","null","9","Primo Pineapple","Fruit/pineapple.png","Won","0.35,0.8","11","0.35","156","26","",""
"html-keyboard-response","88","138642","0.0-11.0-1.26","5d5a48a67ca41f0001e97f8b","bdp_rwlrn","Sun Mar 12 2023 23:59:17 GMT-0400 (Eastern Daylight Time)","407271","Untrustworthy,Trustworthy","","439","","","","decision","","<div class='trialDiv'><img src='Fruit/melon.png'><br><font class='baseline'><strong>Melon Millions</strong><p>Choose number of points to bet.</font><div class='respPicDiv'><img src='img/responseButtonOffersNo0L.png' class='respPic'></div></div>","1","9","Melon Millions","Fruit/melon.png","Lost","0.8,0.35","8","0.8","161","27","",""
"html-keyboard-response","89","138894","0.0-11.0-2.26","5d5a48a67ca41f0001e97f8b","bdp_rwlrn","Sun Mar 12 2023 23:59:17 GMT-0400 (Eastern Daylight Time)","407271","Untrustworthy,Trustworthy","","null","","","","decisionFB","","<div class='trialDiv'><img src='Fruit/melon.png'><br><font class='baseline'><strong>Melon Millions</strong><p>Choose number of points to bet.</font><div class='respPicDiv'><img src='img/responseButtonOffersNo0L1.png' class='respPic'></div></div>","null","9","Melon Millions","Fruit/melon.png","Lost","0.8,0.35","8","0.8","160","27","",""
"html-keyboard-response","90","139896","0.0-11.0-3.26","5d5a48a67ca41f0001e97f8b","bdp_rwlrn","Sun Mar 12 2023 23:59:17 GMT-0400 (Eastern Daylight Time)","407271","Untrustworthy,Trustworthy","","null","","","","feedback","","<div class='respPicDiv'><img src='img/responseButtonOffersNo0_wht.png' class='respPic'></div><div class='trialDiv'><img src='Fruit/melon.png'><br><font class='baseline'><strong>Melon Millions</strong><p><strong><font class='negOutcome'>You LOST</font><p>You bet: 1</strong></font> &nbsp; &nbsp; &nbsp; &nbsp; &nbsp; &nbsp;<font class='negOutcome'>You receive: <strong>0</strong></font></div>","null","9","Melon Millions","Fruit/melon.png","Lost","0.8,0.35","8","0.8","160","27","",""
"html-keyboard-response","91","140361","0.0-11.0-1.27","5d5a48a67ca41f0001e97f8b","bdp_rwlrn","Sun Mar 12 2023 23:59:17 GMT-0400 (Eastern Daylight Time)","407271","Untrustworthy,Trustworthy","","463","","","","decision","","<div class='trialDiv'><img src='Fruit/pineapple.png'><br><font class='baseline'><strong>Primo Pineapple</strong><p>Choose number of points to bet.</font><div class='respPicDiv'><img src='img/responseButtonOffersNo0L.png' class='respPic'></div></div>","1","10","Primo Pineapple","Fruit/pineapple.png","Lost","0.35,0.8","11","0.35","165","28","",""
"html-keyboard-response","92","140613","0.0-11.0-2.27","5d5a48a67ca41f0001e97f8b","bdp_rwlrn","Sun Mar 12 2023 23:59:17 GMT-0400 (Eastern Daylight Time)","407271","Untrustworthy,Trustworthy","","null","","","","decisionFB","","<div class='trialDiv'><img src='Fruit/pineapple.png'><br><font class='baseline'><strong>Primo Pineapple</strong><p>Choose number of points to bet.</font><div class='respPicDiv'><img src='img/responseButtonOffersNo0L1.png' class='respPic'></div></div>","null","10","Primo Pineapple","Fruit/pineapple.png","Lost","0.35,0.8","11","0.35","164","28","",""
"html-keyboard-response","93","141615","0.0-11.0-3.27","5d5a48a67ca41f0001e97f8b","bdp_rwlrn","Sun Mar 12 2023 23:59:17 GMT-0400 (Eastern Daylight Time)","407271","Untrustworthy,Trustworthy","","null","","","","feedback","","<div class='respPicDiv'><img src='img/responseButtonOffersNo0_wht.png' class='respPic'></div><div class='trialDiv'><img src='Fruit/pineapple.png'><br><font class='baseline'><strong>Primo Pineapple</strong><p><strong><font class='negOutcome'>You LOST</font><p>You bet: 1</strong></font> &nbsp; &nbsp; &nbsp; &nbsp; &nbsp; &nbsp;<font class='negOutcome'>You receive: <strong>0</strong></font></div>","null","10","Primo Pineapple","Fruit/pineapple.png","Lost","0.35,0.8","11","0.35","164","28","",""
"html-keyboard-response","94","142438","0.0-11.0-1.28","5d5a48a67ca41f0001e97f8b","bdp_rwlrn","Sun Mar 12 2023 23:59:17 GMT-0400 (Eastern Daylight Time)","407271","Untrustworthy,Trustworthy","","821","","","","decision","","<div class='trialDiv'><img src='Fruit/melon.png'><br><font class='baseline'><strong>Melon Millions</strong><p>Choose number of points to bet.</font><div class='respPicDiv'><img src='img/responseButtonOffersNo0L.png' class='respPic'></div></div>","5","10","Melon Millions","Fruit/melon.png","Won","0.8,0.35","8","0.8","169","29","",""
"html-keyboard-response","95","142690","0.0-11.0-2.28","5d5a48a67ca41f0001e97f8b","bdp_rwlrn","Sun Mar 12 2023 23:59:17 GMT-0400 (Eastern Daylight Time)","407271","Untrustworthy,Trustworthy","","null","","","","decisionFB","","<div class='trialDiv'><img src='Fruit/melon.png'><br><font class='baseline'><strong>Melon Millions</strong><p>Choose number of points to bet.</font><div class='respPicDiv'><img src='img/responseButtonOffersNo0L5.png' class='respPic'></div></div>","null","10","Melon Millions","Fruit/melon.png","Won","0.8,0.35","8","0.8","164","29","",""
"html-keyboard-response","96","143692","0.0-11.0-3.28","5d5a48a67ca41f0001e97f8b","bdp_rwlrn","Sun Mar 12 2023 23:59:17 GMT-0400 (Eastern Daylight Time)","407271","Untrustworthy,Trustworthy","","null","","","","feedback","","<div class='respPicDiv'><img src='img/responseButtonOffersNo0_wht.png' class='respPic'></div><div class='trialDiv'><img src='Fruit/melon.png'><br><font class='baseline'><strong>Melon Millions</strong><p><strong><font class='posOutcome'>You WON</font><p>You bet: 5</strong></font> &nbsp; &nbsp; &nbsp; &nbsp; &nbsp; &nbsp;<font class='posOutcome'>you receive: <strong>10</strong></font></div>","null","10","Melon Millions","Fruit/melon.png","Won","0.8,0.35","8","0.8","174","29","",""
"html-keyboard-response","97","144671","0.0-11.0-1.29","5d5a48a67ca41f0001e97f8b","bdp_rwlrn","Sun Mar 12 2023 23:59:17 GMT-0400 (Eastern Daylight Time)","407271","Untrustworthy,Trustworthy","","978","","","","decision","","<div class='trialDiv'><img src='Fruit/grapes.png'><br><font class='baseline'><strong>Great Grapes</strong><p>Choose number of points to bet.</font><div class='respPicDiv'><img src='img/responseButtonOffersNo0L.png' class='respPic'></div></div>","2","10","Great Grapes","Fruit/grapes.png","Won","0.65,0.35","11","0.65","179","30","",""
"html-keyboard-response","98","144923","0.0-11.0-2.29","5d5a48a67ca41f0001e97f8b","bdp_rwlrn","Sun Mar 12 2023 23:59:17 GMT-0400 (Eastern Daylight Time)","407271","Untrustworthy,Trustworthy","","null","","","","decisionFB","","<div class='trialDiv'><img src='Fruit/grapes.png'><br><font class='baseline'><strong>Great Grapes</strong><p>Choose number of points to bet.</font><div class='respPicDiv'><img src='img/responseButtonOffersNo0L2.png' class='respPic'></div></div>","null","10","Great Grapes","Fruit/grapes.png","Won","0.65,0.35","11","0.65","177","30","",""
"html-keyboard-response","99","145925","0.0-11.0-3.29","5d5a48a67ca41f0001e97f8b","bdp_rwlrn","Sun Mar 12 2023 23:59:17 GMT-0400 (Eastern Daylight Time)","407271","Untrustworthy,Trustworthy","","null","","","","feedback","","<div class='respPicDiv'><img src='img/responseButtonOffersNo0_wht.png' class='respPic'></div><div class='trialDiv'><img src='Fruit/grapes.png'><br><font class='baseline'><strong>Great Grapes</strong><p><strong><font class='posOutcome'>You WON</font><p>You bet: 2</strong></font> &nbsp; &nbsp; &nbsp; &nbsp; &nbsp; &nbsp;<font class='posOutcome'>you receive: <strong>4</strong></font></div>","null","10","Great Grapes","Fruit/grapes.png","Won","0.65,0.35","11","0.65","181","30","",""
"html-keyboard-response","100","147212","0.0-11.0-1.30","5d5a48a67ca41f0001e97f8b","bdp_rwlrn","Sun Mar 12 2023 23:59:17 GMT-0400 (Eastern Daylight Time)","407271","Untrustworthy,Trustworthy","","1286","","","","decision","","<div class='trialDiv'><img src='Fruit/pineapple.png'><br><font class='baseline'><strong>Primo Pineapple</strong><p>Choose number of points to bet.</font><div class='respPicDiv'><img src='img/responseButtonOffersNo0L.png' class='respPic'></div></div>","1","11","Primo Pineapple","Fruit/pineapple.png","Lost","0.35,0.8","11","0.35","186","31","",""
"html-keyboard-response","101","147464","0.0-11.0-2.30","5d5a48a67ca41f0001e97f8b","bdp_rwlrn","Sun Mar 12 2023 23:59:17 GMT-0400 (Eastern Daylight Time)","407271","Untrustworthy,Trustworthy","","null","","","","decisionFB","","<div class='trialDiv'><img src='Fruit/pineapple.png'><br><font class='baseline'><strong>Primo Pineapple</strong><p>Choose number of points to bet.</font><div class='respPicDiv'><img src='img/responseButtonOffersNo0L1.png' class='respPic'></div></div>","null","11","Primo Pineapple","Fruit/pineapple.png","Lost","0.35,0.8","11","0.35","185","31","",""
"html-keyboard-response","102","148466","0.0-11.0-3.30","5d5a48a67ca41f0001e97f8b","bdp_rwlrn","Sun Mar 12 2023 23:59:17 GMT-0400 (Eastern Daylight Time)","407271","Untrustworthy,Trustworthy","","null","","","","feedback","","<div class='respPicDiv'><img src='img/responseButtonOffersNo0_wht.png' class='respPic'></div><div class='trialDiv'><img src='Fruit/pineapple.png'><br><font class='baseline'><strong>Primo Pineapple</strong><p><strong><font class='negOutcome'>You LOST</font><p>You bet: 1</strong></font> &nbsp; &nbsp; &nbsp; &nbsp; &nbsp; &nbsp;<font class='negOutcome'>You receive: <strong>0</strong></font></div>","null","11","Primo Pineapple","Fruit/pineapple.png","Lost","0.35,0.8","11","0.35","185","31","",""
"html-keyboard-response","103","148816","0.0-11.0-1.31","5d5a48a67ca41f0001e97f8b","bdp_rwlrn","Sun Mar 12 2023 23:59:17 GMT-0400 (Eastern Daylight Time)","407271","Untrustworthy,Trustworthy","","349","","","","decision","","<div class='trialDiv'><img src='Fruit/melon.png'><br><font class='baseline'><strong>Melon Millions</strong><p>Choose number of points to bet.</font><div class='respPicDiv'><img src='img/responseButtonOffersNo0L.png' class='respPic'></div></div>","1","11","Melon Millions","Fruit/melon.png","Lost","0.8,0.35","8","0.8","190","32","",""
"html-keyboard-response","104","149069","0.0-11.0-2.31","5d5a48a67ca41f0001e97f8b","bdp_rwlrn","Sun Mar 12 2023 23:59:17 GMT-0400 (Eastern Daylight Time)","407271","Untrustworthy,Trustworthy","","null","","","","decisionFB","","<div class='trialDiv'><img src='Fruit/melon.png'><br><font class='baseline'><strong>Melon Millions</strong><p>Choose number of points to bet.</font><div class='respPicDiv'><img src='img/responseButtonOffersNo0L1.png' class='respPic'></div></div>","null","11","Melon Millions","Fruit/melon.png","Lost","0.8,0.35","8","0.8","189","32","",""
"html-keyboard-response","105","150071","0.0-11.0-3.31","5d5a48a67ca41f0001e97f8b","bdp_rwlrn","Sun Mar 12 2023 23:59:17 GMT-0400 (Eastern Daylight Time)","407271","Untrustworthy,Trustworthy","","null","","","","feedback","","<div class='respPicDiv'><img src='img/responseButtonOffersNo0_wht.png' class='respPic'></div><div class='trialDiv'><img src='Fruit/melon.png'><br><font class='baseline'><strong>Melon Millions</strong><p><strong><font class='negOutcome'>You LOST</font><p>You bet: 1</strong></font> &nbsp; &nbsp; &nbsp; &nbsp; &nbsp; &nbsp;<font class='negOutcome'>You receive: <strong>0</strong></font></div>","null","11","Melon Millions","Fruit/melon.png","Lost","0.8,0.35","8","0.8","189","32","",""
"html-keyboard-response","106","150386","0.0-11.0-1.32","5d5a48a67ca41f0001e97f8b","bdp_rwlrn","Sun Mar 12 2023 23:59:17 GMT-0400 (Eastern Daylight Time)","407271","Untrustworthy,Trustworthy","","314","","","","decision","","<div class='trialDiv'><img src='Fruit/grapes.png'><br><font class='baseline'><strong>Great Grapes</strong><p>Choose number of points to bet.</font><div class='respPicDiv'><img src='img/responseButtonOffersNo0L.png' class='respPic'></div></div>","1","11","Great Grapes","Fruit/grapes.png","Lost","0.65,0.35","11","0.65","194","33","",""
"html-keyboard-response","107","150639","0.0-11.0-2.32","5d5a48a67ca41f0001e97f8b","bdp_rwlrn","Sun Mar 12 2023 23:59:17 GMT-0400 (Eastern Daylight Time)","407271","Untrustworthy,Trustworthy","","null","","","","decisionFB","","<div class='trialDiv'><img src='Fruit/grapes.png'><br><font class='baseline'><strong>Great Grapes</strong><p>Choose number of points to bet.</font><div class='respPicDiv'><img src='img/responseButtonOffersNo0L1.png' class='respPic'></div></div>","null","11","Great Grapes","Fruit/grapes.png","Lost","0.65,0.35","11","0.65","193","33","",""
"html-keyboard-response","108","151641","0.0-11.0-3.32","5d5a48a67ca41f0001e97f8b","bdp_rwlrn","Sun Mar 12 2023 23:59:17 GMT-0400 (Eastern Daylight Time)","407271","Untrustworthy,Trustworthy","","null","","","","feedback","","<div class='respPicDiv'><img src='img/responseButtonOffersNo0_wht.png' class='respPic'></div><div class='trialDiv'><img src='Fruit/grapes.png'><br><font class='baseline'><strong>Great Grapes</strong><p><strong><font class='negOutcome'>You LOST</font><p>You bet: 1</strong></font> &nbsp; &nbsp; &nbsp; &nbsp; &nbsp; &nbsp;<font class='negOutcome'>You receive: <strong>0</strong></font></div>","null","11","Great Grapes","Fruit/grapes.png","Lost","0.65,0.35","11","0.65","193","33","",""
"html-keyboard-response","109","152404","0.0-11.0-1.33","5d5a48a67ca41f0001e97f8b","bdp_rwlrn","Sun Mar 12 2023 23:59:17 GMT-0400 (Eastern Daylight Time)","407271","Untrustworthy,Trustworthy","","762","","","","decision","","<div class='trialDiv'><img src='Fruit/melon.png'><br><font class='baseline'><strong>Melon Millions</strong><p>Choose number of points to bet.</font><div class='respPicDiv'><img src='img/responseButtonOffersNo0L.png' class='respPic'></div></div>","5","12","Melon Millions","Fruit/melon.png","Won","0.8,0.35","8","0.8","198","34","",""
"html-keyboard-response","110","152656","0.0-11.0-2.33","5d5a48a67ca41f0001e97f8b","bdp_rwlrn","Sun Mar 12 2023 23:59:17 GMT-0400 (Eastern Daylight Time)","407271","Untrustworthy,Trustworthy","","null","","","","decisionFB","","<div class='trialDiv'><img src='Fruit/melon.png'><br><font class='baseline'><strong>Melon Millions</strong><p>Choose number of points to bet.</font><div class='respPicDiv'><img src='img/responseButtonOffersNo0L5.png' class='respPic'></div></div>","null","12","Melon Millions","Fruit/melon.png","Won","0.8,0.35","8","0.8","193","34","",""
"html-keyboard-response","111","153658","0.0-11.0-3.33","5d5a48a67ca41f0001e97f8b","bdp_rwlrn","Sun Mar 12 2023 23:59:17 GMT-0400 (Eastern Daylight Time)","407271","Untrustworthy,Trustworthy","","null","","","","feedback","","<div class='respPicDiv'><img src='img/responseButtonOffersNo0_wht.png' class='respPic'></div><div class='trialDiv'><img src='Fruit/melon.png'><br><font class='baseline'><strong>Melon Millions</strong><p><strong><font class='posOutcome'>You WON</font><p>You bet: 5</strong></font> &nbsp; &nbsp; &nbsp; &nbsp; &nbsp; &nbsp;<font class='posOutcome'>you receive: <strong>10</strong></font></div>","null","12","Melon Millions","Fruit/melon.png","Won","0.8,0.35","8","0.8","203","34","",""
"html-keyboard-response","112","154003","0.0-11.0-1.34","5d5a48a67ca41f0001e97f8b","bdp_rwlrn","Sun Mar 12 2023 23:59:17 GMT-0400 (Eastern Daylight Time)","407271","Untrustworthy,Trustworthy","","344","","","","decision","","<div class='trialDiv'><img src='Fruit/grapes.png'><br><font class='baseline'><strong>Great Grapes</strong><p>Choose number of points to bet.</font><div class='respPicDiv'><img src='img/responseButtonOffersNo0L.png' class='respPic'></div></div>","5","12","Great Grapes","Fruit/grapes.png","Lost","0.65,0.35","11","0.65","208","35","",""
"html-keyboard-response","113","154256","0.0-11.0-2.34","5d5a48a67ca41f0001e97f8b","bdp_rwlrn","Sun Mar 12 2023 23:59:17 GMT-0400 (Eastern Daylight Time)","407271","Untrustworthy,Trustworthy","","null","","","","decisionFB","","<div class='trialDiv'><img src='Fruit/grapes.png'><br><font class='baseline'><strong>Great Grapes</strong><p>Choose number of points to bet.</font><div class='respPicDiv'><img src='img/responseButtonOffersNo0L5.png' class='respPic'></div></div>","null","12","Great Grapes","Fruit/grapes.png","Lost","0.65,0.35","11","0.65","203","35","",""
"html-keyboard-response","114","155259","0.0-11.0-3.34","5d5a48a67ca41f0001e97f8b","bdp_rwlrn","Sun Mar 12 2023 23:59:17 GMT-0400 (Eastern Daylight Time)","407271","Untrustworthy,Trustworthy","","null","","","","feedback","","<div class='respPicDiv'><img src='img/responseButtonOffersNo0_wht.png' class='respPic'></div><div class='trialDiv'><img src='Fruit/grapes.png'><br><font class='baseline'><strong>Great Grapes</strong><p><strong><font class='negOutcome'>You LOST</font><p>You bet: 5</strong></font> &nbsp; &nbsp; &nbsp; &nbsp; &nbsp; &nbsp;<font class='negOutcome'>You receive: <strong>0</strong></font></div>","null","12","Great Grapes","Fruit/grapes.png","Lost","0.65,0.35","11","0.65","203","35","",""
"html-keyboard-response","115","155568","0.0-11.0-1.35","5d5a48a67ca41f0001e97f8b","bdp_rwlrn","Sun Mar 12 2023 23:59:17 GMT-0400 (Eastern Daylight Time)","407271","Untrustworthy,Trustworthy","","308","","","","decision","","<div class='trialDiv'><img src='Fruit/pineapple.png'><br><font class='baseline'><strong>Primo Pineapple</strong><p>Choose number of points to bet.</font><div class='respPicDiv'><img src='img/responseButtonOffersNo0L.png' class='respPic'></div></div>","5","12","Primo Pineapple","Fruit/pineapple.png","Won","0.35,0.8","11","0.35","208","36","",""
"html-keyboard-response","116","155819","0.0-11.0-2.35","5d5a48a67ca41f0001e97f8b","bdp_rwlrn","Sun Mar 12 2023 23:59:17 GMT-0400 (Eastern Daylight Time)","407271","Untrustworthy,Trustworthy","","null","","","","decisionFB","","<div class='trialDiv'><img src='Fruit/pineapple.png'><br><font class='baseline'><strong>Primo Pineapple</strong><p>Choose number of points to bet.</font><div class='respPicDiv'><img src='img/responseButtonOffersNo0L5.png' class='respPic'></div></div>","null","12","Primo Pineapple","Fruit/pineapple.png","Won","0.35,0.8","11","0.35","203","36","",""
"html-keyboard-response","117","156822","0.0-11.0-3.35","5d5a48a67ca41f0001e97f8b","bdp_rwlrn","Sun Mar 12 2023 23:59:17 GMT-0400 (Eastern Daylight Time)","407271","Untrustworthy,Trustworthy","","null","","","","feedback","","<div class='respPicDiv'><img src='img/responseButtonOffersNo0_wht.png' class='respPic'></div><div class='trialDiv'><img src='Fruit/pineapple.png'><br><font class='baseline'><strong>Primo Pineapple</strong><p><strong><font class='posOutcome'>You WON</font><p>You bet: 5</strong></font> &nbsp; &nbsp; &nbsp; &nbsp; &nbsp; &nbsp;<font class='posOutcome'>you receive: <strong>10</strong></font></div>","null","12","Primo Pineapple","Fruit/pineapple.png","Won","0.35,0.8","11","0.35","213","36","",""
"html-keyboard-response","118","157187","0.0-11.0-1.36","5d5a48a67ca41f0001e97f8b","bdp_rwlrn","Sun Mar 12 2023 23:59:17 GMT-0400 (Eastern Daylight Time)","407271","Untrustworthy,Trustworthy","","364","","","","decision","","<div class='trialDiv'><img src='Fruit/melon.png'><br><font class='baseline'><strong>Melon Millions</strong><p>Choose number of points to bet.</font><div class='respPicDiv'><img src='img/responseButtonOffersNo0L.png' class='respPic'></div></div>","2","13","Melon Millions","Fruit/melon.png","Lost","0.8,0.35","8","0.8","218","37","",""
"html-keyboard-response","119","157440","0.0-11.0-2.36","5d5a48a67ca41f0001e97f8b","bdp_rwlrn","Sun Mar 12 2023 23:59:17 GMT-0400 (Eastern Daylight Time)","407271","Untrustworthy,Trustworthy","","null","","","","decisionFB","","<div class='trialDiv'><img src='Fruit/melon.png'><br><font class='baseline'><strong>Melon Millions</strong><p>Choose number of points to bet.</font><div class='respPicDiv'><img src='img/responseButtonOffersNo0L2.png' class='respPic'></div></div>","null","13","Melon Millions","Fruit/melon.png","Lost","0.8,0.35","8","0.8","216","37","",""
"html-keyboard-response","120","158442","0.0-11.0-3.36","5d5a48a67ca41f0001e97f8b","bdp_rwlrn","Sun Mar 12 2023 23:59:17 GMT-0400 (Eastern Daylight Time)","407271","Untrustworthy,Trustworthy","","null","","","","feedback","","<div class='respPicDiv'><img src='img/responseButtonOffersNo0_wht.png' class='respPic'></div><div class='trialDiv'><img src='Fruit/melon.png'><br><font class='baseline'><strong>Melon Millions</strong><p><strong><font class='negOutcome'>You LOST</font><p>You bet: 2</strong></font> &nbsp; &nbsp; &nbsp; &nbsp; &nbsp; &nbsp;<font class='negOutcome'>You receive: <strong>0</strong></font></div>","null","13","Melon Millions","Fruit/melon.png","Lost","0.8,0.35","8","0.8","216","37","",""
"html-keyboard-response","121","158671","0.0-11.0-1.37","5d5a48a67ca41f0001e97f8b","bdp_rwlrn","Sun Mar 12 2023 23:59:17 GMT-0400 (Eastern Daylight Time)","407271","Untrustworthy,Trustworthy","","228","","","","decision","","<div class='trialDiv'><img src='Fruit/grapes.png'><br><font class='baseline'><strong>Great Grapes</strong><p>Choose number of points to bet.</font><div class='respPicDiv'><img src='img/responseButtonOffersNo0L.png' class='respPic'></div></div>","1","13","Great Grapes","Fruit/grapes.png","Won","0.65,0.35","11","0.65","221","38","",""
"html-keyboard-response","122","158923","0.0-11.0-2.37","5d5a48a67ca41f0001e97f8b","bdp_rwlrn","Sun Mar 12 2023 23:59:17 GMT-0400 (Eastern Daylight Time)","407271","Untrustworthy,Trustworthy","","null","","","","decisionFB","","<div class='trialDiv'><img src='Fruit/grapes.png'><br><font class='baseline'><strong>Great Grapes</strong><p>Choose number of points to bet.</font><div class='respPicDiv'><img src='img/responseButtonOffersNo0L1.png' class='respPic'></div></div>","null","13","Great Grapes","Fruit/grapes.png","Won","0.65,0.35","11","0.65","220","38","",""
"html-keyboard-response","123","159925","0.0-11.0-3.37","5d5a48a67ca41f0001e97f8b","bdp_rwlrn","Sun Mar 12 2023 23:59:17 GMT-0400 (Eastern Daylight Time)","407271","Untrustworthy,Trustworthy","","null","","","","feedback","","<div class='respPicDiv'><img src='img/responseButtonOffersNo0_wht.png' class='respPic'></div><div class='trialDiv'><img src='Fruit/grapes.png'><br><font class='baseline'><strong>Great Grapes</strong><p><strong><font class='posOutcome'>You WON</font><p>You bet: 1</strong></font> &nbsp; &nbsp; &nbsp; &nbsp; &nbsp; &nbsp;<font class='posOutcome'>you receive: <strong>2</strong></font></div>","null","13","Great Grapes","Fruit/grapes.png","Won","0.65,0.35","11","0.65","222","38","",""
"html-keyboard-response","124","160296","0.0-11.0-1.38","5d5a48a67ca41f0001e97f8b","bdp_rwlrn","Sun Mar 12 2023 23:59:17 GMT-0400 (Eastern Daylight Time)","407271","Untrustworthy,Trustworthy","","370","","","","decision","","<div class='trialDiv'><img src='Fruit/pineapple.png'><br><font class='baseline'><strong>Primo Pineapple</strong><p>Choose number of points to bet.</font><div class='respPicDiv'><img src='img/responseButtonOffersNo0L.png' class='respPic'></div></div>","1","13","Primo Pineapple","Fruit/pineapple.png","Won","0.35,0.8","11","0.35","227","39","",""
"html-keyboard-response","125","160548","0.0-11.0-2.38","5d5a48a67ca41f0001e97f8b","bdp_rwlrn","Sun Mar 12 2023 23:59:17 GMT-0400 (Eastern Daylight Time)","407271","Untrustworthy,Trustworthy","","null","","","","decisionFB","","<div class='trialDiv'><img src='Fruit/pineapple.png'><br><font class='baseline'><strong>Primo Pineapple</strong><p>Choose number of points to bet.</font><div class='respPicDiv'><img src='img/responseButtonOffersNo0L1.png' class='respPic'></div></div>","null","13","Primo Pineapple","Fruit/pineapple.png","Won","0.35,0.8","11","0.35","226","39","",""
"html-keyboard-response","126","161550","0.0-11.0-3.38","5d5a48a67ca41f0001e97f8b","bdp_rwlrn","Sun Mar 12 2023 23:59:17 GMT-0400 (Eastern Daylight Time)","407271","Untrustworthy,Trustworthy","","null","","","","feedback","","<div class='respPicDiv'><img src='img/responseButtonOffersNo0_wht.png' class='respPic'></div><div class='trialDiv'><img src='Fruit/pineapple.png'><br><font class='baseline'><strong>Primo Pineapple</strong><p><strong><font class='posOutcome'>You WON</font><p>You bet: 1</strong></font> &nbsp; &nbsp; &nbsp; &nbsp; &nbsp; &nbsp;<font class='posOutcome'>you receive: <strong>2</strong></font></div>","null","13","Primo Pineapple","Fruit/pineapple.png","Won","0.35,0.8","11","0.35","228","39","",""
"html-keyboard-response","127","162339","0.0-11.0-1.39","5d5a48a67ca41f0001e97f8b","bdp_rwlrn","Sun Mar 12 2023 23:59:17 GMT-0400 (Eastern Daylight Time)","407271","Untrustworthy,Trustworthy","","788","","","","decision","","<div class='trialDiv'><img src='Fruit/grapes.png'><br><font class='baseline'><strong>Great Grapes</strong><p>Choose number of points to bet.</font><div class='respPicDiv'><img src='img/responseButtonOffersNo0L.png' class='respPic'></div></div>","4","14","Great Grapes","Fruit/grapes.png","Lost","0.65,0.35","11","0.65","233","40","",""
"html-keyboard-response","128","162592","0.0-11.0-2.39","5d5a48a67ca41f0001e97f8b","bdp_rwlrn","Sun Mar 12 2023 23:59:17 GMT-0400 (Eastern Daylight Time)","407271","Untrustworthy,Trustworthy","","null","","","","decisionFB","","<div class='trialDiv'><img src='Fruit/grapes.png'><br><font class='baseline'><strong>Great Grapes</strong><p>Choose number of points to bet.</font><div class='respPicDiv'><img src='img/responseButtonOffersNo0L4.png' class='respPic'></div></div>","null","14","Great Grapes","Fruit/grapes.png","Lost","0.65,0.35","11","0.65","229","40","",""
"html-keyboard-response","129","163595","0.0-11.0-3.39","5d5a48a67ca41f0001e97f8b","bdp_rwlrn","Sun Mar 12 2023 23:59:17 GMT-0400 (Eastern Daylight Time)","407271","Untrustworthy,Trustworthy","","null","","","","feedback","","<div class='respPicDiv'><img src='img/responseButtonOffersNo0_wht.png' class='respPic'></div><div class='trialDiv'><img src='Fruit/grapes.png'><br><font class='baseline'><strong>Great Grapes</strong><p><strong><font class='negOutcome'>You LOST</font><p>You bet: 4</strong></font> &nbsp; &nbsp; &nbsp; &nbsp; &nbsp; &nbsp;<font class='negOutcome'>You receive: <strong>0</strong></font></div>","null","14","Great Grapes","Fruit/grapes.png","Lost","0.65,0.35","11","0.65","229","40","",""
"html-keyboard-response","130","163993","0.0-11.0-1.40","5d5a48a67ca41f0001e97f8b","bdp_rwlrn","Sun Mar 12 2023 23:59:17 GMT-0400 (Eastern Daylight Time)","407271","Untrustworthy,Trustworthy","","396","","","","decision","","<div class='trialDiv'><img src='Fruit/melon.png'><br><font class='baseline'><strong>Melon Millions</strong><p>Choose number of points to bet.</font><div class='respPicDiv'><img src='img/responseButtonOffersNo0L.png' class='respPic'></div></div>","2","14","Melon Millions","Fruit/melon.png","Lost","0.8,0.35","8","0.8","234","41","",""
"html-keyboard-response","131","164245","0.0-11.0-2.40","5d5a48a67ca41f0001e97f8b","bdp_rwlrn","Sun Mar 12 2023 23:59:17 GMT-0400 (Eastern Daylight Time)","407271","Untrustworthy,Trustworthy","","null","","","","decisionFB","","<div class='trialDiv'><img src='Fruit/melon.png'><br><font class='baseline'><strong>Melon Millions</strong><p>Choose number of points to bet.</font><div class='respPicDiv'><img src='img/responseButtonOffersNo0L2.png' class='respPic'></div></div>","null","14","Melon Millions","Fruit/melon.png","Lost","0.8,0.35","8","0.8","232","41","",""
"html-keyboard-response","132","165247","0.0-11.0-3.40","5d5a48a67ca41f0001e97f8b","bdp_rwlrn","Sun Mar 12 2023 23:59:17 GMT-0400 (Eastern Daylight Time)","407271","Untrustworthy,Trustworthy","","null","","","","feedback","","<div class='respPicDiv'><img src='img/responseButtonOffersNo0_wht.png' class='respPic'></div><div class='trialDiv'><img src='Fruit/melon.png'><br><font class='baseline'><strong>Melon Millions</strong><p><strong><font class='negOutcome'>You LOST</font><p>You bet: 2</strong></font> &nbsp; &nbsp; &nbsp; &nbsp; &nbsp; &nbsp;<font class='negOutcome'>You receive: <strong>0</strong></font></div>","null","14","Melon Millions","Fruit/melon.png","Lost","0.8,0.35","8","0.8","232","41","",""
"html-keyboard-response","133","165532","0.0-11.0-1.41","5d5a48a67ca41f0001e97f8b","bdp_rwlrn","Sun Mar 12 2023 23:59:17 GMT-0400 (Eastern Daylight Time)","407271","Untrustworthy,Trustworthy","","283","","","","decision","","<div class='trialDiv'><img src='Fruit/pineapple.png'><br><font class='baseline'><strong>Primo Pineapple</strong><p>Choose number of points to bet.</font><div class='respPicDiv'><img src='img/responseButtonOffersNo0L.png' class='respPic'></div></div>","1","14","Primo Pineapple","Fruit/pineapple.png","Won","0.35,0.8","11","0.35","237","42","",""
"html-keyboard-response","134","165784","0.0-11.0-2.41","5d5a48a67ca41f0001e97f8b","bdp_rwlrn","Sun Mar 12 2023 23:59:17 GMT-0400 (Eastern Daylight Time)","407271","Untrustworthy,Trustworthy","","null","","","","decisionFB","","<div class='trialDiv'><img src='Fruit/pineapple.png'><br><font class='baseline'><strong>Primo Pineapple</strong><p>Choose number of points to bet.</font><div class='respPicDiv'><img src='img/responseButtonOffersNo0L1.png' class='respPic'></div></div>","null","14","Primo Pineapple","Fruit/pineapple.png","Won","0.35,0.8","11","0.35","236","42","",""
"html-keyboard-response","135","166786","0.0-11.0-3.41","5d5a48a67ca41f0001e97f8b","bdp_rwlrn","Sun Mar 12 2023 23:59:17 GMT-0400 (Eastern Daylight Time)","407271","Untrustworthy,Trustworthy","","null","","","","feedback","","<div class='respPicDiv'><img src='img/responseButtonOffersNo0_wht.png' class='respPic'></div><div class='trialDiv'><img src='Fruit/pineapple.png'><br><font class='baseline'><strong>Primo Pineapple</strong><p><strong><font class='posOutcome'>You WON</font><p>You bet: 1</strong></font> &nbsp; &nbsp; &nbsp; &nbsp; &nbsp; &nbsp;<font class='posOutcome'>you receive: <strong>2</strong></font></div>","null","14","Primo Pineapple","Fruit/pineapple.png","Won","0.35,0.8","11","0.35","238","42","",""
"html-keyboard-response","136","167079","0.0-11.0-1.42","5d5a48a67ca41f0001e97f8b","bdp_rwlrn","Sun Mar 12 2023 23:59:17 GMT-0400 (Eastern Daylight Time)","407271","Untrustworthy,Trustworthy","","291","","","","decision","","<div class='trialDiv'><img src='Fruit/grapes.png'><br><font class='baseline'><strong>Great Grapes</strong><p>Choose number of points to bet.</font><div class='respPicDiv'><img src='img/responseButtonOffersNo0L.png' class='respPic'></div></div>","5","15","Great Grapes","Fruit/grapes.png","Won","0.65,0.35","11","0.65","243","43","",""
"html-keyboard-response","137","167331","0.0-11.0-2.42","5d5a48a67ca41f0001e97f8b","bdp_rwlrn","Sun Mar 12 2023 23:59:17 GMT-0400 (Eastern Daylight Time)","407271","Untrustworthy,Trustworthy","","null","","","","decisionFB","","<div class='trialDiv'><img src='Fruit/grapes.png'><br><font class='baseline'><strong>Great Grapes</strong><p>Choose number of points to bet.</font><div class='respPicDiv'><img src='img/responseButtonOffersNo0L5.png' class='respPic'></div></div>","null","15","Great Grapes","Fruit/grapes.png","Won","0.65,0.35","11","0.65","238","43","",""
"html-keyboard-response","138","168333","0.0-11.0-3.42","5d5a48a67ca41f0001e97f8b","bdp_rwlrn","Sun Mar 12 2023 23:59:17 GMT-0400 (Eastern Daylight Time)","407271","Untrustworthy,Trustworthy","","null","","","","feedback","","<div class='respPicDiv'><img src='img/responseButtonOffersNo0_wht.png' class='respPic'></div><div class='trialDiv'><img src='Fruit/grapes.png'><br><font class='baseline'><strong>Great Grapes</strong><p><strong><font class='posOutcome'>You WON</font><p>You bet: 5</strong></font> &nbsp; &nbsp; &nbsp; &nbsp; &nbsp; &nbsp;<font class='posOutcome'>you receive: <strong>10</strong></font></div>","null","15","Great Grapes","Fruit/grapes.png","Won","0.65,0.35","11","0.65","248","43","",""
"html-keyboard-response","139","169255","0.0-11.0-1.43","5d5a48a67ca41f0001e97f8b","bdp_rwlrn","Sun Mar 12 2023 23:59:17 GMT-0400 (Eastern Daylight Time)","407271","Untrustworthy,Trustworthy","","922","","","","decision","","<div class='trialDiv'><img src='Fruit/pineapple.png'><br><font class='baseline'><strong>Primo Pineapple</strong><p>Choose number of points to bet.</font><div class='respPicDiv'><img src='img/responseButtonOffersNo0L.png' class='respPic'></div></div>","2","15","Primo Pineapple","Fruit/pineapple.png","Won","0.35,0.8","11","0.35","253","44","",""
"html-keyboard-response","140","169507","0.0-11.0-2.43","5d5a48a67ca41f0001e97f8b","bdp_rwlrn","Sun Mar 12 2023 23:59:17 GMT-0400 (Eastern Daylight Time)","407271","Untrustworthy,Trustworthy","","null","","","","decisionFB","","<div class='trialDiv'><img src='Fruit/pineapple.png'><br><font class='baseline'><strong>Primo Pineapple</strong><p>Choose number of points to bet.</font><div class='respPicDiv'><img src='img/responseButtonOffersNo0L2.png' class='respPic'></div></div>","null","15","Primo Pineapple","Fruit/pineapple.png","Won","0.35,0.8","11","0.35","251","44","",""
"html-keyboard-response","141","170510","0.0-11.0-3.43","5d5a48a67ca41f0001e97f8b","bdp_rwlrn","Sun Mar 12 2023 23:59:17 GMT-0400 (Eastern Daylight Time)","407271","Untrustworthy,Trustworthy","","null","","","","feedback","","<div class='respPicDiv'><img src='img/responseButtonOffersNo0_wht.png' class='respPic'></div><div class='trialDiv'><img src='Fruit/pineapple.png'><br><font class='baseline'><strong>Primo Pineapple</strong><p><strong><font class='posOutcome'>You WON</font><p>You bet: 2</strong></font> &nbsp; &nbsp; &nbsp; &nbsp; &nbsp; &nbsp;<font class='posOutcome'>you receive: <strong>4</strong></font></div>","null","15","Primo Pineapple","Fruit/pineapple.png","Won","0.35,0.8","11","0.35","255","44","",""
"html-keyboard-response","142","170859","0.0-11.0-1.44","5d5a48a67ca41f0001e97f8b","bdp_rwlrn","Sun Mar 12 2023 23:59:17 GMT-0400 (Eastern Daylight Time)","407271","Untrustworthy,Trustworthy","","348","","","","decision","","<div class='trialDiv'><img src='Fruit/melon.png'><br><font class='baseline'><strong>Melon Millions</strong><p>Choose number of points to bet.</font><div class='respPicDiv'><img src='img/responseButtonOffersNo0L.png' class='respPic'></div></div>","1","15","Melon Millions","Fruit/melon.png","Won","0.8,0.35","8","0.8","260","45","",""
"html-keyboard-response","143","171111","0.0-11.0-2.44","5d5a48a67ca41f0001e97f8b","bdp_rwlrn","Sun Mar 12 2023 23:59:17 GMT-0400 (Eastern Daylight Time)","407271","Untrustworthy,Trustworthy","","null","","","","decisionFB","","<div class='trialDiv'><img src='Fruit/melon.png'><br><font class='baseline'><strong>Melon Millions</strong><p>Choose number of points to bet.</font><div class='respPicDiv'><img src='img/responseButtonOffersNo0L1.png' class='respPic'></div></div>","null","15","Melon Millions","Fruit/melon.png","Won","0.8,0.35","8","0.8","259","45","",""
"html-keyboard-response","144","172113","0.0-11.0-3.44","5d5a48a67ca41f0001e97f8b","bdp_rwlrn","Sun Mar 12 2023 23:59:17 GMT-0400 (Eastern Daylight Time)","407271","Untrustworthy,Trustworthy","","null","","","","feedback","","<div class='respPicDiv'><img src='img/responseButtonOffersNo0_wht.png' class='respPic'></div><div class='trialDiv'><img src='Fruit/melon.png'><br><font class='baseline'><strong>Melon Millions</strong><p><strong><font class='posOutcome'>You WON</font><p>You bet: 1</strong></font> &nbsp; &nbsp; &nbsp; &nbsp; &nbsp; &nbsp;<font class='posOutcome'>you receive: <strong>2</strong></font></div>","null","15","Melon Millions","Fruit/melon.png","Won","0.8,0.35","8","0.8","261","45","",""
"html-keyboard-response","145","173709","0.0-11.0-1.45","5d5a48a67ca41f0001e97f8b","bdp_rwlrn","Sun Mar 12 2023 23:59:17 GMT-0400 (Eastern Daylight Time)","407271","Untrustworthy,Trustworthy","","1595","","","","decision","","<div class='trialDiv'><img src='Fruit/grapes.png'><br><font class='baseline'><strong>Great Grapes</strong><p>Choose number of points to bet.</font><div class='respPicDiv'><img src='img/responseButtonOffersNo0L.png' class='respPic'></div></div>","1","16","Great Grapes","Fruit/grapes.png","Lost","0.65,0.35","11","0.65","266","46","",""
"html-keyboard-response","146","173961","0.0-11.0-2.45","5d5a48a67ca41f0001e97f8b","bdp_rwlrn","Sun Mar 12 2023 23:59:17 GMT-0400 (Eastern Daylight Time)","407271","Untrustworthy,Trustworthy","","null","","","","decisionFB","","<div class='trialDiv'><img src='Fruit/grapes.png'><br><font class='baseline'><strong>Great Grapes</strong><p>Choose number of points to bet.</font><div class='respPicDiv'><img src='img/responseButtonOffersNo0L1.png' class='respPic'></div></div>","null","16","Great Grapes","Fruit/grapes.png","Lost","0.65,0.35","11","0.65","265","46","",""
"html-keyboard-response","147","174962","0.0-11.0-3.45","5d5a48a67ca41f0001e97f8b","bdp_rwlrn","Sun Mar 12 2023 23:59:17 GMT-0400 (Eastern Daylight Time)","407271","Untrustworthy,Trustworthy","","null","","","","feedback","","<div class='respPicDiv'><img src='img/responseButtonOffersNo0_wht.png' class='respPic'></div><div class='trialDiv'><img src='Fruit/grapes.png'><br><font class='baseline'><strong>Great Grapes</strong><p><strong><font class='negOutcome'>You LOST</font><p>You bet: 1</strong></font> &nbsp; &nbsp; &nbsp; &nbsp; &nbsp; &nbsp;<font class='negOutcome'>You receive: <strong>0</strong></font></div>","null","16","Great Grapes","Fruit/grapes.png","Lost","0.65,0.35","11","0.65","265","46","",""
"html-keyboard-response","148","175408","0.0-11.0-1.46","5d5a48a67ca41f0001e97f8b","bdp_rwlrn","Sun Mar 12 2023 23:59:17 GMT-0400 (Eastern Daylight Time)","407271","Untrustworthy,Trustworthy","","444","","","","decision","","<div class='trialDiv'><img src='Fruit/pineapple.png'><br><font class='baseline'><strong>Primo Pineapple</strong><p>Choose number of points to bet.</font><div class='respPicDiv'><img src='img/responseButtonOffersNo0L.png' class='respPic'></div></div>","1","16","Primo Pineapple","Fruit/pineapple.png","Won","0.35,0.8","11","0.35","270","47","",""
"html-keyboard-response","149","175660","0.0-11.0-2.46","5d5a48a67ca41f0001e97f8b","bdp_rwlrn","Sun Mar 12 2023 23:59:17 GMT-0400 (Eastern Daylight Time)","407271","Untrustworthy,Trustworthy","","null","","","","decisionFB","","<div class='trialDiv'><img src='Fruit/pineapple.png'><br><font class='baseline'><strong>Primo Pineapple</strong><p>Choose number of points to bet.</font><div class='respPicDiv'><img src='img/responseButtonOffersNo0L1.png' class='respPic'></div></div>","null","16","Primo Pineapple","Fruit/pineapple.png","Won","0.35,0.8","11","0.35","269","47","",""
"html-keyboard-response","150","176662","0.0-11.0-3.46","5d5a48a67ca41f0001e97f8b","bdp_rwlrn","Sun Mar 12 2023 23:59:17 GMT-0400 (Eastern Daylight Time)","407271","Untrustworthy,Trustworthy","","null","","","","feedback","","<div class='respPicDiv'><img src='img/responseButtonOffersNo0_wht.png' class='respPic'></div><div class='trialDiv'><img src='Fruit/pineapple.png'><br><font class='baseline'><strong>Primo Pineapple</strong><p><strong><font class='posOutcome'>You WON</font><p>You bet: 1</strong></font> &nbsp; &nbsp; &nbsp; &nbsp; &nbsp; &nbsp;<font class='posOutcome'>you receive: <strong>2</strong></font></div>","null","16","Primo Pineapple","Fruit/pineapple.png","Won","0.35,0.8","11","0.35","271","47","",""
"html-keyboard-response","151","176918","0.0-11.0-1.47","5d5a48a67ca41f0001e97f8b","bdp_rwlrn","Sun Mar 12 2023 23:59:17 GMT-0400 (Eastern Daylight Time)","407271","Untrustworthy,Trustworthy","","255","","","","decision","","<div class='trialDiv'><img src='Fruit/melon.png'><br><font class='baseline'><strong>Melon Millions</strong><p>Choose number of points to bet.</font><div class='respPicDiv'><img src='img/responseButtonOffersNo0L.png' class='respPic'></div></div>","2","16","Melon Millions","Fruit/melon.png","Lost","0.8,0.35","8","0.8","276","48","",""
"html-keyboard-response","152","177170","0.0-11.0-2.47","5d5a48a67ca41f0001e97f8b","bdp_rwlrn","Sun Mar 12 2023 23:59:17 GMT-0400 (Eastern Daylight Time)","407271","Untrustworthy,Trustworthy","","null","","","","decisionFB","","<div class='trialDiv'><img src='Fruit/melon.png'><br><font class='baseline'><strong>Melon Millions</strong><p>Choose number of points to bet.</font><div class='respPicDiv'><img src='img/responseButtonOffersNo0L2.png' class='respPic'></div></div>","null","16","Melon Millions","Fruit/melon.png","Lost","0.8,0.35","8","0.8","274","48","",""
"html-keyboard-response","153","178172","0.0-11.0-3.47","5d5a48a67ca41f0001e97f8b","bdp_rwlrn","Sun Mar 12 2023 23:59:17 GMT-0400 (Eastern Daylight Time)","407271","Untrustworthy,Trustworthy","","null","","","","feedback","","<div class='respPicDiv'><img src='img/responseButtonOffersNo0_wht.png' class='respPic'></div><div class='trialDiv'><img src='Fruit/melon.png'><br><font class='baseline'><strong>Melon Millions</strong><p><strong><font class='negOutcome'>You LOST</font><p>You bet: 2</strong></font> &nbsp; &nbsp; &nbsp; &nbsp; &nbsp; &nbsp;<font class='negOutcome'>You receive: <strong>0</strong></font></div>","null","16","Melon Millions","Fruit/melon.png","Lost","0.8,0.35","8","0.8","274","48","",""
"html-keyboard-response","154","178688","0.0-11.0-1.48","5d5a48a67ca41f0001e97f8b","bdp_rwlrn","Sun Mar 12 2023 23:59:17 GMT-0400 (Eastern Daylight Time)","407271","Untrustworthy,Trustworthy","","515","","","","decision","","<div class='trialDiv'><img src='Fruit/pineapple.png'><br><font class='baseline'><strong>Primo Pineapple</strong><p>Choose number of points to bet.</font><div class='respPicDiv'><img src='img/responseButtonOffersNo0L.png' class='respPic'></div></div>","1","17","Primo Pineapple","Fruit/pineapple.png","Won","0.35,0.8","11","0.35","279","49","",""
"html-keyboard-response","155","178940","0.0-11.0-2.48","5d5a48a67ca41f0001e97f8b","bdp_rwlrn","Sun Mar 12 2023 23:59:17 GMT-0400 (Eastern Daylight Time)","407271","Untrustworthy,Trustworthy","","null","","","","decisionFB","","<div class='trialDiv'><img src='Fruit/pineapple.png'><br><font class='baseline'><strong>Primo Pineapple</strong><p>Choose number of points to bet.</font><div class='respPicDiv'><img src='img/responseButtonOffersNo0L1.png' class='respPic'></div></div>","null","17","Primo Pineapple","Fruit/pineapple.png","Won","0.35,0.8","11","0.35","278","49","",""
"html-keyboard-response","156","179942","0.0-11.0-3.48","5d5a48a67ca41f0001e97f8b","bdp_rwlrn","Sun Mar 12 2023 23:59:17 GMT-0400 (Eastern Daylight Time)","407271","Untrustworthy,Trustworthy","","null","","","","feedback","","<div class='respPicDiv'><img src='img/responseButtonOffersNo0_wht.png' class='respPic'></div><div class='trialDiv'><img src='Fruit/pineapple.png'><br><font class='baseline'><strong>Primo Pineapple</strong><p><strong><font class='posOutcome'>You WON</font><p>You bet: 1</strong></font> &nbsp; &nbsp; &nbsp; &nbsp; &nbsp; &nbsp;<font class='posOutcome'>you receive: <strong>2</strong></font></div>","null","17","Primo Pineapple","Fruit/pineapple.png","Won","0.35,0.8","11","0.35","280","49","",""
"html-keyboard-response","157","181029","0.0-11.0-1.49","5d5a48a67ca41f0001e97f8b","bdp_rwlrn","Sun Mar 12 2023 23:59:17 GMT-0400 (Eastern Daylight Time)","407271","Untrustworthy,Trustworthy","","1085","","","","decision","","<div class='trialDiv'><img src='Fruit/grapes.png'><br><font class='baseline'><strong>Great Grapes</strong><p>Choose number of points to bet.</font><div class='respPicDiv'><img src='img/responseButtonOffersNo0L.png' class='respPic'></div></div>","5","17","Great Grapes","Fruit/grapes.png","Lost","0.65,0.35","11","0.65","285","50","",""
"html-keyboard-response","158","181280","0.0-11.0-2.49","5d5a48a67ca41f0001e97f8b","bdp_rwlrn","Sun Mar 12 2023 23:59:17 GMT-0400 (Eastern Daylight Time)","407271","Untrustworthy,Trustworthy","","null","","","","decisionFB","","<div class='trialDiv'><img src='Fruit/grapes.png'><br><font class='baseline'><strong>Great Grapes</strong><p>Choose number of points to bet.</font><div class='respPicDiv'><img src='img/responseButtonOffersNo0L5.png' class='respPic'></div></div>","null","17","Great Grapes","Fruit/grapes.png","Lost","0.65,0.35","11","0.65","280","50","",""
"html-keyboard-response","159","182283","0.0-11.0-3.49","5d5a48a67ca41f0001e97f8b","bdp_rwlrn","Sun Mar 12 2023 23:59:17 GMT-0400 (Eastern Daylight Time)","407271","Untrustworthy,Trustworthy","","null","","","","feedback","","<div class='respPicDiv'><img src='img/responseButtonOffersNo0_wht.png' class='respPic'></div><div class='trialDiv'><img src='Fruit/grapes.png'><br><font class='baseline'><strong>Great Grapes</strong><p><strong><font class='negOutcome'>You LOST</font><p>You bet: 5</strong></font> &nbsp; &nbsp; &nbsp; &nbsp; &nbsp; &nbsp;<font class='negOutcome'>You receive: <strong>0</strong></font></div>","null","17","Great Grapes","Fruit/grapes.png","Lost","0.65,0.35","11","0.65","280","50","",""
"html-keyboard-response","160","182883","0.0-11.0-1.50","5d5a48a67ca41f0001e97f8b","bdp_rwlrn","Sun Mar 12 2023 23:59:17 GMT-0400 (Eastern Daylight Time)","407271","Untrustworthy,Trustworthy","","599","","","","decision","","<div class='trialDiv'><img src='Fruit/melon.png'><br><font class='baseline'><strong>Melon Millions</strong><p>Choose number of points to bet.</font><div class='respPicDiv'><img src='img/responseButtonOffersNo0L.png' class='respPic'></div></div>","2","17","Melon Millions","Fruit/melon.png","Lost","0.8,0.35","8","0.8","285","51","",""
"html-keyboard-response","161","183135","0.0-11.0-2.50","5d5a48a67ca41f0001e97f8b","bdp_rwlrn","Sun Mar 12 2023 23:59:17 GMT-0400 (Eastern Daylight Time)","407271","Untrustworthy,Trustworthy","","null","","","","decisionFB","","<div class='trialDiv'><img src='Fruit/melon.png'><br><font class='baseline'><strong>Melon Millions</strong><p>Choose number of points to bet.</font><div class='respPicDiv'><img src='img/responseButtonOffersNo0L2.png' class='respPic'></div></div>","null","17","Melon Millions","Fruit/melon.png","Lost","0.8,0.35","8","0.8","283","51","",""
"html-keyboard-response","162","184139","0.0-11.0-3.50","5d5a48a67ca41f0001e97f8b","bdp_rwlrn","Sun Mar 12 2023 23:59:17 GMT-0400 (Eastern Daylight Time)","407271","Untrustworthy,Trustworthy","","null","","","","feedback","","<div class='respPicDiv'><img src='img/responseButtonOffersNo0_wht.png' class='respPic'></div><div class='trialDiv'><img src='Fruit/melon.png'><br><font class='baseline'><strong>Melon Millions</strong><p><strong><font class='negOutcome'>You LOST</font><p>You bet: 2</strong></font> &nbsp; &nbsp; &nbsp; &nbsp; &nbsp; &nbsp;<font class='negOutcome'>You receive: <strong>0</strong></font></div>","null","17","Melon Millions","Fruit/melon.png","Lost","0.8,0.35","8","0.8","283","51","",""
