"trial_type","trial_index","time_elapsed","internal_node_id","subject_id","task","startTime","totalTime","labels","view_history","rt","event","trial","time","trialtype","success","stimulus","key_press","ltround","name","fileID","outcome","lottotype","lottoswpt","lottocurrpshare","point_total","round","faceID","face"
"pavlovia","0","2","0.0-0.0","63e5be4daa8fac2e51d4fe91","bdp_rwlrn","Sun Mar 12 2023 23:40:03 GMT-0400 (Eastern Daylight Time)","336715","Untrustworthy,Trustworthy","","","","","","","","","","","","","","","","","","","",""
"instructions","1","4393","0.0-1.0","63e5be4daa8fac2e51d4fe91","bdp_rwlrn","Sun Mar 12 2023 23:40:03 GMT-0400 (Eastern Daylight Time)","336715","Untrustworthy,Trustworthy","[{""page_index"":0,""viewing_time"":4390}]","4391","","","","","","","","","","","","","","","","","",""
"","","","","63e5be4daa8fac2e51d4fe91","bdp_rwlrn","Sun Mar 12 2023 23:40:03 GMT-0400 (Eastern Daylight Time)","336715","Untrustworthy,Trustworthy","","","fullscreenenter","2","7742","fullscreenenter","","","","","","","","","","","","","",""
"fullscreen","2","8726","0.0-2.0","63e5be4daa8fac2e51d4fe91","bdp_rwlrn","Sun Mar 12 2023 23:40:03 GMT-0400 (Eastern Daylight Time)","336715","Untrustworthy,Trustworthy","","","","","","","true","","","","","","","","","","","","",""
"instructions","3","48605","0.0-4.0","63e5be4daa8fac2e51d4fe91","bdp_rwlrn","Sun Mar 12 2023 23:40:03 GMT-0400 (Eastern Daylight Time)","336715","Untrustworthy,Trustworthy","[{""page_index"":0,""viewing_time"":5527},{""page_index"":1,""viewing_time"":12714},{""page_index"":2,""viewing_time"":2199},{""page_index"":3,""viewing_time"":4048},{""page_index"":4,""viewing_time"":14173},{""page_index"":5,""viewing_time"":1217}]","39878","","","","","","","","","","","","","","","","","",""
"html-keyboard-response","4","52034","0.0-5.0","63e5be4daa8fac2e51d4fe91","bdp_rwlrn","Sun Mar 12 2023 23:40:03 GMT-0400 (Eastern Daylight Time)","336715","Untrustworthy,Trustworthy","","3428","","","","","","<div class='header' style='text-align:left; position: absolute; top: 5%; left: 5%;'><small>Task 3 of 5</small></div><div class='instruxDiv'><p><strong>1) What is the maximum number of points you can choose to bet on a lottery?</strong></p><p>a) 0</p><p>b) 1</p><p>c) 5</p>","C","","","","","","","","","","",""
"html-keyboard-response","5","53218","0.0-6.0","63e5be4daa8fac2e51d4fe91","bdp_rwlrn","Sun Mar 12 2023 23:40:03 GMT-0400 (Eastern Daylight Time)","336715","Untrustworthy,Trustworthy","","1070","","","","","","<div class='header' style='text-align:left; position: absolute; top: 5%; left: 5%;'><small>Task 3 of 5</small></div><div class='instruxDiv'><p><strong>1) What is the maximum number of points you can choose to bet on a lottery?</strong></p><p>a) 1</p><p>b) 1</p><p style='color:#00FF00'>c) 5</p><h3 style='color:#00FF00'>Correct!</h3><h3 class='center-content'>The correct response is c).</h3><h3 class='center-content'>The maximum number of points you can choose to bet on a lottery is 5 points.</h3><p><em>Press SPACEBAR to continue</em></p></div>"," ","","","","","","","","","","",""
"html-keyboard-response","6","55362","0.0-7.0","63e5be4daa8fac2e51d4fe91","bdp_rwlrn","Sun Mar 12 2023 23:40:03 GMT-0400 (Eastern Daylight Time)","336715","Untrustworthy,Trustworthy","","2042","","","","","","<div class='header' style='text-align:left; position: absolute; top: 5%; left: 5%;'><small>Task 3 of 5</small></div><div class='instruxDiv'><p><strong>2) How many points can you win each round?</strong></p><p>a) 10 points</p><p>b) Double what you bet</p><p>c) Quadruple what you bet</p>","B","","","","","","","","","","",""
"html-keyboard-response","7","55925","0.0-8.0","63e5be4daa8fac2e51d4fe91","bdp_rwlrn","Sun Mar 12 2023 23:40:03 GMT-0400 (Eastern Daylight Time)","336715","Untrustworthy,Trustworthy","","462","","","","","","<div class='header' style='text-align:left; position: absolute; top: 5%; left: 5%;'><small>Task 3 of 5</small></div><div class='instruxDiv'><p><strong>2) How many points can you win each round?</strong></p><p>a) 10 points</p><p style='color:#00FF00'>b) Double what you bet</p><p>c) Quadruple what you bet</p><h3 style='color:#00FF00'>Correct!</h3><h3 class='center-content'>The correct response is b).</h3><h3 class='center-content'>You can win double the amount of points you bet.</h3><p><em>Press SPACEBAR to continue</em></p></div>"," ","","","","","","","","","","",""
"html-keyboard-response","8","61029","0.0-9.0","63e5be4daa8fac2e51d4fe91","bdp_rwlrn","Sun Mar 12 2023 23:40:03 GMT-0400 (Eastern Daylight Time)","336715","Untrustworthy,Trustworthy","","null","","","","","","<div class='header' style='text-align:left; position: absolute; top: 5%; left: 5%;'><small>Task 3 of 5</small></div><div class='instruxDiv'><p>Thank you for completing the quiz<p>These are the actual lotteries you will be playing in the next block:<p><div class='tc' align='center'><img class='introPic' src='Fruit/orange.png'><br><strong>Odds are Orange</strong></div><div class='bl' align='center'><img class='introPic' src='Fruit/cherrie.png'><br><strong>Cherry Chances</strong></div><div class='br' align='center'><img class='introPic' src='Fruit/mixed-berries2.png'><br><strong>Berry Bla$t</strong></div></div><p>Across <strong>66 rounds</strong> you will play each lottery <strong>22 times</strong> (in random order).<p style='align:center; color:white'><font <em>Press SPACEBAR to continue</em></p>","null","","","","","","","","","","",""
"instructions","9","65050","0.0-10.0","63e5be4daa8fac2e51d4fe91","bdp_rwlrn","Sun Mar 12 2023 23:40:03 GMT-0400 (Eastern Daylight Time)","336715","Untrustworthy,Trustworthy","[{""page_index"":0,""viewing_time"":2039},{""page_index"":1,""viewing_time"":1982}]","4021","","","","","","","","","","","","","","","","","",""
"html-keyboard-response","10","66234","0.0-11.0-1.0","63e5be4daa8fac2e51d4fe91","bdp_rwlrn","Sun Mar 12 2023 23:40:03 GMT-0400 (Eastern Daylight Time)","336715","Untrustworthy,Trustworthy","","1082","","","","decision","","<div class='trialDiv'><img src='Fruit/orange.png'><br><font class='baseline'><strong>Odds are Orange</strong><p>Choose number of points to bet.</font><div class='respPicDiv'><img src='img/responseButtonOffersNo0L.png' class='respPic'></div></div>","3","1","Odds are Orange","Fruit/orange.png","Lost","0.8,0.35","9","0.8","5","1","",""
"html-keyboard-response","11","66486","0.0-11.0-2.0","63e5be4daa8fac2e51d4fe91","bdp_rwlrn","Sun Mar 12 2023 23:40:03 GMT-0400 (Eastern Daylight Time)","336715","Untrustworthy,Trustworthy","","null","","","","decisionFB","","<div class='trialDiv'><img src='Fruit/orange.png'><br><font class='baseline'><strong>Odds are Orange</strong><p>Choose number of points to bet.</font><div class='respPicDiv'><img src='img/responseButtonOffersNo0L3.png' class='respPic'></div></div>","null","1","Odds are Orange","Fruit/orange.png","Lost","0.8,0.35","9","0.8","2","1","",""
"html-keyboard-response","12","67489","0.0-11.0-3.0","63e5be4daa8fac2e51d4fe91","bdp_rwlrn","Sun Mar 12 2023 23:40:03 GMT-0400 (Eastern Daylight Time)","336715","Untrustworthy,Trustworthy","","null","","","","feedback","","<div class='respPicDiv'><img src='img/responseButtonOffersNo0_wht.png' class='respPic'></div><div class='trialDiv'><img src='Fruit/orange.png'><br><font class='baseline'><strong>Odds are Orange</strong><p><strong><font class='negOutcome'>You LOST</font><p>You bet: 3</strong></font> &nbsp; &nbsp; &nbsp; &nbsp; &nbsp; &nbsp;<font class='negOutcome'>You receive: <strong>0</strong></font></div>","null","1","Odds are Orange","Fruit/orange.png","Lost","0.8,0.35","9","0.8","2","1","",""
"html-keyboard-response","13","68924","0.0-11.0-1.1","63e5be4daa8fac2e51d4fe91","bdp_rwlrn","Sun Mar 12 2023 23:40:03 GMT-0400 (Eastern Daylight Time)","336715","Untrustworthy,Trustworthy","","1433","","","","decision","","<div class='trialDiv'><img src='Fruit/mixed-berries2.png'><br><font class='baseline'><strong>Berry Bla$t</strong><p>Choose number of points to bet.</font><div class='respPicDiv'><img src='img/responseButtonOffersNo0L.png' class='respPic'></div></div>","1","1","Berry Bla$t","Fruit/mixed-berries2.png","Lost","0.35,0.65","9","0.35","7","2","",""
"html-keyboard-response","14","69176","0.0-11.0-2.1","63e5be4daa8fac2e51d4fe91","bdp_rwlrn","Sun Mar 12 2023 23:40:03 GMT-0400 (Eastern Daylight Time)","336715","Untrustworthy,Trustworthy","","null","","","","decisionFB","","<div class='trialDiv'><img src='Fruit/mixed-berries2.png'><br><font class='baseline'><strong>Berry Bla$t</strong><p>Choose number of points to bet.</font><div class='respPicDiv'><img src='img/responseButtonOffersNo0L1.png' class='respPic'></div></div>","null","1","Berry Bla$t","Fruit/mixed-berries2.png","Lost","0.35,0.65","9","0.35","6","2","",""
"html-keyboard-response","15","70179","0.0-11.0-3.1","63e5be4daa8fac2e51d4fe91","bdp_rwlrn","Sun Mar 12 2023 23:40:03 GMT-0400 (Eastern Daylight Time)","336715","Untrustworthy,Trustworthy","","null","","","","feedback","","<div class='respPicDiv'><img src='img/responseButtonOffersNo0_wht.png' class='respPic'></div><div class='trialDiv'><img src='Fruit/mixed-berries2.png'><br><font class='baseline'><strong>Berry Bla$t</strong><p><strong><font class='negOutcome'>You LOST</font><p>You bet: 1</strong></font> &nbsp; &nbsp; &nbsp; &nbsp; &nbsp; &nbsp;<font class='negOutcome'>You receive: <strong>0</strong></font></div>","null","1","Berry Bla$t","Fruit/mixed-berries2.png","Lost","0.35,0.65","9","0.35","6","2","",""
"html-keyboard-response","16","70838","0.0-11.0-1.2","63e5be4daa8fac2e51d4fe91","bdp_rwlrn","Sun Mar 12 2023 23:40:03 GMT-0400 (Eastern Daylight Time)","336715","Untrustworthy,Trustworthy","","658","","","","decision","","<div class='trialDiv'><img src='Fruit/cherrie.png'><br><font class='baseline'><strong>Cherry Chances</strong><p>Choose number of points to bet.</font><div class='respPicDiv'><img src='img/responseButtonOffersNo0L.png' class='respPic'></div></div>","1","1","Cherry Chances","Fruit/cherrie.png","Won","0.35,0.8","9","0.35","11","3","",""
"html-keyboard-response","17","71091","0.0-11.0-2.2","63e5be4daa8fac2e51d4fe91","bdp_rwlrn","Sun Mar 12 2023 23:40:03 GMT-0400 (Eastern Daylight Time)","336715","Untrustworthy,Trustworthy","","null","","","","decisionFB","","<div class='trialDiv'><img src='Fruit/cherrie.png'><br><font class='baseline'><strong>Cherry Chances</strong><p>Choose number of points to bet.</font><div class='respPicDiv'><img src='img/responseButtonOffersNo0L1.png' class='respPic'></div></div>","null","1","Cherry Chances","Fruit/cherrie.png","Won","0.35,0.8","9","0.35","10","3","",""
"html-keyboard-response","18","72093","0.0-11.0-3.2","63e5be4daa8fac2e51d4fe91","bdp_rwlrn","Sun Mar 12 2023 23:40:03 GMT-0400 (Eastern Daylight Time)","336715","Untrustworthy,Trustworthy","","null","","","","feedback","","<div class='respPicDiv'><img src='img/responseButtonOffersNo0_wht.png' class='respPic'></div><div class='trialDiv'><img src='Fruit/cherrie.png'><br><font class='baseline'><strong>Cherry Chances</strong><p><strong><font class='posOutcome'>You WON</font><p>You bet: 1</strong></font> &nbsp; &nbsp; &nbsp; &nbsp; &nbsp; &nbsp;<font class='posOutcome'>you receive: <strong>2</strong></font></div>","null","1","Cherry Chances","Fruit/cherrie.png","Won","0.35,0.8","9","0.35","12","3","",""
"html-keyboard-response","19","72762","0.0-11.0-1.3","63e5be4daa8fac2e51d4fe91","bdp_rwlrn","Sun Mar 12 2023 23:40:03 GMT-0400 (Eastern Daylight Time)","336715","Untrustworthy,Trustworthy","","667","","","","decision","","<div class='trialDiv'><img src='Fruit/mixed-berries2.png'><br><font class='baseline'><strong>Berry Bla$t</strong><p>Choose number of points to bet.</font><div class='respPicDiv'><img src='img/responseButtonOffersNo0L.png' class='respPic'></div></div>","1","2","Berry Bla$t","Fruit/mixed-berries2.png","Lost","0.35,0.65","9","0.35","17","4","",""
"html-keyboard-response","20","73014","0.0-11.0-2.3","63e5be4daa8fac2e51d4fe91","bdp_rwlrn","Sun Mar 12 2023 23:40:03 GMT-0400 (Eastern Daylight Time)","336715","Untrustworthy,Trustworthy","","null","","","","decisionFB","","<div class='trialDiv'><img src='Fruit/mixed-berries2.png'><br><font class='baseline'><strong>Berry Bla$t</strong><p>Choose number of points to bet.</font><div class='respPicDiv'><img src='img/responseButtonOffersNo0L1.png' class='respPic'></div></div>","null","2","Berry Bla$t","Fruit/mixed-berries2.png","Lost","0.35,0.65","9","0.35","16","4","",""
"html-keyboard-response","21","74016","0.0-11.0-3.3","63e5be4daa8fac2e51d4fe91","bdp_rwlrn","Sun Mar 12 2023 23:40:03 GMT-0400 (Eastern Daylight Time)","336715","Untrustworthy,Trustworthy","","null","","","","feedback","","<div class='respPicDiv'><img src='img/responseButtonOffersNo0_wht.png' class='respPic'></div><div class='trialDiv'><img src='Fruit/mixed-berries2.png'><br><font class='baseline'><strong>Berry Bla$t</strong><p><strong><font class='negOutcome'>You LOST</font><p>You bet: 1</strong></font> &nbsp; &nbsp; &nbsp; &nbsp; &nbsp; &nbsp;<font class='negOutcome'>You receive: <strong>0</strong></font></div>","null","2","Berry Bla$t","Fruit/mixed-berries2.png","Lost","0.35,0.65","9","0.35","16","4","",""
"html-keyboard-response","22","74530","0.0-11.0-1.4","63e5be4daa8fac2e51d4fe91","bdp_rwlrn","Sun Mar 12 2023 23:40:03 GMT-0400 (Eastern Daylight Time)","336715","Untrustworthy,Trustworthy","","513","","","","decision","","<div class='trialDiv'><img src='Fruit/cherrie.png'><br><font class='baseline'><strong>Cherry Chances</strong><p>Choose number of points to bet.</font><div class='respPicDiv'><img src='img/responseButtonOffersNo0L.png' class='respPic'></div></div>","1","2","Cherry Chances","Fruit/cherrie.png","Lost","0.35,0.8","9","0.35","21","5","",""
"html-keyboard-response","23","74782","0.0-11.0-2.4","63e5be4daa8fac2e51d4fe91","bdp_rwlrn","Sun Mar 12 2023 23:40:03 GMT-0400 (Eastern Daylight Time)","336715","Untrustworthy,Trustworthy","","null","","","","decisionFB","","<div class='trialDiv'><img src='Fruit/cherrie.png'><br><font class='baseline'><strong>Cherry Chances</strong><p>Choose number of points to bet.</font><div class='respPicDiv'><img src='img/responseButtonOffersNo0L1.png' class='respPic'></div></div>","null","2","Cherry Chances","Fruit/cherrie.png","Lost","0.35,0.8","9","0.35","20","5","",""
"html-keyboard-response","24","75786","0.0-11.0-3.4","63e5be4daa8fac2e51d4fe91","bdp_rwlrn","Sun Mar 12 2023 23:40:03 GMT-0400 (Eastern Daylight Time)","336715","Untrustworthy,Trustworthy","","null","","","","feedback","","<div class='respPicDiv'><img src='img/responseButtonOffersNo0_wht.png' class='respPic'></div><div class='trialDiv'><img src='Fruit/cherrie.png'><br><font class='baseline'><strong>Cherry Chances</strong><p><strong><font class='negOutcome'>You LOST</font><p>You bet: 1</strong></font> &nbsp; &nbsp; &nbsp; &nbsp; &nbsp; &nbsp;<font class='negOutcome'>You receive: <strong>0</strong></font></div>","null","2","Cherry Chances","Fruit/cherrie.png","Lost","0.35,0.8","9","0.35","20","5","",""
"html-keyboard-response","25","76394","0.0-11.0-1.5","63e5be4daa8fac2e51d4fe91","bdp_rwlrn","Sun Mar 12 2023 23:40:03 GMT-0400 (Eastern Daylight Time)","336715","Untrustworthy,Trustworthy","","606","","","","decision","","<div class='trialDiv'><img src='Fruit/orange.png'><br><font class='baseline'><strong>Odds are Orange</strong><p>Choose number of points to bet.</font><div class='respPicDiv'><img src='img/responseButtonOffersNo0L.png' class='respPic'></div></div>","1","2","Odds are Orange","Fruit/orange.png","Won","0.8,0.35","9","0.8","25","6","",""
"html-keyboard-response","26","76646","0.0-11.0-2.5","63e5be4daa8fac2e51d4fe91","bdp_rwlrn","Sun Mar 12 2023 23:40:03 GMT-0400 (Eastern Daylight Time)","336715","Untrustworthy,Trustworthy","","null","","","","decisionFB","","<div class='trialDiv'><img src='Fruit/orange.png'><br><font class='baseline'><strong>Odds are Orange</strong><p>Choose number of points to bet.</font><div class='respPicDiv'><img src='img/responseButtonOffersNo0L1.png' class='respPic'></div></div>","null","2","Odds are Orange","Fruit/orange.png","Won","0.8,0.35","9","0.8","24","6","",""
"html-keyboard-response","27","77649","0.0-11.0-3.5","63e5be4daa8fac2e51d4fe91","bdp_rwlrn","Sun Mar 12 2023 23:40:03 GMT-0400 (Eastern Daylight Time)","336715","Untrustworthy,Trustworthy","","null","","","","feedback","","<div class='respPicDiv'><img src='img/responseButtonOffersNo0_wht.png' class='respPic'></div><div class='trialDiv'><img src='Fruit/orange.png'><br><font class='baseline'><strong>Odds are Orange</strong><p><strong><font class='posOutcome'>You WON</font><p>You bet: 1</strong></font> &nbsp; &nbsp; &nbsp; &nbsp; &nbsp; &nbsp;<font class='posOutcome'>you receive: <strong>2</strong></font></div>","null","2","Odds are Orange","Fruit/orange.png","Won","0.8,0.35","9","0.8","26","6","",""
"html-keyboard-response","28","78255","0.0-11.0-1.6","63e5be4daa8fac2e51d4fe91","bdp_rwlrn","Sun Mar 12 2023 23:40:03 GMT-0400 (Eastern Daylight Time)","336715","Untrustworthy,Trustworthy","","605","","","","decision","","<div class='trialDiv'><img src='Fruit/mixed-berries2.png'><br><font class='baseline'><strong>Berry Bla$t</strong><p>Choose number of points to bet.</font><div class='respPicDiv'><img src='img/responseButtonOffersNo0L.png' class='respPic'></div></div>","1","3","Berry Bla$t","Fruit/mixed-berries2.png","Lost","0.35,0.65","9","0.35","31","7","",""
"html-keyboard-response","29","78508","0.0-11.0-2.6","63e5be4daa8fac2e51d4fe91","bdp_rwlrn","Sun Mar 12 2023 23:40:03 GMT-0400 (Eastern Daylight Time)","336715","Untrustworthy,Trustworthy","","null","","","","decisionFB","","<div class='trialDiv'><img src='Fruit/mixed-berries2.png'><br><font class='baseline'><strong>Berry Bla$t</strong><p>Choose number of points to bet.</font><div class='respPicDiv'><img src='img/responseButtonOffersNo0L1.png' class='respPic'></div></div>","null","3","Berry Bla$t","Fruit/mixed-berries2.png","Lost","0.35,0.65","9","0.35","30","7","",""
"html-keyboard-response","30","79510","0.0-11.0-3.6","63e5be4daa8fac2e51d4fe91","bdp_rwlrn","Sun Mar 12 2023 23:40:03 GMT-0400 (Eastern Daylight Time)","336715","Untrustworthy,Trustworthy","","null","","","","feedback","","<div class='respPicDiv'><img src='img/responseButtonOffersNo0_wht.png' class='respPic'></div><div class='trialDiv'><img src='Fruit/mixed-berries2.png'><br><font class='baseline'><strong>Berry Bla$t</strong><p><strong><font class='negOutcome'>You LOST</font><p>You bet: 1</strong></font> &nbsp; &nbsp; &nbsp; &nbsp; &nbsp; &nbsp;<font class='negOutcome'>You receive: <strong>0</strong></font></div>","null","3","Berry Bla$t","Fruit/mixed-berries2.png","Lost","0.35,0.65","9","0.35","30","7","",""
"html-keyboard-response","31","80036","0.0-11.0-1.7","63e5be4daa8fac2e51d4fe91","bdp_rwlrn","Sun Mar 12 2023 23:40:03 GMT-0400 (Eastern Daylight Time)","336715","Untrustworthy,Trustworthy","","525","","","","decision","","<div class='trialDiv'><img src='Fruit/cherrie.png'><br><font class='baseline'><strong>Cherry Chances</strong><p>Choose number of points to bet.</font><div class='respPicDiv'><img src='img/responseButtonOffersNo0L.png' class='respPic'></div></div>","1","3","Cherry Chances","Fruit/cherrie.png","Lost","0.35,0.8","9","0.35","35","8","",""
"html-keyboard-response","32","80289","0.0-11.0-2.7","63e5be4daa8fac2e51d4fe91","bdp_rwlrn","Sun Mar 12 2023 23:40:03 GMT-0400 (Eastern Daylight Time)","336715","Untrustworthy,Trustworthy","","null","","","","decisionFB","","<div class='trialDiv'><img src='Fruit/cherrie.png'><br><font class='baseline'><strong>Cherry Chances</strong><p>Choose number of points to bet.</font><div class='respPicDiv'><img src='img/responseButtonOffersNo0L1.png' class='respPic'></div></div>","null","3","Cherry Chances","Fruit/cherrie.png","Lost","0.35,0.8","9","0.35","34","8","",""
"html-keyboard-response","33","81292","0.0-11.0-3.7","63e5be4daa8fac2e51d4fe91","bdp_rwlrn","Sun Mar 12 2023 23:40:03 GMT-0400 (Eastern Daylight Time)","336715","Untrustworthy,Trustworthy","","null","","","","feedback","","<div class='respPicDiv'><img src='img/responseButtonOffersNo0_wht.png' class='respPic'></div><div class='trialDiv'><img src='Fruit/cherrie.png'><br><font class='baseline'><strong>Cherry Chances</strong><p><strong><font class='negOutcome'>You LOST</font><p>You bet: 1</strong></font> &nbsp; &nbsp; &nbsp; &nbsp; &nbsp; &nbsp;<font class='negOutcome'>You receive: <strong>0</strong></font></div>","null","3","Cherry Chances","Fruit/cherrie.png","Lost","0.35,0.8","9","0.35","34","8","",""
"html-keyboard-response","34","82711","0.0-11.0-1.8","63e5be4daa8fac2e51d4fe91","bdp_rwlrn","Sun Mar 12 2023 23:40:03 GMT-0400 (Eastern Daylight Time)","336715","Untrustworthy,Trustworthy","","1418","","","","decision","","<div class='trialDiv'><img src='Fruit/orange.png'><br><font class='baseline'><strong>Odds are Orange</strong><p>Choose number of points to bet.</font><div class='respPicDiv'><img src='img/responseButtonOffersNo0L.png' class='respPic'></div></div>","5","3","Odds are Orange","Fruit/orange.png","Won","0.8,0.35","9","0.8","39","9","",""
"html-keyboard-response","35","82963","0.0-11.0-2.8","63e5be4daa8fac2e51d4fe91","bdp_rwlrn","Sun Mar 12 2023 23:40:03 GMT-0400 (Eastern Daylight Time)","336715","Untrustworthy,Trustworthy","","null","","","","decisionFB","","<div class='trialDiv'><img src='Fruit/orange.png'><br><font class='baseline'><strong>Odds are Orange</strong><p>Choose number of points to bet.</font><div class='respPicDiv'><img src='img/responseButtonOffersNo0L5.png' class='respPic'></div></div>","null","3","Odds are Orange","Fruit/orange.png","Won","0.8,0.35","9","0.8","34","9","",""
"html-keyboard-response","36","83965","0.0-11.0-3.8","63e5be4daa8fac2e51d4fe91","bdp_rwlrn","Sun Mar 12 2023 23:40:03 GMT-0400 (Eastern Daylight Time)","336715","Untrustworthy,Trustworthy","","null","","","","feedback","","<div class='respPicDiv'><img src='img/responseButtonOffersNo0_wht.png' class='respPic'></div><div class='trialDiv'><img src='Fruit/orange.png'><br><font class='baseline'><strong>Odds are Orange</strong><p><strong><font class='posOutcome'>You WON</font><p>You bet: 5</strong></font> &nbsp; &nbsp; &nbsp; &nbsp; &nbsp; &nbsp;<font class='posOutcome'>you receive: <strong>10</strong></font></div>","null","3","Odds are Orange","Fruit/orange.png","Won","0.8,0.35","9","0.8","44","9","",""
"html-keyboard-response","37","84537","0.0-11.0-1.9","63e5be4daa8fac2e51d4fe91","bdp_rwlrn","Sun Mar 12 2023 23:40:03 GMT-0400 (Eastern Daylight Time)","336715","Untrustworthy,Trustworthy","","570","","","","decision","","<div class='trialDiv'><img src='Fruit/mixed-berries2.png'><br><font class='baseline'><strong>Berry Bla$t</strong><p>Choose number of points to bet.</font><div class='respPicDiv'><img src='img/responseButtonOffersNo0L.png' class='respPic'></div></div>","5","4","Berry Bla$t","Fruit/mixed-berries2.png","Lost","0.35,0.65","9","0.35","49","10","",""
"html-keyboard-response","38","84790","0.0-11.0-2.9","63e5be4daa8fac2e51d4fe91","bdp_rwlrn","Sun Mar 12 2023 23:40:03 GMT-0400 (Eastern Daylight Time)","336715","Untrustworthy,Trustworthy","","null","","","","decisionFB","","<div class='trialDiv'><img src='Fruit/mixed-berries2.png'><br><font class='baseline'><strong>Berry Bla$t</strong><p>Choose number of points to bet.</font><div class='respPicDiv'><img src='img/responseButtonOffersNo0L5.png' class='respPic'></div></div>","null","4","Berry Bla$t","Fruit/mixed-berries2.png","Lost","0.35,0.65","9","0.35","44","10","",""
"html-keyboard-response","39","85792","0.0-11.0-3.9","63e5be4daa8fac2e51d4fe91","bdp_rwlrn","Sun Mar 12 2023 23:40:03 GMT-0400 (Eastern Daylight Time)","336715","Untrustworthy,Trustworthy","","null","","","","feedback","","<div class='respPicDiv'><img src='img/responseButtonOffersNo0_wht.png' class='respPic'></div><div class='trialDiv'><img src='Fruit/mixed-berries2.png'><br><font class='baseline'><strong>Berry Bla$t</strong><p><strong><font class='negOutcome'>You LOST</font><p>You bet: 5</strong></font> &nbsp; &nbsp; &nbsp; &nbsp; &nbsp; &nbsp;<font class='negOutcome'>You receive: <strong>0</strong></font></div>","null","4","Berry Bla$t","Fruit/mixed-berries2.png","Lost","0.35,0.65","9","0.35","44","10","",""
"html-keyboard-response","40","86394","0.0-11.0-1.10","63e5be4daa8fac2e51d4fe91","bdp_rwlrn","Sun Mar 12 2023 23:40:03 GMT-0400 (Eastern Daylight Time)","336715","Untrustworthy,Trustworthy","","600","","","","decision","","<div class='trialDiv'><img src='Fruit/cherrie.png'><br><font class='baseline'><strong>Cherry Chances</strong><p>Choose number of points to bet.</font><div class='respPicDiv'><img src='img/responseButtonOffersNo0L.png' class='respPic'></div></div>","5","4","Cherry Chances","Fruit/cherrie.png","Lost","0.35,0.8","9","0.35","49","11","",""
"html-keyboard-response","41","86646","0.0-11.0-2.10","63e5be4daa8fac2e51d4fe91","bdp_rwlrn","Sun Mar 12 2023 23:40:03 GMT-0400 (Eastern Daylight Time)","336715","Untrustworthy,Trustworthy","","null","","","","decisionFB","","<div class='trialDiv'><img src='Fruit/cherrie.png'><br><font class='baseline'><strong>Cherry Chances</strong><p>Choose number of points to bet.</font><div class='respPicDiv'><img src='img/responseButtonOffersNo0L5.png' class='respPic'></div></div>","null","4","Cherry Chances","Fruit/cherrie.png","Lost","0.35,0.8","9","0.35","44","11","",""
"html-keyboard-response","42","87655","0.0-11.0-3.10","63e5be4daa8fac2e51d4fe91","bdp_rwlrn","Sun Mar 12 2023 23:40:03 GMT-0400 (Eastern Daylight Time)","336715","Untrustworthy,Trustworthy","","null","","","","feedback","","<div class='respPicDiv'><img src='img/responseButtonOffersNo0_wht.png' class='respPic'></div><div class='trialDiv'><img src='Fruit/cherrie.png'><br><font class='baseline'><strong>Cherry Chances</strong><p><strong><font class='negOutcome'>You LOST</font><p>You bet: 5</strong></font> &nbsp; &nbsp; &nbsp; &nbsp; &nbsp; &nbsp;<font class='negOutcome'>You receive: <strong>0</strong></font></div>","null","4","Cherry Chances","Fruit/cherrie.png","Lost","0.35,0.8","9","0.35","44","11","",""
"html-keyboard-response","43","88217","0.0-11.0-1.11","63e5be4daa8fac2e51d4fe91","bdp_rwlrn","Sun Mar 12 2023 23:40:03 GMT-0400 (Eastern Daylight Time)","336715","Untrustworthy,Trustworthy","","562","","","","decision","","<div class='trialDiv'><img src='Fruit/orange.png'><br><font class='baseline'><strong>Odds are Orange</strong><p>Choose number of points to bet.</font><div class='respPicDiv'><img src='img/responseButtonOffersNo0L.png' class='respPic'></div></div>","5","4","Odds are Orange","Fruit/orange.png","Won","0.8,0.35","9","0.8","49","12","",""
"html-keyboard-response","44","88470","0.0-11.0-2.11","63e5be4daa8fac2e51d4fe91","bdp_rwlrn","Sun Mar 12 2023 23:40:03 GMT-0400 (Eastern Daylight Time)","336715","Untrustworthy,Trustworthy","","null","","","","decisionFB","","<div class='trialDiv'><img src='Fruit/orange.png'><br><font class='baseline'><strong>Odds are Orange</strong><p>Choose number of points to bet.</font><div class='respPicDiv'><img src='img/responseButtonOffersNo0L5.png' class='respPic'></div></div>","null","4","Odds are Orange","Fruit/orange.png","Won","0.8,0.35","9","0.8","44","12","",""
"html-keyboard-response","45","89472","0.0-11.0-3.11","63e5be4daa8fac2e51d4fe91","bdp_rwlrn","Sun Mar 12 2023 23:40:03 GMT-0400 (Eastern Daylight Time)","336715","Untrustworthy,Trustworthy","","null","","","","feedback","","<div class='respPicDiv'><img src='img/responseButtonOffersNo0_wht.png' class='respPic'></div><div class='trialDiv'><img src='Fruit/orange.png'><br><font class='baseline'><strong>Odds are Orange</strong><p><strong><font class='posOutcome'>You WON</font><p>You bet: 5</strong></font> &nbsp; &nbsp; &nbsp; &nbsp; &nbsp; &nbsp;<font class='posOutcome'>you receive: <strong>10</strong></font></div>","null","4","Odds are Orange","Fruit/orange.png","Won","0.8,0.35","9","0.8","54","12","",""
"html-keyboard-response","46","90113","0.0-11.0-1.12","63e5be4daa8fac2e51d4fe91","bdp_rwlrn","Sun Mar 12 2023 23:40:03 GMT-0400 (Eastern Daylight Time)","336715","Untrustworthy,Trustworthy","","639","","","","decision","","<div class='trialDiv'><img src='Fruit/mixed-berries2.png'><br><font class='baseline'><strong>Berry Bla$t</strong><p>Choose number of points to bet.</font><div class='respPicDiv'><img src='img/responseButtonOffersNo0L.png' class='respPic'></div></div>","1","5","Berry Bla$t","Fruit/mixed-berries2.png","Lost","0.35,0.65","9","0.35","59","13","",""
"html-keyboard-response","47","90366","0.0-11.0-2.12","63e5be4daa8fac2e51d4fe91","bdp_rwlrn","Sun Mar 12 2023 23:40:03 GMT-0400 (Eastern Daylight Time)","336715","Untrustworthy,Trustworthy","","null","","","","decisionFB","","<div class='trialDiv'><img src='Fruit/mixed-berries2.png'><br><font class='baseline'><strong>Berry Bla$t</strong><p>Choose number of points to bet.</font><div class='respPicDiv'><img src='img/responseButtonOffersNo0L1.png' class='respPic'></div></div>","null","5","Berry Bla$t","Fruit/mixed-berries2.png","Lost","0.35,0.65","9","0.35","58","13","",""
"html-keyboard-response","48","91368","0.0-11.0-3.12","63e5be4daa8fac2e51d4fe91","bdp_rwlrn","Sun Mar 12 2023 23:40:03 GMT-0400 (Eastern Daylight Time)","336715","Untrustworthy,Trustworthy","","null","","","","feedback","","<div class='respPicDiv'><img src='img/responseButtonOffersNo0_wht.png' class='respPic'></div><div class='trialDiv'><img src='Fruit/mixed-berries2.png'><br><font class='baseline'><strong>Berry Bla$t</strong><p><strong><font class='negOutcome'>You LOST</font><p>You bet: 1</strong></font> &nbsp; &nbsp; &nbsp; &nbsp; &nbsp; &nbsp;<font class='negOutcome'>You receive: <strong>0</strong></font></div>","null","5","Berry Bla$t","Fruit/mixed-berries2.png","Lost","0.35,0.65","9","0.35","58","13","",""
"html-keyboard-response","49","92547","0.0-11.0-1.13","63e5be4daa8fac2e51d4fe91","bdp_rwlrn","Sun Mar 12 2023 23:40:03 GMT-0400 (Eastern Daylight Time)","336715","Untrustworthy,Trustworthy","","1178","","","","decision","","<div class='trialDiv'><img src='Fruit/cherrie.png'><br><font class='baseline'><strong>Cherry Chances</strong><p>Choose number of points to bet.</font><div class='respPicDiv'><img src='img/responseButtonOffersNo0L.png' class='respPic'></div></div>","2","5","Cherry Chances","Fruit/cherrie.png","Lost","0.35,0.8","9","0.35","63","14","",""
"html-keyboard-response","50","92799","0.0-11.0-2.13","63e5be4daa8fac2e51d4fe91","bdp_rwlrn","Sun Mar 12 2023 23:40:03 GMT-0400 (Eastern Daylight Time)","336715","Untrustworthy,Trustworthy","","null","","","","decisionFB","","<div class='trialDiv'><img src='Fruit/cherrie.png'><br><font class='baseline'><strong>Cherry Chances</strong><p>Choose number of points to bet.</font><div class='respPicDiv'><img src='img/responseButtonOffersNo0L2.png' class='respPic'></div></div>","null","5","Cherry Chances","Fruit/cherrie.png","Lost","0.35,0.8","9","0.35","61","14","",""
"html-keyboard-response","51","93803","0.0-11.0-3.13","63e5be4daa8fac2e51d4fe91","bdp_rwlrn","Sun Mar 12 2023 23:40:03 GMT-0400 (Eastern Daylight Time)","336715","Untrustworthy,Trustworthy","","null","","","","feedback","","<div class='respPicDiv'><img src='img/responseButtonOffersNo0_wht.png' class='respPic'></div><div class='trialDiv'><img src='Fruit/cherrie.png'><br><font class='baseline'><strong>Cherry Chances</strong><p><strong><font class='negOutcome'>You LOST</font><p>You bet: 2</strong></font> &nbsp; &nbsp; &nbsp; &nbsp; &nbsp; &nbsp;<font class='negOutcome'>You receive: <strong>0</strong></font></div>","null","5","Cherry Chances","Fruit/cherrie.png","Lost","0.35,0.8","9","0.35","61","14","",""
"html-keyboard-response","52","94386","0.0-11.0-1.14","63e5be4daa8fac2e51d4fe91","bdp_rwlrn","Sun Mar 12 2023 23:40:03 GMT-0400 (Eastern Daylight Time)","336715","Untrustworthy,Trustworthy","","582","","","","decision","","<div class='trialDiv'><img src='Fruit/orange.png'><br><font class='baseline'><strong>Odds are Orange</strong><p>Choose number of points to bet.</font><div class='respPicDiv'><img src='img/responseButtonOffersNo0L.png' class='respPic'></div></div>","5","5","Odds are Orange","Fruit/orange.png","Won","0.8,0.35","9","0.8","66","15","",""
"html-keyboard-response","53","94638","0.0-11.0-2.14","63e5be4daa8fac2e51d4fe91","bdp_rwlrn","Sun Mar 12 2023 23:40:03 GMT-0400 (Eastern Daylight Time)","336715","Untrustworthy,Trustworthy","","null","","","","decisionFB","","<div class='trialDiv'><img src='Fruit/orange.png'><br><font class='baseline'><strong>Odds are Orange</strong><p>Choose number of points to bet.</font><div class='respPicDiv'><img src='img/responseButtonOffersNo0L5.png' class='respPic'></div></div>","null","5","Odds are Orange","Fruit/orange.png","Won","0.8,0.35","9","0.8","61","15","",""
"html-keyboard-response","54","95641","0.0-11.0-3.14","63e5be4daa8fac2e51d4fe91","bdp_rwlrn","Sun Mar 12 2023 23:40:03 GMT-0400 (Eastern Daylight Time)","336715","Untrustworthy,Trustworthy","","null","","","","feedback","","<div class='respPicDiv'><img src='img/responseButtonOffersNo0_wht.png' class='respPic'></div><div class='trialDiv'><img src='Fruit/orange.png'><br><font class='baseline'><strong>Odds are Orange</strong><p><strong><font class='posOutcome'>You WON</font><p>You bet: 5</strong></font> &nbsp; &nbsp; &nbsp; &nbsp; &nbsp; &nbsp;<font class='posOutcome'>you receive: <strong>10</strong></font></div>","null","5","Odds are Orange","Fruit/orange.png","Won","0.8,0.35","9","0.8","71","15","",""
"html-keyboard-response","55","96285","0.0-11.0-1.15","63e5be4daa8fac2e51d4fe91","bdp_rwlrn","Sun Mar 12 2023 23:40:03 GMT-0400 (Eastern Daylight Time)","336715","Untrustworthy,Trustworthy","","643","","","","decision","","<div class='trialDiv'><img src='Fruit/cherrie.png'><br><font class='baseline'><strong>Cherry Chances</strong><p>Choose number of points to bet.</font><div class='respPicDiv'><img src='img/responseButtonOffersNo0L.png' class='respPic'></div></div>","1","6","Cherry Chances","Fruit/cherrie.png","Lost","0.35,0.8","9","0.35","76","16","",""
"html-keyboard-response","56","96538","0.0-11.0-2.15","63e5be4daa8fac2e51d4fe91","bdp_rwlrn","Sun Mar 12 2023 23:40:03 GMT-0400 (Eastern Daylight Time)","336715","Untrustworthy,Trustworthy","","null","","","","decisionFB","","<div class='trialDiv'><img src='Fruit/cherrie.png'><br><font class='baseline'><strong>Cherry Chances</strong><p>Choose number of points to bet.</font><div class='respPicDiv'><img src='img/responseButtonOffersNo0L1.png' class='respPic'></div></div>","null","6","Cherry Chances","Fruit/cherrie.png","Lost","0.35,0.8","9","0.35","75","16","",""
"html-keyboard-response","57","97554","0.0-11.0-3.15","63e5be4daa8fac2e51d4fe91","bdp_rwlrn","Sun Mar 12 2023 23:40:03 GMT-0400 (Eastern Daylight Time)","336715","Untrustworthy,Trustworthy","","null","","","","feedback","","<div class='respPicDiv'><img src='img/responseButtonOffersNo0_wht.png' class='respPic'></div><div class='trialDiv'><img src='Fruit/cherrie.png'><br><font class='baseline'><strong>Cherry Chances</strong><p><strong><font class='negOutcome'>You LOST</font><p>You bet: 1</strong></font> &nbsp; &nbsp; &nbsp; &nbsp; &nbsp; &nbsp;<font class='negOutcome'>You receive: <strong>0</strong></font></div>","null","6","Cherry Chances","Fruit/cherrie.png","Lost","0.35,0.8","9","0.35","75","16","",""
"html-keyboard-response","58","98068","0.0-11.0-1.16","63e5be4daa8fac2e51d4fe91","bdp_rwlrn","Sun Mar 12 2023 23:40:03 GMT-0400 (Eastern Daylight Time)","336715","Untrustworthy,Trustworthy","","512","","","","decision","","<div class='trialDiv'><img src='Fruit/mixed-berries2.png'><br><font class='baseline'><strong>Berry Bla$t</strong><p>Choose number of points to bet.</font><div class='respPicDiv'><img src='img/responseButtonOffersNo0L.png' class='respPic'></div></div>","1","6","Berry Bla$t","Fruit/mixed-berries2.png","Lost","0.35,0.65","9","0.35","80","17","",""
"html-keyboard-response","59","98321","0.0-11.0-2.16","63e5be4daa8fac2e51d4fe91","bdp_rwlrn","Sun Mar 12 2023 23:40:03 GMT-0400 (Eastern Daylight Time)","336715","Untrustworthy,Trustworthy","","null","","","","decisionFB","","<div class='trialDiv'><img src='Fruit/mixed-berries2.png'><br><font class='baseline'><strong>Berry Bla$t</strong><p>Choose number of points to bet.</font><div class='respPicDiv'><img src='img/responseButtonOffersNo0L1.png' class='respPic'></div></div>","null","6","Berry Bla$t","Fruit/mixed-berries2.png","Lost","0.35,0.65","9","0.35","79","17","",""
"html-keyboard-response","60","99323","0.0-11.0-3.16","63e5be4daa8fac2e51d4fe91","bdp_rwlrn","Sun Mar 12 2023 23:40:03 GMT-0400 (Eastern Daylight Time)","336715","Untrustworthy,Trustworthy","","null","","","","feedback","","<div class='respPicDiv'><img src='img/responseButtonOffersNo0_wht.png' class='respPic'></div><div class='trialDiv'><img src='Fruit/mixed-berries2.png'><br><font class='baseline'><strong>Berry Bla$t</strong><p><strong><font class='negOutcome'>You LOST</font><p>You bet: 1</strong></font> &nbsp; &nbsp; &nbsp; &nbsp; &nbsp; &nbsp;<font class='negOutcome'>You receive: <strong>0</strong></font></div>","null","6","Berry Bla$t","Fruit/mixed-berries2.png","Lost","0.35,0.65","9","0.35","79","17","",""
"html-keyboard-response","61","99791","0.0-11.0-1.17","63e5be4daa8fac2e51d4fe91","bdp_rwlrn","Sun Mar 12 2023 23:40:03 GMT-0400 (Eastern Daylight Time)","336715","Untrustworthy,Trustworthy","","467","","","","decision","","<div class='trialDiv'><img src='Fruit/orange.png'><br><font class='baseline'><strong>Odds are Orange</strong><p>Choose number of points to bet.</font><div class='respPicDiv'><img src='img/responseButtonOffersNo0L.png' class='respPic'></div></div>","5","6","Odds are Orange","Fruit/orange.png","Won","0.8,0.35","9","0.8","84","18","",""
"html-keyboard-response","62","100043","0.0-11.0-2.17","63e5be4daa8fac2e51d4fe91","bdp_rwlrn","Sun Mar 12 2023 23:40:03 GMT-0400 (Eastern Daylight Time)","336715","Untrustworthy,Trustworthy","","null","","","","decisionFB","","<div class='trialDiv'><img src='Fruit/orange.png'><br><font class='baseline'><strong>Odds are Orange</strong><p>Choose number of points to bet.</font><div class='respPicDiv'><img src='img/responseButtonOffersNo0L5.png' class='respPic'></div></div>","null","6","Odds are Orange","Fruit/orange.png","Won","0.8,0.35","9","0.8","79","18","",""
"html-keyboard-response","63","101046","0.0-11.0-3.17","63e5be4daa8fac2e51d4fe91","bdp_rwlrn","Sun Mar 12 2023 23:40:03 GMT-0400 (Eastern Daylight Time)","336715","Untrustworthy,Trustworthy","","null","","","","feedback","","<div class='respPicDiv'><img src='img/responseButtonOffersNo0_wht.png' class='respPic'></div><div class='trialDiv'><img src='Fruit/orange.png'><br><font class='baseline'><strong>Odds are Orange</strong><p><strong><font class='posOutcome'>You WON</font><p>You bet: 5</strong></font> &nbsp; &nbsp; &nbsp; &nbsp; &nbsp; &nbsp;<font class='posOutcome'>you receive: <strong>10</strong></font></div>","null","6","Odds are Orange","Fruit/orange.png","Won","0.8,0.35","9","0.8","89","18","",""
"html-keyboard-response","64","101740","0.0-11.0-1.18","63e5be4daa8fac2e51d4fe91","bdp_rwlrn","Sun Mar 12 2023 23:40:03 GMT-0400 (Eastern Daylight Time)","336715","Untrustworthy,Trustworthy","","693","","","","decision","","<div class='trialDiv'><img src='Fruit/mixed-berries2.png'><br><font class='baseline'><strong>Berry Bla$t</strong><p>Choose number of points to bet.</font><div class='respPicDiv'><img src='img/responseButtonOffersNo0L.png' class='respPic'></div></div>","1","7","Berry Bla$t","Fruit/mixed-berries2.png","Lost","0.35,0.65","9","0.35","94","19","",""
"html-keyboard-response","65","101997","0.0-11.0-2.18","63e5be4daa8fac2e51d4fe91","bdp_rwlrn","Sun Mar 12 2023 23:40:03 GMT-0400 (Eastern Daylight Time)","336715","Untrustworthy,Trustworthy","","null","","","","decisionFB","","<div class='trialDiv'><img src='Fruit/mixed-berries2.png'><br><font class='baseline'><strong>Berry Bla$t</strong><p>Choose number of points to bet.</font><div class='respPicDiv'><img src='img/responseButtonOffersNo0L1.png' class='respPic'></div></div>","null","7","Berry Bla$t","Fruit/mixed-berries2.png","Lost","0.35,0.65","9","0.35","93","19","",""
"html-keyboard-response","66","102999","0.0-11.0-3.18","63e5be4daa8fac2e51d4fe91","bdp_rwlrn","Sun Mar 12 2023 23:40:03 GMT-0400 (Eastern Daylight Time)","336715","Untrustworthy,Trustworthy","","null","","","","feedback","","<div class='respPicDiv'><img src='img/responseButtonOffersNo0_wht.png' class='respPic'></div><div class='trialDiv'><img src='Fruit/mixed-berries2.png'><br><font class='baseline'><strong>Berry Bla$t</strong><p><strong><font class='negOutcome'>You LOST</font><p>You bet: 1</strong></font> &nbsp; &nbsp; &nbsp; &nbsp; &nbsp; &nbsp;<font class='negOutcome'>You receive: <strong>0</strong></font></div>","null","7","Berry Bla$t","Fruit/mixed-berries2.png","Lost","0.35,0.65","9","0.35","93","19","",""
"html-keyboard-response","67","103577","0.0-11.0-1.19","63e5be4daa8fac2e51d4fe91","bdp_rwlrn","Sun Mar 12 2023 23:40:03 GMT-0400 (Eastern Daylight Time)","336715","Untrustworthy,Trustworthy","","577","","","","decision","","<div class='trialDiv'><img src='Fruit/cherrie.png'><br><font class='baseline'><strong>Cherry Chances</strong><p>Choose number of points to bet.</font><div class='respPicDiv'><img src='img/responseButtonOffersNo0L.png' class='respPic'></div></div>","1","7","Cherry Chances","Fruit/cherrie.png","Lost","0.35,0.8","9","0.35","98","20","",""
"html-keyboard-response","68","103828","0.0-11.0-2.19","63e5be4daa8fac2e51d4fe91","bdp_rwlrn","Sun Mar 12 2023 23:40:03 GMT-0400 (Eastern Daylight Time)","336715","Untrustworthy,Trustworthy","","null","","","","decisionFB","","<div class='trialDiv'><img src='Fruit/cherrie.png'><br><font class='baseline'><strong>Cherry Chances</strong><p>Choose number of points to bet.</font><div class='respPicDiv'><img src='img/responseButtonOffersNo0L1.png' class='respPic'></div></div>","null","7","Cherry Chances","Fruit/cherrie.png","Lost","0.35,0.8","9","0.35","97","20","",""
"html-keyboard-response","69","104830","0.0-11.0-3.19","63e5be4daa8fac2e51d4fe91","bdp_rwlrn","Sun Mar 12 2023 23:40:03 GMT-0400 (Eastern Daylight Time)","336715","Untrustworthy,Trustworthy","","null","","","","feedback","","<div class='respPicDiv'><img src='img/responseButtonOffersNo0_wht.png' class='respPic'></div><div class='trialDiv'><img src='Fruit/cherrie.png'><br><font class='baseline'><strong>Cherry Chances</strong><p><strong><font class='negOutcome'>You LOST</font><p>You bet: 1</strong></font> &nbsp; &nbsp; &nbsp; &nbsp; &nbsp; &nbsp;<font class='negOutcome'>You receive: <strong>0</strong></font></div>","null","7","Cherry Chances","Fruit/cherrie.png","Lost","0.35,0.8","9","0.35","97","20","",""
"html-keyboard-response","70","105239","0.0-11.0-1.20","63e5be4daa8fac2e51d4fe91","bdp_rwlrn","Sun Mar 12 2023 23:40:03 GMT-0400 (Eastern Daylight Time)","336715","Untrustworthy,Trustworthy","","407","","","","decision","","<div class='trialDiv'><img src='Fruit/orange.png'><br><font class='baseline'><strong>Odds are Orange</strong><p>Choose number of points to bet.</font><div class='respPicDiv'><img src='img/responseButtonOffersNo0L.png' class='respPic'></div></div>","5","7","Odds are Orange","Fruit/orange.png","Lost","0.8,0.35","9","0.8","102","21","",""
"html-keyboard-response","71","105491","0.0-11.0-2.20","63e5be4daa8fac2e51d4fe91","bdp_rwlrn","Sun Mar 12 2023 23:40:03 GMT-0400 (Eastern Daylight Time)","336715","Untrustworthy,Trustworthy","","null","","","","decisionFB","","<div class='trialDiv'><img src='Fruit/orange.png'><br><font class='baseline'><strong>Odds are Orange</strong><p>Choose number of points to bet.</font><div class='respPicDiv'><img src='img/responseButtonOffersNo0L5.png' class='respPic'></div></div>","null","7","Odds are Orange","Fruit/orange.png","Lost","0.8,0.35","9","0.8","97","21","",""
"html-keyboard-response","72","106494","0.0-11.0-3.20","63e5be4daa8fac2e51d4fe91","bdp_rwlrn","Sun Mar 12 2023 23:40:03 GMT-0400 (Eastern Daylight Time)","336715","Untrustworthy,Trustworthy","","null","","","","feedback","","<div class='respPicDiv'><img src='img/responseButtonOffersNo0_wht.png' class='respPic'></div><div class='trialDiv'><img src='Fruit/orange.png'><br><font class='baseline'><strong>Odds are Orange</strong><p><strong><font class='negOutcome'>You LOST</font><p>You bet: 5</strong></font> &nbsp; &nbsp; &nbsp; &nbsp; &nbsp; &nbsp;<font class='negOutcome'>You receive: <strong>0</strong></font></div>","null","7","Odds are Orange","Fruit/orange.png","Lost","0.8,0.35","9","0.8","97","21","",""
"html-keyboard-response","73","107155","0.0-11.0-1.21","63e5be4daa8fac2e51d4fe91","bdp_rwlrn","Sun Mar 12 2023 23:40:03 GMT-0400 (Eastern Daylight Time)","336715","Untrustworthy,Trustworthy","","660","","","","decision","","<div class='trialDiv'><img src='Fruit/cherrie.png'><br><font class='baseline'><strong>Cherry Chances</strong><p>Choose number of points to bet.</font><div class='respPicDiv'><img src='img/responseButtonOffersNo0L.png' class='respPic'></div></div>","1","8","Cherry Chances","Fruit/cherrie.png","Won","0.35,0.8","9","0.35","102","22","",""
"html-keyboard-response","74","107407","0.0-11.0-2.21","63e5be4daa8fac2e51d4fe91","bdp_rwlrn","Sun Mar 12 2023 23:40:03 GMT-0400 (Eastern Daylight Time)","336715","Untrustworthy,Trustworthy","","null","","","","decisionFB","","<div class='trialDiv'><img src='Fruit/cherrie.png'><br><font class='baseline'><strong>Cherry Chances</strong><p>Choose number of points to bet.</font><div class='respPicDiv'><img src='img/responseButtonOffersNo0L1.png' class='respPic'></div></div>","null","8","Cherry Chances","Fruit/cherrie.png","Won","0.35,0.8","9","0.35","101","22","",""
"html-keyboard-response","75","108409","0.0-11.0-3.21","63e5be4daa8fac2e51d4fe91","bdp_rwlrn","Sun Mar 12 2023 23:40:03 GMT-0400 (Eastern Daylight Time)","336715","Untrustworthy,Trustworthy","","null","","","","feedback","","<div class='respPicDiv'><img src='img/responseButtonOffersNo0_wht.png' class='respPic'></div><div class='trialDiv'><img src='Fruit/cherrie.png'><br><font class='baseline'><strong>Cherry Chances</strong><p><strong><font class='posOutcome'>You WON</font><p>You bet: 1</strong></font> &nbsp; &nbsp; &nbsp; &nbsp; &nbsp; &nbsp;<font class='posOutcome'>you receive: <strong>2</strong></font></div>","null","8","Cherry Chances","Fruit/cherrie.png","Won","0.35,0.8","9","0.35","103","22","",""
"html-keyboard-response","76","109173","0.0-11.0-1.22","63e5be4daa8fac2e51d4fe91","bdp_rwlrn","Sun Mar 12 2023 23:40:03 GMT-0400 (Eastern Daylight Time)","336715","Untrustworthy,Trustworthy","","762","","","","decision","","<div class='trialDiv'><img src='Fruit/orange.png'><br><font class='baseline'><strong>Odds are Orange</strong><p>Choose number of points to bet.</font><div class='respPicDiv'><img src='img/responseButtonOffersNo0L.png' class='respPic'></div></div>","5","8","Odds are Orange","Fruit/orange.png","Lost","0.8,0.35","9","0.8","108","23","",""
"html-keyboard-response","77","109432","0.0-11.0-2.22","63e5be4daa8fac2e51d4fe91","bdp_rwlrn","Sun Mar 12 2023 23:40:03 GMT-0400 (Eastern Daylight Time)","336715","Untrustworthy,Trustworthy","","null","","","","decisionFB","","<div class='trialDiv'><img src='Fruit/orange.png'><br><font class='baseline'><strong>Odds are Orange</strong><p>Choose number of points to bet.</font><div class='respPicDiv'><img src='img/responseButtonOffersNo0L5.png' class='respPic'></div></div>","null","8","Odds are Orange","Fruit/orange.png","Lost","0.8,0.35","9","0.8","103","23","",""
"html-keyboard-response","78","110437","0.0-11.0-3.22","63e5be4daa8fac2e51d4fe91","bdp_rwlrn","Sun Mar 12 2023 23:40:03 GMT-0400 (Eastern Daylight Time)","336715","Untrustworthy,Trustworthy","","null","","","","feedback","","<div class='respPicDiv'><img src='img/responseButtonOffersNo0_wht.png' class='respPic'></div><div class='trialDiv'><img src='Fruit/orange.png'><br><font class='baseline'><strong>Odds are Orange</strong><p><strong><font class='negOutcome'>You LOST</font><p>You bet: 5</strong></font> &nbsp; &nbsp; &nbsp; &nbsp; &nbsp; &nbsp;<font class='negOutcome'>You receive: <strong>0</strong></font></div>","null","8","Odds are Orange","Fruit/orange.png","Lost","0.8,0.35","9","0.8","103","23","",""
"html-keyboard-response","79","111163","0.0-11.0-1.23","63e5be4daa8fac2e51d4fe91","bdp_rwlrn","Sun Mar 12 2023 23:40:03 GMT-0400 (Eastern Daylight Time)","336715","Untrustworthy,Trustworthy","","724","","","","decision","","<div class='trialDiv'><img src='Fruit/mixed-berries2.png'><br><font class='baseline'><strong>Berry Bla$t</strong><p>Choose number of points to bet.</font><div class='respPicDiv'><img src='img/responseButtonOffersNo0L.png' class='respPic'></div></div>","1","8","Berry Bla$t","Fruit/mixed-berries2.png","Lost","0.35,0.65","9","0.35","108","24","",""
"html-keyboard-response","80","111416","0.0-11.0-2.23","63e5be4daa8fac2e51d4fe91","bdp_rwlrn","Sun Mar 12 2023 23:40:03 GMT-0400 (Eastern Daylight Time)","336715","Untrustworthy,Trustworthy","","null","","","","decisionFB","","<div class='trialDiv'><img src='Fruit/mixed-berries2.png'><br><font class='baseline'><strong>Berry Bla$t</strong><p>Choose number of points to bet.</font><div class='respPicDiv'><img src='img/responseButtonOffersNo0L1.png' class='respPic'></div></div>","null","8","Berry Bla$t","Fruit/mixed-berries2.png","Lost","0.35,0.65","9","0.35","107","24","",""
"html-keyboard-response","81","112418","0.0-11.0-3.23","63e5be4daa8fac2e51d4fe91","bdp_rwlrn","Sun Mar 12 2023 23:40:03 GMT-0400 (Eastern Daylight Time)","336715","Untrustworthy,Trustworthy","","null","","","","feedback","","<div class='respPicDiv'><img src='img/responseButtonOffersNo0_wht.png' class='respPic'></div><div class='trialDiv'><img src='Fruit/mixed-berries2.png'><br><font class='baseline'><strong>Berry Bla$t</strong><p><strong><font class='negOutcome'>You LOST</font><p>You bet: 1</strong></font> &nbsp; &nbsp; &nbsp; &nbsp; &nbsp; &nbsp;<font class='negOutcome'>You receive: <strong>0</strong></font></div>","null","8","Berry Bla$t","Fruit/mixed-berries2.png","Lost","0.35,0.65","9","0.35","107","24","",""
"html-keyboard-response","82","112955","0.0-11.0-1.24","63e5be4daa8fac2e51d4fe91","bdp_rwlrn","Sun Mar 12 2023 23:40:03 GMT-0400 (Eastern Daylight Time)","336715","Untrustworthy,Trustworthy","","536","","","","decision","","<div class='trialDiv'><img src='Fruit/orange.png'><br><font class='baseline'><strong>Odds are Orange</strong><p>Choose number of points to bet.</font><div class='respPicDiv'><img src='img/responseButtonOffersNo0L.png' class='respPic'></div></div>","5","9","Odds are Orange","Fruit/orange.png","Won","0.8,0.35","9","0.8","112","25","",""
"html-keyboard-response","83","113207","0.0-11.0-2.24","63e5be4daa8fac2e51d4fe91","bdp_rwlrn","Sun Mar 12 2023 23:40:03 GMT-0400 (Eastern Daylight Time)","336715","Untrustworthy,Trustworthy","","null","","","","decisionFB","","<div class='trialDiv'><img src='Fruit/orange.png'><br><font class='baseline'><strong>Odds are Orange</strong><p>Choose number of points to bet.</font><div class='respPicDiv'><img src='img/responseButtonOffersNo0L5.png' class='respPic'></div></div>","null","9","Odds are Orange","Fruit/orange.png","Won","0.8,0.35","9","0.8","107","25","",""
"html-keyboard-response","84","114210","0.0-11.0-3.24","63e5be4daa8fac2e51d4fe91","bdp_rwlrn","Sun Mar 12 2023 23:40:03 GMT-0400 (Eastern Daylight Time)","336715","Untrustworthy,Trustworthy","","null","","","","feedback","","<div class='respPicDiv'><img src='img/responseButtonOffersNo0_wht.png' class='respPic'></div><div class='trialDiv'><img src='Fruit/orange.png'><br><font class='baseline'><strong>Odds are Orange</strong><p><strong><font class='posOutcome'>You WON</font><p>You bet: 5</strong></font> &nbsp; &nbsp; &nbsp; &nbsp; &nbsp; &nbsp;<font class='posOutcome'>you receive: <strong>10</strong></font></div>","null","9","Odds are Orange","Fruit/orange.png","Won","0.8,0.35","9","0.8","117","25","",""
"html-keyboard-response","85","114866","0.0-11.0-1.25","63e5be4daa8fac2e51d4fe91","bdp_rwlrn","Sun Mar 12 2023 23:40:03 GMT-0400 (Eastern Daylight Time)","336715","Untrustworthy,Trustworthy","","654","","","","decision","","<div class='trialDiv'><img src='Fruit/cherrie.png'><br><font class='baseline'><strong>Cherry Chances</strong><p>Choose number of points to bet.</font><div class='respPicDiv'><img src='img/responseButtonOffersNo0L.png' class='respPic'></div></div>","1","9","Cherry Chances","Fruit/cherrie.png","Won","0.35,0.8","9","0.35","122","26","",""
"html-keyboard-response","86","115117","0.0-11.0-2.25","63e5be4daa8fac2e51d4fe91","bdp_rwlrn","Sun Mar 12 2023 23:40:03 GMT-0400 (Eastern Daylight Time)","336715","Untrustworthy,Trustworthy","","null","","","","decisionFB","","<div class='trialDiv'><img src='Fruit/cherrie.png'><br><font class='baseline'><strong>Cherry Chances</strong><p>Choose number of points to bet.</font><div class='respPicDiv'><img src='img/responseButtonOffersNo0L1.png' class='respPic'></div></div>","null","9","Cherry Chances","Fruit/cherrie.png","Won","0.35,0.8","9","0.35","121","26","",""
"html-keyboard-response","87","116120","0.0-11.0-3.25","63e5be4daa8fac2e51d4fe91","bdp_rwlrn","Sun Mar 12 2023 23:40:03 GMT-0400 (Eastern Daylight Time)","336715","Untrustworthy,Trustworthy","","null","","","","feedback","","<div class='respPicDiv'><img src='img/responseButtonOffersNo0_wht.png' class='respPic'></div><div class='trialDiv'><img src='Fruit/cherrie.png'><br><font class='baseline'><strong>Cherry Chances</strong><p><strong><font class='posOutcome'>You WON</font><p>You bet: 1</strong></font> &nbsp; &nbsp; &nbsp; &nbsp; &nbsp; &nbsp;<font class='posOutcome'>you receive: <strong>2</strong></font></div>","null","9","Cherry Chances","Fruit/cherrie.png","Won","0.35,0.8","9","0.35","123","26","",""
"html-keyboard-response","88","116867","0.0-11.0-1.26","63e5be4daa8fac2e51d4fe91","bdp_rwlrn","Sun Mar 12 2023 23:40:03 GMT-0400 (Eastern Daylight Time)","336715","Untrustworthy,Trustworthy","","746","","","","decision","","<div class='trialDiv'><img src='Fruit/mixed-berries2.png'><br><font class='baseline'><strong>Berry Bla$t</strong><p>Choose number of points to bet.</font><div class='respPicDiv'><img src='img/responseButtonOffersNo0L.png' class='respPic'></div></div>","1","9","Berry Bla$t","Fruit/mixed-berries2.png","Won","0.35,0.65","9","0.35","128","27","",""
"html-keyboard-response","89","117119","0.0-11.0-2.26","63e5be4daa8fac2e51d4fe91","bdp_rwlrn","Sun Mar 12 2023 23:40:03 GMT-0400 (Eastern Daylight Time)","336715","Untrustworthy,Trustworthy","","null","","","","decisionFB","","<div class='trialDiv'><img src='Fruit/mixed-berries2.png'><br><font class='baseline'><strong>Berry Bla$t</strong><p>Choose number of points to bet.</font><div class='respPicDiv'><img src='img/responseButtonOffersNo0L1.png' class='respPic'></div></div>","null","9","Berry Bla$t","Fruit/mixed-berries2.png","Won","0.35,0.65","9","0.35","127","27","",""
"html-keyboard-response","90","118121","0.0-11.0-3.26","63e5be4daa8fac2e51d4fe91","bdp_rwlrn","Sun Mar 12 2023 23:40:03 GMT-0400 (Eastern Daylight Time)","336715","Untrustworthy,Trustworthy","","null","","","","feedback","","<div class='respPicDiv'><img src='img/responseButtonOffersNo0_wht.png' class='respPic'></div><div class='trialDiv'><img src='Fruit/mixed-berries2.png'><br><font class='baseline'><strong>Berry Bla$t</strong><p><strong><font class='posOutcome'>You WON</font><p>You bet: 1</strong></font> &nbsp; &nbsp; &nbsp; &nbsp; &nbsp; &nbsp;<font class='posOutcome'>you receive: <strong>2</strong></font></div>","null","9","Berry Bla$t","Fruit/mixed-berries2.png","Won","0.35,0.65","9","0.35","129","27","",""
"html-keyboard-response","91","118724","0.0-11.0-1.27","63e5be4daa8fac2e51d4fe91","bdp_rwlrn","Sun Mar 12 2023 23:40:03 GMT-0400 (Eastern Daylight Time)","336715","Untrustworthy,Trustworthy","","603","","","","decision","","<div class='trialDiv'><img src='Fruit/orange.png'><br><font class='baseline'><strong>Odds are Orange</strong><p>Choose number of points to bet.</font><div class='respPicDiv'><img src='img/responseButtonOffersNo0L.png' class='respPic'></div></div>","5","10","Odds are Orange","Fruit/orange.png","Won","0.8,0.35","9","0.8","134","28","",""
"html-keyboard-response","92","118975","0.0-11.0-2.27","63e5be4daa8fac2e51d4fe91","bdp_rwlrn","Sun Mar 12 2023 23:40:03 GMT-0400 (Eastern Daylight Time)","336715","Untrustworthy,Trustworthy","","null","","","","decisionFB","","<div class='trialDiv'><img src='Fruit/orange.png'><br><font class='baseline'><strong>Odds are Orange</strong><p>Choose number of points to bet.</font><div class='respPicDiv'><img src='img/responseButtonOffersNo0L5.png' class='respPic'></div></div>","null","10","Odds are Orange","Fruit/orange.png","Won","0.8,0.35","9","0.8","129","28","",""
"html-keyboard-response","93","119979","0.0-11.0-3.27","63e5be4daa8fac2e51d4fe91","bdp_rwlrn","Sun Mar 12 2023 23:40:03 GMT-0400 (Eastern Daylight Time)","336715","Untrustworthy,Trustworthy","","null","","","","feedback","","<div class='respPicDiv'><img src='img/responseButtonOffersNo0_wht.png' class='respPic'></div><div class='trialDiv'><img src='Fruit/orange.png'><br><font class='baseline'><strong>Odds are Orange</strong><p><strong><font class='posOutcome'>You WON</font><p>You bet: 5</strong></font> &nbsp; &nbsp; &nbsp; &nbsp; &nbsp; &nbsp;<font class='posOutcome'>you receive: <strong>10</strong></font></div>","null","10","Odds are Orange","Fruit/orange.png","Won","0.8,0.35","9","0.8","139","28","",""
"html-keyboard-response","94","120632","0.0-11.0-1.28","63e5be4daa8fac2e51d4fe91","bdp_rwlrn","Sun Mar 12 2023 23:40:03 GMT-0400 (Eastern Daylight Time)","336715","Untrustworthy,Trustworthy","","652","","","","decision","","<div class='trialDiv'><img src='Fruit/mixed-berries2.png'><br><font class='baseline'><strong>Berry Bla$t</strong><p>Choose number of points to bet.</font><div class='respPicDiv'><img src='img/responseButtonOffersNo0L.png' class='respPic'></div></div>","1","10","Berry Bla$t","Fruit/mixed-berries2.png","Lost","0.35,0.65","9","0.35","144","29","",""
"html-keyboard-response","95","120884","0.0-11.0-2.28","63e5be4daa8fac2e51d4fe91","bdp_rwlrn","Sun Mar 12 2023 23:40:03 GMT-0400 (Eastern Daylight Time)","336715","Untrustworthy,Trustworthy","","null","","","","decisionFB","","<div class='trialDiv'><img src='Fruit/mixed-berries2.png'><br><font class='baseline'><strong>Berry Bla$t</strong><p>Choose number of points to bet.</font><div class='respPicDiv'><img src='img/responseButtonOffersNo0L1.png' class='respPic'></div></div>","null","10","Berry Bla$t","Fruit/mixed-berries2.png","Lost","0.35,0.65","9","0.35","143","29","",""
"html-keyboard-response","96","121886","0.0-11.0-3.28","63e5be4daa8fac2e51d4fe91","bdp_rwlrn","Sun Mar 12 2023 23:40:03 GMT-0400 (Eastern Daylight Time)","336715","Untrustworthy,Trustworthy","","null","","","","feedback","","<div class='respPicDiv'><img src='img/responseButtonOffersNo0_wht.png' class='respPic'></div><div class='trialDiv'><img src='Fruit/mixed-berries2.png'><br><font class='baseline'><strong>Berry Bla$t</strong><p><strong><font class='negOutcome'>You LOST</font><p>You bet: 1</strong></font> &nbsp; &nbsp; &nbsp; &nbsp; &nbsp; &nbsp;<font class='negOutcome'>You receive: <strong>0</strong></font></div>","null","10","Berry Bla$t","Fruit/mixed-berries2.png","Lost","0.35,0.65","9","0.35","143","29","",""
"html-keyboard-response","97","121985","0.0-11.0-1.29","63e5be4daa8fac2e51d4fe91","bdp_rwlrn","Sun Mar 12 2023 23:40:03 GMT-0400 (Eastern Daylight Time)","336715","Untrustworthy,Trustworthy","","98","","","","decision","","<div class='trialDiv'><img src='Fruit/cherrie.png'><br><font class='baseline'><strong>Cherry Chances</strong><p>Choose number of points to bet.</font><div class='respPicDiv'><img src='img/responseButtonOffersNo0L.png' class='respPic'></div></div>","2","10","Cherry Chances","Fruit/cherrie.png","Won","0.35,0.8","9","0.35","148","30","",""
"html-keyboard-response","98","122236","0.0-11.0-2.29","63e5be4daa8fac2e51d4fe91","bdp_rwlrn","Sun Mar 12 2023 23:40:03 GMT-0400 (Eastern Daylight Time)","336715","Untrustworthy,Trustworthy","","null","","","","decisionFB","","<div class='trialDiv'><img src='Fruit/cherrie.png'><br><font class='baseline'><strong>Cherry Chances</strong><p>Choose number of points to bet.</font><div class='respPicDiv'><img src='img/responseButtonOffersNo0L2.png' class='respPic'></div></div>","null","10","Cherry Chances","Fruit/cherrie.png","Won","0.35,0.8","9","0.35","146","30","",""
"html-keyboard-response","99","123238","0.0-11.0-3.29","63e5be4daa8fac2e51d4fe91","bdp_rwlrn","Sun Mar 12 2023 23:40:03 GMT-0400 (Eastern Daylight Time)","336715","Untrustworthy,Trustworthy","","null","","","","feedback","","<div class='respPicDiv'><img src='img/responseButtonOffersNo0_wht.png' class='respPic'></div><div class='trialDiv'><img src='Fruit/cherrie.png'><br><font class='baseline'><strong>Cherry Chances</strong><p><strong><font class='posOutcome'>You WON</font><p>You bet: 2</strong></font> &nbsp; &nbsp; &nbsp; &nbsp; &nbsp; &nbsp;<font class='posOutcome'>you receive: <strong>4</strong></font></div>","null","10","Cherry Chances","Fruit/cherrie.png","Won","0.35,0.8","9","0.35","150","30","",""
"html-keyboard-response","100","123516","0.0-11.0-1.30","63e5be4daa8fac2e51d4fe91","bdp_rwlrn","Sun Mar 12 2023 23:40:03 GMT-0400 (Eastern Daylight Time)","336715","Untrustworthy,Trustworthy","","276","","","","decision","","<div class='trialDiv'><img src='Fruit/orange.png'><br><font class='baseline'><strong>Odds are Orange</strong><p>Choose number of points to bet.</font><div class='respPicDiv'><img src='img/responseButtonOffersNo0L.png' class='respPic'></div></div>","5","11","Odds are Orange","Fruit/orange.png","Lost","0.8,0.35","9","0.8","155","31","",""
"html-keyboard-response","101","123769","0.0-11.0-2.30","63e5be4daa8fac2e51d4fe91","bdp_rwlrn","Sun Mar 12 2023 23:40:03 GMT-0400 (Eastern Daylight Time)","336715","Untrustworthy,Trustworthy","","null","","","","decisionFB","","<div class='trialDiv'><img src='Fruit/orange.png'><br><font class='baseline'><strong>Odds are Orange</strong><p>Choose number of points to bet.</font><div class='respPicDiv'><img src='img/responseButtonOffersNo0L5.png' class='respPic'></div></div>","null","11","Odds are Orange","Fruit/orange.png","Lost","0.8,0.35","9","0.8","150","31","",""
"html-keyboard-response","102","124772","0.0-11.0-3.30","63e5be4daa8fac2e51d4fe91","bdp_rwlrn","Sun Mar 12 2023 23:40:03 GMT-0400 (Eastern Daylight Time)","336715","Untrustworthy,Trustworthy","","null","","","","feedback","","<div class='respPicDiv'><img src='img/responseButtonOffersNo0_wht.png' class='respPic'></div><div class='trialDiv'><img src='Fruit/orange.png'><br><font class='baseline'><strong>Odds are Orange</strong><p><strong><font class='negOutcome'>You LOST</font><p>You bet: 5</strong></font> &nbsp; &nbsp; &nbsp; &nbsp; &nbsp; &nbsp;<font class='negOutcome'>You receive: <strong>0</strong></font></div>","null","11","Odds are Orange","Fruit/orange.png","Lost","0.8,0.35","9","0.8","150","31","",""
"html-keyboard-response","103","125378","0.0-11.0-1.31","63e5be4daa8fac2e51d4fe91","bdp_rwlrn","Sun Mar 12 2023 23:40:03 GMT-0400 (Eastern Daylight Time)","336715","Untrustworthy,Trustworthy","","605","","","","decision","","<div class='trialDiv'><img src='Fruit/cherrie.png'><br><font class='baseline'><strong>Cherry Chances</strong><p>Choose number of points to bet.</font><div class='respPicDiv'><img src='img/responseButtonOffersNo0L.png' class='respPic'></div></div>","5","11","Cherry Chances","Fruit/cherrie.png","Won","0.35,0.8","9","0.35","155","32","",""
"html-keyboard-response","104","125630","0.0-11.0-2.31","63e5be4daa8fac2e51d4fe91","bdp_rwlrn","Sun Mar 12 2023 23:40:03 GMT-0400 (Eastern Daylight Time)","336715","Untrustworthy,Trustworthy","","null","","","","decisionFB","","<div class='trialDiv'><img src='Fruit/cherrie.png'><br><font class='baseline'><strong>Cherry Chances</strong><p>Choose number of points to bet.</font><div class='respPicDiv'><img src='img/responseButtonOffersNo0L5.png' class='respPic'></div></div>","null","11","Cherry Chances","Fruit/cherrie.png","Won","0.35,0.8","9","0.35","150","32","",""
"html-keyboard-response","105","126633","0.0-11.0-3.31","63e5be4daa8fac2e51d4fe91","bdp_rwlrn","Sun Mar 12 2023 23:40:03 GMT-0400 (Eastern Daylight Time)","336715","Untrustworthy,Trustworthy","","null","","","","feedback","","<div class='respPicDiv'><img src='img/responseButtonOffersNo0_wht.png' class='respPic'></div><div class='trialDiv'><img src='Fruit/cherrie.png'><br><font class='baseline'><strong>Cherry Chances</strong><p><strong><font class='posOutcome'>You WON</font><p>You bet: 5</strong></font> &nbsp; &nbsp; &nbsp; &nbsp; &nbsp; &nbsp;<font class='posOutcome'>you receive: <strong>10</strong></font></div>","null","11","Cherry Chances","Fruit/cherrie.png","Won","0.35,0.8","9","0.35","160","32","",""
"html-keyboard-response","106","126863","0.0-11.0-1.32","63e5be4daa8fac2e51d4fe91","bdp_rwlrn","Sun Mar 12 2023 23:40:03 GMT-0400 (Eastern Daylight Time)","336715","Untrustworthy,Trustworthy","","228","","","","decision","","<div class='trialDiv'><img src='Fruit/mixed-berries2.png'><br><font class='baseline'><strong>Berry Bla$t</strong><p>Choose number of points to bet.</font><div class='respPicDiv'><img src='img/responseButtonOffersNo0L.png' class='respPic'></div></div>","1","11","Berry Bla$t","Fruit/mixed-berries2.png","Lost","0.35,0.65","9","0.35","165","33","",""
"html-keyboard-response","107","127115","0.0-11.0-2.32","63e5be4daa8fac2e51d4fe91","bdp_rwlrn","Sun Mar 12 2023 23:40:03 GMT-0400 (Eastern Daylight Time)","336715","Untrustworthy,Trustworthy","","null","","","","decisionFB","","<div class='trialDiv'><img src='Fruit/mixed-berries2.png'><br><font class='baseline'><strong>Berry Bla$t</strong><p>Choose number of points to bet.</font><div class='respPicDiv'><img src='img/responseButtonOffersNo0L1.png' class='respPic'></div></div>","null","11","Berry Bla$t","Fruit/mixed-berries2.png","Lost","0.35,0.65","9","0.35","164","33","",""
"html-keyboard-response","108","128117","0.0-11.0-3.32","63e5be4daa8fac2e51d4fe91","bdp_rwlrn","Sun Mar 12 2023 23:40:03 GMT-0400 (Eastern Daylight Time)","336715","Untrustworthy,Trustworthy","","null","","","","feedback","","<div class='respPicDiv'><img src='img/responseButtonOffersNo0_wht.png' class='respPic'></div><div class='trialDiv'><img src='Fruit/mixed-berries2.png'><br><font class='baseline'><strong>Berry Bla$t</strong><p><strong><font class='negOutcome'>You LOST</font><p>You bet: 1</strong></font> &nbsp; &nbsp; &nbsp; &nbsp; &nbsp; &nbsp;<font class='negOutcome'>You receive: <strong>0</strong></font></div>","null","11","Berry Bla$t","Fruit/mixed-berries2.png","Lost","0.35,0.65","9","0.35","164","33","",""
"html-keyboard-response","109","128899","0.0-11.0-1.33","63e5be4daa8fac2e51d4fe91","bdp_rwlrn","Sun Mar 12 2023 23:40:03 GMT-0400 (Eastern Daylight Time)","336715","Untrustworthy,Trustworthy","","781","","","","decision","","<div class='trialDiv'><img src='Fruit/orange.png'><br><font class='baseline'><strong>Odds are Orange</strong><p>Choose number of points to bet.</font><div class='respPicDiv'><img src='img/responseButtonOffersNo0L.png' class='respPic'></div></div>","5","12","Odds are Orange","Fruit/orange.png","Lost","0.8,0.35","9","0.8","169","34","",""
"html-keyboard-response","110","129151","0.0-11.0-2.33","63e5be4daa8fac2e51d4fe91","bdp_rwlrn","Sun Mar 12 2023 23:40:03 GMT-0400 (Eastern Daylight Time)","336715","Untrustworthy,Trustworthy","","null","","","","decisionFB","","<div class='trialDiv'><img src='Fruit/orange.png'><br><font class='baseline'><strong>Odds are Orange</strong><p>Choose number of points to bet.</font><div class='respPicDiv'><img src='img/responseButtonOffersNo0L5.png' class='respPic'></div></div>","null","12","Odds are Orange","Fruit/orange.png","Lost","0.8,0.35","9","0.8","164","34","",""
"html-keyboard-response","111","130154","0.0-11.0-3.33","63e5be4daa8fac2e51d4fe91","bdp_rwlrn","Sun Mar 12 2023 23:40:03 GMT-0400 (Eastern Daylight Time)","336715","Untrustworthy,Trustworthy","","null","","","","feedback","","<div class='respPicDiv'><img src='img/responseButtonOffersNo0_wht.png' class='respPic'></div><div class='trialDiv'><img src='Fruit/orange.png'><br><font class='baseline'><strong>Odds are Orange</strong><p><strong><font class='negOutcome'>You LOST</font><p>You bet: 5</strong></font> &nbsp; &nbsp; &nbsp; &nbsp; &nbsp; &nbsp;<font class='negOutcome'>You receive: <strong>0</strong></font></div>","null","12","Odds are Orange","Fruit/orange.png","Lost","0.8,0.35","9","0.8","164","34","",""
"html-keyboard-response","112","131277","0.0-11.0-1.34","63e5be4daa8fac2e51d4fe91","bdp_rwlrn","Sun Mar 12 2023 23:40:03 GMT-0400 (Eastern Daylight Time)","336715","Untrustworthy,Trustworthy","","1122","","","","decision","","<div class='trialDiv'><img src='Fruit/cherrie.png'><br><font class='baseline'><strong>Cherry Chances</strong><p>Choose number of points to bet.</font><div class='respPicDiv'><img src='img/responseButtonOffersNo0L.png' class='respPic'></div></div>","1","12","Cherry Chances","Fruit/cherrie.png","Won","0.35,0.8","9","0.35","169","35","",""
"html-keyboard-response","113","131529","0.0-11.0-2.34","63e5be4daa8fac2e51d4fe91","bdp_rwlrn","Sun Mar 12 2023 23:40:03 GMT-0400 (Eastern Daylight Time)","336715","Untrustworthy,Trustworthy","","null","","","","decisionFB","","<div class='trialDiv'><img src='Fruit/cherrie.png'><br><font class='baseline'><strong>Cherry Chances</strong><p>Choose number of points to bet.</font><div class='respPicDiv'><img src='img/responseButtonOffersNo0L1.png' class='respPic'></div></div>","null","12","Cherry Chances","Fruit/cherrie.png","Won","0.35,0.8","9","0.35","168","35","",""
"html-keyboard-response","114","132532","0.0-11.0-3.34","63e5be4daa8fac2e51d4fe91","bdp_rwlrn","Sun Mar 12 2023 23:40:03 GMT-0400 (Eastern Daylight Time)","336715","Untrustworthy,Trustworthy","","null","","","","feedback","","<div class='respPicDiv'><img src='img/responseButtonOffersNo0_wht.png' class='respPic'></div><div class='trialDiv'><img src='Fruit/cherrie.png'><br><font class='baseline'><strong>Cherry Chances</strong><p><strong><font class='posOutcome'>You WON</font><p>You bet: 1</strong></font> &nbsp; &nbsp; &nbsp; &nbsp; &nbsp; &nbsp;<font class='posOutcome'>you receive: <strong>2</strong></font></div>","null","12","Cherry Chances","Fruit/cherrie.png","Won","0.35,0.8","9","0.35","170","35","",""
"html-keyboard-response","115","133427","0.0-11.0-1.35","63e5be4daa8fac2e51d4fe91","bdp_rwlrn","Sun Mar 12 2023 23:40:03 GMT-0400 (Eastern Daylight Time)","336715","Untrustworthy,Trustworthy","","892","","","","decision","","<div class='trialDiv'><img src='Fruit/mixed-berries2.png'><br><font class='baseline'><strong>Berry Bla$t</strong><p>Choose number of points to bet.</font><div class='respPicDiv'><img src='img/responseButtonOffersNo0L.png' class='respPic'></div></div>","1","12","Berry Bla$t","Fruit/mixed-berries2.png","Lost","0.35,0.65","9","0.35","175","36","",""
"html-keyboard-response","116","133679","0.0-11.0-2.35","63e5be4daa8fac2e51d4fe91","bdp_rwlrn","Sun Mar 12 2023 23:40:03 GMT-0400 (Eastern Daylight Time)","336715","Untrustworthy,Trustworthy","","null","","","","decisionFB","","<div class='trialDiv'><img src='Fruit/mixed-berries2.png'><br><font class='baseline'><strong>Berry Bla$t</strong><p>Choose number of points to bet.</font><div class='respPicDiv'><img src='img/responseButtonOffersNo0L1.png' class='respPic'></div></div>","null","12","Berry Bla$t","Fruit/mixed-berries2.png","Lost","0.35,0.65","9","0.35","174","36","",""
"html-keyboard-response","117","134681","0.0-11.0-3.35","63e5be4daa8fac2e51d4fe91","bdp_rwlrn","Sun Mar 12 2023 23:40:03 GMT-0400 (Eastern Daylight Time)","336715","Untrustworthy,Trustworthy","","null","","","","feedback","","<div class='respPicDiv'><img src='img/responseButtonOffersNo0_wht.png' class='respPic'></div><div class='trialDiv'><img src='Fruit/mixed-berries2.png'><br><font class='baseline'><strong>Berry Bla$t</strong><p><strong><font class='negOutcome'>You LOST</font><p>You bet: 1</strong></font> &nbsp; &nbsp; &nbsp; &nbsp; &nbsp; &nbsp;<font class='negOutcome'>You receive: <strong>0</strong></font></div>","null","12","Berry Bla$t","Fruit/mixed-berries2.png","Lost","0.35,0.65","9","0.35","174","36","",""
"html-keyboard-response","118","135185","0.0-11.0-1.36","63e5be4daa8fac2e51d4fe91","bdp_rwlrn","Sun Mar 12 2023 23:40:03 GMT-0400 (Eastern Daylight Time)","336715","Untrustworthy,Trustworthy","","502","","","","decision","","<div class='trialDiv'><img src='Fruit/orange.png'><br><font class='baseline'><strong>Odds are Orange</strong><p>Choose number of points to bet.</font><div class='respPicDiv'><img src='img/responseButtonOffersNo0L.png' class='respPic'></div></div>","5","13","Odds are Orange","Fruit/orange.png","Won","0.8,0.35","9","0.8","179","37","",""
"html-keyboard-response","119","135444","0.0-11.0-2.36","63e5be4daa8fac2e51d4fe91","bdp_rwlrn","Sun Mar 12 2023 23:40:03 GMT-0400 (Eastern Daylight Time)","336715","Untrustworthy,Trustworthy","","null","","","","decisionFB","","<div class='trialDiv'><img src='Fruit/orange.png'><br><font class='baseline'><strong>Odds are Orange</strong><p>Choose number of points to bet.</font><div class='respPicDiv'><img src='img/responseButtonOffersNo0L5.png' class='respPic'></div></div>","null","13","Odds are Orange","Fruit/orange.png","Won","0.8,0.35","9","0.8","174","37","",""
"html-keyboard-response","120","136456","0.0-11.0-3.36","63e5be4daa8fac2e51d4fe91","bdp_rwlrn","Sun Mar 12 2023 23:40:03 GMT-0400 (Eastern Daylight Time)","336715","Untrustworthy,Trustworthy","","null","","","","feedback","","<div class='respPicDiv'><img src='img/responseButtonOffersNo0_wht.png' class='respPic'></div><div class='trialDiv'><img src='Fruit/orange.png'><br><font class='baseline'><strong>Odds are Orange</strong><p><strong><font class='posOutcome'>You WON</font><p>You bet: 5</strong></font> &nbsp; &nbsp; &nbsp; &nbsp; &nbsp; &nbsp;<font class='posOutcome'>you receive: <strong>10</strong></font></div>","null","13","Odds are Orange","Fruit/orange.png","Won","0.8,0.35","9","0.8","184","37","",""
"html-keyboard-response","121","137224","0.0-11.0-1.37","63e5be4daa8fac2e51d4fe91","bdp_rwlrn","Sun Mar 12 2023 23:40:03 GMT-0400 (Eastern Daylight Time)","336715","Untrustworthy,Trustworthy","","765","","","","decision","","<div class='trialDiv'><img src='Fruit/mixed-berries2.png'><br><font class='baseline'><strong>Berry Bla$t</strong><p>Choose number of points to bet.</font><div class='respPicDiv'><img src='img/responseButtonOffersNo0L.png' class='respPic'></div></div>","1","13","Berry Bla$t","Fruit/mixed-berries2.png","Lost","0.35,0.65","9","0.35","189","38","",""
"html-keyboard-response","122","137476","0.0-11.0-2.37","63e5be4daa8fac2e51d4fe91","bdp_rwlrn","Sun Mar 12 2023 23:40:03 GMT-0400 (Eastern Daylight Time)","336715","Untrustworthy,Trustworthy","","null","","","","decisionFB","","<div class='trialDiv'><img src='Fruit/mixed-berries2.png'><br><font class='baseline'><strong>Berry Bla$t</strong><p>Choose number of points to bet.</font><div class='respPicDiv'><img src='img/responseButtonOffersNo0L1.png' class='respPic'></div></div>","null","13","Berry Bla$t","Fruit/mixed-berries2.png","Lost","0.35,0.65","9","0.35","188","38","",""
"html-keyboard-response","123","138478","0.0-11.0-3.37","63e5be4daa8fac2e51d4fe91","bdp_rwlrn","Sun Mar 12 2023 23:40:03 GMT-0400 (Eastern Daylight Time)","336715","Untrustworthy,Trustworthy","","null","","","","feedback","","<div class='respPicDiv'><img src='img/responseButtonOffersNo0_wht.png' class='respPic'></div><div class='trialDiv'><img src='Fruit/mixed-berries2.png'><br><font class='baseline'><strong>Berry Bla$t</strong><p><strong><font class='negOutcome'>You LOST</font><p>You bet: 1</strong></font> &nbsp; &nbsp; &nbsp; &nbsp; &nbsp; &nbsp;<font class='negOutcome'>You receive: <strong>0</strong></font></div>","null","13","Berry Bla$t","Fruit/mixed-berries2.png","Lost","0.35,0.65","9","0.35","188","38","",""
"html-keyboard-response","124","139113","0.0-11.0-1.38","63e5be4daa8fac2e51d4fe91","bdp_rwlrn","Sun Mar 12 2023 23:40:03 GMT-0400 (Eastern Daylight Time)","336715","Untrustworthy,Trustworthy","","634","","","","decision","","<div class='trialDiv'><img src='Fruit/cherrie.png'><br><font class='baseline'><strong>Cherry Chances</strong><p>Choose number of points to bet.</font><div class='respPicDiv'><img src='img/responseButtonOffersNo0L.png' class='respPic'></div></div>","1","13","Cherry Chances","Fruit/cherrie.png","Lost","0.35,0.8","9","0.35","193","39","",""
"html-keyboard-response","125","139366","0.0-11.0-2.38","63e5be4daa8fac2e51d4fe91","bdp_rwlrn","Sun Mar 12 2023 23:40:03 GMT-0400 (Eastern Daylight Time)","336715","Untrustworthy,Trustworthy","","null","","","","decisionFB","","<div class='trialDiv'><img src='Fruit/cherrie.png'><br><font class='baseline'><strong>Cherry Chances</strong><p>Choose number of points to bet.</font><div class='respPicDiv'><img src='img/responseButtonOffersNo0L1.png' class='respPic'></div></div>","null","13","Cherry Chances","Fruit/cherrie.png","Lost","0.35,0.8","9","0.35","192","39","",""
"html-keyboard-response","126","140368","0.0-11.0-3.38","63e5be4daa8fac2e51d4fe91","bdp_rwlrn","Sun Mar 12 2023 23:40:03 GMT-0400 (Eastern Daylight Time)","336715","Untrustworthy,Trustworthy","","null","","","","feedback","","<div class='respPicDiv'><img src='img/responseButtonOffersNo0_wht.png' class='respPic'></div><div class='trialDiv'><img src='Fruit/cherrie.png'><br><font class='baseline'><strong>Cherry Chances</strong><p><strong><font class='negOutcome'>You LOST</font><p>You bet: 1</strong></font> &nbsp; &nbsp; &nbsp; &nbsp; &nbsp; &nbsp;<font class='negOutcome'>You receive: <strong>0</strong></font></div>","null","13","Cherry Chances","Fruit/cherrie.png","Lost","0.35,0.8","9","0.35","192","39","",""
"html-keyboard-response","127","141015","0.0-11.0-1.39","63e5be4daa8fac2e51d4fe91","bdp_rwlrn","Sun Mar 12 2023 23:40:03 GMT-0400 (Eastern Daylight Time)","336715","Untrustworthy,Trustworthy","","646","","","","decision","","<div class='trialDiv'><img src='Fruit/mixed-berries2.png'><br><font class='baseline'><strong>Berry Bla$t</strong><p>Choose number of points to bet.</font><div class='respPicDiv'><img src='img/responseButtonOffersNo0L.png' class='respPic'></div></div>","1","14","Berry Bla$t","Fruit/mixed-berries2.png","Lost","0.35,0.65","9","0.35","197","40","",""
"html-keyboard-response","128","141268","0.0-11.0-2.39","63e5be4daa8fac2e51d4fe91","bdp_rwlrn","Sun Mar 12 2023 23:40:03 GMT-0400 (Eastern Daylight Time)","336715","Untrustworthy,Trustworthy","","null","","","","decisionFB","","<div class='trialDiv'><img src='Fruit/mixed-berries2.png'><br><font class='baseline'><strong>Berry Bla$t</strong><p>Choose number of points to bet.</font><div class='respPicDiv'><img src='img/responseButtonOffersNo0L1.png' class='respPic'></div></div>","null","14","Berry Bla$t","Fruit/mixed-berries2.png","Lost","0.35,0.65","9","0.35","196","40","",""
"html-keyboard-response","129","142270","0.0-11.0-3.39","63e5be4daa8fac2e51d4fe91","bdp_rwlrn","Sun Mar 12 2023 23:40:03 GMT-0400 (Eastern Daylight Time)","336715","Untrustworthy,Trustworthy","","null","","","","feedback","","<div class='respPicDiv'><img src='img/responseButtonOffersNo0_wht.png' class='respPic'></div><div class='trialDiv'><img src='Fruit/mixed-berries2.png'><br><font class='baseline'><strong>Berry Bla$t</strong><p><strong><font class='negOutcome'>You LOST</font><p>You bet: 1</strong></font> &nbsp; &nbsp; &nbsp; &nbsp; &nbsp; &nbsp;<font class='negOutcome'>You receive: <strong>0</strong></font></div>","null","14","Berry Bla$t","Fruit/mixed-berries2.png","Lost","0.35,0.65","9","0.35","196","40","",""
"html-keyboard-response","130","143200","0.0-11.0-1.40","63e5be4daa8fac2e51d4fe91","bdp_rwlrn","Sun Mar 12 2023 23:40:03 GMT-0400 (Eastern Daylight Time)","336715","Untrustworthy,Trustworthy","","927","","","","decision","","<div class='trialDiv'><img src='Fruit/cherrie.png'><br><font class='baseline'><strong>Cherry Chances</strong><p>Choose number of points to bet.</font><div class='respPicDiv'><img src='img/responseButtonOffersNo0L.png' class='respPic'></div></div>","3","14","Cherry Chances","Fruit/cherrie.png","Won","0.35,0.8","9","0.35","201","41","",""
"html-keyboard-response","131","143452","0.0-11.0-2.40","63e5be4daa8fac2e51d4fe91","bdp_rwlrn","Sun Mar 12 2023 23:40:03 GMT-0400 (Eastern Daylight Time)","336715","Untrustworthy,Trustworthy","","null","","","","decisionFB","","<div class='trialDiv'><img src='Fruit/cherrie.png'><br><font class='baseline'><strong>Cherry Chances</strong><p>Choose number of points to bet.</font><div class='respPicDiv'><img src='img/responseButtonOffersNo0L3.png' class='respPic'></div></div>","null","14","Cherry Chances","Fruit/cherrie.png","Won","0.35,0.8","9","0.35","198","41","",""
"html-keyboard-response","132","144454","0.0-11.0-3.40","63e5be4daa8fac2e51d4fe91","bdp_rwlrn","Sun Mar 12 2023 23:40:03 GMT-0400 (Eastern Daylight Time)","336715","Untrustworthy,Trustworthy","","null","","","","feedback","","<div class='respPicDiv'><img src='img/responseButtonOffersNo0_wht.png' class='respPic'></div><div class='trialDiv'><img src='Fruit/cherrie.png'><br><font class='baseline'><strong>Cherry Chances</strong><p><strong><font class='posOutcome'>You WON</font><p>You bet: 3</strong></font> &nbsp; &nbsp; &nbsp; &nbsp; &nbsp; &nbsp;<font class='posOutcome'>you receive: <strong>6</strong></font></div>","null","14","Cherry Chances","Fruit/cherrie.png","Won","0.35,0.8","9","0.35","204","41","",""
"html-keyboard-response","133","144824","0.0-11.0-1.41","63e5be4daa8fac2e51d4fe91","bdp_rwlrn","Sun Mar 12 2023 23:40:03 GMT-0400 (Eastern Daylight Time)","336715","Untrustworthy,Trustworthy","","368","","","","decision","","<div class='trialDiv'><img src='Fruit/orange.png'><br><font class='baseline'><strong>Odds are Orange</strong><p>Choose number of points to bet.</font><div class='respPicDiv'><img src='img/responseButtonOffersNo0L.png' class='respPic'></div></div>","5","14","Odds are Orange","Fruit/orange.png","Lost","0.8,0.35","9","0.8","209","42","",""
"html-keyboard-response","134","145077","0.0-11.0-2.41","63e5be4daa8fac2e51d4fe91","bdp_rwlrn","Sun Mar 12 2023 23:40:03 GMT-0400 (Eastern Daylight Time)","336715","Untrustworthy,Trustworthy","","null","","","","decisionFB","","<div class='trialDiv'><img src='Fruit/orange.png'><br><font class='baseline'><strong>Odds are Orange</strong><p>Choose number of points to bet.</font><div class='respPicDiv'><img src='img/responseButtonOffersNo0L5.png' class='respPic'></div></div>","null","14","Odds are Orange","Fruit/orange.png","Lost","0.8,0.35","9","0.8","204","42","",""
"html-keyboard-response","135","146079","0.0-11.0-3.41","63e5be4daa8fac2e51d4fe91","bdp_rwlrn","Sun Mar 12 2023 23:40:03 GMT-0400 (Eastern Daylight Time)","336715","Untrustworthy,Trustworthy","","null","","","","feedback","","<div class='respPicDiv'><img src='img/responseButtonOffersNo0_wht.png' class='respPic'></div><div class='trialDiv'><img src='Fruit/orange.png'><br><font class='baseline'><strong>Odds are Orange</strong><p><strong><font class='negOutcome'>You LOST</font><p>You bet: 5</strong></font> &nbsp; &nbsp; &nbsp; &nbsp; &nbsp; &nbsp;<font class='negOutcome'>You receive: <strong>0</strong></font></div>","null","14","Odds are Orange","Fruit/orange.png","Lost","0.8,0.35","9","0.8","204","42","",""
"html-keyboard-response","136","146978","0.0-11.0-1.42","63e5be4daa8fac2e51d4fe91","bdp_rwlrn","Sun Mar 12 2023 23:40:03 GMT-0400 (Eastern Daylight Time)","336715","Untrustworthy,Trustworthy","","898","","","","decision","","<div class='trialDiv'><img src='Fruit/mixed-berries2.png'><br><font class='baseline'><strong>Berry Bla$t</strong><p>Choose number of points to bet.</font><div class='respPicDiv'><img src='img/responseButtonOffersNo0L.png' class='respPic'></div></div>","5","15","Berry Bla$t","Fruit/mixed-berries2.png","Won","0.35,0.65","9","0.35","209","43","",""
"html-keyboard-response","137","147231","0.0-11.0-2.42","63e5be4daa8fac2e51d4fe91","bdp_rwlrn","Sun Mar 12 2023 23:40:03 GMT-0400 (Eastern Daylight Time)","336715","Untrustworthy,Trustworthy","","null","","","","decisionFB","","<div class='trialDiv'><img src='Fruit/mixed-berries2.png'><br><font class='baseline'><strong>Berry Bla$t</strong><p>Choose number of points to bet.</font><div class='respPicDiv'><img src='img/responseButtonOffersNo0L5.png' class='respPic'></div></div>","null","15","Berry Bla$t","Fruit/mixed-berries2.png","Won","0.35,0.65","9","0.35","204","43","",""
"html-keyboard-response","138","148234","0.0-11.0-3.42","63e5be4daa8fac2e51d4fe91","bdp_rwlrn","Sun Mar 12 2023 23:40:03 GMT-0400 (Eastern Daylight Time)","336715","Untrustworthy,Trustworthy","","null","","","","feedback","","<div class='respPicDiv'><img src='img/responseButtonOffersNo0_wht.png' class='respPic'></div><div class='trialDiv'><img src='Fruit/mixed-berries2.png'><br><font class='baseline'><strong>Berry Bla$t</strong><p><strong><font class='posOutcome'>You WON</font><p>You bet: 5</strong></font> &nbsp; &nbsp; &nbsp; &nbsp; &nbsp; &nbsp;<font class='posOutcome'>you receive: <strong>10</strong></font></div>","null","15","Berry Bla$t","Fruit/mixed-berries2.png","Won","0.35,0.65","9","0.35","214","43","",""
"html-keyboard-response","139","148880","0.0-11.0-1.43","63e5be4daa8fac2e51d4fe91","bdp_rwlrn","Sun Mar 12 2023 23:40:03 GMT-0400 (Eastern Daylight Time)","336715","Untrustworthy,Trustworthy","","645","","","","decision","","<div class='trialDiv'><img src='Fruit/orange.png'><br><font class='baseline'><strong>Odds are Orange</strong><p>Choose number of points to bet.</font><div class='respPicDiv'><img src='img/responseButtonOffersNo0L.png' class='respPic'></div></div>","5","15","Odds are Orange","Fruit/orange.png","Lost","0.8,0.35","9","0.8","219","44","",""
"html-keyboard-response","140","149132","0.0-11.0-2.43","63e5be4daa8fac2e51d4fe91","bdp_rwlrn","Sun Mar 12 2023 23:40:03 GMT-0400 (Eastern Daylight Time)","336715","Untrustworthy,Trustworthy","","null","","","","decisionFB","","<div class='trialDiv'><img src='Fruit/orange.png'><br><font class='baseline'><strong>Odds are Orange</strong><p>Choose number of points to bet.</font><div class='respPicDiv'><img src='img/responseButtonOffersNo0L5.png' class='respPic'></div></div>","null","15","Odds are Orange","Fruit/orange.png","Lost","0.8,0.35","9","0.8","214","44","",""
"html-keyboard-response","141","150135","0.0-11.0-3.43","63e5be4daa8fac2e51d4fe91","bdp_rwlrn","Sun Mar 12 2023 23:40:03 GMT-0400 (Eastern Daylight Time)","336715","Untrustworthy,Trustworthy","","null","","","","feedback","","<div class='respPicDiv'><img src='img/responseButtonOffersNo0_wht.png' class='respPic'></div><div class='trialDiv'><img src='Fruit/orange.png'><br><font class='baseline'><strong>Odds are Orange</strong><p><strong><font class='negOutcome'>You LOST</font><p>You bet: 5</strong></font> &nbsp; &nbsp; &nbsp; &nbsp; &nbsp; &nbsp;<font class='negOutcome'>You receive: <strong>0</strong></font></div>","null","15","Odds are Orange","Fruit/orange.png","Lost","0.8,0.35","9","0.8","214","44","",""
"html-keyboard-response","142","150834","0.0-11.0-1.44","63e5be4daa8fac2e51d4fe91","bdp_rwlrn","Sun Mar 12 2023 23:40:03 GMT-0400 (Eastern Daylight Time)","336715","Untrustworthy,Trustworthy","","699","","","","decision","","<div class='trialDiv'><img src='Fruit/cherrie.png'><br><font class='baseline'><strong>Cherry Chances</strong><p>Choose number of points to bet.</font><div class='respPicDiv'><img src='img/responseButtonOffersNo0L.png' class='respPic'></div></div>","1","15","Cherry Chances","Fruit/cherrie.png","Won","0.35,0.8","9","0.35","219","45","",""
"html-keyboard-response","143","151086","0.0-11.0-2.44","63e5be4daa8fac2e51d4fe91","bdp_rwlrn","Sun Mar 12 2023 23:40:03 GMT-0400 (Eastern Daylight Time)","336715","Untrustworthy,Trustworthy","","null","","","","decisionFB","","<div class='trialDiv'><img src='Fruit/cherrie.png'><br><font class='baseline'><strong>Cherry Chances</strong><p>Choose number of points to bet.</font><div class='respPicDiv'><img src='img/responseButtonOffersNo0L1.png' class='respPic'></div></div>","null","15","Cherry Chances","Fruit/cherrie.png","Won","0.35,0.8","9","0.35","218","45","",""
"html-keyboard-response","144","152088","0.0-11.0-3.44","63e5be4daa8fac2e51d4fe91","bdp_rwlrn","Sun Mar 12 2023 23:40:03 GMT-0400 (Eastern Daylight Time)","336715","Untrustworthy,Trustworthy","","null","","","","feedback","","<div class='respPicDiv'><img src='img/responseButtonOffersNo0_wht.png' class='respPic'></div><div class='trialDiv'><img src='Fruit/cherrie.png'><br><font class='baseline'><strong>Cherry Chances</strong><p><strong><font class='posOutcome'>You WON</font><p>You bet: 1</strong></font> &nbsp; &nbsp; &nbsp; &nbsp; &nbsp; &nbsp;<font class='posOutcome'>you receive: <strong>2</strong></font></div>","null","15","Cherry Chances","Fruit/cherrie.png","Won","0.35,0.8","9","0.35","220","45","",""
"html-keyboard-response","145","152614","0.0-11.0-1.45","63e5be4daa8fac2e51d4fe91","bdp_rwlrn","Sun Mar 12 2023 23:40:03 GMT-0400 (Eastern Daylight Time)","336715","Untrustworthy,Trustworthy","","524","","","","decision","","<div class='trialDiv'><img src='Fruit/mixed-berries2.png'><br><font class='baseline'><strong>Berry Bla$t</strong><p>Choose number of points to bet.</font><div class='respPicDiv'><img src='img/responseButtonOffersNo0L.png' class='respPic'></div></div>","2","16","Berry Bla$t","Fruit/mixed-berries2.png","Won","0.35,0.65","9","0.35","225","46","",""
"html-keyboard-response","146","152866","0.0-11.0-2.45","63e5be4daa8fac2e51d4fe91","bdp_rwlrn","Sun Mar 12 2023 23:40:03 GMT-0400 (Eastern Daylight Time)","336715","Untrustworthy,Trustworthy","","null","","","","decisionFB","","<div class='trialDiv'><img src='Fruit/mixed-berries2.png'><br><font class='baseline'><strong>Berry Bla$t</strong><p>Choose number of points to bet.</font><div class='respPicDiv'><img src='img/responseButtonOffersNo0L2.png' class='respPic'></div></div>","null","16","Berry Bla$t","Fruit/mixed-berries2.png","Won","0.35,0.65","9","0.35","223","46","",""
"html-keyboard-response","147","153876","0.0-11.0-3.45","63e5be4daa8fac2e51d4fe91","bdp_rwlrn","Sun Mar 12 2023 23:40:03 GMT-0400 (Eastern Daylight Time)","336715","Untrustworthy,Trustworthy","","null","","","","feedback","","<div class='respPicDiv'><img src='img/responseButtonOffersNo0_wht.png' class='respPic'></div><div class='trialDiv'><img src='Fruit/mixed-berries2.png'><br><font class='baseline'><strong>Berry Bla$t</strong><p><strong><font class='posOutcome'>You WON</font><p>You bet: 2</strong></font> &nbsp; &nbsp; &nbsp; &nbsp; &nbsp; &nbsp;<font class='posOutcome'>you receive: <strong>4</strong></font></div>","null","16","Berry Bla$t","Fruit/mixed-berries2.png","Won","0.35,0.65","9","0.35","227","46","",""
"html-keyboard-response","148","154407","0.0-11.0-1.46","63e5be4daa8fac2e51d4fe91","bdp_rwlrn","Sun Mar 12 2023 23:40:03 GMT-0400 (Eastern Daylight Time)","336715","Untrustworthy,Trustworthy","","530","","","","decision","","<div class='trialDiv'><img src='Fruit/orange.png'><br><font class='baseline'><strong>Odds are Orange</strong><p>Choose number of points to bet.</font><div class='respPicDiv'><img src='img/responseButtonOffersNo0L.png' class='respPic'></div></div>","5","16","Odds are Orange","Fruit/orange.png","Won","0.8,0.35","9","0.8","232","47","",""
"html-keyboard-response","149","154660","0.0-11.0-2.46","63e5be4daa8fac2e51d4fe91","bdp_rwlrn","Sun Mar 12 2023 23:40:03 GMT-0400 (Eastern Daylight Time)","336715","Untrustworthy,Trustworthy","","null","","","","decisionFB","","<div class='trialDiv'><img src='Fruit/orange.png'><br><font class='baseline'><strong>Odds are Orange</strong><p>Choose number of points to bet.</font><div class='respPicDiv'><img src='img/responseButtonOffersNo0L5.png' class='respPic'></div></div>","null","16","Odds are Orange","Fruit/orange.png","Won","0.8,0.35","9","0.8","227","47","",""
"html-keyboard-response","150","155662","0.0-11.0-3.46","63e5be4daa8fac2e51d4fe91","bdp_rwlrn","Sun Mar 12 2023 23:40:03 GMT-0400 (Eastern Daylight Time)","336715","Untrustworthy,Trustworthy","","null","","","","feedback","","<div class='respPicDiv'><img src='img/responseButtonOffersNo0_wht.png' class='respPic'></div><div class='trialDiv'><img src='Fruit/orange.png'><br><font class='baseline'><strong>Odds are Orange</strong><p><strong><font class='posOutcome'>You WON</font><p>You bet: 5</strong></font> &nbsp; &nbsp; &nbsp; &nbsp; &nbsp; &nbsp;<font class='posOutcome'>you receive: <strong>10</strong></font></div>","null","16","Odds are Orange","Fruit/orange.png","Won","0.8,0.35","9","0.8","237","47","",""
"html-keyboard-response","151","155988","0.0-11.0-1.47","63e5be4daa8fac2e51d4fe91","bdp_rwlrn","Sun Mar 12 2023 23:40:03 GMT-0400 (Eastern Daylight Time)","336715","Untrustworthy,Trustworthy","","324","","","","decision","","<div class='trialDiv'><img src='Fruit/cherrie.png'><br><font class='baseline'><strong>Cherry Chances</strong><p>Choose number of points to bet.</font><div class='respPicDiv'><img src='img/responseButtonOffersNo0L.png' class='respPic'></div></div>","1","16","Cherry Chances","Fruit/cherrie.png","Lost","0.35,0.8","9","0.35","242","48","",""
"html-keyboard-response","152","156240","0.0-11.0-2.47","63e5be4daa8fac2e51d4fe91","bdp_rwlrn","Sun Mar 12 2023 23:40:03 GMT-0400 (Eastern Daylight Time)","336715","Untrustworthy,Trustworthy","","null","","","","decisionFB","","<div class='trialDiv'><img src='Fruit/cherrie.png'><br><font class='baseline'><strong>Cherry Chances</strong><p>Choose number of points to bet.</font><div class='respPicDiv'><img src='img/responseButtonOffersNo0L1.png' class='respPic'></div></div>","null","16","Cherry Chances","Fruit/cherrie.png","Lost","0.35,0.8","9","0.35","241","48","",""
"html-keyboard-response","153","157243","0.0-11.0-3.47","63e5be4daa8fac2e51d4fe91","bdp_rwlrn","Sun Mar 12 2023 23:40:03 GMT-0400 (Eastern Daylight Time)","336715","Untrustworthy,Trustworthy","","null","","","","feedback","","<div class='respPicDiv'><img src='img/responseButtonOffersNo0_wht.png' class='respPic'></div><div class='trialDiv'><img src='Fruit/cherrie.png'><br><font class='baseline'><strong>Cherry Chances</strong><p><strong><font class='negOutcome'>You LOST</font><p>You bet: 1</strong></font> &nbsp; &nbsp; &nbsp; &nbsp; &nbsp; &nbsp;<font class='negOutcome'>You receive: <strong>0</strong></font></div>","null","16","Cherry Chances","Fruit/cherrie.png","Lost","0.35,0.8","9","0.35","241","48","",""
"html-keyboard-response","154","157893","0.0-11.0-1.48","63e5be4daa8fac2e51d4fe91","bdp_rwlrn","Sun Mar 12 2023 23:40:03 GMT-0400 (Eastern Daylight Time)","336715","Untrustworthy,Trustworthy","","649","","","","decision","","<div class='trialDiv'><img src='Fruit/orange.png'><br><font class='baseline'><strong>Odds are Orange</strong><p>Choose number of points to bet.</font><div class='respPicDiv'><img src='img/responseButtonOffersNo0L.png' class='respPic'></div></div>","5","17","Odds are Orange","Fruit/orange.png","Lost","0.8,0.35","9","0.8","246","49","",""
"html-keyboard-response","155","158146","0.0-11.0-2.48","63e5be4daa8fac2e51d4fe91","bdp_rwlrn","Sun Mar 12 2023 23:40:03 GMT-0400 (Eastern Daylight Time)","336715","Untrustworthy,Trustworthy","","null","","","","decisionFB","","<div class='trialDiv'><img src='Fruit/orange.png'><br><font class='baseline'><strong>Odds are Orange</strong><p>Choose number of points to bet.</font><div class='respPicDiv'><img src='img/responseButtonOffersNo0L5.png' class='respPic'></div></div>","null","17","Odds are Orange","Fruit/orange.png","Lost","0.8,0.35","9","0.8","241","49","",""
"html-keyboard-response","156","159160","0.0-11.0-3.48","63e5be4daa8fac2e51d4fe91","bdp_rwlrn","Sun Mar 12 2023 23:40:03 GMT-0400 (Eastern Daylight Time)","336715","Untrustworthy,Trustworthy","","null","","","","feedback","","<div class='respPicDiv'><img src='img/responseButtonOffersNo0_wht.png' class='respPic'></div><div class='trialDiv'><img src='Fruit/orange.png'><br><font class='baseline'><strong>Odds are Orange</strong><p><strong><font class='negOutcome'>You LOST</font><p>You bet: 5</strong></font> &nbsp; &nbsp; &nbsp; &nbsp; &nbsp; &nbsp;<font class='negOutcome'>You receive: <strong>0</strong></font></div>","null","17","Odds are Orange","Fruit/orange.png","Lost","0.8,0.35","9","0.8","241","49","",""
"html-keyboard-response","157","159799","0.0-11.0-1.49","63e5be4daa8fac2e51d4fe91","bdp_rwlrn","Sun Mar 12 2023 23:40:03 GMT-0400 (Eastern Daylight Time)","336715","Untrustworthy,Trustworthy","","639","","","","decision","","<div class='trialDiv'><img src='Fruit/cherrie.png'><br><font class='baseline'><strong>Cherry Chances</strong><p>Choose number of points to bet.</font><div class='respPicDiv'><img src='img/responseButtonOffersNo0L.png' class='respPic'></div></div>","2","17","Cherry Chances","Fruit/cherrie.png","Lost","0.35,0.8","9","0.35","246","50","",""
"html-keyboard-response","158","160051","0.0-11.0-2.49","63e5be4daa8fac2e51d4fe91","bdp_rwlrn","Sun Mar 12 2023 23:40:03 GMT-0400 (Eastern Daylight Time)","336715","Untrustworthy,Trustworthy","","null","","","","decisionFB","","<div class='trialDiv'><img src='Fruit/cherrie.png'><br><font class='baseline'><strong>Cherry Chances</strong><p>Choose number of points to bet.</font><div class='respPicDiv'><img src='img/responseButtonOffersNo0L2.png' class='respPic'></div></div>","null","17","Cherry Chances","Fruit/cherrie.png","Lost","0.35,0.8","9","0.35","244","50","",""
"html-keyboard-response","159","161053","0.0-11.0-3.49","63e5be4daa8fac2e51d4fe91","bdp_rwlrn","Sun Mar 12 2023 23:40:03 GMT-0400 (Eastern Daylight Time)","336715","Untrustworthy,Trustworthy","","null","","","","feedback","","<div class='respPicDiv'><img src='img/responseButtonOffersNo0_wht.png' class='respPic'></div><div class='trialDiv'><img src='Fruit/cherrie.png'><br><font class='baseline'><strong>Cherry Chances</strong><p><strong><font class='negOutcome'>You LOST</font><p>You bet: 2</strong></font> &nbsp; &nbsp; &nbsp; &nbsp; &nbsp; &nbsp;<font class='negOutcome'>You receive: <strong>0</strong></font></div>","null","17","Cherry Chances","Fruit/cherrie.png","Lost","0.35,0.8","9","0.35","244","50","",""
"html-keyboard-response","160","161358","0.0-11.0-1.50","63e5be4daa8fac2e51d4fe91","bdp_rwlrn","Sun Mar 12 2023 23:40:03 GMT-0400 (Eastern Daylight Time)","336715","Untrustworthy,Trustworthy","","303","","","","decision","","<div class='trialDiv'><img src='Fruit/mixed-berries2.png'><br><font class='baseline'><strong>Berry Bla$t</strong><p>Choose number of points to bet.</font><div class='respPicDiv'><img src='img/responseButtonOffersNo0L.png' class='respPic'></div></div>","3","17","Berry Bla$t","Fruit/mixed-berries2.png","Won","0.35,0.65","9","0.35","249","51","",""
"html-keyboard-response","161","161611","0.0-11.0-2.50","63e5be4daa8fac2e51d4fe91","bdp_rwlrn","Sun Mar 12 2023 23:40:03 GMT-0400 (Eastern Daylight Time)","336715","Untrustworthy,Trustworthy","","null","","","","decisionFB","","<div class='trialDiv'><img src='Fruit/mixed-berries2.png'><br><font class='baseline'><strong>Berry Bla$t</strong><p>Choose number of points to bet.</font><div class='respPicDiv'><img src='img/responseButtonOffersNo0L3.png' class='respPic'></div></div>","null","17","Berry Bla$t","Fruit/mixed-berries2.png","Won","0.35,0.65","9","0.35","246","51","",""
