"event","trial","time","trialtype","subject_id","task","startTime","totalTime","labels","trial_type","trial_index","time_elapsed","internal_node_id","view_history","rt","numBlurs","success","stimulus","key_press","ltround","name","fileID","outcome","lottotype","lottoswpt","lottocurrpshare","point_total","round","faceID","face"
"focus","0","0","focusevent","608590825d295c858cbe7fa9","bdp_rwlrn","Mon Mar 13 2023 12:05:12 GMT-0700 (Pacific Daylight Time)","399734","Trustworthy,Untrustworthy","","","","","","","","","","","","","","","","","","","","",""
"focus","0","0","focusevent","608590825d295c858cbe7fa9","bdp_rwlrn","Mon Mar 13 2023 12:05:12 GMT-0700 (Pacific Daylight Time)","399734","Trustworthy,Untrustworthy","","","","","","","","","","","","","","","","","","","","",""
"","","","","608590825d295c858cbe7fa9","bdp_rwlrn","Mon Mar 13 2023 12:05:12 GMT-0700 (Pacific Daylight Time)","399734","Trustworthy,Untrustworthy","pavlovia","0","3","0.0-0.0","","","","","","","","","","","","","","","","",""
"","","","","608590825d295c858cbe7fa9","bdp_rwlrn","Mon Mar 13 2023 12:05:12 GMT-0700 (Pacific Daylight Time)","399734","Trustworthy,Untrustworthy","instructions","1","4542","0.0-1.0","[{""page_index"":0,""viewing_time"":4539}]","4539","","","","","","","","","","","","","","",""
"fullscreenenter","2","7894","fullscreenenter","608590825d295c858cbe7fa9","bdp_rwlrn","Mon Mar 13 2023 12:05:12 GMT-0700 (Pacific Daylight Time)","399734","Trustworthy,Untrustworthy","","","","","","","","","","","","","","","","","","","","",""
"blur","2","8479","blurevent","608590825d295c858cbe7fa9","bdp_rwlrn","Mon Mar 13 2023 12:05:12 GMT-0700 (Pacific Daylight Time)","399734","Trustworthy,Untrustworthy","","","","","","","1","","","","","","","","","","","","","",""
"","","","","608590825d295c858cbe7fa9","bdp_rwlrn","Mon Mar 13 2023 12:05:12 GMT-0700 (Pacific Daylight Time)","399734","Trustworthy,Untrustworthy","fullscreen","2","8893","0.0-2.0","","","","true","","","","","","","","","","","","",""
"focus","3","19777","focusevent","608590825d295c858cbe7fa9","bdp_rwlrn","Mon Mar 13 2023 12:05:12 GMT-0700 (Pacific Daylight Time)","399734","Trustworthy,Untrustworthy","","","","","","","","","","","","","","","","","","","","",""
"","","","","608590825d295c858cbe7fa9","bdp_rwlrn","Mon Mar 13 2023 12:05:12 GMT-0700 (Pacific Daylight Time)","399734","Trustworthy,Untrustworthy","instructions","3","62509","0.0-4.0","[{""page_index"":0,""viewing_time"":11301},{""page_index"":1,""viewing_time"":8082},{""page_index"":2,""viewing_time"":10471},{""page_index"":3,""viewing_time"":4760},{""page_index"":4,""viewing_time"":13341},{""page_index"":5,""viewing_time"":5659}]","53615","","","","","","","","","","","","","","",""
"","","","","608590825d295c858cbe7fa9","bdp_rwlrn","Mon Mar 13 2023 12:05:12 GMT-0700 (Pacific Daylight Time)","399734","Trustworthy,Untrustworthy","html-keyboard-response","4","67860","0.0-5.0","","5350","","","<div class='header' style='text-align:left; position: absolute; top: 5%; left: 5%;'><small>Task 1 of 5</small></div><div class='instruxDiv'><p><strong>1) What is the maximum number of points you can choose to bet on a lottery?</strong></p><p>a) 0</p><p>b) 1</p><p>c) 5</p>","C","","","","","","","","","","",""
"","","","","608590825d295c858cbe7fa9","bdp_rwlrn","Mon Mar 13 2023 12:05:12 GMT-0700 (Pacific Daylight Time)","399734","Trustworthy,Untrustworthy","html-keyboard-response","5","71527","0.0-6.0","","3560","","","<div class='header' style='text-align:left; position: absolute; top: 5%; left: 5%;'><small>Task 1 of 5</small></div><div class='instruxDiv'><p><strong>1) What is the maximum number of points you can choose to bet on a lottery?</strong></p><p>a) 1</p><p>b) 1</p><p style='color:#00FF00'>c) 5</p><h3 style='color:#00FF00'>Correct!</h3><h3 class='center-content'>The correct response is c).</h3><h3 class='center-content'>The maximum number of points you can choose to bet on a lottery is 5 points.</h3><p><em>Press SPACEBAR to continue</em></p></div>"," ","","","","","","","","","","",""
"","","","","608590825d295c858cbe7fa9","bdp_rwlrn","Mon Mar 13 2023 12:05:12 GMT-0700 (Pacific Daylight Time)","399734","Trustworthy,Untrustworthy","html-keyboard-response","6","74755","0.0-7.0","","3124","","","<div class='header' style='text-align:left; position: absolute; top: 5%; left: 5%;'><small>Task 1 of 5</small></div><div class='instruxDiv'><p><strong>2) How many points can you win each round?</strong></p><p>a) 10 points</p><p>b) Double what you bet</p><p>c) Quadruple what you bet</p>","B","","","","","","","","","","",""
"","","","","608590825d295c858cbe7fa9","bdp_rwlrn","Mon Mar 13 2023 12:05:12 GMT-0700 (Pacific Daylight Time)","399734","Trustworthy,Untrustworthy","html-keyboard-response","7","76020","0.0-8.0","","1157","","","<div class='header' style='text-align:left; position: absolute; top: 5%; left: 5%;'><small>Task 1 of 5</small></div><div class='instruxDiv'><p><strong>2) How many points can you win each round?</strong></p><p>a) 10 points</p><p style='color:#00FF00'>b) Double what you bet</p><p>c) Quadruple what you bet</p><h3 style='color:#00FF00'>Correct!</h3><h3 class='center-content'>The correct response is b).</h3><h3 class='center-content'>You can win double the amount of points you bet.</h3><p><em>Press SPACEBAR to continue</em></p></div>"," ","","","","","","","","","","",""
"","","","","608590825d295c858cbe7fa9","bdp_rwlrn","Mon Mar 13 2023 12:05:12 GMT-0700 (Pacific Daylight Time)","399734","Trustworthy,Untrustworthy","html-keyboard-response","8","81135","0.0-9.0","","null","","","<div class='header' style='text-align:left; position: absolute; top: 5%; left: 5%;'><small>Task 1 of 5</small></div><div class='instruxDiv'><p>Thank you for completing the quiz<p>These are the actual lotteries you will be playing in the next block:<p><div class='tc' align='center'><img class='introPic' src='Fruit/cherrie.png'><br><strong>Cherry Chances</strong></div><div class='bl' align='center'><img class='introPic' src='Fruit/grapes.png'><br><strong>Great Grapes</strong></div><div class='br' align='center'><img class='introPic' src='Fruit/mixed-berries2.png'><br><strong>Berry Bla$t</strong></div></div><p>Across <strong>66 rounds</strong> you will play each lottery <strong>22 times</strong> (in random order).<p style='align:center; color:white'><font <em>Press SPACEBAR to continue</em></p>","null","","","","","","","","","","",""
"","","","","608590825d295c858cbe7fa9","bdp_rwlrn","Mon Mar 13 2023 12:05:12 GMT-0700 (Pacific Daylight Time)","399734","Trustworthy,Untrustworthy","instructions","9","85962","0.0-10.0","[{""page_index"":0,""viewing_time"":1043},{""page_index"":1,""viewing_time"":3784}]","4827","","","","","","","","","","","","","","",""
"","","","decision","608590825d295c858cbe7fa9","bdp_rwlrn","Mon Mar 13 2023 12:05:12 GMT-0700 (Pacific Daylight Time)","399734","Trustworthy,Untrustworthy","html-keyboard-response","10","88478","0.0-11.0-1.0","","2406","","","<div class='trialDiv'><img src='Fruit/mixed-berries2.png'><br><font class='baseline'><strong>Berry Bla$t</strong><p>Choose number of points to bet.</font><div class='respPicDiv'><img src='img/responseButtonOffersNo0L.png' class='respPic'></div></div>","3","1","Berry Bla$t","Fruit/mixed-berries2.png","Lost","0.2,0.65","12","0.2","5","1","",""
"","","","decisionFB","608590825d295c858cbe7fa9","bdp_rwlrn","Mon Mar 13 2023 12:05:12 GMT-0700 (Pacific Daylight Time)","399734","Trustworthy,Untrustworthy","html-keyboard-response","11","88735","0.0-11.0-2.0","","null","","","<div class='trialDiv'><img src='Fruit/mixed-berries2.png'><br><font class='baseline'><strong>Berry Bla$t</strong><p>Choose number of points to bet.</font><div class='respPicDiv'><img src='img/responseButtonOffersNo0L3.png' class='respPic'></div></div>","null","1","Berry Bla$t","Fruit/mixed-berries2.png","Lost","0.2,0.65","12","0.2","2","1","",""
"","","","feedback","608590825d295c858cbe7fa9","bdp_rwlrn","Mon Mar 13 2023 12:05:12 GMT-0700 (Pacific Daylight Time)","399734","Trustworthy,Untrustworthy","html-keyboard-response","12","89743","0.0-11.0-3.0","","null","","","<div class='respPicDiv'><img src='img/responseButtonOffersNo0_wht.png' class='respPic'></div><div class='trialDiv'><img src='Fruit/mixed-berries2.png'><br><font class='baseline'><strong>Berry Bla$t</strong><p><strong><font class='negOutcome'>You LOST</font><p>You bet: 3</strong></font> &nbsp; &nbsp; &nbsp; &nbsp; &nbsp; &nbsp;<font class='negOutcome'>You receive: <strong>0</strong></font></div>","null","1","Berry Bla$t","Fruit/mixed-berries2.png","Lost","0.2,0.65","12","0.2","2","1","",""
"","","","decision","608590825d295c858cbe7fa9","bdp_rwlrn","Mon Mar 13 2023 12:05:12 GMT-0700 (Pacific Daylight Time)","399734","Trustworthy,Untrustworthy","html-keyboard-response","13","91458","0.0-11.0-1.1","","1714","","","<div class='trialDiv'><img src='Fruit/grapes.png'><br><font class='baseline'><strong>Great Grapes</strong><p>Choose number of points to bet.</font><div class='respPicDiv'><img src='img/responseButtonOffersNo0L.png' class='respPic'></div></div>","2","1","Great Grapes","Fruit/grapes.png","Won","0.65,0.2","13","0.65","7","2","",""
"","","","decisionFB","608590825d295c858cbe7fa9","bdp_rwlrn","Mon Mar 13 2023 12:05:12 GMT-0700 (Pacific Daylight Time)","399734","Trustworthy,Untrustworthy","html-keyboard-response","14","91711","0.0-11.0-2.1","","null","","","<div class='trialDiv'><img src='Fruit/grapes.png'><br><font class='baseline'><strong>Great Grapes</strong><p>Choose number of points to bet.</font><div class='respPicDiv'><img src='img/responseButtonOffersNo0L2.png' class='respPic'></div></div>","null","1","Great Grapes","Fruit/grapes.png","Won","0.65,0.2","13","0.65","5","2","",""
"","","","feedback","608590825d295c858cbe7fa9","bdp_rwlrn","Mon Mar 13 2023 12:05:12 GMT-0700 (Pacific Daylight Time)","399734","Trustworthy,Untrustworthy","html-keyboard-response","15","92719","0.0-11.0-3.1","","null","","","<div class='respPicDiv'><img src='img/responseButtonOffersNo0_wht.png' class='respPic'></div><div class='trialDiv'><img src='Fruit/grapes.png'><br><font class='baseline'><strong>Great Grapes</strong><p><strong><font class='posOutcome'>You WON</font><p>You bet: 2</strong></font> &nbsp; &nbsp; &nbsp; &nbsp; &nbsp; &nbsp;<font class='posOutcome'>you receive: <strong>4</strong></font></div>","null","1","Great Grapes","Fruit/grapes.png","Won","0.65,0.2","13","0.65","9","2","",""
"","","","decision","608590825d295c858cbe7fa9","bdp_rwlrn","Mon Mar 13 2023 12:05:12 GMT-0700 (Pacific Daylight Time)","399734","Trustworthy,Untrustworthy","html-keyboard-response","16","93806","0.0-11.0-1.2","","1087","","","<div class='trialDiv'><img src='Fruit/cherrie.png'><br><font class='baseline'><strong>Cherry Chances</strong><p>Choose number of points to bet.</font><div class='respPicDiv'><img src='img/responseButtonOffersNo0L.png' class='respPic'></div></div>","4","1","Cherry Chances","Fruit/cherrie.png","Won","0.8,0.2","14","0.8","14","3","",""
"","","","decisionFB","608590825d295c858cbe7fa9","bdp_rwlrn","Mon Mar 13 2023 12:05:12 GMT-0700 (Pacific Daylight Time)","399734","Trustworthy,Untrustworthy","html-keyboard-response","17","94062","0.0-11.0-2.2","","null","","","<div class='trialDiv'><img src='Fruit/cherrie.png'><br><font class='baseline'><strong>Cherry Chances</strong><p>Choose number of points to bet.</font><div class='respPicDiv'><img src='img/responseButtonOffersNo0L4.png' class='respPic'></div></div>","null","1","Cherry Chances","Fruit/cherrie.png","Won","0.8,0.2","14","0.8","10","3","",""
"","","","feedback","608590825d295c858cbe7fa9","bdp_rwlrn","Mon Mar 13 2023 12:05:12 GMT-0700 (Pacific Daylight Time)","399734","Trustworthy,Untrustworthy","html-keyboard-response","18","95071","0.0-11.0-3.2","","null","","","<div class='respPicDiv'><img src='img/responseButtonOffersNo0_wht.png' class='respPic'></div><div class='trialDiv'><img src='Fruit/cherrie.png'><br><font class='baseline'><strong>Cherry Chances</strong><p><strong><font class='posOutcome'>You WON</font><p>You bet: 4</strong></font> &nbsp; &nbsp; &nbsp; &nbsp; &nbsp; &nbsp;<font class='posOutcome'>you receive: <strong>8</strong></font></div>","null","1","Cherry Chances","Fruit/cherrie.png","Won","0.8,0.2","14","0.8","18","3","",""
"","","","decision","608590825d295c858cbe7fa9","bdp_rwlrn","Mon Mar 13 2023 12:05:12 GMT-0700 (Pacific Daylight Time)","399734","Trustworthy,Untrustworthy","html-keyboard-response","19","95848","0.0-11.0-1.3","","777","","","<div class='trialDiv'><img src='Fruit/grapes.png'><br><font class='baseline'><strong>Great Grapes</strong><p>Choose number of points to bet.</font><div class='respPicDiv'><img src='img/responseButtonOffersNo0L.png' class='respPic'></div></div>","3","2","Great Grapes","Fruit/grapes.png","Lost","0.65,0.2","13","0.65","23","4","",""
"","","","decisionFB","608590825d295c858cbe7fa9","bdp_rwlrn","Mon Mar 13 2023 12:05:12 GMT-0700 (Pacific Daylight Time)","399734","Trustworthy,Untrustworthy","html-keyboard-response","20","96102","0.0-11.0-2.3","","null","","","<div class='trialDiv'><img src='Fruit/grapes.png'><br><font class='baseline'><strong>Great Grapes</strong><p>Choose number of points to bet.</font><div class='respPicDiv'><img src='img/responseButtonOffersNo0L3.png' class='respPic'></div></div>","null","2","Great Grapes","Fruit/grapes.png","Lost","0.65,0.2","13","0.65","20","4","",""
"","","","feedback","608590825d295c858cbe7fa9","bdp_rwlrn","Mon Mar 13 2023 12:05:12 GMT-0700 (Pacific Daylight Time)","399734","Trustworthy,Untrustworthy","html-keyboard-response","21","97111","0.0-11.0-3.3","","null","","","<div class='respPicDiv'><img src='img/responseButtonOffersNo0_wht.png' class='respPic'></div><div class='trialDiv'><img src='Fruit/grapes.png'><br><font class='baseline'><strong>Great Grapes</strong><p><strong><font class='negOutcome'>You LOST</font><p>You bet: 3</strong></font> &nbsp; &nbsp; &nbsp; &nbsp; &nbsp; &nbsp;<font class='negOutcome'>You receive: <strong>0</strong></font></div>","null","2","Great Grapes","Fruit/grapes.png","Lost","0.65,0.2","13","0.65","20","4","",""
"","","","decision","608590825d295c858cbe7fa9","bdp_rwlrn","Mon Mar 13 2023 12:05:12 GMT-0700 (Pacific Daylight Time)","399734","Trustworthy,Untrustworthy","html-keyboard-response","22","97252","0.0-11.0-1.4","","140","","","<div class='trialDiv'><img src='Fruit/cherrie.png'><br><font class='baseline'><strong>Cherry Chances</strong><p>Choose number of points to bet.</font><div class='respPicDiv'><img src='img/responseButtonOffersNo0L.png' class='respPic'></div></div>","2","2","Cherry Chances","Fruit/cherrie.png","Won","0.8,0.2","14","0.8","25","5","",""
"","","","decisionFB","608590825d295c858cbe7fa9","bdp_rwlrn","Mon Mar 13 2023 12:05:12 GMT-0700 (Pacific Daylight Time)","399734","Trustworthy,Untrustworthy","html-keyboard-response","23","97511","0.0-11.0-2.4","","null","","","<div class='trialDiv'><img src='Fruit/cherrie.png'><br><font class='baseline'><strong>Cherry Chances</strong><p>Choose number of points to bet.</font><div class='respPicDiv'><img src='img/responseButtonOffersNo0L2.png' class='respPic'></div></div>","null","2","Cherry Chances","Fruit/cherrie.png","Won","0.8,0.2","14","0.8","23","5","",""
"","","","feedback","608590825d295c858cbe7fa9","bdp_rwlrn","Mon Mar 13 2023 12:05:12 GMT-0700 (Pacific Daylight Time)","399734","Trustworthy,Untrustworthy","html-keyboard-response","24","98519","0.0-11.0-3.4","","null","","","<div class='respPicDiv'><img src='img/responseButtonOffersNo0_wht.png' class='respPic'></div><div class='trialDiv'><img src='Fruit/cherrie.png'><br><font class='baseline'><strong>Cherry Chances</strong><p><strong><font class='posOutcome'>You WON</font><p>You bet: 2</strong></font> &nbsp; &nbsp; &nbsp; &nbsp; &nbsp; &nbsp;<font class='posOutcome'>you receive: <strong>4</strong></font></div>","null","2","Cherry Chances","Fruit/cherrie.png","Won","0.8,0.2","14","0.8","27","5","",""
"","","","decision","608590825d295c858cbe7fa9","bdp_rwlrn","Mon Mar 13 2023 12:05:12 GMT-0700 (Pacific Daylight Time)","399734","Trustworthy,Untrustworthy","html-keyboard-response","25","99407","0.0-11.0-1.5","","887","","","<div class='trialDiv'><img src='Fruit/mixed-berries2.png'><br><font class='baseline'><strong>Berry Bla$t</strong><p>Choose number of points to bet.</font><div class='respPicDiv'><img src='img/responseButtonOffersNo0L.png' class='respPic'></div></div>","4","2","Berry Bla$t","Fruit/mixed-berries2.png","Lost","0.2,0.65","12","0.2","32","6","",""
"","","","decisionFB","608590825d295c858cbe7fa9","bdp_rwlrn","Mon Mar 13 2023 12:05:12 GMT-0700 (Pacific Daylight Time)","399734","Trustworthy,Untrustworthy","html-keyboard-response","26","99663","0.0-11.0-2.5","","null","","","<div class='trialDiv'><img src='Fruit/mixed-berries2.png'><br><font class='baseline'><strong>Berry Bla$t</strong><p>Choose number of points to bet.</font><div class='respPicDiv'><img src='img/responseButtonOffersNo0L4.png' class='respPic'></div></div>","null","2","Berry Bla$t","Fruit/mixed-berries2.png","Lost","0.2,0.65","12","0.2","28","6","",""
"","","","feedback","608590825d295c858cbe7fa9","bdp_rwlrn","Mon Mar 13 2023 12:05:12 GMT-0700 (Pacific Daylight Time)","399734","Trustworthy,Untrustworthy","html-keyboard-response","27","100671","0.0-11.0-3.5","","null","","","<div class='respPicDiv'><img src='img/responseButtonOffersNo0_wht.png' class='respPic'></div><div class='trialDiv'><img src='Fruit/mixed-berries2.png'><br><font class='baseline'><strong>Berry Bla$t</strong><p><strong><font class='negOutcome'>You LOST</font><p>You bet: 4</strong></font> &nbsp; &nbsp; &nbsp; &nbsp; &nbsp; &nbsp;<font class='negOutcome'>You receive: <strong>0</strong></font></div>","null","2","Berry Bla$t","Fruit/mixed-berries2.png","Lost","0.2,0.65","12","0.2","28","6","",""
"","","","decision","608590825d295c858cbe7fa9","bdp_rwlrn","Mon Mar 13 2023 12:05:12 GMT-0700 (Pacific Daylight Time)","399734","Trustworthy,Untrustworthy","html-keyboard-response","28","102986","0.0-11.0-1.6","","2315","","","<div class='trialDiv'><img src='Fruit/grapes.png'><br><font class='baseline'><strong>Great Grapes</strong><p>Choose number of points to bet.</font><div class='respPicDiv'><img src='img/responseButtonOffersNo0L.png' class='respPic'></div></div>","5","3","Great Grapes","Fruit/grapes.png","Won","0.65,0.2","13","0.65","33","7","",""
"","","","decisionFB","608590825d295c858cbe7fa9","bdp_rwlrn","Mon Mar 13 2023 12:05:12 GMT-0700 (Pacific Daylight Time)","399734","Trustworthy,Untrustworthy","html-keyboard-response","29","103239","0.0-11.0-2.6","","null","","","<div class='trialDiv'><img src='Fruit/grapes.png'><br><font class='baseline'><strong>Great Grapes</strong><p>Choose number of points to bet.</font><div class='respPicDiv'><img src='img/responseButtonOffersNo0L5.png' class='respPic'></div></div>","null","3","Great Grapes","Fruit/grapes.png","Won","0.65,0.2","13","0.65","28","7","",""
"","","","feedback","608590825d295c858cbe7fa9","bdp_rwlrn","Mon Mar 13 2023 12:05:12 GMT-0700 (Pacific Daylight Time)","399734","Trustworthy,Untrustworthy","html-keyboard-response","30","104247","0.0-11.0-3.6","","null","","","<div class='respPicDiv'><img src='img/responseButtonOffersNo0_wht.png' class='respPic'></div><div class='trialDiv'><img src='Fruit/grapes.png'><br><font class='baseline'><strong>Great Grapes</strong><p><strong><font class='posOutcome'>You WON</font><p>You bet: 5</strong></font> &nbsp; &nbsp; &nbsp; &nbsp; &nbsp; &nbsp;<font class='posOutcome'>you receive: <strong>10</strong></font></div>","null","3","Great Grapes","Fruit/grapes.png","Won","0.65,0.2","13","0.65","38","7","",""
"","","","decision","608590825d295c858cbe7fa9","bdp_rwlrn","Mon Mar 13 2023 12:05:12 GMT-0700 (Pacific Daylight Time)","399734","Trustworthy,Untrustworthy","html-keyboard-response","31","105458","0.0-11.0-1.7","","1210","","","<div class='trialDiv'><img src='Fruit/cherrie.png'><br><font class='baseline'><strong>Cherry Chances</strong><p>Choose number of points to bet.</font><div class='respPicDiv'><img src='img/responseButtonOffersNo0L.png' class='respPic'></div></div>","5","3","Cherry Chances","Fruit/cherrie.png","Won","0.8,0.2","14","0.8","43","8","",""
"","","","decisionFB","608590825d295c858cbe7fa9","bdp_rwlrn","Mon Mar 13 2023 12:05:12 GMT-0700 (Pacific Daylight Time)","399734","Trustworthy,Untrustworthy","html-keyboard-response","32","105711","0.0-11.0-2.7","","null","","","<div class='trialDiv'><img src='Fruit/cherrie.png'><br><font class='baseline'><strong>Cherry Chances</strong><p>Choose number of points to bet.</font><div class='respPicDiv'><img src='img/responseButtonOffersNo0L5.png' class='respPic'></div></div>","null","3","Cherry Chances","Fruit/cherrie.png","Won","0.8,0.2","14","0.8","38","8","",""
"","","","feedback","608590825d295c858cbe7fa9","bdp_rwlrn","Mon Mar 13 2023 12:05:12 GMT-0700 (Pacific Daylight Time)","399734","Trustworthy,Untrustworthy","html-keyboard-response","33","106719","0.0-11.0-3.7","","null","","","<div class='respPicDiv'><img src='img/responseButtonOffersNo0_wht.png' class='respPic'></div><div class='trialDiv'><img src='Fruit/cherrie.png'><br><font class='baseline'><strong>Cherry Chances</strong><p><strong><font class='posOutcome'>You WON</font><p>You bet: 5</strong></font> &nbsp; &nbsp; &nbsp; &nbsp; &nbsp; &nbsp;<font class='posOutcome'>you receive: <strong>10</strong></font></div>","null","3","Cherry Chances","Fruit/cherrie.png","Won","0.8,0.2","14","0.8","48","8","",""
"","","","decision","608590825d295c858cbe7fa9","bdp_rwlrn","Mon Mar 13 2023 12:05:12 GMT-0700 (Pacific Daylight Time)","399734","Trustworthy,Untrustworthy","html-keyboard-response","34","107288","0.0-11.0-1.8","","568","","","<div class='trialDiv'><img src='Fruit/mixed-berries2.png'><br><font class='baseline'><strong>Berry Bla$t</strong><p>Choose number of points to bet.</font><div class='respPicDiv'><img src='img/responseButtonOffersNo0L.png' class='respPic'></div></div>","2","3","Berry Bla$t","Fruit/mixed-berries2.png","Lost","0.2,0.65","12","0.2","53","9","",""
"","","","decisionFB","608590825d295c858cbe7fa9","bdp_rwlrn","Mon Mar 13 2023 12:05:12 GMT-0700 (Pacific Daylight Time)","399734","Trustworthy,Untrustworthy","html-keyboard-response","35","107542","0.0-11.0-2.8","","null","","","<div class='trialDiv'><img src='Fruit/mixed-berries2.png'><br><font class='baseline'><strong>Berry Bla$t</strong><p>Choose number of points to bet.</font><div class='respPicDiv'><img src='img/responseButtonOffersNo0L2.png' class='respPic'></div></div>","null","3","Berry Bla$t","Fruit/mixed-berries2.png","Lost","0.2,0.65","12","0.2","51","9","",""
"","","","feedback","608590825d295c858cbe7fa9","bdp_rwlrn","Mon Mar 13 2023 12:05:12 GMT-0700 (Pacific Daylight Time)","399734","Trustworthy,Untrustworthy","html-keyboard-response","36","108550","0.0-11.0-3.8","","null","","","<div class='respPicDiv'><img src='img/responseButtonOffersNo0_wht.png' class='respPic'></div><div class='trialDiv'><img src='Fruit/mixed-berries2.png'><br><font class='baseline'><strong>Berry Bla$t</strong><p><strong><font class='negOutcome'>You LOST</font><p>You bet: 2</strong></font> &nbsp; &nbsp; &nbsp; &nbsp; &nbsp; &nbsp;<font class='negOutcome'>You receive: <strong>0</strong></font></div>","null","3","Berry Bla$t","Fruit/mixed-berries2.png","Lost","0.2,0.65","12","0.2","51","9","",""
"","","","decision","608590825d295c858cbe7fa9","bdp_rwlrn","Mon Mar 13 2023 12:05:12 GMT-0700 (Pacific Daylight Time)","399734","Trustworthy,Untrustworthy","html-keyboard-response","37","108964","0.0-11.0-1.9","","413","","","<div class='trialDiv'><img src='Fruit/grapes.png'><br><font class='baseline'><strong>Great Grapes</strong><p>Choose number of points to bet.</font><div class='respPicDiv'><img src='img/responseButtonOffersNo0L.png' class='respPic'></div></div>","3","4","Great Grapes","Fruit/grapes.png","Lost","0.65,0.2","13","0.65","56","10","",""
"","","","decisionFB","608590825d295c858cbe7fa9","bdp_rwlrn","Mon Mar 13 2023 12:05:12 GMT-0700 (Pacific Daylight Time)","399734","Trustworthy,Untrustworthy","html-keyboard-response","38","109223","0.0-11.0-2.9","","null","","","<div class='trialDiv'><img src='Fruit/grapes.png'><br><font class='baseline'><strong>Great Grapes</strong><p>Choose number of points to bet.</font><div class='respPicDiv'><img src='img/responseButtonOffersNo0L3.png' class='respPic'></div></div>","null","4","Great Grapes","Fruit/grapes.png","Lost","0.65,0.2","13","0.65","53","10","",""
"","","","feedback","608590825d295c858cbe7fa9","bdp_rwlrn","Mon Mar 13 2023 12:05:12 GMT-0700 (Pacific Daylight Time)","399734","Trustworthy,Untrustworthy","html-keyboard-response","39","110235","0.0-11.0-3.9","","null","","","<div class='respPicDiv'><img src='img/responseButtonOffersNo0_wht.png' class='respPic'></div><div class='trialDiv'><img src='Fruit/grapes.png'><br><font class='baseline'><strong>Great Grapes</strong><p><strong><font class='negOutcome'>You LOST</font><p>You bet: 3</strong></font> &nbsp; &nbsp; &nbsp; &nbsp; &nbsp; &nbsp;<font class='negOutcome'>You receive: <strong>0</strong></font></div>","null","4","Great Grapes","Fruit/grapes.png","Lost","0.65,0.2","13","0.65","53","10","",""
"","","","decision","608590825d295c858cbe7fa9","bdp_rwlrn","Mon Mar 13 2023 12:05:12 GMT-0700 (Pacific Daylight Time)","399734","Trustworthy,Untrustworthy","html-keyboard-response","40","110624","0.0-11.0-1.10","","388","","","<div class='trialDiv'><img src='Fruit/cherrie.png'><br><font class='baseline'><strong>Cherry Chances</strong><p>Choose number of points to bet.</font><div class='respPicDiv'><img src='img/responseButtonOffersNo0L.png' class='respPic'></div></div>","4","4","Cherry Chances","Fruit/cherrie.png","Won","0.8,0.2","14","0.8","58","11","",""
"","","","decisionFB","608590825d295c858cbe7fa9","bdp_rwlrn","Mon Mar 13 2023 12:05:12 GMT-0700 (Pacific Daylight Time)","399734","Trustworthy,Untrustworthy","html-keyboard-response","41","110879","0.0-11.0-2.10","","null","","","<div class='trialDiv'><img src='Fruit/cherrie.png'><br><font class='baseline'><strong>Cherry Chances</strong><p>Choose number of points to bet.</font><div class='respPicDiv'><img src='img/responseButtonOffersNo0L4.png' class='respPic'></div></div>","null","4","Cherry Chances","Fruit/cherrie.png","Won","0.8,0.2","14","0.8","54","11","",""
"","","","feedback","608590825d295c858cbe7fa9","bdp_rwlrn","Mon Mar 13 2023 12:05:12 GMT-0700 (Pacific Daylight Time)","399734","Trustworthy,Untrustworthy","html-keyboard-response","42","111887","0.0-11.0-3.10","","null","","","<div class='respPicDiv'><img src='img/responseButtonOffersNo0_wht.png' class='respPic'></div><div class='trialDiv'><img src='Fruit/cherrie.png'><br><font class='baseline'><strong>Cherry Chances</strong><p><strong><font class='posOutcome'>You WON</font><p>You bet: 4</strong></font> &nbsp; &nbsp; &nbsp; &nbsp; &nbsp; &nbsp;<font class='posOutcome'>you receive: <strong>8</strong></font></div>","null","4","Cherry Chances","Fruit/cherrie.png","Won","0.8,0.2","14","0.8","62","11","",""
"","","","decision","608590825d295c858cbe7fa9","bdp_rwlrn","Mon Mar 13 2023 12:05:12 GMT-0700 (Pacific Daylight Time)","399734","Trustworthy,Untrustworthy","html-keyboard-response","43","112450","0.0-11.0-1.11","","562","","","<div class='trialDiv'><img src='Fruit/mixed-berries2.png'><br><font class='baseline'><strong>Berry Bla$t</strong><p>Choose number of points to bet.</font><div class='respPicDiv'><img src='img/responseButtonOffersNo0L.png' class='respPic'></div></div>","5","4","Berry Bla$t","Fruit/mixed-berries2.png","Won","0.2,0.65","12","0.2","67","12","",""
"","","","decisionFB","608590825d295c858cbe7fa9","bdp_rwlrn","Mon Mar 13 2023 12:05:12 GMT-0700 (Pacific Daylight Time)","399734","Trustworthy,Untrustworthy","html-keyboard-response","44","112703","0.0-11.0-2.11","","null","","","<div class='trialDiv'><img src='Fruit/mixed-berries2.png'><br><font class='baseline'><strong>Berry Bla$t</strong><p>Choose number of points to bet.</font><div class='respPicDiv'><img src='img/responseButtonOffersNo0L5.png' class='respPic'></div></div>","null","4","Berry Bla$t","Fruit/mixed-berries2.png","Won","0.2,0.65","12","0.2","62","12","",""
"","","","feedback","608590825d295c858cbe7fa9","bdp_rwlrn","Mon Mar 13 2023 12:05:12 GMT-0700 (Pacific Daylight Time)","399734","Trustworthy,Untrustworthy","html-keyboard-response","45","113711","0.0-11.0-3.11","","null","","","<div class='respPicDiv'><img src='img/responseButtonOffersNo0_wht.png' class='respPic'></div><div class='trialDiv'><img src='Fruit/mixed-berries2.png'><br><font class='baseline'><strong>Berry Bla$t</strong><p><strong><font class='posOutcome'>You WON</font><p>You bet: 5</strong></font> &nbsp; &nbsp; &nbsp; &nbsp; &nbsp; &nbsp;<font class='posOutcome'>you receive: <strong>10</strong></font></div>","null","4","Berry Bla$t","Fruit/mixed-berries2.png","Won","0.2,0.65","12","0.2","72","12","",""
"","","","decision","608590825d295c858cbe7fa9","bdp_rwlrn","Mon Mar 13 2023 12:05:12 GMT-0700 (Pacific Daylight Time)","399734","Trustworthy,Untrustworthy","html-keyboard-response","46","114353","0.0-11.0-1.12","","641","","","<div class='trialDiv'><img src='Fruit/cherrie.png'><br><font class='baseline'><strong>Cherry Chances</strong><p>Choose number of points to bet.</font><div class='respPicDiv'><img src='img/responseButtonOffersNo0L.png' class='respPic'></div></div>","5","5","Cherry Chances","Fruit/cherrie.png","Won","0.8,0.2","14","0.8","77","13","",""
"","","","decisionFB","608590825d295c858cbe7fa9","bdp_rwlrn","Mon Mar 13 2023 12:05:12 GMT-0700 (Pacific Daylight Time)","399734","Trustworthy,Untrustworthy","html-keyboard-response","47","114606","0.0-11.0-2.12","","null","","","<div class='trialDiv'><img src='Fruit/cherrie.png'><br><font class='baseline'><strong>Cherry Chances</strong><p>Choose number of points to bet.</font><div class='respPicDiv'><img src='img/responseButtonOffersNo0L5.png' class='respPic'></div></div>","null","5","Cherry Chances","Fruit/cherrie.png","Won","0.8,0.2","14","0.8","72","13","",""
"","","","feedback","608590825d295c858cbe7fa9","bdp_rwlrn","Mon Mar 13 2023 12:05:12 GMT-0700 (Pacific Daylight Time)","399734","Trustworthy,Untrustworthy","html-keyboard-response","48","115615","0.0-11.0-3.12","","null","","","<div class='respPicDiv'><img src='img/responseButtonOffersNo0_wht.png' class='respPic'></div><div class='trialDiv'><img src='Fruit/cherrie.png'><br><font class='baseline'><strong>Cherry Chances</strong><p><strong><font class='posOutcome'>You WON</font><p>You bet: 5</strong></font> &nbsp; &nbsp; &nbsp; &nbsp; &nbsp; &nbsp;<font class='posOutcome'>you receive: <strong>10</strong></font></div>","null","5","Cherry Chances","Fruit/cherrie.png","Won","0.8,0.2","14","0.8","82","13","",""
"","","","decision","608590825d295c858cbe7fa9","bdp_rwlrn","Mon Mar 13 2023 12:05:12 GMT-0700 (Pacific Daylight Time)","399734","Trustworthy,Untrustworthy","html-keyboard-response","49","116500","0.0-11.0-1.13","","883","","","<div class='trialDiv'><img src='Fruit/grapes.png'><br><font class='baseline'><strong>Great Grapes</strong><p>Choose number of points to bet.</font><div class='respPicDiv'><img src='img/responseButtonOffersNo0L.png' class='respPic'></div></div>","5","5","Great Grapes","Fruit/grapes.png","Lost","0.65,0.2","13","0.65","87","14","",""
"","","","decisionFB","608590825d295c858cbe7fa9","bdp_rwlrn","Mon Mar 13 2023 12:05:12 GMT-0700 (Pacific Daylight Time)","399734","Trustworthy,Untrustworthy","html-keyboard-response","50","116751","0.0-11.0-2.13","","null","","","<div class='trialDiv'><img src='Fruit/grapes.png'><br><font class='baseline'><strong>Great Grapes</strong><p>Choose number of points to bet.</font><div class='respPicDiv'><img src='img/responseButtonOffersNo0L5.png' class='respPic'></div></div>","null","5","Great Grapes","Fruit/grapes.png","Lost","0.65,0.2","13","0.65","82","14","",""
"","","","feedback","608590825d295c858cbe7fa9","bdp_rwlrn","Mon Mar 13 2023 12:05:12 GMT-0700 (Pacific Daylight Time)","399734","Trustworthy,Untrustworthy","html-keyboard-response","51","117759","0.0-11.0-3.13","","null","","","<div class='respPicDiv'><img src='img/responseButtonOffersNo0_wht.png' class='respPic'></div><div class='trialDiv'><img src='Fruit/grapes.png'><br><font class='baseline'><strong>Great Grapes</strong><p><strong><font class='negOutcome'>You LOST</font><p>You bet: 5</strong></font> &nbsp; &nbsp; &nbsp; &nbsp; &nbsp; &nbsp;<font class='negOutcome'>You receive: <strong>0</strong></font></div>","null","5","Great Grapes","Fruit/grapes.png","Lost","0.65,0.2","13","0.65","82","14","",""
"","","","decision","608590825d295c858cbe7fa9","bdp_rwlrn","Mon Mar 13 2023 12:05:12 GMT-0700 (Pacific Daylight Time)","399734","Trustworthy,Untrustworthy","html-keyboard-response","52","118514","0.0-11.0-1.14","","754","","","<div class='trialDiv'><img src='Fruit/mixed-berries2.png'><br><font class='baseline'><strong>Berry Bla$t</strong><p>Choose number of points to bet.</font><div class='respPicDiv'><img src='img/responseButtonOffersNo0L.png' class='respPic'></div></div>","1","5","Berry Bla$t","Fruit/mixed-berries2.png","Lost","0.2,0.65","12","0.2","87","15","",""
"","","","decisionFB","608590825d295c858cbe7fa9","bdp_rwlrn","Mon Mar 13 2023 12:05:12 GMT-0700 (Pacific Daylight Time)","399734","Trustworthy,Untrustworthy","html-keyboard-response","53","118767","0.0-11.0-2.14","","null","","","<div class='trialDiv'><img src='Fruit/mixed-berries2.png'><br><font class='baseline'><strong>Berry Bla$t</strong><p>Choose number of points to bet.</font><div class='respPicDiv'><img src='img/responseButtonOffersNo0L1.png' class='respPic'></div></div>","null","5","Berry Bla$t","Fruit/mixed-berries2.png","Lost","0.2,0.65","12","0.2","86","15","",""
"","","","feedback","608590825d295c858cbe7fa9","bdp_rwlrn","Mon Mar 13 2023 12:05:12 GMT-0700 (Pacific Daylight Time)","399734","Trustworthy,Untrustworthy","html-keyboard-response","54","119775","0.0-11.0-3.14","","null","","","<div class='respPicDiv'><img src='img/responseButtonOffersNo0_wht.png' class='respPic'></div><div class='trialDiv'><img src='Fruit/mixed-berries2.png'><br><font class='baseline'><strong>Berry Bla$t</strong><p><strong><font class='negOutcome'>You LOST</font><p>You bet: 1</strong></font> &nbsp; &nbsp; &nbsp; &nbsp; &nbsp; &nbsp;<font class='negOutcome'>You receive: <strong>0</strong></font></div>","null","5","Berry Bla$t","Fruit/mixed-berries2.png","Lost","0.2,0.65","12","0.2","86","15","",""
"","","","decision","608590825d295c858cbe7fa9","bdp_rwlrn","Mon Mar 13 2023 12:05:12 GMT-0700 (Pacific Daylight Time)","399734","Trustworthy,Untrustworthy","html-keyboard-response","55","120327","0.0-11.0-1.15","","551","","","<div class='trialDiv'><img src='Fruit/cherrie.png'><br><font class='baseline'><strong>Cherry Chances</strong><p>Choose number of points to bet.</font><div class='respPicDiv'><img src='img/responseButtonOffersNo0L.png' class='respPic'></div></div>","1","6","Cherry Chances","Fruit/cherrie.png","Won","0.8,0.2","14","0.8","91","16","",""
"","","","decisionFB","608590825d295c858cbe7fa9","bdp_rwlrn","Mon Mar 13 2023 12:05:12 GMT-0700 (Pacific Daylight Time)","399734","Trustworthy,Untrustworthy","html-keyboard-response","56","120583","0.0-11.0-2.15","","null","","","<div class='trialDiv'><img src='Fruit/cherrie.png'><br><font class='baseline'><strong>Cherry Chances</strong><p>Choose number of points to bet.</font><div class='respPicDiv'><img src='img/responseButtonOffersNo0L1.png' class='respPic'></div></div>","null","6","Cherry Chances","Fruit/cherrie.png","Won","0.8,0.2","14","0.8","90","16","",""
"","","","feedback","608590825d295c858cbe7fa9","bdp_rwlrn","Mon Mar 13 2023 12:05:12 GMT-0700 (Pacific Daylight Time)","399734","Trustworthy,Untrustworthy","html-keyboard-response","57","121590","0.0-11.0-3.15","","null","","","<div class='respPicDiv'><img src='img/responseButtonOffersNo0_wht.png' class='respPic'></div><div class='trialDiv'><img src='Fruit/cherrie.png'><br><font class='baseline'><strong>Cherry Chances</strong><p><strong><font class='posOutcome'>You WON</font><p>You bet: 1</strong></font> &nbsp; &nbsp; &nbsp; &nbsp; &nbsp; &nbsp;<font class='posOutcome'>you receive: <strong>2</strong></font></div>","null","6","Cherry Chances","Fruit/cherrie.png","Won","0.8,0.2","14","0.8","92","16","",""
"","","","decision","608590825d295c858cbe7fa9","bdp_rwlrn","Mon Mar 13 2023 12:05:12 GMT-0700 (Pacific Daylight Time)","399734","Trustworthy,Untrustworthy","html-keyboard-response","58","122069","0.0-11.0-1.16","","478","","","<div class='trialDiv'><img src='Fruit/mixed-berries2.png'><br><font class='baseline'><strong>Berry Bla$t</strong><p>Choose number of points to bet.</font><div class='respPicDiv'><img src='img/responseButtonOffersNo0L.png' class='respPic'></div></div>","1","6","Berry Bla$t","Fruit/mixed-berries2.png","Lost","0.2,0.65","12","0.2","97","17","",""
"","","","decisionFB","608590825d295c858cbe7fa9","bdp_rwlrn","Mon Mar 13 2023 12:05:12 GMT-0700 (Pacific Daylight Time)","399734","Trustworthy,Untrustworthy","html-keyboard-response","59","122326","0.0-11.0-2.16","","null","","","<div class='trialDiv'><img src='Fruit/mixed-berries2.png'><br><font class='baseline'><strong>Berry Bla$t</strong><p>Choose number of points to bet.</font><div class='respPicDiv'><img src='img/responseButtonOffersNo0L1.png' class='respPic'></div></div>","null","6","Berry Bla$t","Fruit/mixed-berries2.png","Lost","0.2,0.65","12","0.2","96","17","",""
"","","","feedback","608590825d295c858cbe7fa9","bdp_rwlrn","Mon Mar 13 2023 12:05:12 GMT-0700 (Pacific Daylight Time)","399734","Trustworthy,Untrustworthy","html-keyboard-response","60","123339","0.0-11.0-3.16","","null","","","<div class='respPicDiv'><img src='img/responseButtonOffersNo0_wht.png' class='respPic'></div><div class='trialDiv'><img src='Fruit/mixed-berries2.png'><br><font class='baseline'><strong>Berry Bla$t</strong><p><strong><font class='negOutcome'>You LOST</font><p>You bet: 1</strong></font> &nbsp; &nbsp; &nbsp; &nbsp; &nbsp; &nbsp;<font class='negOutcome'>You receive: <strong>0</strong></font></div>","null","6","Berry Bla$t","Fruit/mixed-berries2.png","Lost","0.2,0.65","12","0.2","96","17","",""
"","","","decision","608590825d295c858cbe7fa9","bdp_rwlrn","Mon Mar 13 2023 12:05:12 GMT-0700 (Pacific Daylight Time)","399734","Trustworthy,Untrustworthy","html-keyboard-response","61","123694","0.0-11.0-1.17","","354","","","<div class='trialDiv'><img src='Fruit/grapes.png'><br><font class='baseline'><strong>Great Grapes</strong><p>Choose number of points to bet.</font><div class='respPicDiv'><img src='img/responseButtonOffersNo0L.png' class='respPic'></div></div>","2","6","Great Grapes","Fruit/grapes.png","Won","0.65,0.2","13","0.65","101","18","",""
"","","","decisionFB","608590825d295c858cbe7fa9","bdp_rwlrn","Mon Mar 13 2023 12:05:12 GMT-0700 (Pacific Daylight Time)","399734","Trustworthy,Untrustworthy","html-keyboard-response","62","123951","0.0-11.0-2.17","","null","","","<div class='trialDiv'><img src='Fruit/grapes.png'><br><font class='baseline'><strong>Great Grapes</strong><p>Choose number of points to bet.</font><div class='respPicDiv'><img src='img/responseButtonOffersNo0L2.png' class='respPic'></div></div>","null","6","Great Grapes","Fruit/grapes.png","Won","0.65,0.2","13","0.65","99","18","",""
"","","","feedback","608590825d295c858cbe7fa9","bdp_rwlrn","Mon Mar 13 2023 12:05:12 GMT-0700 (Pacific Daylight Time)","399734","Trustworthy,Untrustworthy","html-keyboard-response","63","124953","0.0-11.0-3.17","","null","","","<div class='respPicDiv'><img src='img/responseButtonOffersNo0_wht.png' class='respPic'></div><div class='trialDiv'><img src='Fruit/grapes.png'><br><font class='baseline'><strong>Great Grapes</strong><p><strong><font class='posOutcome'>You WON</font><p>You bet: 2</strong></font> &nbsp; &nbsp; &nbsp; &nbsp; &nbsp; &nbsp;<font class='posOutcome'>you receive: <strong>4</strong></font></div>","null","6","Great Grapes","Fruit/grapes.png","Won","0.65,0.2","13","0.65","103","18","",""
"","","","decision","608590825d295c858cbe7fa9","bdp_rwlrn","Mon Mar 13 2023 12:05:12 GMT-0700 (Pacific Daylight Time)","399734","Trustworthy,Untrustworthy","html-keyboard-response","64","125112","0.0-11.0-1.18","","159","","","<div class='trialDiv'><img src='Fruit/cherrie.png'><br><font class='baseline'><strong>Cherry Chances</strong><p>Choose number of points to bet.</font><div class='respPicDiv'><img src='img/responseButtonOffersNo0L.png' class='respPic'></div></div>","3","7","Cherry Chances","Fruit/cherrie.png","Won","0.8,0.2","14","0.8","108","19","",""
"","","","decisionFB","608590825d295c858cbe7fa9","bdp_rwlrn","Mon Mar 13 2023 12:05:12 GMT-0700 (Pacific Daylight Time)","399734","Trustworthy,Untrustworthy","html-keyboard-response","65","125367","0.0-11.0-2.18","","null","","","<div class='trialDiv'><img src='Fruit/cherrie.png'><br><font class='baseline'><strong>Cherry Chances</strong><p>Choose number of points to bet.</font><div class='respPicDiv'><img src='img/responseButtonOffersNo0L3.png' class='respPic'></div></div>","null","7","Cherry Chances","Fruit/cherrie.png","Won","0.8,0.2","14","0.8","105","19","",""
"","","","feedback","608590825d295c858cbe7fa9","bdp_rwlrn","Mon Mar 13 2023 12:05:12 GMT-0700 (Pacific Daylight Time)","399734","Trustworthy,Untrustworthy","html-keyboard-response","66","126375","0.0-11.0-3.18","","null","","","<div class='respPicDiv'><img src='img/responseButtonOffersNo0_wht.png' class='respPic'></div><div class='trialDiv'><img src='Fruit/cherrie.png'><br><font class='baseline'><strong>Cherry Chances</strong><p><strong><font class='posOutcome'>You WON</font><p>You bet: 3</strong></font> &nbsp; &nbsp; &nbsp; &nbsp; &nbsp; &nbsp;<font class='posOutcome'>you receive: <strong>6</strong></font></div>","null","7","Cherry Chances","Fruit/cherrie.png","Won","0.8,0.2","14","0.8","111","19","",""
"","","","decision","608590825d295c858cbe7fa9","bdp_rwlrn","Mon Mar 13 2023 12:05:12 GMT-0700 (Pacific Daylight Time)","399734","Trustworthy,Untrustworthy","html-keyboard-response","67","126698","0.0-11.0-1.19","","322","","","<div class='trialDiv'><img src='Fruit/grapes.png'><br><font class='baseline'><strong>Great Grapes</strong><p>Choose number of points to bet.</font><div class='respPicDiv'><img src='img/responseButtonOffersNo0L.png' class='respPic'></div></div>","3","7","Great Grapes","Fruit/grapes.png","Won","0.65,0.2","13","0.65","116","20","",""
"","","","decisionFB","608590825d295c858cbe7fa9","bdp_rwlrn","Mon Mar 13 2023 12:05:12 GMT-0700 (Pacific Daylight Time)","399734","Trustworthy,Untrustworthy","html-keyboard-response","68","126951","0.0-11.0-2.19","","null","","","<div class='trialDiv'><img src='Fruit/grapes.png'><br><font class='baseline'><strong>Great Grapes</strong><p>Choose number of points to bet.</font><div class='respPicDiv'><img src='img/responseButtonOffersNo0L3.png' class='respPic'></div></div>","null","7","Great Grapes","Fruit/grapes.png","Won","0.65,0.2","13","0.65","113","20","",""
"","","","feedback","608590825d295c858cbe7fa9","bdp_rwlrn","Mon Mar 13 2023 12:05:12 GMT-0700 (Pacific Daylight Time)","399734","Trustworthy,Untrustworthy","html-keyboard-response","69","127959","0.0-11.0-3.19","","null","","","<div class='respPicDiv'><img src='img/responseButtonOffersNo0_wht.png' class='respPic'></div><div class='trialDiv'><img src='Fruit/grapes.png'><br><font class='baseline'><strong>Great Grapes</strong><p><strong><font class='posOutcome'>You WON</font><p>You bet: 3</strong></font> &nbsp; &nbsp; &nbsp; &nbsp; &nbsp; &nbsp;<font class='posOutcome'>you receive: <strong>6</strong></font></div>","null","7","Great Grapes","Fruit/grapes.png","Won","0.65,0.2","13","0.65","119","20","",""
"","","","decision","608590825d295c858cbe7fa9","bdp_rwlrn","Mon Mar 13 2023 12:05:12 GMT-0700 (Pacific Daylight Time)","399734","Trustworthy,Untrustworthy","html-keyboard-response","70","128750","0.0-11.0-1.20","","790","","","<div class='trialDiv'><img src='Fruit/mixed-berries2.png'><br><font class='baseline'><strong>Berry Bla$t</strong><p>Choose number of points to bet.</font><div class='respPicDiv'><img src='img/responseButtonOffersNo0L.png' class='respPic'></div></div>","4","7","Berry Bla$t","Fruit/mixed-berries2.png","Lost","0.2,0.65","12","0.2","124","21","",""
"","","","decisionFB","608590825d295c858cbe7fa9","bdp_rwlrn","Mon Mar 13 2023 12:05:12 GMT-0700 (Pacific Daylight Time)","399734","Trustworthy,Untrustworthy","html-keyboard-response","71","129007","0.0-11.0-2.20","","null","","","<div class='trialDiv'><img src='Fruit/mixed-berries2.png'><br><font class='baseline'><strong>Berry Bla$t</strong><p>Choose number of points to bet.</font><div class='respPicDiv'><img src='img/responseButtonOffersNo0L4.png' class='respPic'></div></div>","null","7","Berry Bla$t","Fruit/mixed-berries2.png","Lost","0.2,0.65","12","0.2","120","21","",""
"","","","feedback","608590825d295c858cbe7fa9","bdp_rwlrn","Mon Mar 13 2023 12:05:12 GMT-0700 (Pacific Daylight Time)","399734","Trustworthy,Untrustworthy","html-keyboard-response","72","130015","0.0-11.0-3.20","","null","","","<div class='respPicDiv'><img src='img/responseButtonOffersNo0_wht.png' class='respPic'></div><div class='trialDiv'><img src='Fruit/mixed-berries2.png'><br><font class='baseline'><strong>Berry Bla$t</strong><p><strong><font class='negOutcome'>You LOST</font><p>You bet: 4</strong></font> &nbsp; &nbsp; &nbsp; &nbsp; &nbsp; &nbsp;<font class='negOutcome'>You receive: <strong>0</strong></font></div>","null","7","Berry Bla$t","Fruit/mixed-berries2.png","Lost","0.2,0.65","12","0.2","120","21","",""
"","","","decision","608590825d295c858cbe7fa9","bdp_rwlrn","Mon Mar 13 2023 12:05:12 GMT-0700 (Pacific Daylight Time)","399734","Trustworthy,Untrustworthy","html-keyboard-response","73","130089","0.0-11.0-1.21","","72","","","<div class='trialDiv'><img src='Fruit/grapes.png'><br><font class='baseline'><strong>Great Grapes</strong><p>Choose number of points to bet.</font><div class='respPicDiv'><img src='img/responseButtonOffersNo0L.png' class='respPic'></div></div>","4","8","Great Grapes","Fruit/grapes.png","Won","0.65,0.2","13","0.65","125","22","",""
"","","","decisionFB","608590825d295c858cbe7fa9","bdp_rwlrn","Mon Mar 13 2023 12:05:12 GMT-0700 (Pacific Daylight Time)","399734","Trustworthy,Untrustworthy","html-keyboard-response","74","130342","0.0-11.0-2.21","","null","","","<div class='trialDiv'><img src='Fruit/grapes.png'><br><font class='baseline'><strong>Great Grapes</strong><p>Choose number of points to bet.</font><div class='respPicDiv'><img src='img/responseButtonOffersNo0L4.png' class='respPic'></div></div>","null","8","Great Grapes","Fruit/grapes.png","Won","0.65,0.2","13","0.65","121","22","",""
"","","","feedback","608590825d295c858cbe7fa9","bdp_rwlrn","Mon Mar 13 2023 12:05:12 GMT-0700 (Pacific Daylight Time)","399734","Trustworthy,Untrustworthy","html-keyboard-response","75","131351","0.0-11.0-3.21","","null","","","<div class='respPicDiv'><img src='img/responseButtonOffersNo0_wht.png' class='respPic'></div><div class='trialDiv'><img src='Fruit/grapes.png'><br><font class='baseline'><strong>Great Grapes</strong><p><strong><font class='posOutcome'>You WON</font><p>You bet: 4</strong></font> &nbsp; &nbsp; &nbsp; &nbsp; &nbsp; &nbsp;<font class='posOutcome'>you receive: <strong>8</strong></font></div>","null","8","Great Grapes","Fruit/grapes.png","Won","0.65,0.2","13","0.65","129","22","",""
"","","","decision","608590825d295c858cbe7fa9","bdp_rwlrn","Mon Mar 13 2023 12:05:12 GMT-0700 (Pacific Daylight Time)","399734","Trustworthy,Untrustworthy","html-keyboard-response","76","131770","0.0-11.0-1.22","","419","","","<div class='trialDiv'><img src='Fruit/cherrie.png'><br><font class='baseline'><strong>Cherry Chances</strong><p>Choose number of points to bet.</font><div class='respPicDiv'><img src='img/responseButtonOffersNo0L.png' class='respPic'></div></div>","5","8","Cherry Chances","Fruit/cherrie.png","Won","0.8,0.2","14","0.8","134","23","",""
"","","","decisionFB","608590825d295c858cbe7fa9","bdp_rwlrn","Mon Mar 13 2023 12:05:12 GMT-0700 (Pacific Daylight Time)","399734","Trustworthy,Untrustworthy","html-keyboard-response","77","132023","0.0-11.0-2.22","","null","","","<div class='trialDiv'><img src='Fruit/cherrie.png'><br><font class='baseline'><strong>Cherry Chances</strong><p>Choose number of points to bet.</font><div class='respPicDiv'><img src='img/responseButtonOffersNo0L5.png' class='respPic'></div></div>","null","8","Cherry Chances","Fruit/cherrie.png","Won","0.8,0.2","14","0.8","129","23","",""
"","","","feedback","608590825d295c858cbe7fa9","bdp_rwlrn","Mon Mar 13 2023 12:05:12 GMT-0700 (Pacific Daylight Time)","399734","Trustworthy,Untrustworthy","html-keyboard-response","78","133031","0.0-11.0-3.22","","null","","","<div class='respPicDiv'><img src='img/responseButtonOffersNo0_wht.png' class='respPic'></div><div class='trialDiv'><img src='Fruit/cherrie.png'><br><font class='baseline'><strong>Cherry Chances</strong><p><strong><font class='posOutcome'>You WON</font><p>You bet: 5</strong></font> &nbsp; &nbsp; &nbsp; &nbsp; &nbsp; &nbsp;<font class='posOutcome'>you receive: <strong>10</strong></font></div>","null","8","Cherry Chances","Fruit/cherrie.png","Won","0.8,0.2","14","0.8","139","23","",""
"","","","decision","608590825d295c858cbe7fa9","bdp_rwlrn","Mon Mar 13 2023 12:05:12 GMT-0700 (Pacific Daylight Time)","399734","Trustworthy,Untrustworthy","html-keyboard-response","79","133173","0.0-11.0-1.23","","141","","","<div class='trialDiv'><img src='Fruit/mixed-berries2.png'><br><font class='baseline'><strong>Berry Bla$t</strong><p>Choose number of points to bet.</font><div class='respPicDiv'><img src='img/responseButtonOffersNo0L.png' class='respPic'></div></div>","5","8","Berry Bla$t","Fruit/mixed-berries2.png","Lost","0.2,0.65","12","0.2","144","24","",""
"","","","decisionFB","608590825d295c858cbe7fa9","bdp_rwlrn","Mon Mar 13 2023 12:05:12 GMT-0700 (Pacific Daylight Time)","399734","Trustworthy,Untrustworthy","html-keyboard-response","80","133431","0.0-11.0-2.23","","null","","","<div class='trialDiv'><img src='Fruit/mixed-berries2.png'><br><font class='baseline'><strong>Berry Bla$t</strong><p>Choose number of points to bet.</font><div class='respPicDiv'><img src='img/responseButtonOffersNo0L5.png' class='respPic'></div></div>","null","8","Berry Bla$t","Fruit/mixed-berries2.png","Lost","0.2,0.65","12","0.2","139","24","",""
"","","","feedback","608590825d295c858cbe7fa9","bdp_rwlrn","Mon Mar 13 2023 12:05:12 GMT-0700 (Pacific Daylight Time)","399734","Trustworthy,Untrustworthy","html-keyboard-response","81","134440","0.0-11.0-3.23","","null","","","<div class='respPicDiv'><img src='img/responseButtonOffersNo0_wht.png' class='respPic'></div><div class='trialDiv'><img src='Fruit/mixed-berries2.png'><br><font class='baseline'><strong>Berry Bla$t</strong><p><strong><font class='negOutcome'>You LOST</font><p>You bet: 5</strong></font> &nbsp; &nbsp; &nbsp; &nbsp; &nbsp; &nbsp;<font class='negOutcome'>You receive: <strong>0</strong></font></div>","null","8","Berry Bla$t","Fruit/mixed-berries2.png","Lost","0.2,0.65","12","0.2","139","24","",""
"","","","decision","608590825d295c858cbe7fa9","bdp_rwlrn","Mon Mar 13 2023 12:05:12 GMT-0700 (Pacific Daylight Time)","399734","Trustworthy,Untrustworthy","html-keyboard-response","82","134928","0.0-11.0-1.24","","487","","","<div class='trialDiv'><img src='Fruit/grapes.png'><br><font class='baseline'><strong>Great Grapes</strong><p>Choose number of points to bet.</font><div class='respPicDiv'><img src='img/responseButtonOffersNo0L.png' class='respPic'></div></div>","4","9","Great Grapes","Fruit/grapes.png","Won","0.65,0.2","13","0.65","144","25","",""
"","","","decisionFB","608590825d295c858cbe7fa9","bdp_rwlrn","Mon Mar 13 2023 12:05:12 GMT-0700 (Pacific Daylight Time)","399734","Trustworthy,Untrustworthy","html-keyboard-response","83","135184","0.0-11.0-2.24","","null","","","<div class='trialDiv'><img src='Fruit/grapes.png'><br><font class='baseline'><strong>Great Grapes</strong><p>Choose number of points to bet.</font><div class='respPicDiv'><img src='img/responseButtonOffersNo0L4.png' class='respPic'></div></div>","null","9","Great Grapes","Fruit/grapes.png","Won","0.65,0.2","13","0.65","140","25","",""
"","","","feedback","608590825d295c858cbe7fa9","bdp_rwlrn","Mon Mar 13 2023 12:05:12 GMT-0700 (Pacific Daylight Time)","399734","Trustworthy,Untrustworthy","html-keyboard-response","84","136191","0.0-11.0-3.24","","null","","","<div class='respPicDiv'><img src='img/responseButtonOffersNo0_wht.png' class='respPic'></div><div class='trialDiv'><img src='Fruit/grapes.png'><br><font class='baseline'><strong>Great Grapes</strong><p><strong><font class='posOutcome'>You WON</font><p>You bet: 4</strong></font> &nbsp; &nbsp; &nbsp; &nbsp; &nbsp; &nbsp;<font class='posOutcome'>you receive: <strong>8</strong></font></div>","null","9","Great Grapes","Fruit/grapes.png","Won","0.65,0.2","13","0.65","148","25","",""
"","","","decision","608590825d295c858cbe7fa9","bdp_rwlrn","Mon Mar 13 2023 12:05:12 GMT-0700 (Pacific Daylight Time)","399734","Trustworthy,Untrustworthy","html-keyboard-response","85","136929","0.0-11.0-1.25","","737","","","<div class='trialDiv'><img src='Fruit/cherrie.png'><br><font class='baseline'><strong>Cherry Chances</strong><p>Choose number of points to bet.</font><div class='respPicDiv'><img src='img/responseButtonOffersNo0L.png' class='respPic'></div></div>","2","9","Cherry Chances","Fruit/cherrie.png","Won","0.8,0.2","14","0.8","153","26","",""
"","","","decisionFB","608590825d295c858cbe7fa9","bdp_rwlrn","Mon Mar 13 2023 12:05:12 GMT-0700 (Pacific Daylight Time)","399734","Trustworthy,Untrustworthy","html-keyboard-response","86","137183","0.0-11.0-2.25","","null","","","<div class='trialDiv'><img src='Fruit/cherrie.png'><br><font class='baseline'><strong>Cherry Chances</strong><p>Choose number of points to bet.</font><div class='respPicDiv'><img src='img/responseButtonOffersNo0L2.png' class='respPic'></div></div>","null","9","Cherry Chances","Fruit/cherrie.png","Won","0.8,0.2","14","0.8","151","26","",""
"","","","feedback","608590825d295c858cbe7fa9","bdp_rwlrn","Mon Mar 13 2023 12:05:12 GMT-0700 (Pacific Daylight Time)","399734","Trustworthy,Untrustworthy","html-keyboard-response","87","138192","0.0-11.0-3.25","","null","","","<div class='respPicDiv'><img src='img/responseButtonOffersNo0_wht.png' class='respPic'></div><div class='trialDiv'><img src='Fruit/cherrie.png'><br><font class='baseline'><strong>Cherry Chances</strong><p><strong><font class='posOutcome'>You WON</font><p>You bet: 2</strong></font> &nbsp; &nbsp; &nbsp; &nbsp; &nbsp; &nbsp;<font class='posOutcome'>you receive: <strong>4</strong></font></div>","null","9","Cherry Chances","Fruit/cherrie.png","Won","0.8,0.2","14","0.8","155","26","",""
"","","","decision","608590825d295c858cbe7fa9","bdp_rwlrn","Mon Mar 13 2023 12:05:12 GMT-0700 (Pacific Daylight Time)","399734","Trustworthy,Untrustworthy","html-keyboard-response","88","138749","0.0-11.0-1.26","","557","","","<div class='trialDiv'><img src='Fruit/mixed-berries2.png'><br><font class='baseline'><strong>Berry Bla$t</strong><p>Choose number of points to bet.</font><div class='respPicDiv'><img src='img/responseButtonOffersNo0L.png' class='respPic'></div></div>","3","9","Berry Bla$t","Fruit/mixed-berries2.png","Lost","0.2,0.65","12","0.2","160","27","",""
"","","","decisionFB","608590825d295c858cbe7fa9","bdp_rwlrn","Mon Mar 13 2023 12:05:12 GMT-0700 (Pacific Daylight Time)","399734","Trustworthy,Untrustworthy","html-keyboard-response","89","139007","0.0-11.0-2.26","","null","","","<div class='trialDiv'><img src='Fruit/mixed-berries2.png'><br><font class='baseline'><strong>Berry Bla$t</strong><p>Choose number of points to bet.</font><div class='respPicDiv'><img src='img/responseButtonOffersNo0L3.png' class='respPic'></div></div>","null","9","Berry Bla$t","Fruit/mixed-berries2.png","Lost","0.2,0.65","12","0.2","157","27","",""
"","","","feedback","608590825d295c858cbe7fa9","bdp_rwlrn","Mon Mar 13 2023 12:05:12 GMT-0700 (Pacific Daylight Time)","399734","Trustworthy,Untrustworthy","html-keyboard-response","90","140015","0.0-11.0-3.26","","null","","","<div class='respPicDiv'><img src='img/responseButtonOffersNo0_wht.png' class='respPic'></div><div class='trialDiv'><img src='Fruit/mixed-berries2.png'><br><font class='baseline'><strong>Berry Bla$t</strong><p><strong><font class='negOutcome'>You LOST</font><p>You bet: 3</strong></font> &nbsp; &nbsp; &nbsp; &nbsp; &nbsp; &nbsp;<font class='negOutcome'>You receive: <strong>0</strong></font></div>","null","9","Berry Bla$t","Fruit/mixed-berries2.png","Lost","0.2,0.65","12","0.2","157","27","",""
"","","","decision","608590825d295c858cbe7fa9","bdp_rwlrn","Mon Mar 13 2023 12:05:12 GMT-0700 (Pacific Daylight Time)","399734","Trustworthy,Untrustworthy","html-keyboard-response","91","140755","0.0-11.0-1.27","","739","","","<div class='trialDiv'><img src='Fruit/grapes.png'><br><font class='baseline'><strong>Great Grapes</strong><p>Choose number of points to bet.</font><div class='respPicDiv'><img src='img/responseButtonOffersNo0L.png' class='respPic'></div></div>","5","10","Great Grapes","Fruit/grapes.png","Lost","0.65,0.2","13","0.65","162","28","",""
"","","","decisionFB","608590825d295c858cbe7fa9","bdp_rwlrn","Mon Mar 13 2023 12:05:12 GMT-0700 (Pacific Daylight Time)","399734","Trustworthy,Untrustworthy","html-keyboard-response","92","141007","0.0-11.0-2.27","","null","","","<div class='trialDiv'><img src='Fruit/grapes.png'><br><font class='baseline'><strong>Great Grapes</strong><p>Choose number of points to bet.</font><div class='respPicDiv'><img src='img/responseButtonOffersNo0L5.png' class='respPic'></div></div>","null","10","Great Grapes","Fruit/grapes.png","Lost","0.65,0.2","13","0.65","157","28","",""
"","","","feedback","608590825d295c858cbe7fa9","bdp_rwlrn","Mon Mar 13 2023 12:05:12 GMT-0700 (Pacific Daylight Time)","399734","Trustworthy,Untrustworthy","html-keyboard-response","93","142016","0.0-11.0-3.27","","null","","","<div class='respPicDiv'><img src='img/responseButtonOffersNo0_wht.png' class='respPic'></div><div class='trialDiv'><img src='Fruit/grapes.png'><br><font class='baseline'><strong>Great Grapes</strong><p><strong><font class='negOutcome'>You LOST</font><p>You bet: 5</strong></font> &nbsp; &nbsp; &nbsp; &nbsp; &nbsp; &nbsp;<font class='negOutcome'>You receive: <strong>0</strong></font></div>","null","10","Great Grapes","Fruit/grapes.png","Lost","0.65,0.2","13","0.65","157","28","",""
"","","","decision","608590825d295c858cbe7fa9","bdp_rwlrn","Mon Mar 13 2023 12:05:12 GMT-0700 (Pacific Daylight Time)","399734","Trustworthy,Untrustworthy","html-keyboard-response","94","142471","0.0-11.0-1.28","","454","","","<div class='trialDiv'><img src='Fruit/cherrie.png'><br><font class='baseline'><strong>Cherry Chances</strong><p>Choose number of points to bet.</font><div class='respPicDiv'><img src='img/responseButtonOffersNo0L.png' class='respPic'></div></div>","4","10","Cherry Chances","Fruit/cherrie.png","Won","0.8,0.2","14","0.8","162","29","",""
"","","","decisionFB","608590825d295c858cbe7fa9","bdp_rwlrn","Mon Mar 13 2023 12:05:12 GMT-0700 (Pacific Daylight Time)","399734","Trustworthy,Untrustworthy","html-keyboard-response","95","142728","0.0-11.0-2.28","","null","","","<div class='trialDiv'><img src='Fruit/cherrie.png'><br><font class='baseline'><strong>Cherry Chances</strong><p>Choose number of points to bet.</font><div class='respPicDiv'><img src='img/responseButtonOffersNo0L4.png' class='respPic'></div></div>","null","10","Cherry Chances","Fruit/cherrie.png","Won","0.8,0.2","14","0.8","158","29","",""
"","","","feedback","608590825d295c858cbe7fa9","bdp_rwlrn","Mon Mar 13 2023 12:05:12 GMT-0700 (Pacific Daylight Time)","399734","Trustworthy,Untrustworthy","html-keyboard-response","96","143736","0.0-11.0-3.28","","null","","","<div class='respPicDiv'><img src='img/responseButtonOffersNo0_wht.png' class='respPic'></div><div class='trialDiv'><img src='Fruit/cherrie.png'><br><font class='baseline'><strong>Cherry Chances</strong><p><strong><font class='posOutcome'>You WON</font><p>You bet: 4</strong></font> &nbsp; &nbsp; &nbsp; &nbsp; &nbsp; &nbsp;<font class='posOutcome'>you receive: <strong>8</strong></font></div>","null","10","Cherry Chances","Fruit/cherrie.png","Won","0.8,0.2","14","0.8","166","29","",""
"","","","decision","608590825d295c858cbe7fa9","bdp_rwlrn","Mon Mar 13 2023 12:05:12 GMT-0700 (Pacific Daylight Time)","399734","Trustworthy,Untrustworthy","html-keyboard-response","97","143824","0.0-11.0-1.29","","87","","","<div class='trialDiv'><img src='Fruit/mixed-berries2.png'><br><font class='baseline'><strong>Berry Bla$t</strong><p>Choose number of points to bet.</font><div class='respPicDiv'><img src='img/responseButtonOffersNo0L.png' class='respPic'></div></div>","3","10","Berry Bla$t","Fruit/mixed-berries2.png","Lost","0.2,0.65","12","0.2","171","30","",""
"","","","decisionFB","608590825d295c858cbe7fa9","bdp_rwlrn","Mon Mar 13 2023 12:05:12 GMT-0700 (Pacific Daylight Time)","399734","Trustworthy,Untrustworthy","html-keyboard-response","98","144080","0.0-11.0-2.29","","null","","","<div class='trialDiv'><img src='Fruit/mixed-berries2.png'><br><font class='baseline'><strong>Berry Bla$t</strong><p>Choose number of points to bet.</font><div class='respPicDiv'><img src='img/responseButtonOffersNo0L3.png' class='respPic'></div></div>","null","10","Berry Bla$t","Fruit/mixed-berries2.png","Lost","0.2,0.65","12","0.2","168","30","",""
"","","","feedback","608590825d295c858cbe7fa9","bdp_rwlrn","Mon Mar 13 2023 12:05:12 GMT-0700 (Pacific Daylight Time)","399734","Trustworthy,Untrustworthy","html-keyboard-response","99","145087","0.0-11.0-3.29","","null","","","<div class='respPicDiv'><img src='img/responseButtonOffersNo0_wht.png' class='respPic'></div><div class='trialDiv'><img src='Fruit/mixed-berries2.png'><br><font class='baseline'><strong>Berry Bla$t</strong><p><strong><font class='negOutcome'>You LOST</font><p>You bet: 3</strong></font> &nbsp; &nbsp; &nbsp; &nbsp; &nbsp; &nbsp;<font class='negOutcome'>You receive: <strong>0</strong></font></div>","null","10","Berry Bla$t","Fruit/mixed-berries2.png","Lost","0.2,0.65","12","0.2","168","30","",""
"","","","decision","608590825d295c858cbe7fa9","bdp_rwlrn","Mon Mar 13 2023 12:05:12 GMT-0700 (Pacific Daylight Time)","399734","Trustworthy,Untrustworthy","html-keyboard-response","100","146022","0.0-11.0-1.30","","934","","","<div class='trialDiv'><img src='Fruit/cherrie.png'><br><font class='baseline'><strong>Cherry Chances</strong><p>Choose number of points to bet.</font><div class='respPicDiv'><img src='img/responseButtonOffersNo0L.png' class='respPic'></div></div>","2","11","Cherry Chances","Fruit/cherrie.png","Won","0.8,0.2","14","0.8","173","31","",""
"","","","decisionFB","608590825d295c858cbe7fa9","bdp_rwlrn","Mon Mar 13 2023 12:05:12 GMT-0700 (Pacific Daylight Time)","399734","Trustworthy,Untrustworthy","html-keyboard-response","101","146280","0.0-11.0-2.30","","null","","","<div class='trialDiv'><img src='Fruit/cherrie.png'><br><font class='baseline'><strong>Cherry Chances</strong><p>Choose number of points to bet.</font><div class='respPicDiv'><img src='img/responseButtonOffersNo0L2.png' class='respPic'></div></div>","null","11","Cherry Chances","Fruit/cherrie.png","Won","0.8,0.2","14","0.8","171","31","",""
"","","","feedback","608590825d295c858cbe7fa9","bdp_rwlrn","Mon Mar 13 2023 12:05:12 GMT-0700 (Pacific Daylight Time)","399734","Trustworthy,Untrustworthy","html-keyboard-response","102","147288","0.0-11.0-3.30","","null","","","<div class='respPicDiv'><img src='img/responseButtonOffersNo0_wht.png' class='respPic'></div><div class='trialDiv'><img src='Fruit/cherrie.png'><br><font class='baseline'><strong>Cherry Chances</strong><p><strong><font class='posOutcome'>You WON</font><p>You bet: 2</strong></font> &nbsp; &nbsp; &nbsp; &nbsp; &nbsp; &nbsp;<font class='posOutcome'>you receive: <strong>4</strong></font></div>","null","11","Cherry Chances","Fruit/cherrie.png","Won","0.8,0.2","14","0.8","175","31","",""
"","","","decision","608590825d295c858cbe7fa9","bdp_rwlrn","Mon Mar 13 2023 12:05:12 GMT-0700 (Pacific Daylight Time)","399734","Trustworthy,Untrustworthy","html-keyboard-response","103","147896","0.0-11.0-1.31","","608","","","<div class='trialDiv'><img src='Fruit/mixed-berries2.png'><br><font class='baseline'><strong>Berry Bla$t</strong><p>Choose number of points to bet.</font><div class='respPicDiv'><img src='img/responseButtonOffersNo0L.png' class='respPic'></div></div>","1","11","Berry Bla$t","Fruit/mixed-berries2.png","Lost","0.2,0.65","12","0.2","180","32","",""
"","","","decisionFB","608590825d295c858cbe7fa9","bdp_rwlrn","Mon Mar 13 2023 12:05:12 GMT-0700 (Pacific Daylight Time)","399734","Trustworthy,Untrustworthy","html-keyboard-response","104","148151","0.0-11.0-2.31","","null","","","<div class='trialDiv'><img src='Fruit/mixed-berries2.png'><br><font class='baseline'><strong>Berry Bla$t</strong><p>Choose number of points to bet.</font><div class='respPicDiv'><img src='img/responseButtonOffersNo0L1.png' class='respPic'></div></div>","null","11","Berry Bla$t","Fruit/mixed-berries2.png","Lost","0.2,0.65","12","0.2","179","32","",""
"","","","feedback","608590825d295c858cbe7fa9","bdp_rwlrn","Mon Mar 13 2023 12:05:12 GMT-0700 (Pacific Daylight Time)","399734","Trustworthy,Untrustworthy","html-keyboard-response","105","149160","0.0-11.0-3.31","","null","","","<div class='respPicDiv'><img src='img/responseButtonOffersNo0_wht.png' class='respPic'></div><div class='trialDiv'><img src='Fruit/mixed-berries2.png'><br><font class='baseline'><strong>Berry Bla$t</strong><p><strong><font class='negOutcome'>You LOST</font><p>You bet: 1</strong></font> &nbsp; &nbsp; &nbsp; &nbsp; &nbsp; &nbsp;<font class='negOutcome'>You receive: <strong>0</strong></font></div>","null","11","Berry Bla$t","Fruit/mixed-berries2.png","Lost","0.2,0.65","12","0.2","179","32","",""
"","","","decision","608590825d295c858cbe7fa9","bdp_rwlrn","Mon Mar 13 2023 12:05:12 GMT-0700 (Pacific Daylight Time)","399734","Trustworthy,Untrustworthy","html-keyboard-response","106","150109","0.0-11.0-1.32","","949","","","<div class='trialDiv'><img src='Fruit/grapes.png'><br><font class='baseline'><strong>Great Grapes</strong><p>Choose number of points to bet.</font><div class='respPicDiv'><img src='img/responseButtonOffersNo0L.png' class='respPic'></div></div>","4","11","Great Grapes","Fruit/grapes.png","Won","0.65,0.2","13","0.65","184","33","",""
"","","","decisionFB","608590825d295c858cbe7fa9","bdp_rwlrn","Mon Mar 13 2023 12:05:12 GMT-0700 (Pacific Daylight Time)","399734","Trustworthy,Untrustworthy","html-keyboard-response","107","150368","0.0-11.0-2.32","","null","","","<div class='trialDiv'><img src='Fruit/grapes.png'><br><font class='baseline'><strong>Great Grapes</strong><p>Choose number of points to bet.</font><div class='respPicDiv'><img src='img/responseButtonOffersNo0L4.png' class='respPic'></div></div>","null","11","Great Grapes","Fruit/grapes.png","Won","0.65,0.2","13","0.65","180","33","",""
"","","","feedback","608590825d295c858cbe7fa9","bdp_rwlrn","Mon Mar 13 2023 12:05:12 GMT-0700 (Pacific Daylight Time)","399734","Trustworthy,Untrustworthy","html-keyboard-response","108","151375","0.0-11.0-3.32","","null","","","<div class='respPicDiv'><img src='img/responseButtonOffersNo0_wht.png' class='respPic'></div><div class='trialDiv'><img src='Fruit/grapes.png'><br><font class='baseline'><strong>Great Grapes</strong><p><strong><font class='posOutcome'>You WON</font><p>You bet: 4</strong></font> &nbsp; &nbsp; &nbsp; &nbsp; &nbsp; &nbsp;<font class='posOutcome'>you receive: <strong>8</strong></font></div>","null","11","Great Grapes","Fruit/grapes.png","Won","0.65,0.2","13","0.65","188","33","",""
"","","","decision","608590825d295c858cbe7fa9","bdp_rwlrn","Mon Mar 13 2023 12:05:12 GMT-0700 (Pacific Daylight Time)","399734","Trustworthy,Untrustworthy","html-keyboard-response","109","152043","0.0-11.0-1.33","","667","","","<div class='trialDiv'><img src='Fruit/mixed-berries2.png'><br><font class='baseline'><strong>Berry Bla$t</strong><p>Choose number of points to bet.</font><div class='respPicDiv'><img src='img/responseButtonOffersNo0L.png' class='respPic'></div></div>","3","12","Berry Bla$t","Fruit/mixed-berries2.png","Lost","0.2,0.65","12","0.2","193","34","",""
"","","","decisionFB","608590825d295c858cbe7fa9","bdp_rwlrn","Mon Mar 13 2023 12:05:12 GMT-0700 (Pacific Daylight Time)","399734","Trustworthy,Untrustworthy","html-keyboard-response","110","152295","0.0-11.0-2.33","","null","","","<div class='trialDiv'><img src='Fruit/mixed-berries2.png'><br><font class='baseline'><strong>Berry Bla$t</strong><p>Choose number of points to bet.</font><div class='respPicDiv'><img src='img/responseButtonOffersNo0L3.png' class='respPic'></div></div>","null","12","Berry Bla$t","Fruit/mixed-berries2.png","Lost","0.2,0.65","12","0.2","190","34","",""
"","","","feedback","608590825d295c858cbe7fa9","bdp_rwlrn","Mon Mar 13 2023 12:05:12 GMT-0700 (Pacific Daylight Time)","399734","Trustworthy,Untrustworthy","html-keyboard-response","111","153304","0.0-11.0-3.33","","null","","","<div class='respPicDiv'><img src='img/responseButtonOffersNo0_wht.png' class='respPic'></div><div class='trialDiv'><img src='Fruit/mixed-berries2.png'><br><font class='baseline'><strong>Berry Bla$t</strong><p><strong><font class='negOutcome'>You LOST</font><p>You bet: 3</strong></font> &nbsp; &nbsp; &nbsp; &nbsp; &nbsp; &nbsp;<font class='negOutcome'>You receive: <strong>0</strong></font></div>","null","12","Berry Bla$t","Fruit/mixed-berries2.png","Lost","0.2,0.65","12","0.2","190","34","",""
"","","","decision","608590825d295c858cbe7fa9","bdp_rwlrn","Mon Mar 13 2023 12:05:12 GMT-0700 (Pacific Daylight Time)","399734","Trustworthy,Untrustworthy","html-keyboard-response","112","153882","0.0-11.0-1.34","","577","","","<div class='trialDiv'><img src='Fruit/cherrie.png'><br><font class='baseline'><strong>Cherry Chances</strong><p>Choose number of points to bet.</font><div class='respPicDiv'><img src='img/responseButtonOffersNo0L.png' class='respPic'></div></div>","2","12","Cherry Chances","Fruit/cherrie.png","Won","0.8,0.2","14","0.8","195","35","",""
"","","","decisionFB","608590825d295c858cbe7fa9","bdp_rwlrn","Mon Mar 13 2023 12:05:12 GMT-0700 (Pacific Daylight Time)","399734","Trustworthy,Untrustworthy","html-keyboard-response","113","154136","0.0-11.0-2.34","","null","","","<div class='trialDiv'><img src='Fruit/cherrie.png'><br><font class='baseline'><strong>Cherry Chances</strong><p>Choose number of points to bet.</font><div class='respPicDiv'><img src='img/responseButtonOffersNo0L2.png' class='respPic'></div></div>","null","12","Cherry Chances","Fruit/cherrie.png","Won","0.8,0.2","14","0.8","193","35","",""
"","","","feedback","608590825d295c858cbe7fa9","bdp_rwlrn","Mon Mar 13 2023 12:05:12 GMT-0700 (Pacific Daylight Time)","399734","Trustworthy,Untrustworthy","html-keyboard-response","114","155143","0.0-11.0-3.34","","null","","","<div class='respPicDiv'><img src='img/responseButtonOffersNo0_wht.png' class='respPic'></div><div class='trialDiv'><img src='Fruit/cherrie.png'><br><font class='baseline'><strong>Cherry Chances</strong><p><strong><font class='posOutcome'>You WON</font><p>You bet: 2</strong></font> &nbsp; &nbsp; &nbsp; &nbsp; &nbsp; &nbsp;<font class='posOutcome'>you receive: <strong>4</strong></font></div>","null","12","Cherry Chances","Fruit/cherrie.png","Won","0.8,0.2","14","0.8","197","35","",""
"","","","decision","608590825d295c858cbe7fa9","bdp_rwlrn","Mon Mar 13 2023 12:05:12 GMT-0700 (Pacific Daylight Time)","399734","Trustworthy,Untrustworthy","html-keyboard-response","115","155799","0.0-11.0-1.35","","655","","","<div class='trialDiv'><img src='Fruit/grapes.png'><br><font class='baseline'><strong>Great Grapes</strong><p>Choose number of points to bet.</font><div class='respPicDiv'><img src='img/responseButtonOffersNo0L.png' class='respPic'></div></div>","1","12","Great Grapes","Fruit/grapes.png","Won","0.65,0.2","13","0.65","202","36","",""
"","","","decisionFB","608590825d295c858cbe7fa9","bdp_rwlrn","Mon Mar 13 2023 12:05:12 GMT-0700 (Pacific Daylight Time)","399734","Trustworthy,Untrustworthy","html-keyboard-response","116","156056","0.0-11.0-2.35","","null","","","<div class='trialDiv'><img src='Fruit/grapes.png'><br><font class='baseline'><strong>Great Grapes</strong><p>Choose number of points to bet.</font><div class='respPicDiv'><img src='img/responseButtonOffersNo0L1.png' class='respPic'></div></div>","null","12","Great Grapes","Fruit/grapes.png","Won","0.65,0.2","13","0.65","201","36","",""
"","","","feedback","608590825d295c858cbe7fa9","bdp_rwlrn","Mon Mar 13 2023 12:05:12 GMT-0700 (Pacific Daylight Time)","399734","Trustworthy,Untrustworthy","html-keyboard-response","117","157064","0.0-11.0-3.35","","null","","","<div class='respPicDiv'><img src='img/responseButtonOffersNo0_wht.png' class='respPic'></div><div class='trialDiv'><img src='Fruit/grapes.png'><br><font class='baseline'><strong>Great Grapes</strong><p><strong><font class='posOutcome'>You WON</font><p>You bet: 1</strong></font> &nbsp; &nbsp; &nbsp; &nbsp; &nbsp; &nbsp;<font class='posOutcome'>you receive: <strong>2</strong></font></div>","null","12","Great Grapes","Fruit/grapes.png","Won","0.65,0.2","13","0.65","203","36","",""
"","","","decision","608590825d295c858cbe7fa9","bdp_rwlrn","Mon Mar 13 2023 12:05:12 GMT-0700 (Pacific Daylight Time)","399734","Trustworthy,Untrustworthy","html-keyboard-response","118","157500","0.0-11.0-1.36","","435","","","<div class='trialDiv'><img src='Fruit/mixed-berries2.png'><br><font class='baseline'><strong>Berry Bla$t</strong><p>Choose number of points to bet.</font><div class='respPicDiv'><img src='img/responseButtonOffersNo0L.png' class='respPic'></div></div>","5","13","Berry Bla$t","Fruit/mixed-berries2.png","Lost","0.2,0.65","12","0.2","208","37","",""
"","","","decisionFB","608590825d295c858cbe7fa9","bdp_rwlrn","Mon Mar 13 2023 12:05:12 GMT-0700 (Pacific Daylight Time)","399734","Trustworthy,Untrustworthy","html-keyboard-response","119","157752","0.0-11.0-2.36","","null","","","<div class='trialDiv'><img src='Fruit/mixed-berries2.png'><br><font class='baseline'><strong>Berry Bla$t</strong><p>Choose number of points to bet.</font><div class='respPicDiv'><img src='img/responseButtonOffersNo0L5.png' class='respPic'></div></div>","null","13","Berry Bla$t","Fruit/mixed-berries2.png","Lost","0.2,0.65","12","0.2","203","37","",""
"","","","feedback","608590825d295c858cbe7fa9","bdp_rwlrn","Mon Mar 13 2023 12:05:12 GMT-0700 (Pacific Daylight Time)","399734","Trustworthy,Untrustworthy","html-keyboard-response","120","158760","0.0-11.0-3.36","","null","","","<div class='respPicDiv'><img src='img/responseButtonOffersNo0_wht.png' class='respPic'></div><div class='trialDiv'><img src='Fruit/mixed-berries2.png'><br><font class='baseline'><strong>Berry Bla$t</strong><p><strong><font class='negOutcome'>You LOST</font><p>You bet: 5</strong></font> &nbsp; &nbsp; &nbsp; &nbsp; &nbsp; &nbsp;<font class='negOutcome'>You receive: <strong>0</strong></font></div>","null","13","Berry Bla$t","Fruit/mixed-berries2.png","Lost","0.2,0.65","12","0.2","203","37","",""
"","","","decision","608590825d295c858cbe7fa9","bdp_rwlrn","Mon Mar 13 2023 12:05:12 GMT-0700 (Pacific Daylight Time)","399734","Trustworthy,Untrustworthy","html-keyboard-response","121","159073","0.0-11.0-1.37","","313","","","<div class='trialDiv'><img src='Fruit/grapes.png'><br><font class='baseline'><strong>Great Grapes</strong><p>Choose number of points to bet.</font><div class='respPicDiv'><img src='img/responseButtonOffersNo0L.png' class='respPic'></div></div>","5","13","Great Grapes","Fruit/grapes.png","Lost","0.65,0.2","13","0.65","208","38","",""
"","","","decisionFB","608590825d295c858cbe7fa9","bdp_rwlrn","Mon Mar 13 2023 12:05:12 GMT-0700 (Pacific Daylight Time)","399734","Trustworthy,Untrustworthy","html-keyboard-response","122","159328","0.0-11.0-2.37","","null","","","<div class='trialDiv'><img src='Fruit/grapes.png'><br><font class='baseline'><strong>Great Grapes</strong><p>Choose number of points to bet.</font><div class='respPicDiv'><img src='img/responseButtonOffersNo0L5.png' class='respPic'></div></div>","null","13","Great Grapes","Fruit/grapes.png","Lost","0.65,0.2","13","0.65","203","38","",""
"","","","feedback","608590825d295c858cbe7fa9","bdp_rwlrn","Mon Mar 13 2023 12:05:12 GMT-0700 (Pacific Daylight Time)","399734","Trustworthy,Untrustworthy","html-keyboard-response","123","160340","0.0-11.0-3.37","","null","","","<div class='respPicDiv'><img src='img/responseButtonOffersNo0_wht.png' class='respPic'></div><div class='trialDiv'><img src='Fruit/grapes.png'><br><font class='baseline'><strong>Great Grapes</strong><p><strong><font class='negOutcome'>You LOST</font><p>You bet: 5</strong></font> &nbsp; &nbsp; &nbsp; &nbsp; &nbsp; &nbsp;<font class='negOutcome'>You receive: <strong>0</strong></font></div>","null","13","Great Grapes","Fruit/grapes.png","Lost","0.65,0.2","13","0.65","203","38","",""
"","","","decision","608590825d295c858cbe7fa9","bdp_rwlrn","Mon Mar 13 2023 12:05:12 GMT-0700 (Pacific Daylight Time)","399734","Trustworthy,Untrustworthy","html-keyboard-response","124","160704","0.0-11.0-1.38","","363","","","<div class='trialDiv'><img src='Fruit/cherrie.png'><br><font class='baseline'><strong>Cherry Chances</strong><p>Choose number of points to bet.</font><div class='respPicDiv'><img src='img/responseButtonOffersNo0L.png' class='respPic'></div></div>","5","13","Cherry Chances","Fruit/cherrie.png","Won","0.8,0.2","14","0.8","208","39","",""
"","","","decisionFB","608590825d295c858cbe7fa9","bdp_rwlrn","Mon Mar 13 2023 12:05:12 GMT-0700 (Pacific Daylight Time)","399734","Trustworthy,Untrustworthy","html-keyboard-response","125","160960","0.0-11.0-2.38","","null","","","<div class='trialDiv'><img src='Fruit/cherrie.png'><br><font class='baseline'><strong>Cherry Chances</strong><p>Choose number of points to bet.</font><div class='respPicDiv'><img src='img/responseButtonOffersNo0L5.png' class='respPic'></div></div>","null","13","Cherry Chances","Fruit/cherrie.png","Won","0.8,0.2","14","0.8","203","39","",""
"","","","feedback","608590825d295c858cbe7fa9","bdp_rwlrn","Mon Mar 13 2023 12:05:12 GMT-0700 (Pacific Daylight Time)","399734","Trustworthy,Untrustworthy","html-keyboard-response","126","161968","0.0-11.0-3.38","","null","","","<div class='respPicDiv'><img src='img/responseButtonOffersNo0_wht.png' class='respPic'></div><div class='trialDiv'><img src='Fruit/cherrie.png'><br><font class='baseline'><strong>Cherry Chances</strong><p><strong><font class='posOutcome'>You WON</font><p>You bet: 5</strong></font> &nbsp; &nbsp; &nbsp; &nbsp; &nbsp; &nbsp;<font class='posOutcome'>you receive: <strong>10</strong></font></div>","null","13","Cherry Chances","Fruit/cherrie.png","Won","0.8,0.2","14","0.8","213","39","",""
"","","","decision","608590825d295c858cbe7fa9","bdp_rwlrn","Mon Mar 13 2023 12:05:12 GMT-0700 (Pacific Daylight Time)","399734","Trustworthy,Untrustworthy","html-keyboard-response","127","162723","0.0-11.0-1.39","","754","","","<div class='trialDiv'><img src='Fruit/grapes.png'><br><font class='baseline'><strong>Great Grapes</strong><p>Choose number of points to bet.</font><div class='respPicDiv'><img src='img/responseButtonOffersNo0L.png' class='respPic'></div></div>","4","14","Great Grapes","Fruit/grapes.png","Lost","0.65,0.2","13","0.65","218","40","",""
"","","","decisionFB","608590825d295c858cbe7fa9","bdp_rwlrn","Mon Mar 13 2023 12:05:12 GMT-0700 (Pacific Daylight Time)","399734","Trustworthy,Untrustworthy","html-keyboard-response","128","162976","0.0-11.0-2.39","","null","","","<div class='trialDiv'><img src='Fruit/grapes.png'><br><font class='baseline'><strong>Great Grapes</strong><p>Choose number of points to bet.</font><div class='respPicDiv'><img src='img/responseButtonOffersNo0L4.png' class='respPic'></div></div>","null","14","Great Grapes","Fruit/grapes.png","Lost","0.65,0.2","13","0.65","214","40","",""
"","","","feedback","608590825d295c858cbe7fa9","bdp_rwlrn","Mon Mar 13 2023 12:05:12 GMT-0700 (Pacific Daylight Time)","399734","Trustworthy,Untrustworthy","html-keyboard-response","129","163984","0.0-11.0-3.39","","null","","","<div class='respPicDiv'><img src='img/responseButtonOffersNo0_wht.png' class='respPic'></div><div class='trialDiv'><img src='Fruit/grapes.png'><br><font class='baseline'><strong>Great Grapes</strong><p><strong><font class='negOutcome'>You LOST</font><p>You bet: 4</strong></font> &nbsp; &nbsp; &nbsp; &nbsp; &nbsp; &nbsp;<font class='negOutcome'>You receive: <strong>0</strong></font></div>","null","14","Great Grapes","Fruit/grapes.png","Lost","0.65,0.2","13","0.65","214","40","",""
"","","","decision","608590825d295c858cbe7fa9","bdp_rwlrn","Mon Mar 13 2023 12:05:12 GMT-0700 (Pacific Daylight Time)","399734","Trustworthy,Untrustworthy","html-keyboard-response","130","164424","0.0-11.0-1.40","","438","","","<div class='trialDiv'><img src='Fruit/mixed-berries2.png'><br><font class='baseline'><strong>Berry Bla$t</strong><p>Choose number of points to bet.</font><div class='respPicDiv'><img src='img/responseButtonOffersNo0L.png' class='respPic'></div></div>","4","14","Berry Bla$t","Fruit/mixed-berries2.png","Won","0.2,0.65","12","0.2","219","41","",""
"","","","decisionFB","608590825d295c858cbe7fa9","bdp_rwlrn","Mon Mar 13 2023 12:05:12 GMT-0700 (Pacific Daylight Time)","399734","Trustworthy,Untrustworthy","html-keyboard-response","131","164680","0.0-11.0-2.40","","null","","","<div class='trialDiv'><img src='Fruit/mixed-berries2.png'><br><font class='baseline'><strong>Berry Bla$t</strong><p>Choose number of points to bet.</font><div class='respPicDiv'><img src='img/responseButtonOffersNo0L4.png' class='respPic'></div></div>","null","14","Berry Bla$t","Fruit/mixed-berries2.png","Won","0.2,0.65","12","0.2","215","41","",""
"","","","feedback","608590825d295c858cbe7fa9","bdp_rwlrn","Mon Mar 13 2023 12:05:12 GMT-0700 (Pacific Daylight Time)","399734","Trustworthy,Untrustworthy","html-keyboard-response","132","165688","0.0-11.0-3.40","","null","","","<div class='respPicDiv'><img src='img/responseButtonOffersNo0_wht.png' class='respPic'></div><div class='trialDiv'><img src='Fruit/mixed-berries2.png'><br><font class='baseline'><strong>Berry Bla$t</strong><p><strong><font class='posOutcome'>You WON</font><p>You bet: 4</strong></font> &nbsp; &nbsp; &nbsp; &nbsp; &nbsp; &nbsp;<font class='posOutcome'>you receive: <strong>8</strong></font></div>","null","14","Berry Bla$t","Fruit/mixed-berries2.png","Won","0.2,0.65","12","0.2","223","41","",""
"","","","decision","608590825d295c858cbe7fa9","bdp_rwlrn","Mon Mar 13 2023 12:05:12 GMT-0700 (Pacific Daylight Time)","399734","Trustworthy,Untrustworthy","html-keyboard-response","133","166124","0.0-11.0-1.41","","434","","","<div class='trialDiv'><img src='Fruit/cherrie.png'><br><font class='baseline'><strong>Cherry Chances</strong><p>Choose number of points to bet.</font><div class='respPicDiv'><img src='img/responseButtonOffersNo0L.png' class='respPic'></div></div>","4","14","Cherry Chances","Fruit/cherrie.png","Lost","0.8,0.2","14","0.8","228","42","",""
"","","","decisionFB","608590825d295c858cbe7fa9","bdp_rwlrn","Mon Mar 13 2023 12:05:12 GMT-0700 (Pacific Daylight Time)","399734","Trustworthy,Untrustworthy","html-keyboard-response","134","166376","0.0-11.0-2.41","","null","","","<div class='trialDiv'><img src='Fruit/cherrie.png'><br><font class='baseline'><strong>Cherry Chances</strong><p>Choose number of points to bet.</font><div class='respPicDiv'><img src='img/responseButtonOffersNo0L4.png' class='respPic'></div></div>","null","14","Cherry Chances","Fruit/cherrie.png","Lost","0.8,0.2","14","0.8","224","42","",""
"","","","feedback","608590825d295c858cbe7fa9","bdp_rwlrn","Mon Mar 13 2023 12:05:12 GMT-0700 (Pacific Daylight Time)","399734","Trustworthy,Untrustworthy","html-keyboard-response","135","167384","0.0-11.0-3.41","","null","","","<div class='respPicDiv'><img src='img/responseButtonOffersNo0_wht.png' class='respPic'></div><div class='trialDiv'><img src='Fruit/cherrie.png'><br><font class='baseline'><strong>Cherry Chances</strong><p><strong><font class='negOutcome'>You LOST</font><p>You bet: 4</strong></font> &nbsp; &nbsp; &nbsp; &nbsp; &nbsp; &nbsp;<font class='negOutcome'>You receive: <strong>0</strong></font></div>","null","14","Cherry Chances","Fruit/cherrie.png","Lost","0.8,0.2","14","0.8","224","42","",""
"","","","decision","608590825d295c858cbe7fa9","bdp_rwlrn","Mon Mar 13 2023 12:05:12 GMT-0700 (Pacific Daylight Time)","399734","Trustworthy,Untrustworthy","html-keyboard-response","136","167728","0.0-11.0-1.42","","343","","","<div class='trialDiv'><img src='Fruit/mixed-berries2.png'><br><font class='baseline'><strong>Berry Bla$t</strong><p>Choose number of points to bet.</font><div class='respPicDiv'><img src='img/responseButtonOffersNo0L.png' class='respPic'></div></div>","3","15","Berry Bla$t","Fruit/mixed-berries2.png","Won","0.2,0.65","12","0.2","229","43","",""
"","","","decisionFB","608590825d295c858cbe7fa9","bdp_rwlrn","Mon Mar 13 2023 12:05:12 GMT-0700 (Pacific Daylight Time)","399734","Trustworthy,Untrustworthy","html-keyboard-response","137","167984","0.0-11.0-2.42","","null","","","<div class='trialDiv'><img src='Fruit/mixed-berries2.png'><br><font class='baseline'><strong>Berry Bla$t</strong><p>Choose number of points to bet.</font><div class='respPicDiv'><img src='img/responseButtonOffersNo0L3.png' class='respPic'></div></div>","null","15","Berry Bla$t","Fruit/mixed-berries2.png","Won","0.2,0.65","12","0.2","226","43","",""
"","","","feedback","608590825d295c858cbe7fa9","bdp_rwlrn","Mon Mar 13 2023 12:05:12 GMT-0700 (Pacific Daylight Time)","399734","Trustworthy,Untrustworthy","html-keyboard-response","138","168992","0.0-11.0-3.42","","null","","","<div class='respPicDiv'><img src='img/responseButtonOffersNo0_wht.png' class='respPic'></div><div class='trialDiv'><img src='Fruit/mixed-berries2.png'><br><font class='baseline'><strong>Berry Bla$t</strong><p><strong><font class='posOutcome'>You WON</font><p>You bet: 3</strong></font> &nbsp; &nbsp; &nbsp; &nbsp; &nbsp; &nbsp;<font class='posOutcome'>you receive: <strong>6</strong></font></div>","null","15","Berry Bla$t","Fruit/mixed-berries2.png","Won","0.2,0.65","12","0.2","232","43","",""
"","","","decision","608590825d295c858cbe7fa9","bdp_rwlrn","Mon Mar 13 2023 12:05:12 GMT-0700 (Pacific Daylight Time)","399734","Trustworthy,Untrustworthy","html-keyboard-response","139","169324","0.0-11.0-1.43","","332","","","<div class='trialDiv'><img src='Fruit/cherrie.png'><br><font class='baseline'><strong>Cherry Chances</strong><p>Choose number of points to bet.</font><div class='respPicDiv'><img src='img/responseButtonOffersNo0L.png' class='respPic'></div></div>","3","15","Cherry Chances","Fruit/cherrie.png","Lost","0.8,0.2","14","0.8","237","44","",""
"","","","decisionFB","608590825d295c858cbe7fa9","bdp_rwlrn","Mon Mar 13 2023 12:05:12 GMT-0700 (Pacific Daylight Time)","399734","Trustworthy,Untrustworthy","html-keyboard-response","140","169576","0.0-11.0-2.43","","null","","","<div class='trialDiv'><img src='Fruit/cherrie.png'><br><font class='baseline'><strong>Cherry Chances</strong><p>Choose number of points to bet.</font><div class='respPicDiv'><img src='img/responseButtonOffersNo0L3.png' class='respPic'></div></div>","null","15","Cherry Chances","Fruit/cherrie.png","Lost","0.8,0.2","14","0.8","234","44","",""
"","","","feedback","608590825d295c858cbe7fa9","bdp_rwlrn","Mon Mar 13 2023 12:05:12 GMT-0700 (Pacific Daylight Time)","399734","Trustworthy,Untrustworthy","html-keyboard-response","141","170584","0.0-11.0-3.43","","null","","","<div class='respPicDiv'><img src='img/responseButtonOffersNo0_wht.png' class='respPic'></div><div class='trialDiv'><img src='Fruit/cherrie.png'><br><font class='baseline'><strong>Cherry Chances</strong><p><strong><font class='negOutcome'>You LOST</font><p>You bet: 3</strong></font> &nbsp; &nbsp; &nbsp; &nbsp; &nbsp; &nbsp;<font class='negOutcome'>You receive: <strong>0</strong></font></div>","null","15","Cherry Chances","Fruit/cherrie.png","Lost","0.8,0.2","14","0.8","234","44","",""
"","","","decision","608590825d295c858cbe7fa9","bdp_rwlrn","Mon Mar 13 2023 12:05:12 GMT-0700 (Pacific Daylight Time)","399734","Trustworthy,Untrustworthy","html-keyboard-response","142","171217","0.0-11.0-1.44","","631","","","<div class='trialDiv'><img src='Fruit/grapes.png'><br><font class='baseline'><strong>Great Grapes</strong><p>Choose number of points to bet.</font><div class='respPicDiv'><img src='img/responseButtonOffersNo0L.png' class='respPic'></div></div>","2","15","Great Grapes","Fruit/grapes.png","Lost","0.65,0.2","13","0.65","239","45","",""
"","","","decisionFB","608590825d295c858cbe7fa9","bdp_rwlrn","Mon Mar 13 2023 12:05:12 GMT-0700 (Pacific Daylight Time)","399734","Trustworthy,Untrustworthy","html-keyboard-response","143","171471","0.0-11.0-2.44","","null","","","<div class='trialDiv'><img src='Fruit/grapes.png'><br><font class='baseline'><strong>Great Grapes</strong><p>Choose number of points to bet.</font><div class='respPicDiv'><img src='img/responseButtonOffersNo0L2.png' class='respPic'></div></div>","null","15","Great Grapes","Fruit/grapes.png","Lost","0.65,0.2","13","0.65","237","45","",""
"","","","feedback","608590825d295c858cbe7fa9","bdp_rwlrn","Mon Mar 13 2023 12:05:12 GMT-0700 (Pacific Daylight Time)","399734","Trustworthy,Untrustworthy","html-keyboard-response","144","172480","0.0-11.0-3.44","","null","","","<div class='respPicDiv'><img src='img/responseButtonOffersNo0_wht.png' class='respPic'></div><div class='trialDiv'><img src='Fruit/grapes.png'><br><font class='baseline'><strong>Great Grapes</strong><p><strong><font class='negOutcome'>You LOST</font><p>You bet: 2</strong></font> &nbsp; &nbsp; &nbsp; &nbsp; &nbsp; &nbsp;<font class='negOutcome'>You receive: <strong>0</strong></font></div>","null","15","Great Grapes","Fruit/grapes.png","Lost","0.65,0.2","13","0.65","237","45","",""
"","","","decision","608590825d295c858cbe7fa9","bdp_rwlrn","Mon Mar 13 2023 12:05:12 GMT-0700 (Pacific Daylight Time)","399734","Trustworthy,Untrustworthy","html-keyboard-response","145","173582","0.0-11.0-1.45","","1101","","","<div class='trialDiv'><img src='Fruit/mixed-berries2.png'><br><font class='baseline'><strong>Berry Bla$t</strong><p>Choose number of points to bet.</font><div class='respPicDiv'><img src='img/responseButtonOffersNo0L.png' class='respPic'></div></div>","2","16","Berry Bla$t","Fruit/mixed-berries2.png","Won","0.2,0.65","12","0.2","242","46","",""
"","","","decisionFB","608590825d295c858cbe7fa9","bdp_rwlrn","Mon Mar 13 2023 12:05:12 GMT-0700 (Pacific Daylight Time)","399734","Trustworthy,Untrustworthy","html-keyboard-response","146","173840","0.0-11.0-2.45","","null","","","<div class='trialDiv'><img src='Fruit/mixed-berries2.png'><br><font class='baseline'><strong>Berry Bla$t</strong><p>Choose number of points to bet.</font><div class='respPicDiv'><img src='img/responseButtonOffersNo0L2.png' class='respPic'></div></div>","null","16","Berry Bla$t","Fruit/mixed-berries2.png","Won","0.2,0.65","12","0.2","240","46","",""
"","","","feedback","608590825d295c858cbe7fa9","bdp_rwlrn","Mon Mar 13 2023 12:05:12 GMT-0700 (Pacific Daylight Time)","399734","Trustworthy,Untrustworthy","html-keyboard-response","147","174848","0.0-11.0-3.45","","null","","","<div class='respPicDiv'><img src='img/responseButtonOffersNo0_wht.png' class='respPic'></div><div class='trialDiv'><img src='Fruit/mixed-berries2.png'><br><font class='baseline'><strong>Berry Bla$t</strong><p><strong><font class='posOutcome'>You WON</font><p>You bet: 2</strong></font> &nbsp; &nbsp; &nbsp; &nbsp; &nbsp; &nbsp;<font class='posOutcome'>you receive: <strong>4</strong></font></div>","null","16","Berry Bla$t","Fruit/mixed-berries2.png","Won","0.2,0.65","12","0.2","244","46","",""
"","","","decision","608590825d295c858cbe7fa9","bdp_rwlrn","Mon Mar 13 2023 12:05:12 GMT-0700 (Pacific Daylight Time)","399734","Trustworthy,Untrustworthy","html-keyboard-response","148","175339","0.0-11.0-1.46","","489","","","<div class='trialDiv'><img src='Fruit/cherrie.png'><br><font class='baseline'><strong>Cherry Chances</strong><p>Choose number of points to bet.</font><div class='respPicDiv'><img src='img/responseButtonOffersNo0L.png' class='respPic'></div></div>","1","16","Cherry Chances","Fruit/cherrie.png","Lost","0.8,0.2","14","0.8","249","47","",""
"","","","decisionFB","608590825d295c858cbe7fa9","bdp_rwlrn","Mon Mar 13 2023 12:05:12 GMT-0700 (Pacific Daylight Time)","399734","Trustworthy,Untrustworthy","html-keyboard-response","149","175592","0.0-11.0-2.46","","null","","","<div class='trialDiv'><img src='Fruit/cherrie.png'><br><font class='baseline'><strong>Cherry Chances</strong><p>Choose number of points to bet.</font><div class='respPicDiv'><img src='img/responseButtonOffersNo0L1.png' class='respPic'></div></div>","null","16","Cherry Chances","Fruit/cherrie.png","Lost","0.8,0.2","14","0.8","248","47","",""
"","","","feedback","608590825d295c858cbe7fa9","bdp_rwlrn","Mon Mar 13 2023 12:05:12 GMT-0700 (Pacific Daylight Time)","399734","Trustworthy,Untrustworthy","html-keyboard-response","150","176600","0.0-11.0-3.46","","null","","","<div class='respPicDiv'><img src='img/responseButtonOffersNo0_wht.png' class='respPic'></div><div class='trialDiv'><img src='Fruit/cherrie.png'><br><font class='baseline'><strong>Cherry Chances</strong><p><strong><font class='negOutcome'>You LOST</font><p>You bet: 1</strong></font> &nbsp; &nbsp; &nbsp; &nbsp; &nbsp; &nbsp;<font class='negOutcome'>You receive: <strong>0</strong></font></div>","null","16","Cherry Chances","Fruit/cherrie.png","Lost","0.8,0.2","14","0.8","248","47","",""
"","","","decision","608590825d295c858cbe7fa9","bdp_rwlrn","Mon Mar 13 2023 12:05:12 GMT-0700 (Pacific Daylight Time)","399734","Trustworthy,Untrustworthy","html-keyboard-response","151","176990","0.0-11.0-1.47","","389","","","<div class='trialDiv'><img src='Fruit/grapes.png'><br><font class='baseline'><strong>Great Grapes</strong><p>Choose number of points to bet.</font><div class='respPicDiv'><img src='img/responseButtonOffersNo0L.png' class='respPic'></div></div>","1","16","Great Grapes","Fruit/grapes.png","Lost","0.65,0.2","13","0.65","253","48","",""
"","","","decisionFB","608590825d295c858cbe7fa9","bdp_rwlrn","Mon Mar 13 2023 12:05:12 GMT-0700 (Pacific Daylight Time)","399734","Trustworthy,Untrustworthy","html-keyboard-response","152","177248","0.0-11.0-2.47","","null","","","<div class='trialDiv'><img src='Fruit/grapes.png'><br><font class='baseline'><strong>Great Grapes</strong><p>Choose number of points to bet.</font><div class='respPicDiv'><img src='img/responseButtonOffersNo0L1.png' class='respPic'></div></div>","null","16","Great Grapes","Fruit/grapes.png","Lost","0.65,0.2","13","0.65","252","48","",""
"","","","feedback","608590825d295c858cbe7fa9","bdp_rwlrn","Mon Mar 13 2023 12:05:12 GMT-0700 (Pacific Daylight Time)","399734","Trustworthy,Untrustworthy","html-keyboard-response","153","178257","0.0-11.0-3.47","","null","","","<div class='respPicDiv'><img src='img/responseButtonOffersNo0_wht.png' class='respPic'></div><div class='trialDiv'><img src='Fruit/grapes.png'><br><font class='baseline'><strong>Great Grapes</strong><p><strong><font class='negOutcome'>You LOST</font><p>You bet: 1</strong></font> &nbsp; &nbsp; &nbsp; &nbsp; &nbsp; &nbsp;<font class='negOutcome'>You receive: <strong>0</strong></font></div>","null","16","Great Grapes","Fruit/grapes.png","Lost","0.65,0.2","13","0.65","252","48","",""
"","","","decision","608590825d295c858cbe7fa9","bdp_rwlrn","Mon Mar 13 2023 12:05:12 GMT-0700 (Pacific Daylight Time)","399734","Trustworthy,Untrustworthy","html-keyboard-response","154","178633","0.0-11.0-1.48","","376","","","<div class='trialDiv'><img src='Fruit/mixed-berries2.png'><br><font class='baseline'><strong>Berry Bla$t</strong><p>Choose number of points to bet.</font><div class='respPicDiv'><img src='img/responseButtonOffersNo0L.png' class='respPic'></div></div>","1","17","Berry Bla$t","Fruit/mixed-berries2.png","Lost","0.2,0.65","12","0.2","257","49","",""
"","","","decisionFB","608590825d295c858cbe7fa9","bdp_rwlrn","Mon Mar 13 2023 12:05:12 GMT-0700 (Pacific Daylight Time)","399734","Trustworthy,Untrustworthy","html-keyboard-response","155","178889","0.0-11.0-2.48","","null","","","<div class='trialDiv'><img src='Fruit/mixed-berries2.png'><br><font class='baseline'><strong>Berry Bla$t</strong><p>Choose number of points to bet.</font><div class='respPicDiv'><img src='img/responseButtonOffersNo0L1.png' class='respPic'></div></div>","null","17","Berry Bla$t","Fruit/mixed-berries2.png","Lost","0.2,0.65","12","0.2","256","49","",""
"","","","feedback","608590825d295c858cbe7fa9","bdp_rwlrn","Mon Mar 13 2023 12:05:12 GMT-0700 (Pacific Daylight Time)","399734","Trustworthy,Untrustworthy","html-keyboard-response","156","179896","0.0-11.0-3.48","","null","","","<div class='respPicDiv'><img src='img/responseButtonOffersNo0_wht.png' class='respPic'></div><div class='trialDiv'><img src='Fruit/mixed-berries2.png'><br><font class='baseline'><strong>Berry Bla$t</strong><p><strong><font class='negOutcome'>You LOST</font><p>You bet: 1</strong></font> &nbsp; &nbsp; &nbsp; &nbsp; &nbsp; &nbsp;<font class='negOutcome'>You receive: <strong>0</strong></font></div>","null","17","Berry Bla$t","Fruit/mixed-berries2.png","Lost","0.2,0.65","12","0.2","256","49","",""
"","","","decision","608590825d295c858cbe7fa9","bdp_rwlrn","Mon Mar 13 2023 12:05:12 GMT-0700 (Pacific Daylight Time)","399734","Trustworthy,Untrustworthy","html-keyboard-response","157","180336","0.0-11.0-1.49","","439","","","<div class='trialDiv'><img src='Fruit/grapes.png'><br><font class='baseline'><strong>Great Grapes</strong><p>Choose number of points to bet.</font><div class='respPicDiv'><img src='img/responseButtonOffersNo0L.png' class='respPic'></div></div>","1","17","Great Grapes","Fruit/grapes.png","Lost","0.65,0.2","13","0.65","261","50","",""
"","","","decisionFB","608590825d295c858cbe7fa9","bdp_rwlrn","Mon Mar 13 2023 12:05:12 GMT-0700 (Pacific Daylight Time)","399734","Trustworthy,Untrustworthy","html-keyboard-response","158","180593","0.0-11.0-2.49","","null","","","<div class='trialDiv'><img src='Fruit/grapes.png'><br><font class='baseline'><strong>Great Grapes</strong><p>Choose number of points to bet.</font><div class='respPicDiv'><img src='img/responseButtonOffersNo0L1.png' class='respPic'></div></div>","null","17","Great Grapes","Fruit/grapes.png","Lost","0.65,0.2","13","0.65","260","50","",""
"","","","feedback","608590825d295c858cbe7fa9","bdp_rwlrn","Mon Mar 13 2023 12:05:12 GMT-0700 (Pacific Daylight Time)","399734","Trustworthy,Untrustworthy","html-keyboard-response","159","181600","0.0-11.0-3.49","","null","","","<div class='respPicDiv'><img src='img/responseButtonOffersNo0_wht.png' class='respPic'></div><div class='trialDiv'><img src='Fruit/grapes.png'><br><font class='baseline'><strong>Great Grapes</strong><p><strong><font class='negOutcome'>You LOST</font><p>You bet: 1</strong></font> &nbsp; &nbsp; &nbsp; &nbsp; &nbsp; &nbsp;<font class='negOutcome'>You receive: <strong>0</strong></font></div>","null","17","Great Grapes","Fruit/grapes.png","Lost","0.65,0.2","13","0.65","260","50","",""
