"trial_type","trial_index","time_elapsed","internal_node_id","subject_id","task","startTime","totalTime","labels","view_history","rt","event","trial","time","trialtype","success","stimulus","key_press","ltround","name","fileID","outcome","lottotype","lottoswpt","lottocurrpshare","point_total","round","faceID","face"
"pavlovia","0","2","0.0-0.0","63e316f79fdeba5ba50385e1","bdp_rwlrn","Wed Mar 15 2023 17:47:46 GMT-1000 (Hawaii-Aleutian Standard Time)","510960","Untrustworthy,Trustworthy","","","","","","","","","","","","","","","","","","","",""
"instructions","1","20142","0.0-1.0","63e316f79fdeba5ba50385e1","bdp_rwlrn","Wed Mar 15 2023 17:47:46 GMT-1000 (Hawaii-Aleutian Standard Time)","510960","Untrustworthy,Trustworthy","[{""page_index"":0,""viewing_time"":20139}]","20139","","","","","","","","","","","","","","","","","",""
"","","","","63e316f79fdeba5ba50385e1","bdp_rwlrn","Wed Mar 15 2023 17:47:46 GMT-1000 (Hawaii-Aleutian Standard Time)","510960","Untrustworthy,Trustworthy","","","fullscreenenter","2","25273","fullscreenenter","","","","","","","","","","","","","",""
"fullscreen","2","26247","0.0-2.0","63e316f79fdeba5ba50385e1","bdp_rwlrn","Wed Mar 15 2023 17:47:46 GMT-1000 (Hawaii-Aleutian Standard Time)","510960","Untrustworthy,Trustworthy","","","","","","","true","","","","","","","","","","","","",""
"instructions","3","145313","0.0-4.0","63e316f79fdeba5ba50385e1","bdp_rwlrn","Wed Mar 15 2023 17:47:46 GMT-1000 (Hawaii-Aleutian Standard Time)","510960","Untrustworthy,Trustworthy","[{""page_index"":0,""viewing_time"":18850},{""page_index"":1,""viewing_time"":37289},{""page_index"":2,""viewing_time"":12908},{""page_index"":3,""viewing_time"":10424},{""page_index"":4,""viewing_time"":37714},{""page_index"":5,""viewing_time"":1879}]","119064","","","","","","","","","","","","","","","","","",""
"html-keyboard-response","4","149396","0.0-5.0","63e316f79fdeba5ba50385e1","bdp_rwlrn","Wed Mar 15 2023 17:47:46 GMT-1000 (Hawaii-Aleutian Standard Time)","510960","Untrustworthy,Trustworthy","","4081","","","","","","<div class='header' style='text-align:left; position: absolute; top: 5%; left: 5%;'><small>Task 3 of 5</small></div><div class='instruxDiv'><p><strong>1) What is the maximum number of points you can choose to bet on a lottery?</strong></p><p>a) 0</p><p>b) 1</p><p>c) 5</p>","B","","","","","","","","","","",""
"html-keyboard-response","5","155782","0.0-6.0","63e316f79fdeba5ba50385e1","bdp_rwlrn","Wed Mar 15 2023 17:47:46 GMT-1000 (Hawaii-Aleutian Standard Time)","510960","Untrustworthy,Trustworthy","","6277","","","","","","<div class='header' style='text-align:left; position: absolute; top: 5%; left: 5%;'><small>Task 3 of 5</small></div><div class='instruxDiv'><p><strong>1) What is the maximum number of points you can choose to bet on a lottery?</strong></p><p>a) 0</p><p style='color:#FF0000'>b) 1</p><p>c) 5</p><h3 style='color:#FF0000'>Incorrect!</h3><h3 class='center-content'>The correct response is c).</h3><h3 class='center-content'>The maximum number of points you can choose to bet on a lottery is 5 points.</h3><p><em>Press SPACEBAR to continue</em></p></div>"," ","","","","","","","","","","",""
"html-keyboard-response","6","161592","0.0-7.0","63e316f79fdeba5ba50385e1","bdp_rwlrn","Wed Mar 15 2023 17:47:46 GMT-1000 (Hawaii-Aleutian Standard Time)","510960","Untrustworthy,Trustworthy","","5704","","","","","","<div class='header' style='text-align:left; position: absolute; top: 5%; left: 5%;'><small>Task 3 of 5</small></div><div class='instruxDiv'><p><strong>2) How many points can you win each round?</strong></p><p>a) 10 points</p><p>b) Double what you bet</p><p>c) Quadruple what you bet</p>","B","","","","","","","","","","",""
"html-keyboard-response","7","166491","0.0-8.0","63e316f79fdeba5ba50385e1","bdp_rwlrn","Wed Mar 15 2023 17:47:46 GMT-1000 (Hawaii-Aleutian Standard Time)","510960","Untrustworthy,Trustworthy","","4795","","","","","","<div class='header' style='text-align:left; position: absolute; top: 5%; left: 5%;'><small>Task 3 of 5</small></div><div class='instruxDiv'><p><strong>2) How many points can you win each round?</strong></p><p>a) 10 points</p><p style='color:#00FF00'>b) Double what you bet</p><p>c) Quadruple what you bet</p><h3 style='color:#00FF00'>Correct!</h3><h3 class='center-content'>The correct response is b).</h3><h3 class='center-content'>You can win double the amount of points you bet.</h3><p><em>Press SPACEBAR to continue</em></p></div>"," ","","","","","","","","","","",""
"html-keyboard-response","8","171610","0.0-9.0","63e316f79fdeba5ba50385e1","bdp_rwlrn","Wed Mar 15 2023 17:47:46 GMT-1000 (Hawaii-Aleutian Standard Time)","510960","Untrustworthy,Trustworthy","","null","","","","","","<div class='header' style='text-align:left; position: absolute; top: 5%; left: 5%;'><small>Task 3 of 5</small></div><div class='instruxDiv'><p>Thank you for completing the quiz<p>These are the actual lotteries you will be playing in the next block:<p><div class='tc' align='center'><img class='introPic' src='Fruit/bananas.png'><br><strong>Banana Bonanza</strong></div><div class='bl' align='center'><img class='introPic' src='Fruit/watermelon.png'><br><strong>Watermelon Win$</strong></div><div class='br' align='center'><img class='introPic' src='Fruit/grapes.png'><br><strong>Great Grapes</strong></div></div><p>Across <strong>66 rounds</strong> you will play each lottery <strong>22 times</strong> (in random order).<p style='align:center; color:white'><font <em>Press SPACEBAR to continue</em></p>","null","","","","","","","","","","",""
"instructions","9","186569","0.0-10.0","63e316f79fdeba5ba50385e1","bdp_rwlrn","Wed Mar 15 2023 17:47:46 GMT-1000 (Hawaii-Aleutian Standard Time)","510960","Untrustworthy,Trustworthy","[{""page_index"":0,""viewing_time"":12649},{""page_index"":1,""viewing_time"":2310}]","14959","","","","","","","","","","","","","","","","","",""
"html-keyboard-response","10","188562","0.0-11.0-1.0","63e316f79fdeba5ba50385e1","bdp_rwlrn","Wed Mar 15 2023 17:47:46 GMT-1000 (Hawaii-Aleutian Standard Time)","510960","Untrustworthy,Trustworthy","","1889","","","","decision","","<div class='trialDiv'><img src='Fruit/watermelon.png'><br><font class='baseline'><strong>Watermelon Win$</strong><p>Choose number of points to bet.</font><div class='respPicDiv'><img src='img/responseButtonOffersNo0L.png' class='respPic'></div></div>","3","1","Watermelon Win$","Fruit/watermelon.png","Won","0.35,0.8","10","0.35","5","1","",""
"html-keyboard-response","11","188816","0.0-11.0-2.0","63e316f79fdeba5ba50385e1","bdp_rwlrn","Wed Mar 15 2023 17:47:46 GMT-1000 (Hawaii-Aleutian Standard Time)","510960","Untrustworthy,Trustworthy","","null","","","","decisionFB","","<div class='trialDiv'><img src='Fruit/watermelon.png'><br><font class='baseline'><strong>Watermelon Win$</strong><p>Choose number of points to bet.</font><div class='respPicDiv'><img src='img/responseButtonOffersNo0L3.png' class='respPic'></div></div>","null","1","Watermelon Win$","Fruit/watermelon.png","Won","0.35,0.8","10","0.35","2","1","",""
"html-keyboard-response","12","189826","0.0-11.0-3.0","63e316f79fdeba5ba50385e1","bdp_rwlrn","Wed Mar 15 2023 17:47:46 GMT-1000 (Hawaii-Aleutian Standard Time)","510960","Untrustworthy,Trustworthy","","null","","","","feedback","","<div class='respPicDiv'><img src='img/responseButtonOffersNo0_wht.png' class='respPic'></div><div class='trialDiv'><img src='Fruit/watermelon.png'><br><font class='baseline'><strong>Watermelon Win$</strong><p><strong><font class='posOutcome'>You WON</font><p>You bet: 3</strong></font> &nbsp; &nbsp; &nbsp; &nbsp; &nbsp; &nbsp;<font class='posOutcome'>you receive: <strong>6</strong></font></div>","null","1","Watermelon Win$","Fruit/watermelon.png","Won","0.35,0.8","10","0.35","8","1","",""
"html-keyboard-response","13","190807","0.0-11.0-1.1","63e316f79fdeba5ba50385e1","bdp_rwlrn","Wed Mar 15 2023 17:47:46 GMT-1000 (Hawaii-Aleutian Standard Time)","510960","Untrustworthy,Trustworthy","","980","","","","decision","","<div class='trialDiv'><img src='Fruit/bananas.png'><br><font class='baseline'><strong>Banana Bonanza</strong><p>Choose number of points to bet.</font><div class='respPicDiv'><img src='img/responseButtonOffersNo0L.png' class='respPic'></div></div>","2","1","Banana Bonanza","Fruit/bananas.png","Won","0.65,0.35","10","0.65","13","2","",""
"html-keyboard-response","14","191078","0.0-11.0-2.1","63e316f79fdeba5ba50385e1","bdp_rwlrn","Wed Mar 15 2023 17:47:46 GMT-1000 (Hawaii-Aleutian Standard Time)","510960","Untrustworthy,Trustworthy","","null","","","","decisionFB","","<div class='trialDiv'><img src='Fruit/bananas.png'><br><font class='baseline'><strong>Banana Bonanza</strong><p>Choose number of points to bet.</font><div class='respPicDiv'><img src='img/responseButtonOffersNo0L2.png' class='respPic'></div></div>","null","1","Banana Bonanza","Fruit/bananas.png","Won","0.65,0.35","10","0.65","11","2","",""
"html-keyboard-response","15","192080","0.0-11.0-3.1","63e316f79fdeba5ba50385e1","bdp_rwlrn","Wed Mar 15 2023 17:47:46 GMT-1000 (Hawaii-Aleutian Standard Time)","510960","Untrustworthy,Trustworthy","","null","","","","feedback","","<div class='respPicDiv'><img src='img/responseButtonOffersNo0_wht.png' class='respPic'></div><div class='trialDiv'><img src='Fruit/bananas.png'><br><font class='baseline'><strong>Banana Bonanza</strong><p><strong><font class='posOutcome'>You WON</font><p>You bet: 2</strong></font> &nbsp; &nbsp; &nbsp; &nbsp; &nbsp; &nbsp;<font class='posOutcome'>you receive: <strong>4</strong></font></div>","null","1","Banana Bonanza","Fruit/bananas.png","Won","0.65,0.35","10","0.65","15","2","",""
"html-keyboard-response","16","194052","0.0-11.0-1.2","63e316f79fdeba5ba50385e1","bdp_rwlrn","Wed Mar 15 2023 17:47:46 GMT-1000 (Hawaii-Aleutian Standard Time)","510960","Untrustworthy,Trustworthy","","1972","","","","decision","","<div class='trialDiv'><img src='Fruit/grapes.png'><br><font class='baseline'><strong>Great Grapes</strong><p>Choose number of points to bet.</font><div class='respPicDiv'><img src='img/responseButtonOffersNo0L.png' class='respPic'></div></div>","2","1","Great Grapes","Fruit/grapes.png","Lost","0.65,0.2","8","0.65","20","3","",""
"html-keyboard-response","17","194304","0.0-11.0-2.2","63e316f79fdeba5ba50385e1","bdp_rwlrn","Wed Mar 15 2023 17:47:46 GMT-1000 (Hawaii-Aleutian Standard Time)","510960","Untrustworthy,Trustworthy","","null","","","","decisionFB","","<div class='trialDiv'><img src='Fruit/grapes.png'><br><font class='baseline'><strong>Great Grapes</strong><p>Choose number of points to bet.</font><div class='respPicDiv'><img src='img/responseButtonOffersNo0L2.png' class='respPic'></div></div>","null","1","Great Grapes","Fruit/grapes.png","Lost","0.65,0.2","8","0.65","18","3","",""
"html-keyboard-response","18","195312","0.0-11.0-3.2","63e316f79fdeba5ba50385e1","bdp_rwlrn","Wed Mar 15 2023 17:47:46 GMT-1000 (Hawaii-Aleutian Standard Time)","510960","Untrustworthy,Trustworthy","","null","","","","feedback","","<div class='respPicDiv'><img src='img/responseButtonOffersNo0_wht.png' class='respPic'></div><div class='trialDiv'><img src='Fruit/grapes.png'><br><font class='baseline'><strong>Great Grapes</strong><p><strong><font class='negOutcome'>You LOST</font><p>You bet: 2</strong></font> &nbsp; &nbsp; &nbsp; &nbsp; &nbsp; &nbsp;<font class='negOutcome'>You receive: <strong>0</strong></font></div>","null","1","Great Grapes","Fruit/grapes.png","Lost","0.65,0.2","8","0.65","18","3","",""
"html-keyboard-response","19","195768","0.0-11.0-1.3","63e316f79fdeba5ba50385e1","bdp_rwlrn","Wed Mar 15 2023 17:47:46 GMT-1000 (Hawaii-Aleutian Standard Time)","510960","Untrustworthy,Trustworthy","","455","","","","decision","","<div class='trialDiv'><img src='Fruit/watermelon.png'><br><font class='baseline'><strong>Watermelon Win$</strong><p>Choose number of points to bet.</font><div class='respPicDiv'><img src='img/responseButtonOffersNo0L.png' class='respPic'></div></div>","1","2","Watermelon Win$","Fruit/watermelon.png","Won","0.35,0.8","10","0.35","23","4","",""
"html-keyboard-response","20","196025","0.0-11.0-2.3","63e316f79fdeba5ba50385e1","bdp_rwlrn","Wed Mar 15 2023 17:47:46 GMT-1000 (Hawaii-Aleutian Standard Time)","510960","Untrustworthy,Trustworthy","","null","","","","decisionFB","","<div class='trialDiv'><img src='Fruit/watermelon.png'><br><font class='baseline'><strong>Watermelon Win$</strong><p>Choose number of points to bet.</font><div class='respPicDiv'><img src='img/responseButtonOffersNo0L1.png' class='respPic'></div></div>","null","2","Watermelon Win$","Fruit/watermelon.png","Won","0.35,0.8","10","0.35","22","4","",""
"html-keyboard-response","21","197032","0.0-11.0-3.3","63e316f79fdeba5ba50385e1","bdp_rwlrn","Wed Mar 15 2023 17:47:46 GMT-1000 (Hawaii-Aleutian Standard Time)","510960","Untrustworthy,Trustworthy","","null","","","","feedback","","<div class='respPicDiv'><img src='img/responseButtonOffersNo0_wht.png' class='respPic'></div><div class='trialDiv'><img src='Fruit/watermelon.png'><br><font class='baseline'><strong>Watermelon Win$</strong><p><strong><font class='posOutcome'>You WON</font><p>You bet: 1</strong></font> &nbsp; &nbsp; &nbsp; &nbsp; &nbsp; &nbsp;<font class='posOutcome'>you receive: <strong>2</strong></font></div>","null","2","Watermelon Win$","Fruit/watermelon.png","Won","0.35,0.8","10","0.35","24","4","",""
"html-keyboard-response","22","198345","0.0-11.0-1.4","63e316f79fdeba5ba50385e1","bdp_rwlrn","Wed Mar 15 2023 17:47:46 GMT-1000 (Hawaii-Aleutian Standard Time)","510960","Untrustworthy,Trustworthy","","1313","","","","decision","","<div class='trialDiv'><img src='Fruit/grapes.png'><br><font class='baseline'><strong>Great Grapes</strong><p>Choose number of points to bet.</font><div class='respPicDiv'><img src='img/responseButtonOffersNo0L.png' class='respPic'></div></div>","2","2","Great Grapes","Fruit/grapes.png","Lost","0.65,0.2","8","0.65","29","5","",""
"html-keyboard-response","23","198600","0.0-11.0-2.4","63e316f79fdeba5ba50385e1","bdp_rwlrn","Wed Mar 15 2023 17:47:46 GMT-1000 (Hawaii-Aleutian Standard Time)","510960","Untrustworthy,Trustworthy","","null","","","","decisionFB","","<div class='trialDiv'><img src='Fruit/grapes.png'><br><font class='baseline'><strong>Great Grapes</strong><p>Choose number of points to bet.</font><div class='respPicDiv'><img src='img/responseButtonOffersNo0L2.png' class='respPic'></div></div>","null","2","Great Grapes","Fruit/grapes.png","Lost","0.65,0.2","8","0.65","27","5","",""
"html-keyboard-response","24","199608","0.0-11.0-3.4","63e316f79fdeba5ba50385e1","bdp_rwlrn","Wed Mar 15 2023 17:47:46 GMT-1000 (Hawaii-Aleutian Standard Time)","510960","Untrustworthy,Trustworthy","","null","","","","feedback","","<div class='respPicDiv'><img src='img/responseButtonOffersNo0_wht.png' class='respPic'></div><div class='trialDiv'><img src='Fruit/grapes.png'><br><font class='baseline'><strong>Great Grapes</strong><p><strong><font class='negOutcome'>You LOST</font><p>You bet: 2</strong></font> &nbsp; &nbsp; &nbsp; &nbsp; &nbsp; &nbsp;<font class='negOutcome'>You receive: <strong>0</strong></font></div>","null","2","Great Grapes","Fruit/grapes.png","Lost","0.65,0.2","8","0.65","27","5","",""
"html-keyboard-response","25","206303","0.0-11.0-1.5","63e316f79fdeba5ba50385e1","bdp_rwlrn","Wed Mar 15 2023 17:47:46 GMT-1000 (Hawaii-Aleutian Standard Time)","510960","Untrustworthy,Trustworthy","","6694","","","","decision","","<div class='trialDiv'><img src='Fruit/bananas.png'><br><font class='baseline'><strong>Banana Bonanza</strong><p>Choose number of points to bet.</font><div class='respPicDiv'><img src='img/responseButtonOffersNo0L.png' class='respPic'></div></div>","1","2","Banana Bonanza","Fruit/bananas.png","Lost","0.65,0.35","10","0.65","32","6","",""
"html-keyboard-response","26","206560","0.0-11.0-2.5","63e316f79fdeba5ba50385e1","bdp_rwlrn","Wed Mar 15 2023 17:47:46 GMT-1000 (Hawaii-Aleutian Standard Time)","510960","Untrustworthy,Trustworthy","","null","","","","decisionFB","","<div class='trialDiv'><img src='Fruit/bananas.png'><br><font class='baseline'><strong>Banana Bonanza</strong><p>Choose number of points to bet.</font><div class='respPicDiv'><img src='img/responseButtonOffersNo0L1.png' class='respPic'></div></div>","null","2","Banana Bonanza","Fruit/bananas.png","Lost","0.65,0.35","10","0.65","31","6","",""
"html-keyboard-response","27","207568","0.0-11.0-3.5","63e316f79fdeba5ba50385e1","bdp_rwlrn","Wed Mar 15 2023 17:47:46 GMT-1000 (Hawaii-Aleutian Standard Time)","510960","Untrustworthy,Trustworthy","","null","","","","feedback","","<div class='respPicDiv'><img src='img/responseButtonOffersNo0_wht.png' class='respPic'></div><div class='trialDiv'><img src='Fruit/bananas.png'><br><font class='baseline'><strong>Banana Bonanza</strong><p><strong><font class='negOutcome'>You LOST</font><p>You bet: 1</strong></font> &nbsp; &nbsp; &nbsp; &nbsp; &nbsp; &nbsp;<font class='negOutcome'>You receive: <strong>0</strong></font></div>","null","2","Banana Bonanza","Fruit/bananas.png","Lost","0.65,0.35","10","0.65","31","6","",""
"html-keyboard-response","28","208369","0.0-11.0-1.6","63e316f79fdeba5ba50385e1","bdp_rwlrn","Wed Mar 15 2023 17:47:46 GMT-1000 (Hawaii-Aleutian Standard Time)","510960","Untrustworthy,Trustworthy","","800","","","","decision","","<div class='trialDiv'><img src='Fruit/grapes.png'><br><font class='baseline'><strong>Great Grapes</strong><p>Choose number of points to bet.</font><div class='respPicDiv'><img src='img/responseButtonOffersNo0L.png' class='respPic'></div></div>","1","3","Great Grapes","Fruit/grapes.png","Lost","0.65,0.2","8","0.65","36","7","",""
"html-keyboard-response","29","208624","0.0-11.0-2.6","63e316f79fdeba5ba50385e1","bdp_rwlrn","Wed Mar 15 2023 17:47:46 GMT-1000 (Hawaii-Aleutian Standard Time)","510960","Untrustworthy,Trustworthy","","null","","","","decisionFB","","<div class='trialDiv'><img src='Fruit/grapes.png'><br><font class='baseline'><strong>Great Grapes</strong><p>Choose number of points to bet.</font><div class='respPicDiv'><img src='img/responseButtonOffersNo0L1.png' class='respPic'></div></div>","null","3","Great Grapes","Fruit/grapes.png","Lost","0.65,0.2","8","0.65","35","7","",""
"html-keyboard-response","30","209633","0.0-11.0-3.6","63e316f79fdeba5ba50385e1","bdp_rwlrn","Wed Mar 15 2023 17:47:46 GMT-1000 (Hawaii-Aleutian Standard Time)","510960","Untrustworthy,Trustworthy","","null","","","","feedback","","<div class='respPicDiv'><img src='img/responseButtonOffersNo0_wht.png' class='respPic'></div><div class='trialDiv'><img src='Fruit/grapes.png'><br><font class='baseline'><strong>Great Grapes</strong><p><strong><font class='negOutcome'>You LOST</font><p>You bet: 1</strong></font> &nbsp; &nbsp; &nbsp; &nbsp; &nbsp; &nbsp;<font class='negOutcome'>You receive: <strong>0</strong></font></div>","null","3","Great Grapes","Fruit/grapes.png","Lost","0.65,0.2","8","0.65","35","7","",""
"html-keyboard-response","31","210551","0.0-11.0-1.7","63e316f79fdeba5ba50385e1","bdp_rwlrn","Wed Mar 15 2023 17:47:46 GMT-1000 (Hawaii-Aleutian Standard Time)","510960","Untrustworthy,Trustworthy","","917","","","","decision","","<div class='trialDiv'><img src='Fruit/watermelon.png'><br><font class='baseline'><strong>Watermelon Win$</strong><p>Choose number of points to bet.</font><div class='respPicDiv'><img src='img/responseButtonOffersNo0L.png' class='respPic'></div></div>","5","3","Watermelon Win$","Fruit/watermelon.png","Lost","0.35,0.8","10","0.35","40","8","",""
"html-keyboard-response","32","210808","0.0-11.0-2.7","63e316f79fdeba5ba50385e1","bdp_rwlrn","Wed Mar 15 2023 17:47:46 GMT-1000 (Hawaii-Aleutian Standard Time)","510960","Untrustworthy,Trustworthy","","null","","","","decisionFB","","<div class='trialDiv'><img src='Fruit/watermelon.png'><br><font class='baseline'><strong>Watermelon Win$</strong><p>Choose number of points to bet.</font><div class='respPicDiv'><img src='img/responseButtonOffersNo0L5.png' class='respPic'></div></div>","null","3","Watermelon Win$","Fruit/watermelon.png","Lost","0.35,0.8","10","0.35","35","8","",""
"html-keyboard-response","33","211816","0.0-11.0-3.7","63e316f79fdeba5ba50385e1","bdp_rwlrn","Wed Mar 15 2023 17:47:46 GMT-1000 (Hawaii-Aleutian Standard Time)","510960","Untrustworthy,Trustworthy","","null","","","","feedback","","<div class='respPicDiv'><img src='img/responseButtonOffersNo0_wht.png' class='respPic'></div><div class='trialDiv'><img src='Fruit/watermelon.png'><br><font class='baseline'><strong>Watermelon Win$</strong><p><strong><font class='negOutcome'>You LOST</font><p>You bet: 5</strong></font> &nbsp; &nbsp; &nbsp; &nbsp; &nbsp; &nbsp;<font class='negOutcome'>You receive: <strong>0</strong></font></div>","null","3","Watermelon Win$","Fruit/watermelon.png","Lost","0.35,0.8","10","0.35","35","8","",""
"html-keyboard-response","34","212526","0.0-11.0-1.8","63e316f79fdeba5ba50385e1","bdp_rwlrn","Wed Mar 15 2023 17:47:46 GMT-1000 (Hawaii-Aleutian Standard Time)","510960","Untrustworthy,Trustworthy","","709","","","","decision","","<div class='trialDiv'><img src='Fruit/bananas.png'><br><font class='baseline'><strong>Banana Bonanza</strong><p>Choose number of points to bet.</font><div class='respPicDiv'><img src='img/responseButtonOffersNo0L.png' class='respPic'></div></div>","1","3","Banana Bonanza","Fruit/bananas.png","Won","0.65,0.35","10","0.65","40","9","",""
"html-keyboard-response","35","212784","0.0-11.0-2.8","63e316f79fdeba5ba50385e1","bdp_rwlrn","Wed Mar 15 2023 17:47:46 GMT-1000 (Hawaii-Aleutian Standard Time)","510960","Untrustworthy,Trustworthy","","null","","","","decisionFB","","<div class='trialDiv'><img src='Fruit/bananas.png'><br><font class='baseline'><strong>Banana Bonanza</strong><p>Choose number of points to bet.</font><div class='respPicDiv'><img src='img/responseButtonOffersNo0L1.png' class='respPic'></div></div>","null","3","Banana Bonanza","Fruit/bananas.png","Won","0.65,0.35","10","0.65","39","9","",""
"html-keyboard-response","36","213792","0.0-11.0-3.8","63e316f79fdeba5ba50385e1","bdp_rwlrn","Wed Mar 15 2023 17:47:46 GMT-1000 (Hawaii-Aleutian Standard Time)","510960","Untrustworthy,Trustworthy","","null","","","","feedback","","<div class='respPicDiv'><img src='img/responseButtonOffersNo0_wht.png' class='respPic'></div><div class='trialDiv'><img src='Fruit/bananas.png'><br><font class='baseline'><strong>Banana Bonanza</strong><p><strong><font class='posOutcome'>You WON</font><p>You bet: 1</strong></font> &nbsp; &nbsp; &nbsp; &nbsp; &nbsp; &nbsp;<font class='posOutcome'>you receive: <strong>2</strong></font></div>","null","3","Banana Bonanza","Fruit/bananas.png","Won","0.65,0.35","10","0.65","41","9","",""
"html-keyboard-response","37","214570","0.0-11.0-1.9","63e316f79fdeba5ba50385e1","bdp_rwlrn","Wed Mar 15 2023 17:47:46 GMT-1000 (Hawaii-Aleutian Standard Time)","510960","Untrustworthy,Trustworthy","","777","","","","decision","","<div class='trialDiv'><img src='Fruit/watermelon.png'><br><font class='baseline'><strong>Watermelon Win$</strong><p>Choose number of points to bet.</font><div class='respPicDiv'><img src='img/responseButtonOffersNo0L.png' class='respPic'></div></div>","5","4","Watermelon Win$","Fruit/watermelon.png","Lost","0.35,0.8","10","0.35","46","10","",""
"html-keyboard-response","38","214824","0.0-11.0-2.9","63e316f79fdeba5ba50385e1","bdp_rwlrn","Wed Mar 15 2023 17:47:46 GMT-1000 (Hawaii-Aleutian Standard Time)","510960","Untrustworthy,Trustworthy","","null","","","","decisionFB","","<div class='trialDiv'><img src='Fruit/watermelon.png'><br><font class='baseline'><strong>Watermelon Win$</strong><p>Choose number of points to bet.</font><div class='respPicDiv'><img src='img/responseButtonOffersNo0L5.png' class='respPic'></div></div>","null","4","Watermelon Win$","Fruit/watermelon.png","Lost","0.35,0.8","10","0.35","41","10","",""
"html-keyboard-response","39","215833","0.0-11.0-3.9","63e316f79fdeba5ba50385e1","bdp_rwlrn","Wed Mar 15 2023 17:47:46 GMT-1000 (Hawaii-Aleutian Standard Time)","510960","Untrustworthy,Trustworthy","","null","","","","feedback","","<div class='respPicDiv'><img src='img/responseButtonOffersNo0_wht.png' class='respPic'></div><div class='trialDiv'><img src='Fruit/watermelon.png'><br><font class='baseline'><strong>Watermelon Win$</strong><p><strong><font class='negOutcome'>You LOST</font><p>You bet: 5</strong></font> &nbsp; &nbsp; &nbsp; &nbsp; &nbsp; &nbsp;<font class='negOutcome'>You receive: <strong>0</strong></font></div>","null","4","Watermelon Win$","Fruit/watermelon.png","Lost","0.35,0.8","10","0.35","41","10","",""
"html-keyboard-response","40","216630","0.0-11.0-1.10","63e316f79fdeba5ba50385e1","bdp_rwlrn","Wed Mar 15 2023 17:47:46 GMT-1000 (Hawaii-Aleutian Standard Time)","510960","Untrustworthy,Trustworthy","","797","","","","decision","","<div class='trialDiv'><img src='Fruit/grapes.png'><br><font class='baseline'><strong>Great Grapes</strong><p>Choose number of points to bet.</font><div class='respPicDiv'><img src='img/responseButtonOffersNo0L.png' class='respPic'></div></div>","2","4","Great Grapes","Fruit/grapes.png","Lost","0.65,0.2","8","0.65","46","11","",""
"html-keyboard-response","41","216888","0.0-11.0-2.10","63e316f79fdeba5ba50385e1","bdp_rwlrn","Wed Mar 15 2023 17:47:46 GMT-1000 (Hawaii-Aleutian Standard Time)","510960","Untrustworthy,Trustworthy","","null","","","","decisionFB","","<div class='trialDiv'><img src='Fruit/grapes.png'><br><font class='baseline'><strong>Great Grapes</strong><p>Choose number of points to bet.</font><div class='respPicDiv'><img src='img/responseButtonOffersNo0L2.png' class='respPic'></div></div>","null","4","Great Grapes","Fruit/grapes.png","Lost","0.65,0.2","8","0.65","44","11","",""
"html-keyboard-response","42","217892","0.0-11.0-3.10","63e316f79fdeba5ba50385e1","bdp_rwlrn","Wed Mar 15 2023 17:47:46 GMT-1000 (Hawaii-Aleutian Standard Time)","510960","Untrustworthy,Trustworthy","","null","","","","feedback","","<div class='respPicDiv'><img src='img/responseButtonOffersNo0_wht.png' class='respPic'></div><div class='trialDiv'><img src='Fruit/grapes.png'><br><font class='baseline'><strong>Great Grapes</strong><p><strong><font class='negOutcome'>You LOST</font><p>You bet: 2</strong></font> &nbsp; &nbsp; &nbsp; &nbsp; &nbsp; &nbsp;<font class='negOutcome'>You receive: <strong>0</strong></font></div>","null","4","Great Grapes","Fruit/grapes.png","Lost","0.65,0.2","8","0.65","44","11","",""
"html-keyboard-response","43","219087","0.0-11.0-1.11","63e316f79fdeba5ba50385e1","bdp_rwlrn","Wed Mar 15 2023 17:47:46 GMT-1000 (Hawaii-Aleutian Standard Time)","510960","Untrustworthy,Trustworthy","","1194","","","","decision","","<div class='trialDiv'><img src='Fruit/bananas.png'><br><font class='baseline'><strong>Banana Bonanza</strong><p>Choose number of points to bet.</font><div class='respPicDiv'><img src='img/responseButtonOffersNo0L.png' class='respPic'></div></div>","3","4","Banana Bonanza","Fruit/bananas.png","Lost","0.65,0.35","10","0.65","49","12","",""
"html-keyboard-response","44","219345","0.0-11.0-2.11","63e316f79fdeba5ba50385e1","bdp_rwlrn","Wed Mar 15 2023 17:47:46 GMT-1000 (Hawaii-Aleutian Standard Time)","510960","Untrustworthy,Trustworthy","","null","","","","decisionFB","","<div class='trialDiv'><img src='Fruit/bananas.png'><br><font class='baseline'><strong>Banana Bonanza</strong><p>Choose number of points to bet.</font><div class='respPicDiv'><img src='img/responseButtonOffersNo0L3.png' class='respPic'></div></div>","null","4","Banana Bonanza","Fruit/bananas.png","Lost","0.65,0.35","10","0.65","46","12","",""
"html-keyboard-response","45","220352","0.0-11.0-3.11","63e316f79fdeba5ba50385e1","bdp_rwlrn","Wed Mar 15 2023 17:47:46 GMT-1000 (Hawaii-Aleutian Standard Time)","510960","Untrustworthy,Trustworthy","","null","","","","feedback","","<div class='respPicDiv'><img src='img/responseButtonOffersNo0_wht.png' class='respPic'></div><div class='trialDiv'><img src='Fruit/bananas.png'><br><font class='baseline'><strong>Banana Bonanza</strong><p><strong><font class='negOutcome'>You LOST</font><p>You bet: 3</strong></font> &nbsp; &nbsp; &nbsp; &nbsp; &nbsp; &nbsp;<font class='negOutcome'>You receive: <strong>0</strong></font></div>","null","4","Banana Bonanza","Fruit/bananas.png","Lost","0.65,0.35","10","0.65","46","12","",""
"html-keyboard-response","46","221318","0.0-11.0-1.12","63e316f79fdeba5ba50385e1","bdp_rwlrn","Wed Mar 15 2023 17:47:46 GMT-1000 (Hawaii-Aleutian Standard Time)","510960","Untrustworthy,Trustworthy","","965","","","","decision","","<div class='trialDiv'><img src='Fruit/watermelon.png'><br><font class='baseline'><strong>Watermelon Win$</strong><p>Choose number of points to bet.</font><div class='respPicDiv'><img src='img/responseButtonOffersNo0L.png' class='respPic'></div></div>","5","5","Watermelon Win$","Fruit/watermelon.png","Lost","0.35,0.8","10","0.35","51","13","",""
"html-keyboard-response","47","221576","0.0-11.0-2.12","63e316f79fdeba5ba50385e1","bdp_rwlrn","Wed Mar 15 2023 17:47:46 GMT-1000 (Hawaii-Aleutian Standard Time)","510960","Untrustworthy,Trustworthy","","null","","","","decisionFB","","<div class='trialDiv'><img src='Fruit/watermelon.png'><br><font class='baseline'><strong>Watermelon Win$</strong><p>Choose number of points to bet.</font><div class='respPicDiv'><img src='img/responseButtonOffersNo0L5.png' class='respPic'></div></div>","null","5","Watermelon Win$","Fruit/watermelon.png","Lost","0.35,0.8","10","0.35","46","13","",""
"html-keyboard-response","48","222585","0.0-11.0-3.12","63e316f79fdeba5ba50385e1","bdp_rwlrn","Wed Mar 15 2023 17:47:46 GMT-1000 (Hawaii-Aleutian Standard Time)","510960","Untrustworthy,Trustworthy","","null","","","","feedback","","<div class='respPicDiv'><img src='img/responseButtonOffersNo0_wht.png' class='respPic'></div><div class='trialDiv'><img src='Fruit/watermelon.png'><br><font class='baseline'><strong>Watermelon Win$</strong><p><strong><font class='negOutcome'>You LOST</font><p>You bet: 5</strong></font> &nbsp; &nbsp; &nbsp; &nbsp; &nbsp; &nbsp;<font class='negOutcome'>You receive: <strong>0</strong></font></div>","null","5","Watermelon Win$","Fruit/watermelon.png","Lost","0.35,0.8","10","0.35","46","13","",""
"html-keyboard-response","49","223495","0.0-11.0-1.13","63e316f79fdeba5ba50385e1","bdp_rwlrn","Wed Mar 15 2023 17:47:46 GMT-1000 (Hawaii-Aleutian Standard Time)","510960","Untrustworthy,Trustworthy","","910","","","","decision","","<div class='trialDiv'><img src='Fruit/grapes.png'><br><font class='baseline'><strong>Great Grapes</strong><p>Choose number of points to bet.</font><div class='respPicDiv'><img src='img/responseButtonOffersNo0L.png' class='respPic'></div></div>","1","5","Great Grapes","Fruit/grapes.png","Lost","0.65,0.2","8","0.65","51","14","",""
"html-keyboard-response","50","223765","0.0-11.0-2.13","63e316f79fdeba5ba50385e1","bdp_rwlrn","Wed Mar 15 2023 17:47:46 GMT-1000 (Hawaii-Aleutian Standard Time)","510960","Untrustworthy,Trustworthy","","null","","","","decisionFB","","<div class='trialDiv'><img src='Fruit/grapes.png'><br><font class='baseline'><strong>Great Grapes</strong><p>Choose number of points to bet.</font><div class='respPicDiv'><img src='img/responseButtonOffersNo0L1.png' class='respPic'></div></div>","null","5","Great Grapes","Fruit/grapes.png","Lost","0.65,0.2","8","0.65","50","14","",""
"html-keyboard-response","51","224768","0.0-11.0-3.13","63e316f79fdeba5ba50385e1","bdp_rwlrn","Wed Mar 15 2023 17:47:46 GMT-1000 (Hawaii-Aleutian Standard Time)","510960","Untrustworthy,Trustworthy","","null","","","","feedback","","<div class='respPicDiv'><img src='img/responseButtonOffersNo0_wht.png' class='respPic'></div><div class='trialDiv'><img src='Fruit/grapes.png'><br><font class='baseline'><strong>Great Grapes</strong><p><strong><font class='negOutcome'>You LOST</font><p>You bet: 1</strong></font> &nbsp; &nbsp; &nbsp; &nbsp; &nbsp; &nbsp;<font class='negOutcome'>You receive: <strong>0</strong></font></div>","null","5","Great Grapes","Fruit/grapes.png","Lost","0.65,0.2","8","0.65","50","14","",""
"html-keyboard-response","52","232328","0.0-11.0-1.14","63e316f79fdeba5ba50385e1","bdp_rwlrn","Wed Mar 15 2023 17:47:46 GMT-1000 (Hawaii-Aleutian Standard Time)","510960","Untrustworthy,Trustworthy","","7559","","","","decision","","<div class='trialDiv'><img src='Fruit/bananas.png'><br><font class='baseline'><strong>Banana Bonanza</strong><p>Choose number of points to bet.</font><div class='respPicDiv'><img src='img/responseButtonOffersNo0L.png' class='respPic'></div></div>","1","5","Banana Bonanza","Fruit/bananas.png","Won","0.65,0.35","10","0.65","55","15","",""
"html-keyboard-response","53","232585","0.0-11.0-2.14","63e316f79fdeba5ba50385e1","bdp_rwlrn","Wed Mar 15 2023 17:47:46 GMT-1000 (Hawaii-Aleutian Standard Time)","510960","Untrustworthy,Trustworthy","","null","","","","decisionFB","","<div class='trialDiv'><img src='Fruit/bananas.png'><br><font class='baseline'><strong>Banana Bonanza</strong><p>Choose number of points to bet.</font><div class='respPicDiv'><img src='img/responseButtonOffersNo0L1.png' class='respPic'></div></div>","null","5","Banana Bonanza","Fruit/bananas.png","Won","0.65,0.35","10","0.65","54","15","",""
"html-keyboard-response","54","233592","0.0-11.0-3.14","63e316f79fdeba5ba50385e1","bdp_rwlrn","Wed Mar 15 2023 17:47:46 GMT-1000 (Hawaii-Aleutian Standard Time)","510960","Untrustworthy,Trustworthy","","null","","","","feedback","","<div class='respPicDiv'><img src='img/responseButtonOffersNo0_wht.png' class='respPic'></div><div class='trialDiv'><img src='Fruit/bananas.png'><br><font class='baseline'><strong>Banana Bonanza</strong><p><strong><font class='posOutcome'>You WON</font><p>You bet: 1</strong></font> &nbsp; &nbsp; &nbsp; &nbsp; &nbsp; &nbsp;<font class='posOutcome'>you receive: <strong>2</strong></font></div>","null","5","Banana Bonanza","Fruit/bananas.png","Won","0.65,0.35","10","0.65","56","15","",""
"html-keyboard-response","55","234052","0.0-11.0-1.15","63e316f79fdeba5ba50385e1","bdp_rwlrn","Wed Mar 15 2023 17:47:46 GMT-1000 (Hawaii-Aleutian Standard Time)","510960","Untrustworthy,Trustworthy","","460","","","","decision","","<div class='trialDiv'><img src='Fruit/watermelon.png'><br><font class='baseline'><strong>Watermelon Win$</strong><p>Choose number of points to bet.</font><div class='respPicDiv'><img src='img/responseButtonOffersNo0L.png' class='respPic'></div></div>","5","6","Watermelon Win$","Fruit/watermelon.png","Lost","0.35,0.8","10","0.35","61","16","",""
"html-keyboard-response","56","234304","0.0-11.0-2.15","63e316f79fdeba5ba50385e1","bdp_rwlrn","Wed Mar 15 2023 17:47:46 GMT-1000 (Hawaii-Aleutian Standard Time)","510960","Untrustworthy,Trustworthy","","null","","","","decisionFB","","<div class='trialDiv'><img src='Fruit/watermelon.png'><br><font class='baseline'><strong>Watermelon Win$</strong><p>Choose number of points to bet.</font><div class='respPicDiv'><img src='img/responseButtonOffersNo0L5.png' class='respPic'></div></div>","null","6","Watermelon Win$","Fruit/watermelon.png","Lost","0.35,0.8","10","0.35","56","16","",""
"html-keyboard-response","57","235312","0.0-11.0-3.15","63e316f79fdeba5ba50385e1","bdp_rwlrn","Wed Mar 15 2023 17:47:46 GMT-1000 (Hawaii-Aleutian Standard Time)","510960","Untrustworthy,Trustworthy","","null","","","","feedback","","<div class='respPicDiv'><img src='img/responseButtonOffersNo0_wht.png' class='respPic'></div><div class='trialDiv'><img src='Fruit/watermelon.png'><br><font class='baseline'><strong>Watermelon Win$</strong><p><strong><font class='negOutcome'>You LOST</font><p>You bet: 5</strong></font> &nbsp; &nbsp; &nbsp; &nbsp; &nbsp; &nbsp;<font class='negOutcome'>You receive: <strong>0</strong></font></div>","null","6","Watermelon Win$","Fruit/watermelon.png","Lost","0.35,0.8","10","0.35","56","16","",""
"html-keyboard-response","58","237116","0.0-11.0-1.16","63e316f79fdeba5ba50385e1","bdp_rwlrn","Wed Mar 15 2023 17:47:46 GMT-1000 (Hawaii-Aleutian Standard Time)","510960","Untrustworthy,Trustworthy","","1804","","","","decision","","<div class='trialDiv'><img src='Fruit/bananas.png'><br><font class='baseline'><strong>Banana Bonanza</strong><p>Choose number of points to bet.</font><div class='respPicDiv'><img src='img/responseButtonOffersNo0L.png' class='respPic'></div></div>","3","6","Banana Bonanza","Fruit/bananas.png","Won","0.65,0.35","10","0.65","61","17","",""
"html-keyboard-response","59","237369","0.0-11.0-2.16","63e316f79fdeba5ba50385e1","bdp_rwlrn","Wed Mar 15 2023 17:47:46 GMT-1000 (Hawaii-Aleutian Standard Time)","510960","Untrustworthy,Trustworthy","","null","","","","decisionFB","","<div class='trialDiv'><img src='Fruit/bananas.png'><br><font class='baseline'><strong>Banana Bonanza</strong><p>Choose number of points to bet.</font><div class='respPicDiv'><img src='img/responseButtonOffersNo0L3.png' class='respPic'></div></div>","null","6","Banana Bonanza","Fruit/bananas.png","Won","0.65,0.35","10","0.65","58","17","",""
"html-keyboard-response","60","238376","0.0-11.0-3.16","63e316f79fdeba5ba50385e1","bdp_rwlrn","Wed Mar 15 2023 17:47:46 GMT-1000 (Hawaii-Aleutian Standard Time)","510960","Untrustworthy,Trustworthy","","null","","","","feedback","","<div class='respPicDiv'><img src='img/responseButtonOffersNo0_wht.png' class='respPic'></div><div class='trialDiv'><img src='Fruit/bananas.png'><br><font class='baseline'><strong>Banana Bonanza</strong><p><strong><font class='posOutcome'>You WON</font><p>You bet: 3</strong></font> &nbsp; &nbsp; &nbsp; &nbsp; &nbsp; &nbsp;<font class='posOutcome'>you receive: <strong>6</strong></font></div>","null","6","Banana Bonanza","Fruit/bananas.png","Won","0.65,0.35","10","0.65","64","17","",""
"html-keyboard-response","61","239276","0.0-11.0-1.17","63e316f79fdeba5ba50385e1","bdp_rwlrn","Wed Mar 15 2023 17:47:46 GMT-1000 (Hawaii-Aleutian Standard Time)","510960","Untrustworthy,Trustworthy","","899","","","","decision","","<div class='trialDiv'><img src='Fruit/grapes.png'><br><font class='baseline'><strong>Great Grapes</strong><p>Choose number of points to bet.</font><div class='respPicDiv'><img src='img/responseButtonOffersNo0L.png' class='respPic'></div></div>","1","6","Great Grapes","Fruit/grapes.png","Won","0.65,0.2","8","0.65","69","18","",""
"html-keyboard-response","62","239529","0.0-11.0-2.17","63e316f79fdeba5ba50385e1","bdp_rwlrn","Wed Mar 15 2023 17:47:46 GMT-1000 (Hawaii-Aleutian Standard Time)","510960","Untrustworthy,Trustworthy","","null","","","","decisionFB","","<div class='trialDiv'><img src='Fruit/grapes.png'><br><font class='baseline'><strong>Great Grapes</strong><p>Choose number of points to bet.</font><div class='respPicDiv'><img src='img/responseButtonOffersNo0L1.png' class='respPic'></div></div>","null","6","Great Grapes","Fruit/grapes.png","Won","0.65,0.2","8","0.65","68","18","",""
"html-keyboard-response","63","240536","0.0-11.0-3.17","63e316f79fdeba5ba50385e1","bdp_rwlrn","Wed Mar 15 2023 17:47:46 GMT-1000 (Hawaii-Aleutian Standard Time)","510960","Untrustworthy,Trustworthy","","null","","","","feedback","","<div class='respPicDiv'><img src='img/responseButtonOffersNo0_wht.png' class='respPic'></div><div class='trialDiv'><img src='Fruit/grapes.png'><br><font class='baseline'><strong>Great Grapes</strong><p><strong><font class='posOutcome'>You WON</font><p>You bet: 1</strong></font> &nbsp; &nbsp; &nbsp; &nbsp; &nbsp; &nbsp;<font class='posOutcome'>you receive: <strong>2</strong></font></div>","null","6","Great Grapes","Fruit/grapes.png","Won","0.65,0.2","8","0.65","70","18","",""
"html-keyboard-response","64","242103","0.0-11.0-1.18","63e316f79fdeba5ba50385e1","bdp_rwlrn","Wed Mar 15 2023 17:47:46 GMT-1000 (Hawaii-Aleutian Standard Time)","510960","Untrustworthy,Trustworthy","","1566","","","","decision","","<div class='trialDiv'><img src='Fruit/bananas.png'><br><font class='baseline'><strong>Banana Bonanza</strong><p>Choose number of points to bet.</font><div class='respPicDiv'><img src='img/responseButtonOffersNo0L.png' class='respPic'></div></div>","5","7","Banana Bonanza","Fruit/bananas.png","Won","0.65,0.35","10","0.65","75","19","",""
"html-keyboard-response","65","242360","0.0-11.0-2.18","63e316f79fdeba5ba50385e1","bdp_rwlrn","Wed Mar 15 2023 17:47:46 GMT-1000 (Hawaii-Aleutian Standard Time)","510960","Untrustworthy,Trustworthy","","null","","","","decisionFB","","<div class='trialDiv'><img src='Fruit/bananas.png'><br><font class='baseline'><strong>Banana Bonanza</strong><p>Choose number of points to bet.</font><div class='respPicDiv'><img src='img/responseButtonOffersNo0L5.png' class='respPic'></div></div>","null","7","Banana Bonanza","Fruit/bananas.png","Won","0.65,0.35","10","0.65","70","19","",""
"html-keyboard-response","66","243369","0.0-11.0-3.18","63e316f79fdeba5ba50385e1","bdp_rwlrn","Wed Mar 15 2023 17:47:46 GMT-1000 (Hawaii-Aleutian Standard Time)","510960","Untrustworthy,Trustworthy","","null","","","","feedback","","<div class='respPicDiv'><img src='img/responseButtonOffersNo0_wht.png' class='respPic'></div><div class='trialDiv'><img src='Fruit/bananas.png'><br><font class='baseline'><strong>Banana Bonanza</strong><p><strong><font class='posOutcome'>You WON</font><p>You bet: 5</strong></font> &nbsp; &nbsp; &nbsp; &nbsp; &nbsp; &nbsp;<font class='posOutcome'>you receive: <strong>10</strong></font></div>","null","7","Banana Bonanza","Fruit/bananas.png","Won","0.65,0.35","10","0.65","80","19","",""
"html-keyboard-response","67","244604","0.0-11.0-1.19","63e316f79fdeba5ba50385e1","bdp_rwlrn","Wed Mar 15 2023 17:47:46 GMT-1000 (Hawaii-Aleutian Standard Time)","510960","Untrustworthy,Trustworthy","","1235","","","","decision","","<div class='trialDiv'><img src='Fruit/watermelon.png'><br><font class='baseline'><strong>Watermelon Win$</strong><p>Choose number of points to bet.</font><div class='respPicDiv'><img src='img/responseButtonOffersNo0L.png' class='respPic'></div></div>","2","7","Watermelon Win$","Fruit/watermelon.png","Lost","0.35,0.8","10","0.35","85","20","",""
"html-keyboard-response","68","244856","0.0-11.0-2.19","63e316f79fdeba5ba50385e1","bdp_rwlrn","Wed Mar 15 2023 17:47:46 GMT-1000 (Hawaii-Aleutian Standard Time)","510960","Untrustworthy,Trustworthy","","null","","","","decisionFB","","<div class='trialDiv'><img src='Fruit/watermelon.png'><br><font class='baseline'><strong>Watermelon Win$</strong><p>Choose number of points to bet.</font><div class='respPicDiv'><img src='img/responseButtonOffersNo0L2.png' class='respPic'></div></div>","null","7","Watermelon Win$","Fruit/watermelon.png","Lost","0.35,0.8","10","0.35","83","20","",""
"html-keyboard-response","69","245864","0.0-11.0-3.19","63e316f79fdeba5ba50385e1","bdp_rwlrn","Wed Mar 15 2023 17:47:46 GMT-1000 (Hawaii-Aleutian Standard Time)","510960","Untrustworthy,Trustworthy","","null","","","","feedback","","<div class='respPicDiv'><img src='img/responseButtonOffersNo0_wht.png' class='respPic'></div><div class='trialDiv'><img src='Fruit/watermelon.png'><br><font class='baseline'><strong>Watermelon Win$</strong><p><strong><font class='negOutcome'>You LOST</font><p>You bet: 2</strong></font> &nbsp; &nbsp; &nbsp; &nbsp; &nbsp; &nbsp;<font class='negOutcome'>You receive: <strong>0</strong></font></div>","null","7","Watermelon Win$","Fruit/watermelon.png","Lost","0.35,0.8","10","0.35","83","20","",""
"html-keyboard-response","70","246496","0.0-11.0-1.20","63e316f79fdeba5ba50385e1","bdp_rwlrn","Wed Mar 15 2023 17:47:46 GMT-1000 (Hawaii-Aleutian Standard Time)","510960","Untrustworthy,Trustworthy","","632","","","","decision","","<div class='trialDiv'><img src='Fruit/grapes.png'><br><font class='baseline'><strong>Great Grapes</strong><p>Choose number of points to bet.</font><div class='respPicDiv'><img src='img/responseButtonOffersNo0L.png' class='respPic'></div></div>","1","7","Great Grapes","Fruit/grapes.png","Lost","0.65,0.2","8","0.65","88","21","",""
"html-keyboard-response","71","246753","0.0-11.0-2.20","63e316f79fdeba5ba50385e1","bdp_rwlrn","Wed Mar 15 2023 17:47:46 GMT-1000 (Hawaii-Aleutian Standard Time)","510960","Untrustworthy,Trustworthy","","null","","","","decisionFB","","<div class='trialDiv'><img src='Fruit/grapes.png'><br><font class='baseline'><strong>Great Grapes</strong><p>Choose number of points to bet.</font><div class='respPicDiv'><img src='img/responseButtonOffersNo0L1.png' class='respPic'></div></div>","null","7","Great Grapes","Fruit/grapes.png","Lost","0.65,0.2","8","0.65","87","21","",""
"html-keyboard-response","72","247770","0.0-11.0-3.20","63e316f79fdeba5ba50385e1","bdp_rwlrn","Wed Mar 15 2023 17:47:46 GMT-1000 (Hawaii-Aleutian Standard Time)","510960","Untrustworthy,Trustworthy","","null","","","","feedback","","<div class='respPicDiv'><img src='img/responseButtonOffersNo0_wht.png' class='respPic'></div><div class='trialDiv'><img src='Fruit/grapes.png'><br><font class='baseline'><strong>Great Grapes</strong><p><strong><font class='negOutcome'>You LOST</font><p>You bet: 1</strong></font> &nbsp; &nbsp; &nbsp; &nbsp; &nbsp; &nbsp;<font class='negOutcome'>You receive: <strong>0</strong></font></div>","null","7","Great Grapes","Fruit/grapes.png","Lost","0.65,0.2","8","0.65","87","21","",""
"html-keyboard-response","73","248965","0.0-11.0-1.21","63e316f79fdeba5ba50385e1","bdp_rwlrn","Wed Mar 15 2023 17:47:46 GMT-1000 (Hawaii-Aleutian Standard Time)","510960","Untrustworthy,Trustworthy","","1195","","","","decision","","<div class='trialDiv'><img src='Fruit/watermelon.png'><br><font class='baseline'><strong>Watermelon Win$</strong><p>Choose number of points to bet.</font><div class='respPicDiv'><img src='img/responseButtonOffersNo0L.png' class='respPic'></div></div>","2","8","Watermelon Win$","Fruit/watermelon.png","Won","0.35,0.8","10","0.35","92","22","",""
"html-keyboard-response","74","249225","0.0-11.0-2.21","63e316f79fdeba5ba50385e1","bdp_rwlrn","Wed Mar 15 2023 17:47:46 GMT-1000 (Hawaii-Aleutian Standard Time)","510960","Untrustworthy,Trustworthy","","null","","","","decisionFB","","<div class='trialDiv'><img src='Fruit/watermelon.png'><br><font class='baseline'><strong>Watermelon Win$</strong><p>Choose number of points to bet.</font><div class='respPicDiv'><img src='img/responseButtonOffersNo0L2.png' class='respPic'></div></div>","null","8","Watermelon Win$","Fruit/watermelon.png","Won","0.35,0.8","10","0.35","90","22","",""
"html-keyboard-response","75","250233","0.0-11.0-3.21","63e316f79fdeba5ba50385e1","bdp_rwlrn","Wed Mar 15 2023 17:47:46 GMT-1000 (Hawaii-Aleutian Standard Time)","510960","Untrustworthy,Trustworthy","","null","","","","feedback","","<div class='respPicDiv'><img src='img/responseButtonOffersNo0_wht.png' class='respPic'></div><div class='trialDiv'><img src='Fruit/watermelon.png'><br><font class='baseline'><strong>Watermelon Win$</strong><p><strong><font class='posOutcome'>You WON</font><p>You bet: 2</strong></font> &nbsp; &nbsp; &nbsp; &nbsp; &nbsp; &nbsp;<font class='posOutcome'>you receive: <strong>4</strong></font></div>","null","8","Watermelon Win$","Fruit/watermelon.png","Won","0.35,0.8","10","0.35","94","22","",""
"html-keyboard-response","76","251041","0.0-11.0-1.22","63e316f79fdeba5ba50385e1","bdp_rwlrn","Wed Mar 15 2023 17:47:46 GMT-1000 (Hawaii-Aleutian Standard Time)","510960","Untrustworthy,Trustworthy","","807","","","","decision","","<div class='trialDiv'><img src='Fruit/bananas.png'><br><font class='baseline'><strong>Banana Bonanza</strong><p>Choose number of points to bet.</font><div class='respPicDiv'><img src='img/responseButtonOffersNo0L.png' class='respPic'></div></div>","5","8","Banana Bonanza","Fruit/bananas.png","Won","0.65,0.35","10","0.65","99","23","",""
"html-keyboard-response","77","251297","0.0-11.0-2.22","63e316f79fdeba5ba50385e1","bdp_rwlrn","Wed Mar 15 2023 17:47:46 GMT-1000 (Hawaii-Aleutian Standard Time)","510960","Untrustworthy,Trustworthy","","null","","","","decisionFB","","<div class='trialDiv'><img src='Fruit/bananas.png'><br><font class='baseline'><strong>Banana Bonanza</strong><p>Choose number of points to bet.</font><div class='respPicDiv'><img src='img/responseButtonOffersNo0L5.png' class='respPic'></div></div>","null","8","Banana Bonanza","Fruit/bananas.png","Won","0.65,0.35","10","0.65","94","23","",""
"html-keyboard-response","78","252305","0.0-11.0-3.22","63e316f79fdeba5ba50385e1","bdp_rwlrn","Wed Mar 15 2023 17:47:46 GMT-1000 (Hawaii-Aleutian Standard Time)","510960","Untrustworthy,Trustworthy","","null","","","","feedback","","<div class='respPicDiv'><img src='img/responseButtonOffersNo0_wht.png' class='respPic'></div><div class='trialDiv'><img src='Fruit/bananas.png'><br><font class='baseline'><strong>Banana Bonanza</strong><p><strong><font class='posOutcome'>You WON</font><p>You bet: 5</strong></font> &nbsp; &nbsp; &nbsp; &nbsp; &nbsp; &nbsp;<font class='posOutcome'>you receive: <strong>10</strong></font></div>","null","8","Banana Bonanza","Fruit/bananas.png","Won","0.65,0.35","10","0.65","104","23","",""
"html-keyboard-response","79","252935","0.0-11.0-1.23","63e316f79fdeba5ba50385e1","bdp_rwlrn","Wed Mar 15 2023 17:47:46 GMT-1000 (Hawaii-Aleutian Standard Time)","510960","Untrustworthy,Trustworthy","","629","","","","decision","","<div class='trialDiv'><img src='Fruit/grapes.png'><br><font class='baseline'><strong>Great Grapes</strong><p>Choose number of points to bet.</font><div class='respPicDiv'><img src='img/responseButtonOffersNo0L.png' class='respPic'></div></div>","2","8","Great Grapes","Fruit/grapes.png","Lost","0.65,0.2","8","0.65","109","24","",""
"html-keyboard-response","80","253193","0.0-11.0-2.23","63e316f79fdeba5ba50385e1","bdp_rwlrn","Wed Mar 15 2023 17:47:46 GMT-1000 (Hawaii-Aleutian Standard Time)","510960","Untrustworthy,Trustworthy","","null","","","","decisionFB","","<div class='trialDiv'><img src='Fruit/grapes.png'><br><font class='baseline'><strong>Great Grapes</strong><p>Choose number of points to bet.</font><div class='respPicDiv'><img src='img/responseButtonOffersNo0L2.png' class='respPic'></div></div>","null","8","Great Grapes","Fruit/grapes.png","Lost","0.65,0.2","8","0.65","107","24","",""
"html-keyboard-response","81","254200","0.0-11.0-3.23","63e316f79fdeba5ba50385e1","bdp_rwlrn","Wed Mar 15 2023 17:47:46 GMT-1000 (Hawaii-Aleutian Standard Time)","510960","Untrustworthy,Trustworthy","","null","","","","feedback","","<div class='respPicDiv'><img src='img/responseButtonOffersNo0_wht.png' class='respPic'></div><div class='trialDiv'><img src='Fruit/grapes.png'><br><font class='baseline'><strong>Great Grapes</strong><p><strong><font class='negOutcome'>You LOST</font><p>You bet: 2</strong></font> &nbsp; &nbsp; &nbsp; &nbsp; &nbsp; &nbsp;<font class='negOutcome'>You receive: <strong>0</strong></font></div>","null","8","Great Grapes","Fruit/grapes.png","Lost","0.65,0.2","8","0.65","107","24","",""
"html-keyboard-response","82","255544","0.0-11.0-1.24","63e316f79fdeba5ba50385e1","bdp_rwlrn","Wed Mar 15 2023 17:47:46 GMT-1000 (Hawaii-Aleutian Standard Time)","510960","Untrustworthy,Trustworthy","","1343","","","","decision","","<div class='trialDiv'><img src='Fruit/watermelon.png'><br><font class='baseline'><strong>Watermelon Win$</strong><p>Choose number of points to bet.</font><div class='respPicDiv'><img src='img/responseButtonOffersNo0L.png' class='respPic'></div></div>","1","9","Watermelon Win$","Fruit/watermelon.png","Lost","0.35,0.8","10","0.35","112","25","",""
"html-keyboard-response","83","255800","0.0-11.0-2.24","63e316f79fdeba5ba50385e1","bdp_rwlrn","Wed Mar 15 2023 17:47:46 GMT-1000 (Hawaii-Aleutian Standard Time)","510960","Untrustworthy,Trustworthy","","null","","","","decisionFB","","<div class='trialDiv'><img src='Fruit/watermelon.png'><br><font class='baseline'><strong>Watermelon Win$</strong><p>Choose number of points to bet.</font><div class='respPicDiv'><img src='img/responseButtonOffersNo0L1.png' class='respPic'></div></div>","null","9","Watermelon Win$","Fruit/watermelon.png","Lost","0.35,0.8","10","0.35","111","25","",""
"html-keyboard-response","84","256810","0.0-11.0-3.24","63e316f79fdeba5ba50385e1","bdp_rwlrn","Wed Mar 15 2023 17:47:46 GMT-1000 (Hawaii-Aleutian Standard Time)","510960","Untrustworthy,Trustworthy","","null","","","","feedback","","<div class='respPicDiv'><img src='img/responseButtonOffersNo0_wht.png' class='respPic'></div><div class='trialDiv'><img src='Fruit/watermelon.png'><br><font class='baseline'><strong>Watermelon Win$</strong><p><strong><font class='negOutcome'>You LOST</font><p>You bet: 1</strong></font> &nbsp; &nbsp; &nbsp; &nbsp; &nbsp; &nbsp;<font class='negOutcome'>You receive: <strong>0</strong></font></div>","null","9","Watermelon Win$","Fruit/watermelon.png","Lost","0.35,0.8","10","0.35","111","25","",""
"html-keyboard-response","85","257567","0.0-11.0-1.25","63e316f79fdeba5ba50385e1","bdp_rwlrn","Wed Mar 15 2023 17:47:46 GMT-1000 (Hawaii-Aleutian Standard Time)","510960","Untrustworthy,Trustworthy","","756","","","","decision","","<div class='trialDiv'><img src='Fruit/grapes.png'><br><font class='baseline'><strong>Great Grapes</strong><p>Choose number of points to bet.</font><div class='respPicDiv'><img src='img/responseButtonOffersNo0L.png' class='respPic'></div></div>","1","9","Great Grapes","Fruit/grapes.png","Lost","0.65,0.2","8","0.65","116","26","",""
"html-keyboard-response","86","257825","0.0-11.0-2.25","63e316f79fdeba5ba50385e1","bdp_rwlrn","Wed Mar 15 2023 17:47:46 GMT-1000 (Hawaii-Aleutian Standard Time)","510960","Untrustworthy,Trustworthy","","null","","","","decisionFB","","<div class='trialDiv'><img src='Fruit/grapes.png'><br><font class='baseline'><strong>Great Grapes</strong><p>Choose number of points to bet.</font><div class='respPicDiv'><img src='img/responseButtonOffersNo0L1.png' class='respPic'></div></div>","null","9","Great Grapes","Fruit/grapes.png","Lost","0.65,0.2","8","0.65","115","26","",""
"html-keyboard-response","87","258833","0.0-11.0-3.25","63e316f79fdeba5ba50385e1","bdp_rwlrn","Wed Mar 15 2023 17:47:46 GMT-1000 (Hawaii-Aleutian Standard Time)","510960","Untrustworthy,Trustworthy","","null","","","","feedback","","<div class='respPicDiv'><img src='img/responseButtonOffersNo0_wht.png' class='respPic'></div><div class='trialDiv'><img src='Fruit/grapes.png'><br><font class='baseline'><strong>Great Grapes</strong><p><strong><font class='negOutcome'>You LOST</font><p>You bet: 1</strong></font> &nbsp; &nbsp; &nbsp; &nbsp; &nbsp; &nbsp;<font class='negOutcome'>You receive: <strong>0</strong></font></div>","null","9","Great Grapes","Fruit/grapes.png","Lost","0.65,0.2","8","0.65","115","26","",""
"html-keyboard-response","88","259210","0.0-11.0-1.26","63e316f79fdeba5ba50385e1","bdp_rwlrn","Wed Mar 15 2023 17:47:46 GMT-1000 (Hawaii-Aleutian Standard Time)","510960","Untrustworthy,Trustworthy","","375","","","","decision","","<div class='trialDiv'><img src='Fruit/bananas.png'><br><font class='baseline'><strong>Banana Bonanza</strong><p>Choose number of points to bet.</font><div class='respPicDiv'><img src='img/responseButtonOffersNo0L.png' class='respPic'></div></div>","5","9","Banana Bonanza","Fruit/bananas.png","Won","0.65,0.35","10","0.65","120","27","",""
"html-keyboard-response","89","259464","0.0-11.0-2.26","63e316f79fdeba5ba50385e1","bdp_rwlrn","Wed Mar 15 2023 17:47:46 GMT-1000 (Hawaii-Aleutian Standard Time)","510960","Untrustworthy,Trustworthy","","null","","","","decisionFB","","<div class='trialDiv'><img src='Fruit/bananas.png'><br><font class='baseline'><strong>Banana Bonanza</strong><p>Choose number of points to bet.</font><div class='respPicDiv'><img src='img/responseButtonOffersNo0L5.png' class='respPic'></div></div>","null","9","Banana Bonanza","Fruit/bananas.png","Won","0.65,0.35","10","0.65","115","27","",""
"html-keyboard-response","90","260472","0.0-11.0-3.26","63e316f79fdeba5ba50385e1","bdp_rwlrn","Wed Mar 15 2023 17:47:46 GMT-1000 (Hawaii-Aleutian Standard Time)","510960","Untrustworthy,Trustworthy","","null","","","","feedback","","<div class='respPicDiv'><img src='img/responseButtonOffersNo0_wht.png' class='respPic'></div><div class='trialDiv'><img src='Fruit/bananas.png'><br><font class='baseline'><strong>Banana Bonanza</strong><p><strong><font class='posOutcome'>You WON</font><p>You bet: 5</strong></font> &nbsp; &nbsp; &nbsp; &nbsp; &nbsp; &nbsp;<font class='posOutcome'>you receive: <strong>10</strong></font></div>","null","9","Banana Bonanza","Fruit/bananas.png","Won","0.65,0.35","10","0.65","125","27","",""
"html-keyboard-response","91","261325","0.0-11.0-1.27","63e316f79fdeba5ba50385e1","bdp_rwlrn","Wed Mar 15 2023 17:47:46 GMT-1000 (Hawaii-Aleutian Standard Time)","510960","Untrustworthy,Trustworthy","","852","","","","decision","","<div class='trialDiv'><img src='Fruit/watermelon.png'><br><font class='baseline'><strong>Watermelon Win$</strong><p>Choose number of points to bet.</font><div class='respPicDiv'><img src='img/responseButtonOffersNo0L.png' class='respPic'></div></div>","1","10","Watermelon Win$","Fruit/watermelon.png","Won","0.35,0.8","10","0.35","130","28","",""
"html-keyboard-response","92","261585","0.0-11.0-2.27","63e316f79fdeba5ba50385e1","bdp_rwlrn","Wed Mar 15 2023 17:47:46 GMT-1000 (Hawaii-Aleutian Standard Time)","510960","Untrustworthy,Trustworthy","","null","","","","decisionFB","","<div class='trialDiv'><img src='Fruit/watermelon.png'><br><font class='baseline'><strong>Watermelon Win$</strong><p>Choose number of points to bet.</font><div class='respPicDiv'><img src='img/responseButtonOffersNo0L1.png' class='respPic'></div></div>","null","10","Watermelon Win$","Fruit/watermelon.png","Won","0.35,0.8","10","0.35","129","28","",""
"html-keyboard-response","93","262592","0.0-11.0-3.27","63e316f79fdeba5ba50385e1","bdp_rwlrn","Wed Mar 15 2023 17:47:46 GMT-1000 (Hawaii-Aleutian Standard Time)","510960","Untrustworthy,Trustworthy","","null","","","","feedback","","<div class='respPicDiv'><img src='img/responseButtonOffersNo0_wht.png' class='respPic'></div><div class='trialDiv'><img src='Fruit/watermelon.png'><br><font class='baseline'><strong>Watermelon Win$</strong><p><strong><font class='posOutcome'>You WON</font><p>You bet: 1</strong></font> &nbsp; &nbsp; &nbsp; &nbsp; &nbsp; &nbsp;<font class='posOutcome'>you receive: <strong>2</strong></font></div>","null","10","Watermelon Win$","Fruit/watermelon.png","Won","0.35,0.8","10","0.35","131","28","",""
"html-keyboard-response","94","263028","0.0-11.0-1.28","63e316f79fdeba5ba50385e1","bdp_rwlrn","Wed Mar 15 2023 17:47:46 GMT-1000 (Hawaii-Aleutian Standard Time)","510960","Untrustworthy,Trustworthy","","436","","","","decision","","<div class='trialDiv'><img src='Fruit/grapes.png'><br><font class='baseline'><strong>Great Grapes</strong><p>Choose number of points to bet.</font><div class='respPicDiv'><img src='img/responseButtonOffersNo0L.png' class='respPic'></div></div>","1","10","Great Grapes","Fruit/grapes.png","Lost","0.65,0.2","8","0.65","136","29","",""
"html-keyboard-response","95","263280","0.0-11.0-2.28","63e316f79fdeba5ba50385e1","bdp_rwlrn","Wed Mar 15 2023 17:47:46 GMT-1000 (Hawaii-Aleutian Standard Time)","510960","Untrustworthy,Trustworthy","","null","","","","decisionFB","","<div class='trialDiv'><img src='Fruit/grapes.png'><br><font class='baseline'><strong>Great Grapes</strong><p>Choose number of points to bet.</font><div class='respPicDiv'><img src='img/responseButtonOffersNo0L1.png' class='respPic'></div></div>","null","10","Great Grapes","Fruit/grapes.png","Lost","0.65,0.2","8","0.65","135","29","",""
"html-keyboard-response","96","264289","0.0-11.0-3.28","63e316f79fdeba5ba50385e1","bdp_rwlrn","Wed Mar 15 2023 17:47:46 GMT-1000 (Hawaii-Aleutian Standard Time)","510960","Untrustworthy,Trustworthy","","null","","","","feedback","","<div class='respPicDiv'><img src='img/responseButtonOffersNo0_wht.png' class='respPic'></div><div class='trialDiv'><img src='Fruit/grapes.png'><br><font class='baseline'><strong>Great Grapes</strong><p><strong><font class='negOutcome'>You LOST</font><p>You bet: 1</strong></font> &nbsp; &nbsp; &nbsp; &nbsp; &nbsp; &nbsp;<font class='negOutcome'>You receive: <strong>0</strong></font></div>","null","10","Great Grapes","Fruit/grapes.png","Lost","0.65,0.2","8","0.65","135","29","",""
"html-keyboard-response","97","264685","0.0-11.0-1.29","63e316f79fdeba5ba50385e1","bdp_rwlrn","Wed Mar 15 2023 17:47:46 GMT-1000 (Hawaii-Aleutian Standard Time)","510960","Untrustworthy,Trustworthy","","394","","","","decision","","<div class='trialDiv'><img src='Fruit/bananas.png'><br><font class='baseline'><strong>Banana Bonanza</strong><p>Choose number of points to bet.</font><div class='respPicDiv'><img src='img/responseButtonOffersNo0L.png' class='respPic'></div></div>","5","10","Banana Bonanza","Fruit/bananas.png","Lost","0.65,0.35","10","0.65","140","30","",""
"html-keyboard-response","98","264937","0.0-11.0-2.29","63e316f79fdeba5ba50385e1","bdp_rwlrn","Wed Mar 15 2023 17:47:46 GMT-1000 (Hawaii-Aleutian Standard Time)","510960","Untrustworthy,Trustworthy","","null","","","","decisionFB","","<div class='trialDiv'><img src='Fruit/bananas.png'><br><font class='baseline'><strong>Banana Bonanza</strong><p>Choose number of points to bet.</font><div class='respPicDiv'><img src='img/responseButtonOffersNo0L5.png' class='respPic'></div></div>","null","10","Banana Bonanza","Fruit/bananas.png","Lost","0.65,0.35","10","0.65","135","30","",""
"html-keyboard-response","99","265944","0.0-11.0-3.29","63e316f79fdeba5ba50385e1","bdp_rwlrn","Wed Mar 15 2023 17:47:46 GMT-1000 (Hawaii-Aleutian Standard Time)","510960","Untrustworthy,Trustworthy","","null","","","","feedback","","<div class='respPicDiv'><img src='img/responseButtonOffersNo0_wht.png' class='respPic'></div><div class='trialDiv'><img src='Fruit/bananas.png'><br><font class='baseline'><strong>Banana Bonanza</strong><p><strong><font class='negOutcome'>You LOST</font><p>You bet: 5</strong></font> &nbsp; &nbsp; &nbsp; &nbsp; &nbsp; &nbsp;<font class='negOutcome'>You receive: <strong>0</strong></font></div>","null","10","Banana Bonanza","Fruit/bananas.png","Lost","0.65,0.35","10","0.65","135","30","",""
"html-keyboard-response","100","266585","0.0-11.0-1.30","63e316f79fdeba5ba50385e1","bdp_rwlrn","Wed Mar 15 2023 17:47:46 GMT-1000 (Hawaii-Aleutian Standard Time)","510960","Untrustworthy,Trustworthy","","640","","","","decision","","<div class='trialDiv'><img src='Fruit/grapes.png'><br><font class='baseline'><strong>Great Grapes</strong><p>Choose number of points to bet.</font><div class='respPicDiv'><img src='img/responseButtonOffersNo0L.png' class='respPic'></div></div>","1","11","Great Grapes","Fruit/grapes.png","Lost","0.65,0.2","8","0.65","140","31","",""
"html-keyboard-response","101","266841","0.0-11.0-2.30","63e316f79fdeba5ba50385e1","bdp_rwlrn","Wed Mar 15 2023 17:47:46 GMT-1000 (Hawaii-Aleutian Standard Time)","510960","Untrustworthy,Trustworthy","","null","","","","decisionFB","","<div class='trialDiv'><img src='Fruit/grapes.png'><br><font class='baseline'><strong>Great Grapes</strong><p>Choose number of points to bet.</font><div class='respPicDiv'><img src='img/responseButtonOffersNo0L1.png' class='respPic'></div></div>","null","11","Great Grapes","Fruit/grapes.png","Lost","0.65,0.2","8","0.65","139","31","",""
"html-keyboard-response","102","267848","0.0-11.0-3.30","63e316f79fdeba5ba50385e1","bdp_rwlrn","Wed Mar 15 2023 17:47:46 GMT-1000 (Hawaii-Aleutian Standard Time)","510960","Untrustworthy,Trustworthy","","null","","","","feedback","","<div class='respPicDiv'><img src='img/responseButtonOffersNo0_wht.png' class='respPic'></div><div class='trialDiv'><img src='Fruit/grapes.png'><br><font class='baseline'><strong>Great Grapes</strong><p><strong><font class='negOutcome'>You LOST</font><p>You bet: 1</strong></font> &nbsp; &nbsp; &nbsp; &nbsp; &nbsp; &nbsp;<font class='negOutcome'>You receive: <strong>0</strong></font></div>","null","11","Great Grapes","Fruit/grapes.png","Lost","0.65,0.2","8","0.65","139","31","",""
"html-keyboard-response","103","268275","0.0-11.0-1.31","63e316f79fdeba5ba50385e1","bdp_rwlrn","Wed Mar 15 2023 17:47:46 GMT-1000 (Hawaii-Aleutian Standard Time)","510960","Untrustworthy,Trustworthy","","427","","","","decision","","<div class='trialDiv'><img src='Fruit/watermelon.png'><br><font class='baseline'><strong>Watermelon Win$</strong><p>Choose number of points to bet.</font><div class='respPicDiv'><img src='img/responseButtonOffersNo0L.png' class='respPic'></div></div>","1","11","Watermelon Win$","Fruit/watermelon.png","Won","0.35,0.8","10","0.35","144","32","",""
"html-keyboard-response","104","268529","0.0-11.0-2.31","63e316f79fdeba5ba50385e1","bdp_rwlrn","Wed Mar 15 2023 17:47:46 GMT-1000 (Hawaii-Aleutian Standard Time)","510960","Untrustworthy,Trustworthy","","null","","","","decisionFB","","<div class='trialDiv'><img src='Fruit/watermelon.png'><br><font class='baseline'><strong>Watermelon Win$</strong><p>Choose number of points to bet.</font><div class='respPicDiv'><img src='img/responseButtonOffersNo0L1.png' class='respPic'></div></div>","null","11","Watermelon Win$","Fruit/watermelon.png","Won","0.35,0.8","10","0.35","143","32","",""
"html-keyboard-response","105","269537","0.0-11.0-3.31","63e316f79fdeba5ba50385e1","bdp_rwlrn","Wed Mar 15 2023 17:47:46 GMT-1000 (Hawaii-Aleutian Standard Time)","510960","Untrustworthy,Trustworthy","","null","","","","feedback","","<div class='respPicDiv'><img src='img/responseButtonOffersNo0_wht.png' class='respPic'></div><div class='trialDiv'><img src='Fruit/watermelon.png'><br><font class='baseline'><strong>Watermelon Win$</strong><p><strong><font class='posOutcome'>You WON</font><p>You bet: 1</strong></font> &nbsp; &nbsp; &nbsp; &nbsp; &nbsp; &nbsp;<font class='posOutcome'>you receive: <strong>2</strong></font></div>","null","11","Watermelon Win$","Fruit/watermelon.png","Won","0.35,0.8","10","0.35","145","32","",""
"html-keyboard-response","106","269958","0.0-11.0-1.32","63e316f79fdeba5ba50385e1","bdp_rwlrn","Wed Mar 15 2023 17:47:46 GMT-1000 (Hawaii-Aleutian Standard Time)","510960","Untrustworthy,Trustworthy","","421","","","","decision","","<div class='trialDiv'><img src='Fruit/bananas.png'><br><font class='baseline'><strong>Banana Bonanza</strong><p>Choose number of points to bet.</font><div class='respPicDiv'><img src='img/responseButtonOffersNo0L.png' class='respPic'></div></div>","5","11","Banana Bonanza","Fruit/bananas.png","Lost","0.65,0.35","10","0.65","150","33","",""
"html-keyboard-response","107","270217","0.0-11.0-2.32","63e316f79fdeba5ba50385e1","bdp_rwlrn","Wed Mar 15 2023 17:47:46 GMT-1000 (Hawaii-Aleutian Standard Time)","510960","Untrustworthy,Trustworthy","","null","","","","decisionFB","","<div class='trialDiv'><img src='Fruit/bananas.png'><br><font class='baseline'><strong>Banana Bonanza</strong><p>Choose number of points to bet.</font><div class='respPicDiv'><img src='img/responseButtonOffersNo0L5.png' class='respPic'></div></div>","null","11","Banana Bonanza","Fruit/bananas.png","Lost","0.65,0.35","10","0.65","145","33","",""
"html-keyboard-response","108","271225","0.0-11.0-3.32","63e316f79fdeba5ba50385e1","bdp_rwlrn","Wed Mar 15 2023 17:47:46 GMT-1000 (Hawaii-Aleutian Standard Time)","510960","Untrustworthy,Trustworthy","","null","","","","feedback","","<div class='respPicDiv'><img src='img/responseButtonOffersNo0_wht.png' class='respPic'></div><div class='trialDiv'><img src='Fruit/bananas.png'><br><font class='baseline'><strong>Banana Bonanza</strong><p><strong><font class='negOutcome'>You LOST</font><p>You bet: 5</strong></font> &nbsp; &nbsp; &nbsp; &nbsp; &nbsp; &nbsp;<font class='negOutcome'>You receive: <strong>0</strong></font></div>","null","11","Banana Bonanza","Fruit/bananas.png","Lost","0.65,0.35","10","0.65","145","33","",""
"html-keyboard-response","109","272830","0.0-11.0-1.33","63e316f79fdeba5ba50385e1","bdp_rwlrn","Wed Mar 15 2023 17:47:46 GMT-1000 (Hawaii-Aleutian Standard Time)","510960","Untrustworthy,Trustworthy","","1604","","","","decision","","<div class='trialDiv'><img src='Fruit/grapes.png'><br><font class='baseline'><strong>Great Grapes</strong><p>Choose number of points to bet.</font><div class='respPicDiv'><img src='img/responseButtonOffersNo0L.png' class='respPic'></div></div>","2","12","Great Grapes","Fruit/grapes.png","Lost","0.65,0.2","8","0.65","150","34","",""
"html-keyboard-response","110","273089","0.0-11.0-2.33","63e316f79fdeba5ba50385e1","bdp_rwlrn","Wed Mar 15 2023 17:47:46 GMT-1000 (Hawaii-Aleutian Standard Time)","510960","Untrustworthy,Trustworthy","","null","","","","decisionFB","","<div class='trialDiv'><img src='Fruit/grapes.png'><br><font class='baseline'><strong>Great Grapes</strong><p>Choose number of points to bet.</font><div class='respPicDiv'><img src='img/responseButtonOffersNo0L2.png' class='respPic'></div></div>","null","12","Great Grapes","Fruit/grapes.png","Lost","0.65,0.2","8","0.65","148","34","",""
"html-keyboard-response","111","274097","0.0-11.0-3.33","63e316f79fdeba5ba50385e1","bdp_rwlrn","Wed Mar 15 2023 17:47:46 GMT-1000 (Hawaii-Aleutian Standard Time)","510960","Untrustworthy,Trustworthy","","null","","","","feedback","","<div class='respPicDiv'><img src='img/responseButtonOffersNo0_wht.png' class='respPic'></div><div class='trialDiv'><img src='Fruit/grapes.png'><br><font class='baseline'><strong>Great Grapes</strong><p><strong><font class='negOutcome'>You LOST</font><p>You bet: 2</strong></font> &nbsp; &nbsp; &nbsp; &nbsp; &nbsp; &nbsp;<font class='negOutcome'>You receive: <strong>0</strong></font></div>","null","12","Great Grapes","Fruit/grapes.png","Lost","0.65,0.2","8","0.65","148","34","",""
"html-keyboard-response","112","274913","0.0-11.0-1.34","63e316f79fdeba5ba50385e1","bdp_rwlrn","Wed Mar 15 2023 17:47:46 GMT-1000 (Hawaii-Aleutian Standard Time)","510960","Untrustworthy,Trustworthy","","815","","","","decision","","<div class='trialDiv'><img src='Fruit/bananas.png'><br><font class='baseline'><strong>Banana Bonanza</strong><p>Choose number of points to bet.</font><div class='respPicDiv'><img src='img/responseButtonOffersNo0L.png' class='respPic'></div></div>","5","12","Banana Bonanza","Fruit/bananas.png","Lost","0.65,0.35","10","0.65","153","35","",""
"html-keyboard-response","113","275169","0.0-11.0-2.34","63e316f79fdeba5ba50385e1","bdp_rwlrn","Wed Mar 15 2023 17:47:46 GMT-1000 (Hawaii-Aleutian Standard Time)","510960","Untrustworthy,Trustworthy","","null","","","","decisionFB","","<div class='trialDiv'><img src='Fruit/bananas.png'><br><font class='baseline'><strong>Banana Bonanza</strong><p>Choose number of points to bet.</font><div class='respPicDiv'><img src='img/responseButtonOffersNo0L5.png' class='respPic'></div></div>","null","12","Banana Bonanza","Fruit/bananas.png","Lost","0.65,0.35","10","0.65","148","35","",""
"html-keyboard-response","114","276176","0.0-11.0-3.34","63e316f79fdeba5ba50385e1","bdp_rwlrn","Wed Mar 15 2023 17:47:46 GMT-1000 (Hawaii-Aleutian Standard Time)","510960","Untrustworthy,Trustworthy","","null","","","","feedback","","<div class='respPicDiv'><img src='img/responseButtonOffersNo0_wht.png' class='respPic'></div><div class='trialDiv'><img src='Fruit/bananas.png'><br><font class='baseline'><strong>Banana Bonanza</strong><p><strong><font class='negOutcome'>You LOST</font><p>You bet: 5</strong></font> &nbsp; &nbsp; &nbsp; &nbsp; &nbsp; &nbsp;<font class='negOutcome'>You receive: <strong>0</strong></font></div>","null","12","Banana Bonanza","Fruit/bananas.png","Lost","0.65,0.35","10","0.65","148","35","",""
"html-keyboard-response","115","276579","0.0-11.0-1.35","63e316f79fdeba5ba50385e1","bdp_rwlrn","Wed Mar 15 2023 17:47:46 GMT-1000 (Hawaii-Aleutian Standard Time)","510960","Untrustworthy,Trustworthy","","402","","","","decision","","<div class='trialDiv'><img src='Fruit/watermelon.png'><br><font class='baseline'><strong>Watermelon Win$</strong><p>Choose number of points to bet.</font><div class='respPicDiv'><img src='img/responseButtonOffersNo0L.png' class='respPic'></div></div>","1","12","Watermelon Win$","Fruit/watermelon.png","Lost","0.35,0.8","10","0.35","153","36","",""
"html-keyboard-response","116","276833","0.0-11.0-2.35","63e316f79fdeba5ba50385e1","bdp_rwlrn","Wed Mar 15 2023 17:47:46 GMT-1000 (Hawaii-Aleutian Standard Time)","510960","Untrustworthy,Trustworthy","","null","","","","decisionFB","","<div class='trialDiv'><img src='Fruit/watermelon.png'><br><font class='baseline'><strong>Watermelon Win$</strong><p>Choose number of points to bet.</font><div class='respPicDiv'><img src='img/responseButtonOffersNo0L1.png' class='respPic'></div></div>","null","12","Watermelon Win$","Fruit/watermelon.png","Lost","0.35,0.8","10","0.35","152","36","",""
"html-keyboard-response","117","277841","0.0-11.0-3.35","63e316f79fdeba5ba50385e1","bdp_rwlrn","Wed Mar 15 2023 17:47:46 GMT-1000 (Hawaii-Aleutian Standard Time)","510960","Untrustworthy,Trustworthy","","null","","","","feedback","","<div class='respPicDiv'><img src='img/responseButtonOffersNo0_wht.png' class='respPic'></div><div class='trialDiv'><img src='Fruit/watermelon.png'><br><font class='baseline'><strong>Watermelon Win$</strong><p><strong><font class='negOutcome'>You LOST</font><p>You bet: 1</strong></font> &nbsp; &nbsp; &nbsp; &nbsp; &nbsp; &nbsp;<font class='negOutcome'>You receive: <strong>0</strong></font></div>","null","12","Watermelon Win$","Fruit/watermelon.png","Lost","0.35,0.8","10","0.35","152","36","",""
"html-keyboard-response","118","278243","0.0-11.0-1.36","63e316f79fdeba5ba50385e1","bdp_rwlrn","Wed Mar 15 2023 17:47:46 GMT-1000 (Hawaii-Aleutian Standard Time)","510960","Untrustworthy,Trustworthy","","402","","","","decision","","<div class='trialDiv'><img src='Fruit/grapes.png'><br><font class='baseline'><strong>Great Grapes</strong><p>Choose number of points to bet.</font><div class='respPicDiv'><img src='img/responseButtonOffersNo0L.png' class='respPic'></div></div>","1","13","Great Grapes","Fruit/grapes.png","Lost","0.65,0.2","8","0.65","157","37","",""
"html-keyboard-response","119","278496","0.0-11.0-2.36","63e316f79fdeba5ba50385e1","bdp_rwlrn","Wed Mar 15 2023 17:47:46 GMT-1000 (Hawaii-Aleutian Standard Time)","510960","Untrustworthy,Trustworthy","","null","","","","decisionFB","","<div class='trialDiv'><img src='Fruit/grapes.png'><br><font class='baseline'><strong>Great Grapes</strong><p>Choose number of points to bet.</font><div class='respPicDiv'><img src='img/responseButtonOffersNo0L1.png' class='respPic'></div></div>","null","13","Great Grapes","Fruit/grapes.png","Lost","0.65,0.2","8","0.65","156","37","",""
"html-keyboard-response","120","279505","0.0-11.0-3.36","63e316f79fdeba5ba50385e1","bdp_rwlrn","Wed Mar 15 2023 17:47:46 GMT-1000 (Hawaii-Aleutian Standard Time)","510960","Untrustworthy,Trustworthy","","null","","","","feedback","","<div class='respPicDiv'><img src='img/responseButtonOffersNo0_wht.png' class='respPic'></div><div class='trialDiv'><img src='Fruit/grapes.png'><br><font class='baseline'><strong>Great Grapes</strong><p><strong><font class='negOutcome'>You LOST</font><p>You bet: 1</strong></font> &nbsp; &nbsp; &nbsp; &nbsp; &nbsp; &nbsp;<font class='negOutcome'>You receive: <strong>0</strong></font></div>","null","13","Great Grapes","Fruit/grapes.png","Lost","0.65,0.2","8","0.65","156","37","",""
"html-keyboard-response","121","280117","0.0-11.0-1.37","63e316f79fdeba5ba50385e1","bdp_rwlrn","Wed Mar 15 2023 17:47:46 GMT-1000 (Hawaii-Aleutian Standard Time)","510960","Untrustworthy,Trustworthy","","612","","","","decision","","<div class='trialDiv'><img src='Fruit/watermelon.png'><br><font class='baseline'><strong>Watermelon Win$</strong><p>Choose number of points to bet.</font><div class='respPicDiv'><img src='img/responseButtonOffersNo0L.png' class='respPic'></div></div>","1","13","Watermelon Win$","Fruit/watermelon.png","Won","0.35,0.8","10","0.35","161","38","",""
"html-keyboard-response","122","280376","0.0-11.0-2.37","63e316f79fdeba5ba50385e1","bdp_rwlrn","Wed Mar 15 2023 17:47:46 GMT-1000 (Hawaii-Aleutian Standard Time)","510960","Untrustworthy,Trustworthy","","null","","","","decisionFB","","<div class='trialDiv'><img src='Fruit/watermelon.png'><br><font class='baseline'><strong>Watermelon Win$</strong><p>Choose number of points to bet.</font><div class='respPicDiv'><img src='img/responseButtonOffersNo0L1.png' class='respPic'></div></div>","null","13","Watermelon Win$","Fruit/watermelon.png","Won","0.35,0.8","10","0.35","160","38","",""
"html-keyboard-response","123","281384","0.0-11.0-3.37","63e316f79fdeba5ba50385e1","bdp_rwlrn","Wed Mar 15 2023 17:47:46 GMT-1000 (Hawaii-Aleutian Standard Time)","510960","Untrustworthy,Trustworthy","","null","","","","feedback","","<div class='respPicDiv'><img src='img/responseButtonOffersNo0_wht.png' class='respPic'></div><div class='trialDiv'><img src='Fruit/watermelon.png'><br><font class='baseline'><strong>Watermelon Win$</strong><p><strong><font class='posOutcome'>You WON</font><p>You bet: 1</strong></font> &nbsp; &nbsp; &nbsp; &nbsp; &nbsp; &nbsp;<font class='posOutcome'>you receive: <strong>2</strong></font></div>","null","13","Watermelon Win$","Fruit/watermelon.png","Won","0.35,0.8","10","0.35","162","38","",""
"html-keyboard-response","124","281792","0.0-11.0-1.38","63e316f79fdeba5ba50385e1","bdp_rwlrn","Wed Mar 15 2023 17:47:46 GMT-1000 (Hawaii-Aleutian Standard Time)","510960","Untrustworthy,Trustworthy","","407","","","","decision","","<div class='trialDiv'><img src='Fruit/bananas.png'><br><font class='baseline'><strong>Banana Bonanza</strong><p>Choose number of points to bet.</font><div class='respPicDiv'><img src='img/responseButtonOffersNo0L.png' class='respPic'></div></div>","5","13","Banana Bonanza","Fruit/bananas.png","Won","0.65,0.35","10","0.65","167","39","",""
"html-keyboard-response","125","282049","0.0-11.0-2.38","63e316f79fdeba5ba50385e1","bdp_rwlrn","Wed Mar 15 2023 17:47:46 GMT-1000 (Hawaii-Aleutian Standard Time)","510960","Untrustworthy,Trustworthy","","null","","","","decisionFB","","<div class='trialDiv'><img src='Fruit/bananas.png'><br><font class='baseline'><strong>Banana Bonanza</strong><p>Choose number of points to bet.</font><div class='respPicDiv'><img src='img/responseButtonOffersNo0L5.png' class='respPic'></div></div>","null","13","Banana Bonanza","Fruit/bananas.png","Won","0.65,0.35","10","0.65","162","39","",""
"html-keyboard-response","126","283057","0.0-11.0-3.38","63e316f79fdeba5ba50385e1","bdp_rwlrn","Wed Mar 15 2023 17:47:46 GMT-1000 (Hawaii-Aleutian Standard Time)","510960","Untrustworthy,Trustworthy","","null","","","","feedback","","<div class='respPicDiv'><img src='img/responseButtonOffersNo0_wht.png' class='respPic'></div><div class='trialDiv'><img src='Fruit/bananas.png'><br><font class='baseline'><strong>Banana Bonanza</strong><p><strong><font class='posOutcome'>You WON</font><p>You bet: 5</strong></font> &nbsp; &nbsp; &nbsp; &nbsp; &nbsp; &nbsp;<font class='posOutcome'>you receive: <strong>10</strong></font></div>","null","13","Banana Bonanza","Fruit/bananas.png","Won","0.65,0.35","10","0.65","172","39","",""
"html-keyboard-response","127","284291","0.0-11.0-1.39","63e316f79fdeba5ba50385e1","bdp_rwlrn","Wed Mar 15 2023 17:47:46 GMT-1000 (Hawaii-Aleutian Standard Time)","510960","Untrustworthy,Trustworthy","","1233","","","","decision","","<div class='trialDiv'><img src='Fruit/watermelon.png'><br><font class='baseline'><strong>Watermelon Win$</strong><p>Choose number of points to bet.</font><div class='respPicDiv'><img src='img/responseButtonOffersNo0L.png' class='respPic'></div></div>","2","14","Watermelon Win$","Fruit/watermelon.png","Won","0.35,0.8","10","0.35","177","40","",""
"html-keyboard-response","128","284544","0.0-11.0-2.39","63e316f79fdeba5ba50385e1","bdp_rwlrn","Wed Mar 15 2023 17:47:46 GMT-1000 (Hawaii-Aleutian Standard Time)","510960","Untrustworthy,Trustworthy","","null","","","","decisionFB","","<div class='trialDiv'><img src='Fruit/watermelon.png'><br><font class='baseline'><strong>Watermelon Win$</strong><p>Choose number of points to bet.</font><div class='respPicDiv'><img src='img/responseButtonOffersNo0L2.png' class='respPic'></div></div>","null","14","Watermelon Win$","Fruit/watermelon.png","Won","0.35,0.8","10","0.35","175","40","",""
"html-keyboard-response","129","285553","0.0-11.0-3.39","63e316f79fdeba5ba50385e1","bdp_rwlrn","Wed Mar 15 2023 17:47:46 GMT-1000 (Hawaii-Aleutian Standard Time)","510960","Untrustworthy,Trustworthy","","null","","","","feedback","","<div class='respPicDiv'><img src='img/responseButtonOffersNo0_wht.png' class='respPic'></div><div class='trialDiv'><img src='Fruit/watermelon.png'><br><font class='baseline'><strong>Watermelon Win$</strong><p><strong><font class='posOutcome'>You WON</font><p>You bet: 2</strong></font> &nbsp; &nbsp; &nbsp; &nbsp; &nbsp; &nbsp;<font class='posOutcome'>you receive: <strong>4</strong></font></div>","null","14","Watermelon Win$","Fruit/watermelon.png","Won","0.35,0.8","10","0.35","179","40","",""
"html-keyboard-response","130","286929","0.0-11.0-1.40","63e316f79fdeba5ba50385e1","bdp_rwlrn","Wed Mar 15 2023 17:47:46 GMT-1000 (Hawaii-Aleutian Standard Time)","510960","Untrustworthy,Trustworthy","","1375","","","","decision","","<div class='trialDiv'><img src='Fruit/bananas.png'><br><font class='baseline'><strong>Banana Bonanza</strong><p>Choose number of points to bet.</font><div class='respPicDiv'><img src='img/responseButtonOffersNo0L.png' class='respPic'></div></div>","3","14","Banana Bonanza","Fruit/bananas.png","Won","0.65,0.35","10","0.65","184","41","",""
"html-keyboard-response","131","287185","0.0-11.0-2.40","63e316f79fdeba5ba50385e1","bdp_rwlrn","Wed Mar 15 2023 17:47:46 GMT-1000 (Hawaii-Aleutian Standard Time)","510960","Untrustworthy,Trustworthy","","null","","","","decisionFB","","<div class='trialDiv'><img src='Fruit/bananas.png'><br><font class='baseline'><strong>Banana Bonanza</strong><p>Choose number of points to bet.</font><div class='respPicDiv'><img src='img/responseButtonOffersNo0L3.png' class='respPic'></div></div>","null","14","Banana Bonanza","Fruit/bananas.png","Won","0.65,0.35","10","0.65","181","41","",""
"html-keyboard-response","132","288193","0.0-11.0-3.40","63e316f79fdeba5ba50385e1","bdp_rwlrn","Wed Mar 15 2023 17:47:46 GMT-1000 (Hawaii-Aleutian Standard Time)","510960","Untrustworthy,Trustworthy","","null","","","","feedback","","<div class='respPicDiv'><img src='img/responseButtonOffersNo0_wht.png' class='respPic'></div><div class='trialDiv'><img src='Fruit/bananas.png'><br><font class='baseline'><strong>Banana Bonanza</strong><p><strong><font class='posOutcome'>You WON</font><p>You bet: 3</strong></font> &nbsp; &nbsp; &nbsp; &nbsp; &nbsp; &nbsp;<font class='posOutcome'>you receive: <strong>6</strong></font></div>","null","14","Banana Bonanza","Fruit/bananas.png","Won","0.65,0.35","10","0.65","187","41","",""
"html-keyboard-response","133","288769","0.0-11.0-1.41","63e316f79fdeba5ba50385e1","bdp_rwlrn","Wed Mar 15 2023 17:47:46 GMT-1000 (Hawaii-Aleutian Standard Time)","510960","Untrustworthy,Trustworthy","","575","","","","decision","","<div class='trialDiv'><img src='Fruit/grapes.png'><br><font class='baseline'><strong>Great Grapes</strong><p>Choose number of points to bet.</font><div class='respPicDiv'><img src='img/responseButtonOffersNo0L.png' class='respPic'></div></div>","1","14","Great Grapes","Fruit/grapes.png","Lost","0.65,0.2","8","0.65","192","42","",""
"html-keyboard-response","134","289024","0.0-11.0-2.41","63e316f79fdeba5ba50385e1","bdp_rwlrn","Wed Mar 15 2023 17:47:46 GMT-1000 (Hawaii-Aleutian Standard Time)","510960","Untrustworthy,Trustworthy","","null","","","","decisionFB","","<div class='trialDiv'><img src='Fruit/grapes.png'><br><font class='baseline'><strong>Great Grapes</strong><p>Choose number of points to bet.</font><div class='respPicDiv'><img src='img/responseButtonOffersNo0L1.png' class='respPic'></div></div>","null","14","Great Grapes","Fruit/grapes.png","Lost","0.65,0.2","8","0.65","191","42","",""
"html-keyboard-response","135","290033","0.0-11.0-3.41","63e316f79fdeba5ba50385e1","bdp_rwlrn","Wed Mar 15 2023 17:47:46 GMT-1000 (Hawaii-Aleutian Standard Time)","510960","Untrustworthy,Trustworthy","","null","","","","feedback","","<div class='respPicDiv'><img src='img/responseButtonOffersNo0_wht.png' class='respPic'></div><div class='trialDiv'><img src='Fruit/grapes.png'><br><font class='baseline'><strong>Great Grapes</strong><p><strong><font class='negOutcome'>You LOST</font><p>You bet: 1</strong></font> &nbsp; &nbsp; &nbsp; &nbsp; &nbsp; &nbsp;<font class='negOutcome'>You receive: <strong>0</strong></font></div>","null","14","Great Grapes","Fruit/grapes.png","Lost","0.65,0.2","8","0.65","191","42","",""
"html-keyboard-response","136","291136","0.0-11.0-1.42","63e316f79fdeba5ba50385e1","bdp_rwlrn","Wed Mar 15 2023 17:47:46 GMT-1000 (Hawaii-Aleutian Standard Time)","510960","Untrustworthy,Trustworthy","","1103","","","","decision","","<div class='trialDiv'><img src='Fruit/bananas.png'><br><font class='baseline'><strong>Banana Bonanza</strong><p>Choose number of points to bet.</font><div class='respPicDiv'><img src='img/responseButtonOffersNo0L.png' class='respPic'></div></div>","3","15","Banana Bonanza","Fruit/bananas.png","Lost","0.65,0.35","10","0.65","196","43","",""
"html-keyboard-response","137","291392","0.0-11.0-2.42","63e316f79fdeba5ba50385e1","bdp_rwlrn","Wed Mar 15 2023 17:47:46 GMT-1000 (Hawaii-Aleutian Standard Time)","510960","Untrustworthy,Trustworthy","","null","","","","decisionFB","","<div class='trialDiv'><img src='Fruit/bananas.png'><br><font class='baseline'><strong>Banana Bonanza</strong><p>Choose number of points to bet.</font><div class='respPicDiv'><img src='img/responseButtonOffersNo0L3.png' class='respPic'></div></div>","null","15","Banana Bonanza","Fruit/bananas.png","Lost","0.65,0.35","10","0.65","193","43","",""
"html-keyboard-response","138","292400","0.0-11.0-3.42","63e316f79fdeba5ba50385e1","bdp_rwlrn","Wed Mar 15 2023 17:47:46 GMT-1000 (Hawaii-Aleutian Standard Time)","510960","Untrustworthy,Trustworthy","","null","","","","feedback","","<div class='respPicDiv'><img src='img/responseButtonOffersNo0_wht.png' class='respPic'></div><div class='trialDiv'><img src='Fruit/bananas.png'><br><font class='baseline'><strong>Banana Bonanza</strong><p><strong><font class='negOutcome'>You LOST</font><p>You bet: 3</strong></font> &nbsp; &nbsp; &nbsp; &nbsp; &nbsp; &nbsp;<font class='negOutcome'>You receive: <strong>0</strong></font></div>","null","15","Banana Bonanza","Fruit/bananas.png","Lost","0.65,0.35","10","0.65","193","43","",""
"html-keyboard-response","139","293736","0.0-11.0-1.43","63e316f79fdeba5ba50385e1","bdp_rwlrn","Wed Mar 15 2023 17:47:46 GMT-1000 (Hawaii-Aleutian Standard Time)","510960","Untrustworthy,Trustworthy","","1336","","","","decision","","<div class='trialDiv'><img src='Fruit/grapes.png'><br><font class='baseline'><strong>Great Grapes</strong><p>Choose number of points to bet.</font><div class='respPicDiv'><img src='img/responseButtonOffersNo0L.png' class='respPic'></div></div>","1","15","Great Grapes","Fruit/grapes.png","Lost","0.65,0.2","8","0.65","198","44","",""
"html-keyboard-response","140","293992","0.0-11.0-2.43","63e316f79fdeba5ba50385e1","bdp_rwlrn","Wed Mar 15 2023 17:47:46 GMT-1000 (Hawaii-Aleutian Standard Time)","510960","Untrustworthy,Trustworthy","","null","","","","decisionFB","","<div class='trialDiv'><img src='Fruit/grapes.png'><br><font class='baseline'><strong>Great Grapes</strong><p>Choose number of points to bet.</font><div class='respPicDiv'><img src='img/responseButtonOffersNo0L1.png' class='respPic'></div></div>","null","15","Great Grapes","Fruit/grapes.png","Lost","0.65,0.2","8","0.65","197","44","",""
"html-keyboard-response","141","294993","0.0-11.0-3.43","63e316f79fdeba5ba50385e1","bdp_rwlrn","Wed Mar 15 2023 17:47:46 GMT-1000 (Hawaii-Aleutian Standard Time)","510960","Untrustworthy,Trustworthy","","null","","","","feedback","","<div class='respPicDiv'><img src='img/responseButtonOffersNo0_wht.png' class='respPic'></div><div class='trialDiv'><img src='Fruit/grapes.png'><br><font class='baseline'><strong>Great Grapes</strong><p><strong><font class='negOutcome'>You LOST</font><p>You bet: 1</strong></font> &nbsp; &nbsp; &nbsp; &nbsp; &nbsp; &nbsp;<font class='negOutcome'>You receive: <strong>0</strong></font></div>","null","15","Great Grapes","Fruit/grapes.png","Lost","0.65,0.2","8","0.65","197","44","",""
"html-keyboard-response","142","296009","0.0-11.0-1.44","63e316f79fdeba5ba50385e1","bdp_rwlrn","Wed Mar 15 2023 17:47:46 GMT-1000 (Hawaii-Aleutian Standard Time)","510960","Untrustworthy,Trustworthy","","1016","","","","decision","","<div class='trialDiv'><img src='Fruit/watermelon.png'><br><font class='baseline'><strong>Watermelon Win$</strong><p>Choose number of points to bet.</font><div class='respPicDiv'><img src='img/responseButtonOffersNo0L.png' class='respPic'></div></div>","2","15","Watermelon Win$","Fruit/watermelon.png","Won","0.35,0.8","10","0.35","202","45","",""
"html-keyboard-response","143","296264","0.0-11.0-2.44","63e316f79fdeba5ba50385e1","bdp_rwlrn","Wed Mar 15 2023 17:47:46 GMT-1000 (Hawaii-Aleutian Standard Time)","510960","Untrustworthy,Trustworthy","","null","","","","decisionFB","","<div class='trialDiv'><img src='Fruit/watermelon.png'><br><font class='baseline'><strong>Watermelon Win$</strong><p>Choose number of points to bet.</font><div class='respPicDiv'><img src='img/responseButtonOffersNo0L2.png' class='respPic'></div></div>","null","15","Watermelon Win$","Fruit/watermelon.png","Won","0.35,0.8","10","0.35","200","45","",""
"html-keyboard-response","144","297272","0.0-11.0-3.44","63e316f79fdeba5ba50385e1","bdp_rwlrn","Wed Mar 15 2023 17:47:46 GMT-1000 (Hawaii-Aleutian Standard Time)","510960","Untrustworthy,Trustworthy","","null","","","","feedback","","<div class='respPicDiv'><img src='img/responseButtonOffersNo0_wht.png' class='respPic'></div><div class='trialDiv'><img src='Fruit/watermelon.png'><br><font class='baseline'><strong>Watermelon Win$</strong><p><strong><font class='posOutcome'>You WON</font><p>You bet: 2</strong></font> &nbsp; &nbsp; &nbsp; &nbsp; &nbsp; &nbsp;<font class='posOutcome'>you receive: <strong>4</strong></font></div>","null","15","Watermelon Win$","Fruit/watermelon.png","Won","0.35,0.8","10","0.35","204","45","",""
"html-keyboard-response","145","297882","0.0-11.0-1.45","63e316f79fdeba5ba50385e1","bdp_rwlrn","Wed Mar 15 2023 17:47:46 GMT-1000 (Hawaii-Aleutian Standard Time)","510960","Untrustworthy,Trustworthy","","610","","","","decision","","<div class='trialDiv'><img src='Fruit/grapes.png'><br><font class='baseline'><strong>Great Grapes</strong><p>Choose number of points to bet.</font><div class='respPicDiv'><img src='img/responseButtonOffersNo0L.png' class='respPic'></div></div>","1","16","Great Grapes","Fruit/grapes.png","Lost","0.65,0.2","8","0.65","209","46","",""
"html-keyboard-response","146","298137","0.0-11.0-2.45","63e316f79fdeba5ba50385e1","bdp_rwlrn","Wed Mar 15 2023 17:47:46 GMT-1000 (Hawaii-Aleutian Standard Time)","510960","Untrustworthy,Trustworthy","","null","","","","decisionFB","","<div class='trialDiv'><img src='Fruit/grapes.png'><br><font class='baseline'><strong>Great Grapes</strong><p>Choose number of points to bet.</font><div class='respPicDiv'><img src='img/responseButtonOffersNo0L1.png' class='respPic'></div></div>","null","16","Great Grapes","Fruit/grapes.png","Lost","0.65,0.2","8","0.65","208","46","",""
"html-keyboard-response","147","299145","0.0-11.0-3.45","63e316f79fdeba5ba50385e1","bdp_rwlrn","Wed Mar 15 2023 17:47:46 GMT-1000 (Hawaii-Aleutian Standard Time)","510960","Untrustworthy,Trustworthy","","null","","","","feedback","","<div class='respPicDiv'><img src='img/responseButtonOffersNo0_wht.png' class='respPic'></div><div class='trialDiv'><img src='Fruit/grapes.png'><br><font class='baseline'><strong>Great Grapes</strong><p><strong><font class='negOutcome'>You LOST</font><p>You bet: 1</strong></font> &nbsp; &nbsp; &nbsp; &nbsp; &nbsp; &nbsp;<font class='negOutcome'>You receive: <strong>0</strong></font></div>","null","16","Great Grapes","Fruit/grapes.png","Lost","0.65,0.2","8","0.65","208","46","",""
"html-keyboard-response","148","300128","0.0-11.0-1.46","63e316f79fdeba5ba50385e1","bdp_rwlrn","Wed Mar 15 2023 17:47:46 GMT-1000 (Hawaii-Aleutian Standard Time)","510960","Untrustworthy,Trustworthy","","982","","","","decision","","<div class='trialDiv'><img src='Fruit/watermelon.png'><br><font class='baseline'><strong>Watermelon Win$</strong><p>Choose number of points to bet.</font><div class='respPicDiv'><img src='img/responseButtonOffersNo0L.png' class='respPic'></div></div>","1","16","Watermelon Win$","Fruit/watermelon.png","Lost","0.35,0.8","10","0.35","213","47","",""
"html-keyboard-response","149","300385","0.0-11.0-2.46","63e316f79fdeba5ba50385e1","bdp_rwlrn","Wed Mar 15 2023 17:47:46 GMT-1000 (Hawaii-Aleutian Standard Time)","510960","Untrustworthy,Trustworthy","","null","","","","decisionFB","","<div class='trialDiv'><img src='Fruit/watermelon.png'><br><font class='baseline'><strong>Watermelon Win$</strong><p>Choose number of points to bet.</font><div class='respPicDiv'><img src='img/responseButtonOffersNo0L1.png' class='respPic'></div></div>","null","16","Watermelon Win$","Fruit/watermelon.png","Lost","0.35,0.8","10","0.35","212","47","",""
"html-keyboard-response","150","301392","0.0-11.0-3.46","63e316f79fdeba5ba50385e1","bdp_rwlrn","Wed Mar 15 2023 17:47:46 GMT-1000 (Hawaii-Aleutian Standard Time)","510960","Untrustworthy,Trustworthy","","null","","","","feedback","","<div class='respPicDiv'><img src='img/responseButtonOffersNo0_wht.png' class='respPic'></div><div class='trialDiv'><img src='Fruit/watermelon.png'><br><font class='baseline'><strong>Watermelon Win$</strong><p><strong><font class='negOutcome'>You LOST</font><p>You bet: 1</strong></font> &nbsp; &nbsp; &nbsp; &nbsp; &nbsp; &nbsp;<font class='negOutcome'>You receive: <strong>0</strong></font></div>","null","16","Watermelon Win$","Fruit/watermelon.png","Lost","0.35,0.8","10","0.35","212","47","",""
"html-keyboard-response","151","301933","0.0-11.0-1.47","63e316f79fdeba5ba50385e1","bdp_rwlrn","Wed Mar 15 2023 17:47:46 GMT-1000 (Hawaii-Aleutian Standard Time)","510960","Untrustworthy,Trustworthy","","540","","","","decision","","<div class='trialDiv'><img src='Fruit/bananas.png'><br><font class='baseline'><strong>Banana Bonanza</strong><p>Choose number of points to bet.</font><div class='respPicDiv'><img src='img/responseButtonOffersNo0L.png' class='respPic'></div></div>","5","16","Banana Bonanza","Fruit/bananas.png","Lost","0.65,0.35","10","0.65","217","48","",""
"html-keyboard-response","152","302184","0.0-11.0-2.47","63e316f79fdeba5ba50385e1","bdp_rwlrn","Wed Mar 15 2023 17:47:46 GMT-1000 (Hawaii-Aleutian Standard Time)","510960","Untrustworthy,Trustworthy","","null","","","","decisionFB","","<div class='trialDiv'><img src='Fruit/bananas.png'><br><font class='baseline'><strong>Banana Bonanza</strong><p>Choose number of points to bet.</font><div class='respPicDiv'><img src='img/responseButtonOffersNo0L5.png' class='respPic'></div></div>","null","16","Banana Bonanza","Fruit/bananas.png","Lost","0.65,0.35","10","0.65","212","48","",""
"html-keyboard-response","153","303192","0.0-11.0-3.47","63e316f79fdeba5ba50385e1","bdp_rwlrn","Wed Mar 15 2023 17:47:46 GMT-1000 (Hawaii-Aleutian Standard Time)","510960","Untrustworthy,Trustworthy","","null","","","","feedback","","<div class='respPicDiv'><img src='img/responseButtonOffersNo0_wht.png' class='respPic'></div><div class='trialDiv'><img src='Fruit/bananas.png'><br><font class='baseline'><strong>Banana Bonanza</strong><p><strong><font class='negOutcome'>You LOST</font><p>You bet: 5</strong></font> &nbsp; &nbsp; &nbsp; &nbsp; &nbsp; &nbsp;<font class='negOutcome'>You receive: <strong>0</strong></font></div>","null","16","Banana Bonanza","Fruit/bananas.png","Lost","0.65,0.35","10","0.65","212","48","",""
"html-keyboard-response","154","303699","0.0-11.0-1.48","63e316f79fdeba5ba50385e1","bdp_rwlrn","Wed Mar 15 2023 17:47:46 GMT-1000 (Hawaii-Aleutian Standard Time)","510960","Untrustworthy,Trustworthy","","506","","","","decision","","<div class='trialDiv'><img src='Fruit/watermelon.png'><br><font class='baseline'><strong>Watermelon Win$</strong><p>Choose number of points to bet.</font><div class='respPicDiv'><img src='img/responseButtonOffersNo0L.png' class='respPic'></div></div>","1","17","Watermelon Win$","Fruit/watermelon.png","Won","0.35,0.8","10","0.35","217","49","",""
"html-keyboard-response","155","303953","0.0-11.0-2.48","63e316f79fdeba5ba50385e1","bdp_rwlrn","Wed Mar 15 2023 17:47:46 GMT-1000 (Hawaii-Aleutian Standard Time)","510960","Untrustworthy,Trustworthy","","null","","","","decisionFB","","<div class='trialDiv'><img src='Fruit/watermelon.png'><br><font class='baseline'><strong>Watermelon Win$</strong><p>Choose number of points to bet.</font><div class='respPicDiv'><img src='img/responseButtonOffersNo0L1.png' class='respPic'></div></div>","null","17","Watermelon Win$","Fruit/watermelon.png","Won","0.35,0.8","10","0.35","216","49","",""
"html-keyboard-response","156","304961","0.0-11.0-3.48","63e316f79fdeba5ba50385e1","bdp_rwlrn","Wed Mar 15 2023 17:47:46 GMT-1000 (Hawaii-Aleutian Standard Time)","510960","Untrustworthy,Trustworthy","","null","","","","feedback","","<div class='respPicDiv'><img src='img/responseButtonOffersNo0_wht.png' class='respPic'></div><div class='trialDiv'><img src='Fruit/watermelon.png'><br><font class='baseline'><strong>Watermelon Win$</strong><p><strong><font class='posOutcome'>You WON</font><p>You bet: 1</strong></font> &nbsp; &nbsp; &nbsp; &nbsp; &nbsp; &nbsp;<font class='posOutcome'>you receive: <strong>2</strong></font></div>","null","17","Watermelon Win$","Fruit/watermelon.png","Won","0.35,0.8","10","0.35","218","49","",""
"html-keyboard-response","157","305809","0.0-11.0-1.49","63e316f79fdeba5ba50385e1","bdp_rwlrn","Wed Mar 15 2023 17:47:46 GMT-1000 (Hawaii-Aleutian Standard Time)","510960","Untrustworthy,Trustworthy","","848","","","","decision","","<div class='trialDiv'><img src='Fruit/bananas.png'><br><font class='baseline'><strong>Banana Bonanza</strong><p>Choose number of points to bet.</font><div class='respPicDiv'><img src='img/responseButtonOffersNo0L.png' class='respPic'></div></div>","2","17","Banana Bonanza","Fruit/bananas.png","Won","0.65,0.35","10","0.65","223","50","",""
"html-keyboard-response","158","306065","0.0-11.0-2.49","63e316f79fdeba5ba50385e1","bdp_rwlrn","Wed Mar 15 2023 17:47:46 GMT-1000 (Hawaii-Aleutian Standard Time)","510960","Untrustworthy,Trustworthy","","null","","","","decisionFB","","<div class='trialDiv'><img src='Fruit/bananas.png'><br><font class='baseline'><strong>Banana Bonanza</strong><p>Choose number of points to bet.</font><div class='respPicDiv'><img src='img/responseButtonOffersNo0L2.png' class='respPic'></div></div>","null","17","Banana Bonanza","Fruit/bananas.png","Won","0.65,0.35","10","0.65","221","50","",""
"html-keyboard-response","159","307072","0.0-11.0-3.49","63e316f79fdeba5ba50385e1","bdp_rwlrn","Wed Mar 15 2023 17:47:46 GMT-1000 (Hawaii-Aleutian Standard Time)","510960","Untrustworthy,Trustworthy","","null","","","","feedback","","<div class='respPicDiv'><img src='img/responseButtonOffersNo0_wht.png' class='respPic'></div><div class='trialDiv'><img src='Fruit/bananas.png'><br><font class='baseline'><strong>Banana Bonanza</strong><p><strong><font class='posOutcome'>You WON</font><p>You bet: 2</strong></font> &nbsp; &nbsp; &nbsp; &nbsp; &nbsp; &nbsp;<font class='posOutcome'>you receive: <strong>4</strong></font></div>","null","17","Banana Bonanza","Fruit/bananas.png","Won","0.65,0.35","10","0.65","225","50","",""
