"trial_type","trial_index","time_elapsed","internal_node_id","subject_id","task","startTime","totalTime","labels","view_history","rt","event","trial","time","trialtype","success","stimulus","key_press","ltround","name","fileID","outcome","lottotype","lottoswpt","lottocurrpshare","point_total","round","faceID","face"
"pavlovia","0","15","0.0-0.0","5cd10012174fc60016c10ffd","bdp_rwlrn","Sat Apr 08 2023 12:33:50 GMT-0400 (Eastern Daylight Time)","506296","Trustworthy,Untrustworthy","","","","","","","","","","","","","","","","","","","",""
"instructions","1","5134","0.0-1.0","5cd10012174fc60016c10ffd","bdp_rwlrn","Sat Apr 08 2023 12:33:50 GMT-0400 (Eastern Daylight Time)","506296","Trustworthy,Untrustworthy","[{""page_index"":0,""viewing_time"":5115}]","5115","","","","","","","","","","","","","","","","","",""
"","","","","5cd10012174fc60016c10ffd","bdp_rwlrn","Sat Apr 08 2023 12:33:50 GMT-0400 (Eastern Daylight Time)","506296","Trustworthy,Untrustworthy","","","fullscreenenter","2","9848","fullscreenenter","","","","","","","","","","","","","",""
"fullscreen","2","10862","0.0-2.0","5cd10012174fc60016c10ffd","bdp_rwlrn","Sat Apr 08 2023 12:33:50 GMT-0400 (Eastern Daylight Time)","506296","Trustworthy,Untrustworthy","","","","","","","true","","","","","","","","","","","","",""
"instructions","3","108260","0.0-4.0","5cd10012174fc60016c10ffd","bdp_rwlrn","Sat Apr 08 2023 12:33:50 GMT-0400 (Eastern Daylight Time)","506296","Trustworthy,Untrustworthy","[{""page_index"":0,""viewing_time"":19999},{""page_index"":1,""viewing_time"":15735},{""page_index"":2,""viewing_time"":19655},{""page_index"":3,""viewing_time"":8752},{""page_index"":4,""viewing_time"":21880},{""page_index"":5,""viewing_time"":11371}]","97393","","","","","","","","","","","","","","","","","",""
"html-keyboard-response","4","113894","0.0-5.0","5cd10012174fc60016c10ffd","bdp_rwlrn","Sat Apr 08 2023 12:33:50 GMT-0400 (Eastern Daylight Time)","506296","Trustworthy,Untrustworthy","","5627","","","","","","<div class='header' style='text-align:left; position: absolute; top: 5%; left: 5%;'><small>Task 1 of 5</small></div><div class='instruxDiv'><p><strong>1) What is the maximum number of points you can choose to bet on a lottery?</strong></p><p>a) 0</p><p>b) 1</p><p>c) 5</p>","C","","","","","","","","","","",""
"html-keyboard-response","5","117731","0.0-6.0","5cd10012174fc60016c10ffd","bdp_rwlrn","Sat Apr 08 2023 12:33:50 GMT-0400 (Eastern Daylight Time)","506296","Trustworthy,Untrustworthy","","3718","","","","","","<div class='header' style='text-align:left; position: absolute; top: 5%; left: 5%;'><small>Task 1 of 5</small></div><div class='instruxDiv'><p><strong>1) What is the maximum number of points you can choose to bet on a lottery?</strong></p><p>a) 1</p><p>b) 1</p><p style='color:#00FF00'>c) 5</p><h3 style='color:#00FF00'>Correct!</h3><h3 class='center-content'>The correct response is c).</h3><h3 class='center-content'>The maximum number of points you can choose to bet on a lottery is 5 points.</h3><p><em>Press SPACEBAR to continue</em></p></div>"," ","","","","","","","","","","",""
"html-keyboard-response","6","122336","0.0-7.0","5cd10012174fc60016c10ffd","bdp_rwlrn","Sat Apr 08 2023 12:33:50 GMT-0400 (Eastern Daylight Time)","506296","Trustworthy,Untrustworthy","","4497","","","","","","<div class='header' style='text-align:left; position: absolute; top: 5%; left: 5%;'><small>Task 1 of 5</small></div><div class='instruxDiv'><p><strong>2) How many points can you win each round?</strong></p><p>a) 10 points</p><p>b) Double what you bet</p><p>c) Quadruple what you bet</p>","B","","","","","","","","","","",""
"html-keyboard-response","7","124249","0.0-8.0","5cd10012174fc60016c10ffd","bdp_rwlrn","Sat Apr 08 2023 12:33:50 GMT-0400 (Eastern Daylight Time)","506296","Trustworthy,Untrustworthy","","1796","","","","","","<div class='header' style='text-align:left; position: absolute; top: 5%; left: 5%;'><small>Task 1 of 5</small></div><div class='instruxDiv'><p><strong>2) How many points can you win each round?</strong></p><p>a) 10 points</p><p style='color:#00FF00'>b) Double what you bet</p><p>c) Quadruple what you bet</p><h3 style='color:#00FF00'>Correct!</h3><h3 class='center-content'>The correct response is b).</h3><h3 class='center-content'>You can win double the amount of points you bet.</h3><p><em>Press SPACEBAR to continue</em></p></div>"," ","","","","","","","","","","",""
"html-keyboard-response","8","129372","0.0-9.0","5cd10012174fc60016c10ffd","bdp_rwlrn","Sat Apr 08 2023 12:33:50 GMT-0400 (Eastern Daylight Time)","506296","Trustworthy,Untrustworthy","","null","","","","","","<div class='header' style='text-align:left; position: absolute; top: 5%; left: 5%;'><small>Task 1 of 5</small></div><div class='instruxDiv'><p>Thank you for completing the quiz<p>These are the actual lotteries you will be playing in the next block:<p><div class='tc' align='center'><img class='introPic' src='Fruit/lime.png'><br><strong>Limin' Large</strong></div><div class='bl' align='center'><img class='introPic' src='Fruit/pears.png'><br><strong>Pears Aplenty</strong></div><div class='br' align='center'><img class='introPic' src='Fruit/plums1.png'><br><strong>Plum Powerball</strong></div></div><p>Across <strong>66 rounds</strong> you will play each lottery <strong>22 times</strong> (in random order).<p style='align:center; color:white'><font <em>Press SPACEBAR to continue</em></p>","null","","","","","","","","","","",""
"instructions","9","136740","0.0-10.0","5cd10012174fc60016c10ffd","bdp_rwlrn","Sat Apr 08 2023 12:33:50 GMT-0400 (Eastern Daylight Time)","506296","Trustworthy,Untrustworthy","[{""page_index"":0,""viewing_time"":4311},{""page_index"":1,""viewing_time"":3056}]","7368","","","","","","","","","","","","","","","","","",""
"html-keyboard-response","10","139747","0.0-11.0-1.0","5cd10012174fc60016c10ffd","bdp_rwlrn","Sat Apr 08 2023 12:33:50 GMT-0400 (Eastern Daylight Time)","506296","Trustworthy,Untrustworthy","","2898","","","","decision","","<div class='trialDiv'><img src='Fruit/plums1.png'><br><font class='baseline'><strong>Plum Powerball</strong><p>Choose number of points to bet.</font><div class='respPicDiv'><img src='img/responseButtonOffersNo0L.png' class='respPic'></div></div>","3","1","Plum Powerball","Fruit/plums1.png","Lost","0.35,0.65","11","0.35","5","1","",""
"html-keyboard-response","11","140015","0.0-11.0-2.0","5cd10012174fc60016c10ffd","bdp_rwlrn","Sat Apr 08 2023 12:33:50 GMT-0400 (Eastern Daylight Time)","506296","Trustworthy,Untrustworthy","","null","","","","decisionFB","","<div class='trialDiv'><img src='Fruit/plums1.png'><br><font class='baseline'><strong>Plum Powerball</strong><p>Choose number of points to bet.</font><div class='respPicDiv'><img src='img/responseButtonOffersNo0L3.png' class='respPic'></div></div>","null","1","Plum Powerball","Fruit/plums1.png","Lost","0.35,0.65","11","0.35","2","1","",""
"html-keyboard-response","12","141031","0.0-11.0-3.0","5cd10012174fc60016c10ffd","bdp_rwlrn","Sat Apr 08 2023 12:33:50 GMT-0400 (Eastern Daylight Time)","506296","Trustworthy,Untrustworthy","","null","","","","feedback","","<div class='respPicDiv'><img src='img/responseButtonOffersNo0_wht.png' class='respPic'></div><div class='trialDiv'><img src='Fruit/plums1.png'><br><font class='baseline'><strong>Plum Powerball</strong><p><strong><font class='negOutcome'>You LOST</font><p>You bet: 3</strong></font> &nbsp; &nbsp; &nbsp; &nbsp; &nbsp; &nbsp;<font class='negOutcome'>You receive: <strong>0</strong></font></div>","null","1","Plum Powerball","Fruit/plums1.png","Lost","0.35,0.65","11","0.35","2","1","",""
"html-keyboard-response","13","142479","0.0-11.0-1.1","5cd10012174fc60016c10ffd","bdp_rwlrn","Sat Apr 08 2023 12:33:50 GMT-0400 (Eastern Daylight Time)","506296","Trustworthy,Untrustworthy","","1444","","","","decision","","<div class='trialDiv'><img src='Fruit/lime.png'><br><font class='baseline'><strong>Limin' Large</strong><p>Choose number of points to bet.</font><div class='respPicDiv'><img src='img/responseButtonOffersNo0L.png' class='respPic'></div></div>","2","1","Limin' Large","Fruit/lime.png","Lost","0.35,0.8","10","0.35","7","2","",""
"html-keyboard-response","14","142735","0.0-11.0-2.1","5cd10012174fc60016c10ffd","bdp_rwlrn","Sat Apr 08 2023 12:33:50 GMT-0400 (Eastern Daylight Time)","506296","Trustworthy,Untrustworthy","","null","","","","decisionFB","","<div class='trialDiv'><img src='Fruit/lime.png'><br><font class='baseline'><strong>Limin' Large</strong><p>Choose number of points to bet.</font><div class='respPicDiv'><img src='img/responseButtonOffersNo0L2.png' class='respPic'></div></div>","null","1","Limin' Large","Fruit/lime.png","Lost","0.35,0.8","10","0.35","5","2","",""
"html-keyboard-response","15","143752","0.0-11.0-3.1","5cd10012174fc60016c10ffd","bdp_rwlrn","Sat Apr 08 2023 12:33:50 GMT-0400 (Eastern Daylight Time)","506296","Trustworthy,Untrustworthy","","null","","","","feedback","","<div class='respPicDiv'><img src='img/responseButtonOffersNo0_wht.png' class='respPic'></div><div class='trialDiv'><img src='Fruit/lime.png'><br><font class='baseline'><strong>Limin' Large</strong><p><strong><font class='negOutcome'>You LOST</font><p>You bet: 2</strong></font> &nbsp; &nbsp; &nbsp; &nbsp; &nbsp; &nbsp;<font class='negOutcome'>You receive: <strong>0</strong></font></div>","null","1","Limin' Large","Fruit/lime.png","Lost","0.35,0.8","10","0.35","5","2","",""
"html-keyboard-response","16","145045","0.0-11.0-1.2","5cd10012174fc60016c10ffd","bdp_rwlrn","Sat Apr 08 2023 12:33:50 GMT-0400 (Eastern Daylight Time)","506296","Trustworthy,Untrustworthy","","1290","","","","decision","","<div class='trialDiv'><img src='Fruit/pears.png'><br><font class='baseline'><strong>Pears Aplenty</strong><p>Choose number of points to bet.</font><div class='respPicDiv'><img src='img/responseButtonOffersNo0L.png' class='respPic'></div></div>","4","1","Pears Aplenty","Fruit/pears.png","Won","0.65,0.2","8","0.65","10","3","",""
"html-keyboard-response","17","145299","0.0-11.0-2.2","5cd10012174fc60016c10ffd","bdp_rwlrn","Sat Apr 08 2023 12:33:50 GMT-0400 (Eastern Daylight Time)","506296","Trustworthy,Untrustworthy","","null","","","","decisionFB","","<div class='trialDiv'><img src='Fruit/pears.png'><br><font class='baseline'><strong>Pears Aplenty</strong><p>Choose number of points to bet.</font><div class='respPicDiv'><img src='img/responseButtonOffersNo0L4.png' class='respPic'></div></div>","null","1","Pears Aplenty","Fruit/pears.png","Won","0.65,0.2","8","0.65","6","3","",""
"html-keyboard-response","18","146315","0.0-11.0-3.2","5cd10012174fc60016c10ffd","bdp_rwlrn","Sat Apr 08 2023 12:33:50 GMT-0400 (Eastern Daylight Time)","506296","Trustworthy,Untrustworthy","","null","","","","feedback","","<div class='respPicDiv'><img src='img/responseButtonOffersNo0_wht.png' class='respPic'></div><div class='trialDiv'><img src='Fruit/pears.png'><br><font class='baseline'><strong>Pears Aplenty</strong><p><strong><font class='posOutcome'>You WON</font><p>You bet: 4</strong></font> &nbsp; &nbsp; &nbsp; &nbsp; &nbsp; &nbsp;<font class='posOutcome'>you receive: <strong>8</strong></font></div>","null","1","Pears Aplenty","Fruit/pears.png","Won","0.65,0.2","8","0.65","14","3","",""
"html-keyboard-response","19","150152","0.0-11.0-1.3","5cd10012174fc60016c10ffd","bdp_rwlrn","Sat Apr 08 2023 12:33:50 GMT-0400 (Eastern Daylight Time)","506296","Trustworthy,Untrustworthy","","3834","","","","decision","","<div class='trialDiv'><img src='Fruit/plums1.png'><br><font class='baseline'><strong>Plum Powerball</strong><p>Choose number of points to bet.</font><div class='respPicDiv'><img src='img/responseButtonOffersNo0L.png' class='respPic'></div></div>","5","2","Plum Powerball","Fruit/plums1.png","Lost","0.35,0.65","11","0.35","19","4","",""
"html-keyboard-response","20","150410","0.0-11.0-2.3","5cd10012174fc60016c10ffd","bdp_rwlrn","Sat Apr 08 2023 12:33:50 GMT-0400 (Eastern Daylight Time)","506296","Trustworthy,Untrustworthy","","null","","","","decisionFB","","<div class='trialDiv'><img src='Fruit/plums1.png'><br><font class='baseline'><strong>Plum Powerball</strong><p>Choose number of points to bet.</font><div class='respPicDiv'><img src='img/responseButtonOffersNo0L5.png' class='respPic'></div></div>","null","2","Plum Powerball","Fruit/plums1.png","Lost","0.35,0.65","11","0.35","14","4","",""
"html-keyboard-response","21","151425","0.0-11.0-3.3","5cd10012174fc60016c10ffd","bdp_rwlrn","Sat Apr 08 2023 12:33:50 GMT-0400 (Eastern Daylight Time)","506296","Trustworthy,Untrustworthy","","null","","","","feedback","","<div class='respPicDiv'><img src='img/responseButtonOffersNo0_wht.png' class='respPic'></div><div class='trialDiv'><img src='Fruit/plums1.png'><br><font class='baseline'><strong>Plum Powerball</strong><p><strong><font class='negOutcome'>You LOST</font><p>You bet: 5</strong></font> &nbsp; &nbsp; &nbsp; &nbsp; &nbsp; &nbsp;<font class='negOutcome'>You receive: <strong>0</strong></font></div>","null","2","Plum Powerball","Fruit/plums1.png","Lost","0.35,0.65","11","0.35","14","4","",""
"html-keyboard-response","22","152341","0.0-11.0-1.4","5cd10012174fc60016c10ffd","bdp_rwlrn","Sat Apr 08 2023 12:33:50 GMT-0400 (Eastern Daylight Time)","506296","Trustworthy,Untrustworthy","","911","","","","decision","","<div class='trialDiv'><img src='Fruit/pears.png'><br><font class='baseline'><strong>Pears Aplenty</strong><p>Choose number of points to bet.</font><div class='respPicDiv'><img src='img/responseButtonOffersNo0L.png' class='respPic'></div></div>","4","2","Pears Aplenty","Fruit/pears.png","Won","0.65,0.2","8","0.65","19","5","",""
"html-keyboard-response","23","152598","0.0-11.0-2.4","5cd10012174fc60016c10ffd","bdp_rwlrn","Sat Apr 08 2023 12:33:50 GMT-0400 (Eastern Daylight Time)","506296","Trustworthy,Untrustworthy","","null","","","","decisionFB","","<div class='trialDiv'><img src='Fruit/pears.png'><br><font class='baseline'><strong>Pears Aplenty</strong><p>Choose number of points to bet.</font><div class='respPicDiv'><img src='img/responseButtonOffersNo0L4.png' class='respPic'></div></div>","null","2","Pears Aplenty","Fruit/pears.png","Won","0.65,0.2","8","0.65","15","5","",""
"html-keyboard-response","24","153615","0.0-11.0-3.4","5cd10012174fc60016c10ffd","bdp_rwlrn","Sat Apr 08 2023 12:33:50 GMT-0400 (Eastern Daylight Time)","506296","Trustworthy,Untrustworthy","","null","","","","feedback","","<div class='respPicDiv'><img src='img/responseButtonOffersNo0_wht.png' class='respPic'></div><div class='trialDiv'><img src='Fruit/pears.png'><br><font class='baseline'><strong>Pears Aplenty</strong><p><strong><font class='posOutcome'>You WON</font><p>You bet: 4</strong></font> &nbsp; &nbsp; &nbsp; &nbsp; &nbsp; &nbsp;<font class='posOutcome'>you receive: <strong>8</strong></font></div>","null","2","Pears Aplenty","Fruit/pears.png","Won","0.65,0.2","8","0.65","23","5","",""
"html-keyboard-response","25","155893","0.0-11.0-1.5","5cd10012174fc60016c10ffd","bdp_rwlrn","Sat Apr 08 2023 12:33:50 GMT-0400 (Eastern Daylight Time)","506296","Trustworthy,Untrustworthy","","2275","","","","decision","","<div class='trialDiv'><img src='Fruit/lime.png'><br><font class='baseline'><strong>Limin' Large</strong><p>Choose number of points to bet.</font><div class='respPicDiv'><img src='img/responseButtonOffersNo0L.png' class='respPic'></div></div>","3","2","Limin' Large","Fruit/lime.png","Won","0.35,0.8","10","0.35","28","6","",""
"html-keyboard-response","26","156160","0.0-11.0-2.5","5cd10012174fc60016c10ffd","bdp_rwlrn","Sat Apr 08 2023 12:33:50 GMT-0400 (Eastern Daylight Time)","506296","Trustworthy,Untrustworthy","","null","","","","decisionFB","","<div class='trialDiv'><img src='Fruit/lime.png'><br><font class='baseline'><strong>Limin' Large</strong><p>Choose number of points to bet.</font><div class='respPicDiv'><img src='img/responseButtonOffersNo0L3.png' class='respPic'></div></div>","null","2","Limin' Large","Fruit/lime.png","Won","0.35,0.8","10","0.35","25","6","",""
"html-keyboard-response","27","157177","0.0-11.0-3.5","5cd10012174fc60016c10ffd","bdp_rwlrn","Sat Apr 08 2023 12:33:50 GMT-0400 (Eastern Daylight Time)","506296","Trustworthy,Untrustworthy","","null","","","","feedback","","<div class='respPicDiv'><img src='img/responseButtonOffersNo0_wht.png' class='respPic'></div><div class='trialDiv'><img src='Fruit/lime.png'><br><font class='baseline'><strong>Limin' Large</strong><p><strong><font class='posOutcome'>You WON</font><p>You bet: 3</strong></font> &nbsp; &nbsp; &nbsp; &nbsp; &nbsp; &nbsp;<font class='posOutcome'>you receive: <strong>6</strong></font></div>","null","2","Limin' Large","Fruit/lime.png","Won","0.35,0.8","10","0.35","31","6","",""
"html-keyboard-response","28","159513","0.0-11.0-1.6","5cd10012174fc60016c10ffd","bdp_rwlrn","Sat Apr 08 2023 12:33:50 GMT-0400 (Eastern Daylight Time)","506296","Trustworthy,Untrustworthy","","2333","","","","decision","","<div class='trialDiv'><img src='Fruit/plums1.png'><br><font class='baseline'><strong>Plum Powerball</strong><p>Choose number of points to bet.</font><div class='respPicDiv'><img src='img/responseButtonOffersNo0L.png' class='respPic'></div></div>","5","3","Plum Powerball","Fruit/plums1.png","Won","0.35,0.65","11","0.35","36","7","",""
"html-keyboard-response","29","159773","0.0-11.0-2.6","5cd10012174fc60016c10ffd","bdp_rwlrn","Sat Apr 08 2023 12:33:50 GMT-0400 (Eastern Daylight Time)","506296","Trustworthy,Untrustworthy","","null","","","","decisionFB","","<div class='trialDiv'><img src='Fruit/plums1.png'><br><font class='baseline'><strong>Plum Powerball</strong><p>Choose number of points to bet.</font><div class='respPicDiv'><img src='img/responseButtonOffersNo0L5.png' class='respPic'></div></div>","null","3","Plum Powerball","Fruit/plums1.png","Won","0.35,0.65","11","0.35","31","7","",""
"html-keyboard-response","30","160788","0.0-11.0-3.6","5cd10012174fc60016c10ffd","bdp_rwlrn","Sat Apr 08 2023 12:33:50 GMT-0400 (Eastern Daylight Time)","506296","Trustworthy,Untrustworthy","","null","","","","feedback","","<div class='respPicDiv'><img src='img/responseButtonOffersNo0_wht.png' class='respPic'></div><div class='trialDiv'><img src='Fruit/plums1.png'><br><font class='baseline'><strong>Plum Powerball</strong><p><strong><font class='posOutcome'>You WON</font><p>You bet: 5</strong></font> &nbsp; &nbsp; &nbsp; &nbsp; &nbsp; &nbsp;<font class='posOutcome'>you receive: <strong>10</strong></font></div>","null","3","Plum Powerball","Fruit/plums1.png","Won","0.35,0.65","11","0.35","41","7","",""
"html-keyboard-response","31","162361","0.0-11.0-1.7","5cd10012174fc60016c10ffd","bdp_rwlrn","Sat Apr 08 2023 12:33:50 GMT-0400 (Eastern Daylight Time)","506296","Trustworthy,Untrustworthy","","1569","","","","decision","","<div class='trialDiv'><img src='Fruit/lime.png'><br><font class='baseline'><strong>Limin' Large</strong><p>Choose number of points to bet.</font><div class='respPicDiv'><img src='img/responseButtonOffersNo0L.png' class='respPic'></div></div>","3","3","Limin' Large","Fruit/lime.png","Won","0.35,0.8","10","0.35","46","8","",""
"html-keyboard-response","32","162617","0.0-11.0-2.7","5cd10012174fc60016c10ffd","bdp_rwlrn","Sat Apr 08 2023 12:33:50 GMT-0400 (Eastern Daylight Time)","506296","Trustworthy,Untrustworthy","","null","","","","decisionFB","","<div class='trialDiv'><img src='Fruit/lime.png'><br><font class='baseline'><strong>Limin' Large</strong><p>Choose number of points to bet.</font><div class='respPicDiv'><img src='img/responseButtonOffersNo0L3.png' class='respPic'></div></div>","null","3","Limin' Large","Fruit/lime.png","Won","0.35,0.8","10","0.35","43","8","",""
"html-keyboard-response","33","163633","0.0-11.0-3.7","5cd10012174fc60016c10ffd","bdp_rwlrn","Sat Apr 08 2023 12:33:50 GMT-0400 (Eastern Daylight Time)","506296","Trustworthy,Untrustworthy","","null","","","","feedback","","<div class='respPicDiv'><img src='img/responseButtonOffersNo0_wht.png' class='respPic'></div><div class='trialDiv'><img src='Fruit/lime.png'><br><font class='baseline'><strong>Limin' Large</strong><p><strong><font class='posOutcome'>You WON</font><p>You bet: 3</strong></font> &nbsp; &nbsp; &nbsp; &nbsp; &nbsp; &nbsp;<font class='posOutcome'>you receive: <strong>6</strong></font></div>","null","3","Limin' Large","Fruit/lime.png","Won","0.35,0.8","10","0.35","49","8","",""
"html-keyboard-response","34","165087","0.0-11.0-1.8","5cd10012174fc60016c10ffd","bdp_rwlrn","Sat Apr 08 2023 12:33:50 GMT-0400 (Eastern Daylight Time)","506296","Trustworthy,Untrustworthy","","1450","","","","decision","","<div class='trialDiv'><img src='Fruit/pears.png'><br><font class='baseline'><strong>Pears Aplenty</strong><p>Choose number of points to bet.</font><div class='respPicDiv'><img src='img/responseButtonOffersNo0L.png' class='respPic'></div></div>","2","3","Pears Aplenty","Fruit/pears.png","Won","0.65,0.2","8","0.65","54","9","",""
"html-keyboard-response","35","165352","0.0-11.0-2.8","5cd10012174fc60016c10ffd","bdp_rwlrn","Sat Apr 08 2023 12:33:50 GMT-0400 (Eastern Daylight Time)","506296","Trustworthy,Untrustworthy","","null","","","","decisionFB","","<div class='trialDiv'><img src='Fruit/pears.png'><br><font class='baseline'><strong>Pears Aplenty</strong><p>Choose number of points to bet.</font><div class='respPicDiv'><img src='img/responseButtonOffersNo0L2.png' class='respPic'></div></div>","null","3","Pears Aplenty","Fruit/pears.png","Won","0.65,0.2","8","0.65","52","9","",""
"html-keyboard-response","36","166369","0.0-11.0-3.8","5cd10012174fc60016c10ffd","bdp_rwlrn","Sat Apr 08 2023 12:33:50 GMT-0400 (Eastern Daylight Time)","506296","Trustworthy,Untrustworthy","","null","","","","feedback","","<div class='respPicDiv'><img src='img/responseButtonOffersNo0_wht.png' class='respPic'></div><div class='trialDiv'><img src='Fruit/pears.png'><br><font class='baseline'><strong>Pears Aplenty</strong><p><strong><font class='posOutcome'>You WON</font><p>You bet: 2</strong></font> &nbsp; &nbsp; &nbsp; &nbsp; &nbsp; &nbsp;<font class='posOutcome'>you receive: <strong>4</strong></font></div>","null","3","Pears Aplenty","Fruit/pears.png","Won","0.65,0.2","8","0.65","56","9","",""
"html-keyboard-response","37","167528","0.0-11.0-1.9","5cd10012174fc60016c10ffd","bdp_rwlrn","Sat Apr 08 2023 12:33:50 GMT-0400 (Eastern Daylight Time)","506296","Trustworthy,Untrustworthy","","1155","","","","decision","","<div class='trialDiv'><img src='Fruit/lime.png'><br><font class='baseline'><strong>Limin' Large</strong><p>Choose number of points to bet.</font><div class='respPicDiv'><img src='img/responseButtonOffersNo0L.png' class='respPic'></div></div>","3","4","Limin' Large","Fruit/lime.png","Lost","0.35,0.8","10","0.35","61","10","",""
"html-keyboard-response","38","167791","0.0-11.0-2.9","5cd10012174fc60016c10ffd","bdp_rwlrn","Sat Apr 08 2023 12:33:50 GMT-0400 (Eastern Daylight Time)","506296","Trustworthy,Untrustworthy","","null","","","","decisionFB","","<div class='trialDiv'><img src='Fruit/lime.png'><br><font class='baseline'><strong>Limin' Large</strong><p>Choose number of points to bet.</font><div class='respPicDiv'><img src='img/responseButtonOffersNo0L3.png' class='respPic'></div></div>","null","4","Limin' Large","Fruit/lime.png","Lost","0.35,0.8","10","0.35","58","10","",""
"html-keyboard-response","39","168806","0.0-11.0-3.9","5cd10012174fc60016c10ffd","bdp_rwlrn","Sat Apr 08 2023 12:33:50 GMT-0400 (Eastern Daylight Time)","506296","Trustworthy,Untrustworthy","","null","","","","feedback","","<div class='respPicDiv'><img src='img/responseButtonOffersNo0_wht.png' class='respPic'></div><div class='trialDiv'><img src='Fruit/lime.png'><br><font class='baseline'><strong>Limin' Large</strong><p><strong><font class='negOutcome'>You LOST</font><p>You bet: 3</strong></font> &nbsp; &nbsp; &nbsp; &nbsp; &nbsp; &nbsp;<font class='negOutcome'>You receive: <strong>0</strong></font></div>","null","4","Limin' Large","Fruit/lime.png","Lost","0.35,0.8","10","0.35","58","10","",""
"html-keyboard-response","40","169492","0.0-11.0-1.10","5cd10012174fc60016c10ffd","bdp_rwlrn","Sat Apr 08 2023 12:33:50 GMT-0400 (Eastern Daylight Time)","506296","Trustworthy,Untrustworthy","","682","","","","decision","","<div class='trialDiv'><img src='Fruit/plums1.png'><br><font class='baseline'><strong>Plum Powerball</strong><p>Choose number of points to bet.</font><div class='respPicDiv'><img src='img/responseButtonOffersNo0L.png' class='respPic'></div></div>","5","4","Plum Powerball","Fruit/plums1.png","Won","0.35,0.65","11","0.35","63","11","",""
"html-keyboard-response","41","169759","0.0-11.0-2.10","5cd10012174fc60016c10ffd","bdp_rwlrn","Sat Apr 08 2023 12:33:50 GMT-0400 (Eastern Daylight Time)","506296","Trustworthy,Untrustworthy","","null","","","","decisionFB","","<div class='trialDiv'><img src='Fruit/plums1.png'><br><font class='baseline'><strong>Plum Powerball</strong><p>Choose number of points to bet.</font><div class='respPicDiv'><img src='img/responseButtonOffersNo0L5.png' class='respPic'></div></div>","null","4","Plum Powerball","Fruit/plums1.png","Won","0.35,0.65","11","0.35","58","11","",""
"html-keyboard-response","42","170775","0.0-11.0-3.10","5cd10012174fc60016c10ffd","bdp_rwlrn","Sat Apr 08 2023 12:33:50 GMT-0400 (Eastern Daylight Time)","506296","Trustworthy,Untrustworthy","","null","","","","feedback","","<div class='respPicDiv'><img src='img/responseButtonOffersNo0_wht.png' class='respPic'></div><div class='trialDiv'><img src='Fruit/plums1.png'><br><font class='baseline'><strong>Plum Powerball</strong><p><strong><font class='posOutcome'>You WON</font><p>You bet: 5</strong></font> &nbsp; &nbsp; &nbsp; &nbsp; &nbsp; &nbsp;<font class='posOutcome'>you receive: <strong>10</strong></font></div>","null","4","Plum Powerball","Fruit/plums1.png","Won","0.35,0.65","11","0.35","68","11","",""
"html-keyboard-response","43","171982","0.0-11.0-1.11","5cd10012174fc60016c10ffd","bdp_rwlrn","Sat Apr 08 2023 12:33:50 GMT-0400 (Eastern Daylight Time)","506296","Trustworthy,Untrustworthy","","1203","","","","decision","","<div class='trialDiv'><img src='Fruit/pears.png'><br><font class='baseline'><strong>Pears Aplenty</strong><p>Choose number of points to bet.</font><div class='respPicDiv'><img src='img/responseButtonOffersNo0L.png' class='respPic'></div></div>","2","4","Pears Aplenty","Fruit/pears.png","Lost","0.65,0.2","8","0.65","73","12","",""
"html-keyboard-response","44","172244","0.0-11.0-2.11","5cd10012174fc60016c10ffd","bdp_rwlrn","Sat Apr 08 2023 12:33:50 GMT-0400 (Eastern Daylight Time)","506296","Trustworthy,Untrustworthy","","null","","","","decisionFB","","<div class='trialDiv'><img src='Fruit/pears.png'><br><font class='baseline'><strong>Pears Aplenty</strong><p>Choose number of points to bet.</font><div class='respPicDiv'><img src='img/responseButtonOffersNo0L2.png' class='respPic'></div></div>","null","4","Pears Aplenty","Fruit/pears.png","Lost","0.65,0.2","8","0.65","71","12","",""
"html-keyboard-response","45","173261","0.0-11.0-3.11","5cd10012174fc60016c10ffd","bdp_rwlrn","Sat Apr 08 2023 12:33:50 GMT-0400 (Eastern Daylight Time)","506296","Trustworthy,Untrustworthy","","null","","","","feedback","","<div class='respPicDiv'><img src='img/responseButtonOffersNo0_wht.png' class='respPic'></div><div class='trialDiv'><img src='Fruit/pears.png'><br><font class='baseline'><strong>Pears Aplenty</strong><p><strong><font class='negOutcome'>You LOST</font><p>You bet: 2</strong></font> &nbsp; &nbsp; &nbsp; &nbsp; &nbsp; &nbsp;<font class='negOutcome'>You receive: <strong>0</strong></font></div>","null","4","Pears Aplenty","Fruit/pears.png","Lost","0.65,0.2","8","0.65","71","12","",""
"html-keyboard-response","46","174292","0.0-11.0-1.12","5cd10012174fc60016c10ffd","bdp_rwlrn","Sat Apr 08 2023 12:33:50 GMT-0400 (Eastern Daylight Time)","506296","Trustworthy,Untrustworthy","","1028","","","","decision","","<div class='trialDiv'><img src='Fruit/lime.png'><br><font class='baseline'><strong>Limin' Large</strong><p>Choose number of points to bet.</font><div class='respPicDiv'><img src='img/responseButtonOffersNo0L.png' class='respPic'></div></div>","3","5","Limin' Large","Fruit/lime.png","Lost","0.35,0.8","10","0.35","76","13","",""
"html-keyboard-response","47","174558","0.0-11.0-2.12","5cd10012174fc60016c10ffd","bdp_rwlrn","Sat Apr 08 2023 12:33:50 GMT-0400 (Eastern Daylight Time)","506296","Trustworthy,Untrustworthy","","null","","","","decisionFB","","<div class='trialDiv'><img src='Fruit/lime.png'><br><font class='baseline'><strong>Limin' Large</strong><p>Choose number of points to bet.</font><div class='respPicDiv'><img src='img/responseButtonOffersNo0L3.png' class='respPic'></div></div>","null","5","Limin' Large","Fruit/lime.png","Lost","0.35,0.8","10","0.35","73","13","",""
"html-keyboard-response","48","175573","0.0-11.0-3.12","5cd10012174fc60016c10ffd","bdp_rwlrn","Sat Apr 08 2023 12:33:50 GMT-0400 (Eastern Daylight Time)","506296","Trustworthy,Untrustworthy","","null","","","","feedback","","<div class='respPicDiv'><img src='img/responseButtonOffersNo0_wht.png' class='respPic'></div><div class='trialDiv'><img src='Fruit/lime.png'><br><font class='baseline'><strong>Limin' Large</strong><p><strong><font class='negOutcome'>You LOST</font><p>You bet: 3</strong></font> &nbsp; &nbsp; &nbsp; &nbsp; &nbsp; &nbsp;<font class='negOutcome'>You receive: <strong>0</strong></font></div>","null","5","Limin' Large","Fruit/lime.png","Lost","0.35,0.8","10","0.35","73","13","",""
"html-keyboard-response","49","176510","0.0-11.0-1.13","5cd10012174fc60016c10ffd","bdp_rwlrn","Sat Apr 08 2023 12:33:50 GMT-0400 (Eastern Daylight Time)","506296","Trustworthy,Untrustworthy","","933","","","","decision","","<div class='trialDiv'><img src='Fruit/pears.png'><br><font class='baseline'><strong>Pears Aplenty</strong><p>Choose number of points to bet.</font><div class='respPicDiv'><img src='img/responseButtonOffersNo0L.png' class='respPic'></div></div>","2","5","Pears Aplenty","Fruit/pears.png","Won","0.65,0.2","8","0.65","78","14","",""
"html-keyboard-response","50","176776","0.0-11.0-2.13","5cd10012174fc60016c10ffd","bdp_rwlrn","Sat Apr 08 2023 12:33:50 GMT-0400 (Eastern Daylight Time)","506296","Trustworthy,Untrustworthy","","null","","","","decisionFB","","<div class='trialDiv'><img src='Fruit/pears.png'><br><font class='baseline'><strong>Pears Aplenty</strong><p>Choose number of points to bet.</font><div class='respPicDiv'><img src='img/responseButtonOffersNo0L2.png' class='respPic'></div></div>","null","5","Pears Aplenty","Fruit/pears.png","Won","0.65,0.2","8","0.65","76","14","",""
"html-keyboard-response","51","177794","0.0-11.0-3.13","5cd10012174fc60016c10ffd","bdp_rwlrn","Sat Apr 08 2023 12:33:50 GMT-0400 (Eastern Daylight Time)","506296","Trustworthy,Untrustworthy","","null","","","","feedback","","<div class='respPicDiv'><img src='img/responseButtonOffersNo0_wht.png' class='respPic'></div><div class='trialDiv'><img src='Fruit/pears.png'><br><font class='baseline'><strong>Pears Aplenty</strong><p><strong><font class='posOutcome'>You WON</font><p>You bet: 2</strong></font> &nbsp; &nbsp; &nbsp; &nbsp; &nbsp; &nbsp;<font class='posOutcome'>you receive: <strong>4</strong></font></div>","null","5","Pears Aplenty","Fruit/pears.png","Won","0.65,0.2","8","0.65","80","14","",""
"html-keyboard-response","52","178417","0.0-11.0-1.14","5cd10012174fc60016c10ffd","bdp_rwlrn","Sat Apr 08 2023 12:33:50 GMT-0400 (Eastern Daylight Time)","506296","Trustworthy,Untrustworthy","","620","","","","decision","","<div class='trialDiv'><img src='Fruit/plums1.png'><br><font class='baseline'><strong>Plum Powerball</strong><p>Choose number of points to bet.</font><div class='respPicDiv'><img src='img/responseButtonOffersNo0L.png' class='respPic'></div></div>","5","5","Plum Powerball","Fruit/plums1.png","Lost","0.35,0.65","11","0.35","85","15","",""
"html-keyboard-response","53","178685","0.0-11.0-2.14","5cd10012174fc60016c10ffd","bdp_rwlrn","Sat Apr 08 2023 12:33:50 GMT-0400 (Eastern Daylight Time)","506296","Trustworthy,Untrustworthy","","null","","","","decisionFB","","<div class='trialDiv'><img src='Fruit/plums1.png'><br><font class='baseline'><strong>Plum Powerball</strong><p>Choose number of points to bet.</font><div class='respPicDiv'><img src='img/responseButtonOffersNo0L5.png' class='respPic'></div></div>","null","5","Plum Powerball","Fruit/plums1.png","Lost","0.35,0.65","11","0.35","80","15","",""
"html-keyboard-response","54","179716","0.0-11.0-3.14","5cd10012174fc60016c10ffd","bdp_rwlrn","Sat Apr 08 2023 12:33:50 GMT-0400 (Eastern Daylight Time)","506296","Trustworthy,Untrustworthy","","null","","","","feedback","","<div class='respPicDiv'><img src='img/responseButtonOffersNo0_wht.png' class='respPic'></div><div class='trialDiv'><img src='Fruit/plums1.png'><br><font class='baseline'><strong>Plum Powerball</strong><p><strong><font class='negOutcome'>You LOST</font><p>You bet: 5</strong></font> &nbsp; &nbsp; &nbsp; &nbsp; &nbsp; &nbsp;<font class='negOutcome'>You receive: <strong>0</strong></font></div>","null","5","Plum Powerball","Fruit/plums1.png","Lost","0.35,0.65","11","0.35","80","15","",""
"html-keyboard-response","55","180903","0.0-11.0-1.15","5cd10012174fc60016c10ffd","bdp_rwlrn","Sat Apr 08 2023 12:33:50 GMT-0400 (Eastern Daylight Time)","506296","Trustworthy,Untrustworthy","","1183","","","","decision","","<div class='trialDiv'><img src='Fruit/pears.png'><br><font class='baseline'><strong>Pears Aplenty</strong><p>Choose number of points to bet.</font><div class='respPicDiv'><img src='img/responseButtonOffersNo0L.png' class='respPic'></div></div>","2","6","Pears Aplenty","Fruit/pears.png","Lost","0.65,0.2","8","0.65","85","16","",""
"html-keyboard-response","56","181169","0.0-11.0-2.15","5cd10012174fc60016c10ffd","bdp_rwlrn","Sat Apr 08 2023 12:33:50 GMT-0400 (Eastern Daylight Time)","506296","Trustworthy,Untrustworthy","","null","","","","decisionFB","","<div class='trialDiv'><img src='Fruit/pears.png'><br><font class='baseline'><strong>Pears Aplenty</strong><p>Choose number of points to bet.</font><div class='respPicDiv'><img src='img/responseButtonOffersNo0L2.png' class='respPic'></div></div>","null","6","Pears Aplenty","Fruit/pears.png","Lost","0.65,0.2","8","0.65","83","16","",""
"html-keyboard-response","57","182185","0.0-11.0-3.15","5cd10012174fc60016c10ffd","bdp_rwlrn","Sat Apr 08 2023 12:33:50 GMT-0400 (Eastern Daylight Time)","506296","Trustworthy,Untrustworthy","","null","","","","feedback","","<div class='respPicDiv'><img src='img/responseButtonOffersNo0_wht.png' class='respPic'></div><div class='trialDiv'><img src='Fruit/pears.png'><br><font class='baseline'><strong>Pears Aplenty</strong><p><strong><font class='negOutcome'>You LOST</font><p>You bet: 2</strong></font> &nbsp; &nbsp; &nbsp; &nbsp; &nbsp; &nbsp;<font class='negOutcome'>You receive: <strong>0</strong></font></div>","null","6","Pears Aplenty","Fruit/pears.png","Lost","0.65,0.2","8","0.65","83","16","",""
"html-keyboard-response","58","182929","0.0-11.0-1.16","5cd10012174fc60016c10ffd","bdp_rwlrn","Sat Apr 08 2023 12:33:50 GMT-0400 (Eastern Daylight Time)","506296","Trustworthy,Untrustworthy","","741","","","","decision","","<div class='trialDiv'><img src='Fruit/plums1.png'><br><font class='baseline'><strong>Plum Powerball</strong><p>Choose number of points to bet.</font><div class='respPicDiv'><img src='img/responseButtonOffersNo0L.png' class='respPic'></div></div>","5","6","Plum Powerball","Fruit/plums1.png","Won","0.35,0.65","11","0.35","88","17","",""
"html-keyboard-response","59","183185","0.0-11.0-2.16","5cd10012174fc60016c10ffd","bdp_rwlrn","Sat Apr 08 2023 12:33:50 GMT-0400 (Eastern Daylight Time)","506296","Trustworthy,Untrustworthy","","null","","","","decisionFB","","<div class='trialDiv'><img src='Fruit/plums1.png'><br><font class='baseline'><strong>Plum Powerball</strong><p>Choose number of points to bet.</font><div class='respPicDiv'><img src='img/responseButtonOffersNo0L5.png' class='respPic'></div></div>","null","6","Plum Powerball","Fruit/plums1.png","Won","0.35,0.65","11","0.35","83","17","",""
"html-keyboard-response","60","184202","0.0-11.0-3.16","5cd10012174fc60016c10ffd","bdp_rwlrn","Sat Apr 08 2023 12:33:50 GMT-0400 (Eastern Daylight Time)","506296","Trustworthy,Untrustworthy","","null","","","","feedback","","<div class='respPicDiv'><img src='img/responseButtonOffersNo0_wht.png' class='respPic'></div><div class='trialDiv'><img src='Fruit/plums1.png'><br><font class='baseline'><strong>Plum Powerball</strong><p><strong><font class='posOutcome'>You WON</font><p>You bet: 5</strong></font> &nbsp; &nbsp; &nbsp; &nbsp; &nbsp; &nbsp;<font class='posOutcome'>you receive: <strong>10</strong></font></div>","null","6","Plum Powerball","Fruit/plums1.png","Won","0.35,0.65","11","0.35","93","17","",""
"html-keyboard-response","61","185089","0.0-11.0-1.17","5cd10012174fc60016c10ffd","bdp_rwlrn","Sat Apr 08 2023 12:33:50 GMT-0400 (Eastern Daylight Time)","506296","Trustworthy,Untrustworthy","","884","","","","decision","","<div class='trialDiv'><img src='Fruit/lime.png'><br><font class='baseline'><strong>Limin' Large</strong><p>Choose number of points to bet.</font><div class='respPicDiv'><img src='img/responseButtonOffersNo0L.png' class='respPic'></div></div>","3","6","Limin' Large","Fruit/lime.png","Lost","0.35,0.8","10","0.35","98","18","",""
"html-keyboard-response","62","185344","0.0-11.0-2.17","5cd10012174fc60016c10ffd","bdp_rwlrn","Sat Apr 08 2023 12:33:50 GMT-0400 (Eastern Daylight Time)","506296","Trustworthy,Untrustworthy","","null","","","","decisionFB","","<div class='trialDiv'><img src='Fruit/lime.png'><br><font class='baseline'><strong>Limin' Large</strong><p>Choose number of points to bet.</font><div class='respPicDiv'><img src='img/responseButtonOffersNo0L3.png' class='respPic'></div></div>","null","6","Limin' Large","Fruit/lime.png","Lost","0.35,0.8","10","0.35","95","18","",""
"html-keyboard-response","63","186375","0.0-11.0-3.17","5cd10012174fc60016c10ffd","bdp_rwlrn","Sat Apr 08 2023 12:33:50 GMT-0400 (Eastern Daylight Time)","506296","Trustworthy,Untrustworthy","","null","","","","feedback","","<div class='respPicDiv'><img src='img/responseButtonOffersNo0_wht.png' class='respPic'></div><div class='trialDiv'><img src='Fruit/lime.png'><br><font class='baseline'><strong>Limin' Large</strong><p><strong><font class='negOutcome'>You LOST</font><p>You bet: 3</strong></font> &nbsp; &nbsp; &nbsp; &nbsp; &nbsp; &nbsp;<font class='negOutcome'>You receive: <strong>0</strong></font></div>","null","6","Limin' Large","Fruit/lime.png","Lost","0.35,0.8","10","0.35","95","18","",""
"html-keyboard-response","64","187916","0.0-11.0-1.18","5cd10012174fc60016c10ffd","bdp_rwlrn","Sat Apr 08 2023 12:33:50 GMT-0400 (Eastern Daylight Time)","506296","Trustworthy,Untrustworthy","","1538","","","","decision","","<div class='trialDiv'><img src='Fruit/pears.png'><br><font class='baseline'><strong>Pears Aplenty</strong><p>Choose number of points to bet.</font><div class='respPicDiv'><img src='img/responseButtonOffersNo0L.png' class='respPic'></div></div>","3","7","Pears Aplenty","Fruit/pears.png","Won","0.65,0.2","8","0.65","100","19","",""
"html-keyboard-response","65","188171","0.0-11.0-2.18","5cd10012174fc60016c10ffd","bdp_rwlrn","Sat Apr 08 2023 12:33:50 GMT-0400 (Eastern Daylight Time)","506296","Trustworthy,Untrustworthy","","null","","","","decisionFB","","<div class='trialDiv'><img src='Fruit/pears.png'><br><font class='baseline'><strong>Pears Aplenty</strong><p>Choose number of points to bet.</font><div class='respPicDiv'><img src='img/responseButtonOffersNo0L3.png' class='respPic'></div></div>","null","7","Pears Aplenty","Fruit/pears.png","Won","0.65,0.2","8","0.65","97","19","",""
"html-keyboard-response","66","189187","0.0-11.0-3.18","5cd10012174fc60016c10ffd","bdp_rwlrn","Sat Apr 08 2023 12:33:50 GMT-0400 (Eastern Daylight Time)","506296","Trustworthy,Untrustworthy","","null","","","","feedback","","<div class='respPicDiv'><img src='img/responseButtonOffersNo0_wht.png' class='respPic'></div><div class='trialDiv'><img src='Fruit/pears.png'><br><font class='baseline'><strong>Pears Aplenty</strong><p><strong><font class='posOutcome'>You WON</font><p>You bet: 3</strong></font> &nbsp; &nbsp; &nbsp; &nbsp; &nbsp; &nbsp;<font class='posOutcome'>you receive: <strong>6</strong></font></div>","null","7","Pears Aplenty","Fruit/pears.png","Won","0.65,0.2","8","0.65","103","19","",""
"html-keyboard-response","67","190446","0.0-11.0-1.19","5cd10012174fc60016c10ffd","bdp_rwlrn","Sat Apr 08 2023 12:33:50 GMT-0400 (Eastern Daylight Time)","506296","Trustworthy,Untrustworthy","","1256","","","","decision","","<div class='trialDiv'><img src='Fruit/plums1.png'><br><font class='baseline'><strong>Plum Powerball</strong><p>Choose number of points to bet.</font><div class='respPicDiv'><img src='img/responseButtonOffersNo0L.png' class='respPic'></div></div>","5","7","Plum Powerball","Fruit/plums1.png","Lost","0.35,0.65","11","0.35","108","20","",""
"html-keyboard-response","68","190702","0.0-11.0-2.19","5cd10012174fc60016c10ffd","bdp_rwlrn","Sat Apr 08 2023 12:33:50 GMT-0400 (Eastern Daylight Time)","506296","Trustworthy,Untrustworthy","","null","","","","decisionFB","","<div class='trialDiv'><img src='Fruit/plums1.png'><br><font class='baseline'><strong>Plum Powerball</strong><p>Choose number of points to bet.</font><div class='respPicDiv'><img src='img/responseButtonOffersNo0L5.png' class='respPic'></div></div>","null","7","Plum Powerball","Fruit/plums1.png","Lost","0.35,0.65","11","0.35","103","20","",""
"html-keyboard-response","69","191719","0.0-11.0-3.19","5cd10012174fc60016c10ffd","bdp_rwlrn","Sat Apr 08 2023 12:33:50 GMT-0400 (Eastern Daylight Time)","506296","Trustworthy,Untrustworthy","","null","","","","feedback","","<div class='respPicDiv'><img src='img/responseButtonOffersNo0_wht.png' class='respPic'></div><div class='trialDiv'><img src='Fruit/plums1.png'><br><font class='baseline'><strong>Plum Powerball</strong><p><strong><font class='negOutcome'>You LOST</font><p>You bet: 5</strong></font> &nbsp; &nbsp; &nbsp; &nbsp; &nbsp; &nbsp;<font class='negOutcome'>You receive: <strong>0</strong></font></div>","null","7","Plum Powerball","Fruit/plums1.png","Lost","0.35,0.65","11","0.35","103","20","",""
"html-keyboard-response","70","192375","0.0-11.0-1.20","5cd10012174fc60016c10ffd","bdp_rwlrn","Sat Apr 08 2023 12:33:50 GMT-0400 (Eastern Daylight Time)","506296","Trustworthy,Untrustworthy","","652","","","","decision","","<div class='trialDiv'><img src='Fruit/lime.png'><br><font class='baseline'><strong>Limin' Large</strong><p>Choose number of points to bet.</font><div class='respPicDiv'><img src='img/responseButtonOffersNo0L.png' class='respPic'></div></div>","4","7","Limin' Large","Fruit/lime.png","Lost","0.35,0.8","10","0.35","108","21","",""
"html-keyboard-response","71","192641","0.0-11.0-2.20","5cd10012174fc60016c10ffd","bdp_rwlrn","Sat Apr 08 2023 12:33:50 GMT-0400 (Eastern Daylight Time)","506296","Trustworthy,Untrustworthy","","null","","","","decisionFB","","<div class='trialDiv'><img src='Fruit/lime.png'><br><font class='baseline'><strong>Limin' Large</strong><p>Choose number of points to bet.</font><div class='respPicDiv'><img src='img/responseButtonOffersNo0L4.png' class='respPic'></div></div>","null","7","Limin' Large","Fruit/lime.png","Lost","0.35,0.8","10","0.35","104","21","",""
"html-keyboard-response","72","193656","0.0-11.0-3.20","5cd10012174fc60016c10ffd","bdp_rwlrn","Sat Apr 08 2023 12:33:50 GMT-0400 (Eastern Daylight Time)","506296","Trustworthy,Untrustworthy","","null","","","","feedback","","<div class='respPicDiv'><img src='img/responseButtonOffersNo0_wht.png' class='respPic'></div><div class='trialDiv'><img src='Fruit/lime.png'><br><font class='baseline'><strong>Limin' Large</strong><p><strong><font class='negOutcome'>You LOST</font><p>You bet: 4</strong></font> &nbsp; &nbsp; &nbsp; &nbsp; &nbsp; &nbsp;<font class='negOutcome'>You receive: <strong>0</strong></font></div>","null","7","Limin' Large","Fruit/lime.png","Lost","0.35,0.8","10","0.35","104","21","",""
"html-keyboard-response","73","194306","0.0-11.0-1.21","5cd10012174fc60016c10ffd","bdp_rwlrn","Sat Apr 08 2023 12:33:50 GMT-0400 (Eastern Daylight Time)","506296","Trustworthy,Untrustworthy","","648","","","","decision","","<div class='trialDiv'><img src='Fruit/pears.png'><br><font class='baseline'><strong>Pears Aplenty</strong><p>Choose number of points to bet.</font><div class='respPicDiv'><img src='img/responseButtonOffersNo0L.png' class='respPic'></div></div>","1","8","Pears Aplenty","Fruit/pears.png","Lost","0.65,0.2","8","0.65","109","22","",""
"html-keyboard-response","74","194563","0.0-11.0-2.21","5cd10012174fc60016c10ffd","bdp_rwlrn","Sat Apr 08 2023 12:33:50 GMT-0400 (Eastern Daylight Time)","506296","Trustworthy,Untrustworthy","","null","","","","decisionFB","","<div class='trialDiv'><img src='Fruit/pears.png'><br><font class='baseline'><strong>Pears Aplenty</strong><p>Choose number of points to bet.</font><div class='respPicDiv'><img src='img/responseButtonOffersNo0L1.png' class='respPic'></div></div>","null","8","Pears Aplenty","Fruit/pears.png","Lost","0.65,0.2","8","0.65","108","22","",""
"html-keyboard-response","75","195579","0.0-11.0-3.21","5cd10012174fc60016c10ffd","bdp_rwlrn","Sat Apr 08 2023 12:33:50 GMT-0400 (Eastern Daylight Time)","506296","Trustworthy,Untrustworthy","","null","","","","feedback","","<div class='respPicDiv'><img src='img/responseButtonOffersNo0_wht.png' class='respPic'></div><div class='trialDiv'><img src='Fruit/pears.png'><br><font class='baseline'><strong>Pears Aplenty</strong><p><strong><font class='negOutcome'>You LOST</font><p>You bet: 1</strong></font> &nbsp; &nbsp; &nbsp; &nbsp; &nbsp; &nbsp;<font class='negOutcome'>You receive: <strong>0</strong></font></div>","null","8","Pears Aplenty","Fruit/pears.png","Lost","0.65,0.2","8","0.65","108","22","",""
"html-keyboard-response","76","197101","0.0-11.0-1.22","5cd10012174fc60016c10ffd","bdp_rwlrn","Sat Apr 08 2023 12:33:50 GMT-0400 (Eastern Daylight Time)","506296","Trustworthy,Untrustworthy","","1518","","","","decision","","<div class='trialDiv'><img src='Fruit/lime.png'><br><font class='baseline'><strong>Limin' Large</strong><p>Choose number of points to bet.</font><div class='respPicDiv'><img src='img/responseButtonOffersNo0L.png' class='respPic'></div></div>","3","8","Limin' Large","Fruit/lime.png","Won","0.35,0.8","10","0.35","113","23","",""
"html-keyboard-response","77","197360","0.0-11.0-2.22","5cd10012174fc60016c10ffd","bdp_rwlrn","Sat Apr 08 2023 12:33:50 GMT-0400 (Eastern Daylight Time)","506296","Trustworthy,Untrustworthy","","null","","","","decisionFB","","<div class='trialDiv'><img src='Fruit/lime.png'><br><font class='baseline'><strong>Limin' Large</strong><p>Choose number of points to bet.</font><div class='respPicDiv'><img src='img/responseButtonOffersNo0L3.png' class='respPic'></div></div>","null","8","Limin' Large","Fruit/lime.png","Won","0.35,0.8","10","0.35","110","23","",""
"html-keyboard-response","78","198377","0.0-11.0-3.22","5cd10012174fc60016c10ffd","bdp_rwlrn","Sat Apr 08 2023 12:33:50 GMT-0400 (Eastern Daylight Time)","506296","Trustworthy,Untrustworthy","","null","","","","feedback","","<div class='respPicDiv'><img src='img/responseButtonOffersNo0_wht.png' class='respPic'></div><div class='trialDiv'><img src='Fruit/lime.png'><br><font class='baseline'><strong>Limin' Large</strong><p><strong><font class='posOutcome'>You WON</font><p>You bet: 3</strong></font> &nbsp; &nbsp; &nbsp; &nbsp; &nbsp; &nbsp;<font class='posOutcome'>you receive: <strong>6</strong></font></div>","null","8","Limin' Large","Fruit/lime.png","Won","0.35,0.8","10","0.35","116","23","",""
"html-keyboard-response","79","198944","0.0-11.0-1.23","5cd10012174fc60016c10ffd","bdp_rwlrn","Sat Apr 08 2023 12:33:50 GMT-0400 (Eastern Daylight Time)","506296","Trustworthy,Untrustworthy","","564","","","","decision","","<div class='trialDiv'><img src='Fruit/plums1.png'><br><font class='baseline'><strong>Plum Powerball</strong><p>Choose number of points to bet.</font><div class='respPicDiv'><img src='img/responseButtonOffersNo0L.png' class='respPic'></div></div>","5","8","Plum Powerball","Fruit/plums1.png","Won","0.35,0.65","11","0.35","121","24","",""
"html-keyboard-response","80","199205","0.0-11.0-2.23","5cd10012174fc60016c10ffd","bdp_rwlrn","Sat Apr 08 2023 12:33:50 GMT-0400 (Eastern Daylight Time)","506296","Trustworthy,Untrustworthy","","null","","","","decisionFB","","<div class='trialDiv'><img src='Fruit/plums1.png'><br><font class='baseline'><strong>Plum Powerball</strong><p>Choose number of points to bet.</font><div class='respPicDiv'><img src='img/responseButtonOffersNo0L5.png' class='respPic'></div></div>","null","8","Plum Powerball","Fruit/plums1.png","Won","0.35,0.65","11","0.35","116","24","",""
"html-keyboard-response","81","200236","0.0-11.0-3.23","5cd10012174fc60016c10ffd","bdp_rwlrn","Sat Apr 08 2023 12:33:50 GMT-0400 (Eastern Daylight Time)","506296","Trustworthy,Untrustworthy","","null","","","","feedback","","<div class='respPicDiv'><img src='img/responseButtonOffersNo0_wht.png' class='respPic'></div><div class='trialDiv'><img src='Fruit/plums1.png'><br><font class='baseline'><strong>Plum Powerball</strong><p><strong><font class='posOutcome'>You WON</font><p>You bet: 5</strong></font> &nbsp; &nbsp; &nbsp; &nbsp; &nbsp; &nbsp;<font class='posOutcome'>you receive: <strong>10</strong></font></div>","null","8","Plum Powerball","Fruit/plums1.png","Won","0.35,0.65","11","0.35","126","24","",""
"html-keyboard-response","82","201800","0.0-11.0-1.24","5cd10012174fc60016c10ffd","bdp_rwlrn","Sat Apr 08 2023 12:33:50 GMT-0400 (Eastern Daylight Time)","506296","Trustworthy,Untrustworthy","","1561","","","","decision","","<div class='trialDiv'><img src='Fruit/pears.png'><br><font class='baseline'><strong>Pears Aplenty</strong><p>Choose number of points to bet.</font><div class='respPicDiv'><img src='img/responseButtonOffersNo0L.png' class='respPic'></div></div>","4","9","Pears Aplenty","Fruit/pears.png","Lost","0.65,0.2","8","0.65","131","25","",""
"html-keyboard-response","83","202064","0.0-11.0-2.24","5cd10012174fc60016c10ffd","bdp_rwlrn","Sat Apr 08 2023 12:33:50 GMT-0400 (Eastern Daylight Time)","506296","Trustworthy,Untrustworthy","","null","","","","decisionFB","","<div class='trialDiv'><img src='Fruit/pears.png'><br><font class='baseline'><strong>Pears Aplenty</strong><p>Choose number of points to bet.</font><div class='respPicDiv'><img src='img/responseButtonOffersNo0L4.png' class='respPic'></div></div>","null","9","Pears Aplenty","Fruit/pears.png","Lost","0.65,0.2","8","0.65","127","25","",""
"html-keyboard-response","84","203080","0.0-11.0-3.24","5cd10012174fc60016c10ffd","bdp_rwlrn","Sat Apr 08 2023 12:33:50 GMT-0400 (Eastern Daylight Time)","506296","Trustworthy,Untrustworthy","","null","","","","feedback","","<div class='respPicDiv'><img src='img/responseButtonOffersNo0_wht.png' class='respPic'></div><div class='trialDiv'><img src='Fruit/pears.png'><br><font class='baseline'><strong>Pears Aplenty</strong><p><strong><font class='negOutcome'>You LOST</font><p>You bet: 4</strong></font> &nbsp; &nbsp; &nbsp; &nbsp; &nbsp; &nbsp;<font class='negOutcome'>You receive: <strong>0</strong></font></div>","null","9","Pears Aplenty","Fruit/pears.png","Lost","0.65,0.2","8","0.65","127","25","",""
"html-keyboard-response","85","203911","0.0-11.0-1.25","5cd10012174fc60016c10ffd","bdp_rwlrn","Sat Apr 08 2023 12:33:50 GMT-0400 (Eastern Daylight Time)","506296","Trustworthy,Untrustworthy","","827","","","","decision","","<div class='trialDiv'><img src='Fruit/plums1.png'><br><font class='baseline'><strong>Plum Powerball</strong><p>Choose number of points to bet.</font><div class='respPicDiv'><img src='img/responseButtonOffersNo0L.png' class='respPic'></div></div>","5","9","Plum Powerball","Fruit/plums1.png","Lost","0.35,0.65","11","0.35","132","26","",""
"html-keyboard-response","86","204174","0.0-11.0-2.25","5cd10012174fc60016c10ffd","bdp_rwlrn","Sat Apr 08 2023 12:33:50 GMT-0400 (Eastern Daylight Time)","506296","Trustworthy,Untrustworthy","","null","","","","decisionFB","","<div class='trialDiv'><img src='Fruit/plums1.png'><br><font class='baseline'><strong>Plum Powerball</strong><p>Choose number of points to bet.</font><div class='respPicDiv'><img src='img/responseButtonOffersNo0L5.png' class='respPic'></div></div>","null","9","Plum Powerball","Fruit/plums1.png","Lost","0.35,0.65","11","0.35","127","26","",""
"html-keyboard-response","87","205190","0.0-11.0-3.25","5cd10012174fc60016c10ffd","bdp_rwlrn","Sat Apr 08 2023 12:33:50 GMT-0400 (Eastern Daylight Time)","506296","Trustworthy,Untrustworthy","","null","","","","feedback","","<div class='respPicDiv'><img src='img/responseButtonOffersNo0_wht.png' class='respPic'></div><div class='trialDiv'><img src='Fruit/plums1.png'><br><font class='baseline'><strong>Plum Powerball</strong><p><strong><font class='negOutcome'>You LOST</font><p>You bet: 5</strong></font> &nbsp; &nbsp; &nbsp; &nbsp; &nbsp; &nbsp;<font class='negOutcome'>You receive: <strong>0</strong></font></div>","null","9","Plum Powerball","Fruit/plums1.png","Lost","0.35,0.65","11","0.35","127","26","",""
"html-keyboard-response","88","206503","0.0-11.0-1.26","5cd10012174fc60016c10ffd","bdp_rwlrn","Sat Apr 08 2023 12:33:50 GMT-0400 (Eastern Daylight Time)","506296","Trustworthy,Untrustworthy","","1310","","","","decision","","<div class='trialDiv'><img src='Fruit/lime.png'><br><font class='baseline'><strong>Limin' Large</strong><p>Choose number of points to bet.</font><div class='respPicDiv'><img src='img/responseButtonOffersNo0L.png' class='respPic'></div></div>","3","9","Limin' Large","Fruit/lime.png","Lost","0.35,0.8","10","0.35","132","27","",""
"html-keyboard-response","89","206769","0.0-11.0-2.26","5cd10012174fc60016c10ffd","bdp_rwlrn","Sat Apr 08 2023 12:33:50 GMT-0400 (Eastern Daylight Time)","506296","Trustworthy,Untrustworthy","","null","","","","decisionFB","","<div class='trialDiv'><img src='Fruit/lime.png'><br><font class='baseline'><strong>Limin' Large</strong><p>Choose number of points to bet.</font><div class='respPicDiv'><img src='img/responseButtonOffersNo0L3.png' class='respPic'></div></div>","null","9","Limin' Large","Fruit/lime.png","Lost","0.35,0.8","10","0.35","129","27","",""
"html-keyboard-response","90","207784","0.0-11.0-3.26","5cd10012174fc60016c10ffd","bdp_rwlrn","Sat Apr 08 2023 12:33:50 GMT-0400 (Eastern Daylight Time)","506296","Trustworthy,Untrustworthy","","null","","","","feedback","","<div class='respPicDiv'><img src='img/responseButtonOffersNo0_wht.png' class='respPic'></div><div class='trialDiv'><img src='Fruit/lime.png'><br><font class='baseline'><strong>Limin' Large</strong><p><strong><font class='negOutcome'>You LOST</font><p>You bet: 3</strong></font> &nbsp; &nbsp; &nbsp; &nbsp; &nbsp; &nbsp;<font class='negOutcome'>You receive: <strong>0</strong></font></div>","null","9","Limin' Large","Fruit/lime.png","Lost","0.35,0.8","10","0.35","129","27","",""
"html-keyboard-response","91","210123","0.0-11.0-1.27","5cd10012174fc60016c10ffd","bdp_rwlrn","Sat Apr 08 2023 12:33:50 GMT-0400 (Eastern Daylight Time)","506296","Trustworthy,Untrustworthy","","2335","","","","decision","","<div class='trialDiv'><img src='Fruit/pears.png'><br><font class='baseline'><strong>Pears Aplenty</strong><p>Choose number of points to bet.</font><div class='respPicDiv'><img src='img/responseButtonOffersNo0L.png' class='respPic'></div></div>","1","10","Pears Aplenty","Fruit/pears.png","Lost","0.65,0.2","8","0.65","134","28","",""
"html-keyboard-response","92","210379","0.0-11.0-2.27","5cd10012174fc60016c10ffd","bdp_rwlrn","Sat Apr 08 2023 12:33:50 GMT-0400 (Eastern Daylight Time)","506296","Trustworthy,Untrustworthy","","null","","","","decisionFB","","<div class='trialDiv'><img src='Fruit/pears.png'><br><font class='baseline'><strong>Pears Aplenty</strong><p>Choose number of points to bet.</font><div class='respPicDiv'><img src='img/responseButtonOffersNo0L1.png' class='respPic'></div></div>","null","10","Pears Aplenty","Fruit/pears.png","Lost","0.65,0.2","8","0.65","133","28","",""
"html-keyboard-response","93","211395","0.0-11.0-3.27","5cd10012174fc60016c10ffd","bdp_rwlrn","Sat Apr 08 2023 12:33:50 GMT-0400 (Eastern Daylight Time)","506296","Trustworthy,Untrustworthy","","null","","","","feedback","","<div class='respPicDiv'><img src='img/responseButtonOffersNo0_wht.png' class='respPic'></div><div class='trialDiv'><img src='Fruit/pears.png'><br><font class='baseline'><strong>Pears Aplenty</strong><p><strong><font class='negOutcome'>You LOST</font><p>You bet: 1</strong></font> &nbsp; &nbsp; &nbsp; &nbsp; &nbsp; &nbsp;<font class='negOutcome'>You receive: <strong>0</strong></font></div>","null","10","Pears Aplenty","Fruit/pears.png","Lost","0.65,0.2","8","0.65","133","28","",""
"html-keyboard-response","94","212379","0.0-11.0-1.28","5cd10012174fc60016c10ffd","bdp_rwlrn","Sat Apr 08 2023 12:33:50 GMT-0400 (Eastern Daylight Time)","506296","Trustworthy,Untrustworthy","","980","","","","decision","","<div class='trialDiv'><img src='Fruit/plums1.png'><br><font class='baseline'><strong>Plum Powerball</strong><p>Choose number of points to bet.</font><div class='respPicDiv'><img src='img/responseButtonOffersNo0L.png' class='respPic'></div></div>","5","10","Plum Powerball","Fruit/plums1.png","Lost","0.35,0.65","11","0.35","138","29","",""
"html-keyboard-response","95","212645","0.0-11.0-2.28","5cd10012174fc60016c10ffd","bdp_rwlrn","Sat Apr 08 2023 12:33:50 GMT-0400 (Eastern Daylight Time)","506296","Trustworthy,Untrustworthy","","null","","","","decisionFB","","<div class='trialDiv'><img src='Fruit/plums1.png'><br><font class='baseline'><strong>Plum Powerball</strong><p>Choose number of points to bet.</font><div class='respPicDiv'><img src='img/responseButtonOffersNo0L5.png' class='respPic'></div></div>","null","10","Plum Powerball","Fruit/plums1.png","Lost","0.35,0.65","11","0.35","133","29","",""
"html-keyboard-response","96","213661","0.0-11.0-3.28","5cd10012174fc60016c10ffd","bdp_rwlrn","Sat Apr 08 2023 12:33:50 GMT-0400 (Eastern Daylight Time)","506296","Trustworthy,Untrustworthy","","null","","","","feedback","","<div class='respPicDiv'><img src='img/responseButtonOffersNo0_wht.png' class='respPic'></div><div class='trialDiv'><img src='Fruit/plums1.png'><br><font class='baseline'><strong>Plum Powerball</strong><p><strong><font class='negOutcome'>You LOST</font><p>You bet: 5</strong></font> &nbsp; &nbsp; &nbsp; &nbsp; &nbsp; &nbsp;<font class='negOutcome'>You receive: <strong>0</strong></font></div>","null","10","Plum Powerball","Fruit/plums1.png","Lost","0.35,0.65","11","0.35","133","29","",""
"html-keyboard-response","97","214659","0.0-11.0-1.29","5cd10012174fc60016c10ffd","bdp_rwlrn","Sat Apr 08 2023 12:33:50 GMT-0400 (Eastern Daylight Time)","506296","Trustworthy,Untrustworthy","","994","","","","decision","","<div class='trialDiv'><img src='Fruit/lime.png'><br><font class='baseline'><strong>Limin' Large</strong><p>Choose number of points to bet.</font><div class='respPicDiv'><img src='img/responseButtonOffersNo0L.png' class='respPic'></div></div>","4","10","Limin' Large","Fruit/lime.png","Won","0.35,0.8","10","0.35","138","30","",""
"html-keyboard-response","98","214926","0.0-11.0-2.29","5cd10012174fc60016c10ffd","bdp_rwlrn","Sat Apr 08 2023 12:33:50 GMT-0400 (Eastern Daylight Time)","506296","Trustworthy,Untrustworthy","","null","","","","decisionFB","","<div class='trialDiv'><img src='Fruit/lime.png'><br><font class='baseline'><strong>Limin' Large</strong><p>Choose number of points to bet.</font><div class='respPicDiv'><img src='img/responseButtonOffersNo0L4.png' class='respPic'></div></div>","null","10","Limin' Large","Fruit/lime.png","Won","0.35,0.8","10","0.35","134","30","",""
"html-keyboard-response","99","215953","0.0-11.0-3.29","5cd10012174fc60016c10ffd","bdp_rwlrn","Sat Apr 08 2023 12:33:50 GMT-0400 (Eastern Daylight Time)","506296","Trustworthy,Untrustworthy","","null","","","","feedback","","<div class='respPicDiv'><img src='img/responseButtonOffersNo0_wht.png' class='respPic'></div><div class='trialDiv'><img src='Fruit/lime.png'><br><font class='baseline'><strong>Limin' Large</strong><p><strong><font class='posOutcome'>You WON</font><p>You bet: 4</strong></font> &nbsp; &nbsp; &nbsp; &nbsp; &nbsp; &nbsp;<font class='posOutcome'>you receive: <strong>8</strong></font></div>","null","10","Limin' Large","Fruit/lime.png","Won","0.35,0.8","10","0.35","142","30","",""
"html-keyboard-response","100","217163","0.0-11.0-1.30","5cd10012174fc60016c10ffd","bdp_rwlrn","Sat Apr 08 2023 12:33:50 GMT-0400 (Eastern Daylight Time)","506296","Trustworthy,Untrustworthy","","1206","","","","decision","","<div class='trialDiv'><img src='Fruit/pears.png'><br><font class='baseline'><strong>Pears Aplenty</strong><p>Choose number of points to bet.</font><div class='respPicDiv'><img src='img/responseButtonOffersNo0L.png' class='respPic'></div></div>","3","11","Pears Aplenty","Fruit/pears.png","Lost","0.65,0.2","8","0.65","147","31","",""
"html-keyboard-response","101","217423","0.0-11.0-2.30","5cd10012174fc60016c10ffd","bdp_rwlrn","Sat Apr 08 2023 12:33:50 GMT-0400 (Eastern Daylight Time)","506296","Trustworthy,Untrustworthy","","null","","","","decisionFB","","<div class='trialDiv'><img src='Fruit/pears.png'><br><font class='baseline'><strong>Pears Aplenty</strong><p>Choose number of points to bet.</font><div class='respPicDiv'><img src='img/responseButtonOffersNo0L3.png' class='respPic'></div></div>","null","11","Pears Aplenty","Fruit/pears.png","Lost","0.65,0.2","8","0.65","144","31","",""
"html-keyboard-response","102","218438","0.0-11.0-3.30","5cd10012174fc60016c10ffd","bdp_rwlrn","Sat Apr 08 2023 12:33:50 GMT-0400 (Eastern Daylight Time)","506296","Trustworthy,Untrustworthy","","null","","","","feedback","","<div class='respPicDiv'><img src='img/responseButtonOffersNo0_wht.png' class='respPic'></div><div class='trialDiv'><img src='Fruit/pears.png'><br><font class='baseline'><strong>Pears Aplenty</strong><p><strong><font class='negOutcome'>You LOST</font><p>You bet: 3</strong></font> &nbsp; &nbsp; &nbsp; &nbsp; &nbsp; &nbsp;<font class='negOutcome'>You receive: <strong>0</strong></font></div>","null","11","Pears Aplenty","Fruit/pears.png","Lost","0.65,0.2","8","0.65","144","31","",""
"html-keyboard-response","103","219594","0.0-11.0-1.31","5cd10012174fc60016c10ffd","bdp_rwlrn","Sat Apr 08 2023 12:33:50 GMT-0400 (Eastern Daylight Time)","506296","Trustworthy,Untrustworthy","","1152","","","","decision","","<div class='trialDiv'><img src='Fruit/lime.png'><br><font class='baseline'><strong>Limin' Large</strong><p>Choose number of points to bet.</font><div class='respPicDiv'><img src='img/responseButtonOffersNo0L.png' class='respPic'></div></div>","4","11","Limin' Large","Fruit/lime.png","Lost","0.35,0.8","10","0.35","149","32","",""
"html-keyboard-response","104","219860","0.0-11.0-2.31","5cd10012174fc60016c10ffd","bdp_rwlrn","Sat Apr 08 2023 12:33:50 GMT-0400 (Eastern Daylight Time)","506296","Trustworthy,Untrustworthy","","null","","","","decisionFB","","<div class='trialDiv'><img src='Fruit/lime.png'><br><font class='baseline'><strong>Limin' Large</strong><p>Choose number of points to bet.</font><div class='respPicDiv'><img src='img/responseButtonOffersNo0L4.png' class='respPic'></div></div>","null","11","Limin' Large","Fruit/lime.png","Lost","0.35,0.8","10","0.35","145","32","",""
"html-keyboard-response","105","220876","0.0-11.0-3.31","5cd10012174fc60016c10ffd","bdp_rwlrn","Sat Apr 08 2023 12:33:50 GMT-0400 (Eastern Daylight Time)","506296","Trustworthy,Untrustworthy","","null","","","","feedback","","<div class='respPicDiv'><img src='img/responseButtonOffersNo0_wht.png' class='respPic'></div><div class='trialDiv'><img src='Fruit/lime.png'><br><font class='baseline'><strong>Limin' Large</strong><p><strong><font class='negOutcome'>You LOST</font><p>You bet: 4</strong></font> &nbsp; &nbsp; &nbsp; &nbsp; &nbsp; &nbsp;<font class='negOutcome'>You receive: <strong>0</strong></font></div>","null","11","Limin' Large","Fruit/lime.png","Lost","0.35,0.8","10","0.35","145","32","",""
"html-keyboard-response","106","221318","0.0-11.0-1.32","5cd10012174fc60016c10ffd","bdp_rwlrn","Sat Apr 08 2023 12:33:50 GMT-0400 (Eastern Daylight Time)","506296","Trustworthy,Untrustworthy","","437","","","","decision","","<div class='trialDiv'><img src='Fruit/plums1.png'><br><font class='baseline'><strong>Plum Powerball</strong><p>Choose number of points to bet.</font><div class='respPicDiv'><img src='img/responseButtonOffersNo0L.png' class='respPic'></div></div>","5","11","Plum Powerball","Fruit/plums1.png","Lost","0.35,0.65","11","0.35","150","33","",""
"html-keyboard-response","107","221580","0.0-11.0-2.32","5cd10012174fc60016c10ffd","bdp_rwlrn","Sat Apr 08 2023 12:33:50 GMT-0400 (Eastern Daylight Time)","506296","Trustworthy,Untrustworthy","","null","","","","decisionFB","","<div class='trialDiv'><img src='Fruit/plums1.png'><br><font class='baseline'><strong>Plum Powerball</strong><p>Choose number of points to bet.</font><div class='respPicDiv'><img src='img/responseButtonOffersNo0L5.png' class='respPic'></div></div>","null","11","Plum Powerball","Fruit/plums1.png","Lost","0.35,0.65","11","0.35","145","33","",""
"html-keyboard-response","108","222611","0.0-11.0-3.32","5cd10012174fc60016c10ffd","bdp_rwlrn","Sat Apr 08 2023 12:33:50 GMT-0400 (Eastern Daylight Time)","506296","Trustworthy,Untrustworthy","","null","","","","feedback","","<div class='respPicDiv'><img src='img/responseButtonOffersNo0_wht.png' class='respPic'></div><div class='trialDiv'><img src='Fruit/plums1.png'><br><font class='baseline'><strong>Plum Powerball</strong><p><strong><font class='negOutcome'>You LOST</font><p>You bet: 5</strong></font> &nbsp; &nbsp; &nbsp; &nbsp; &nbsp; &nbsp;<font class='negOutcome'>You receive: <strong>0</strong></font></div>","null","11","Plum Powerball","Fruit/plums1.png","Lost","0.35,0.65","11","0.35","145","33","",""
"html-keyboard-response","109","224314","0.0-11.0-1.33","5cd10012174fc60016c10ffd","bdp_rwlrn","Sat Apr 08 2023 12:33:50 GMT-0400 (Eastern Daylight Time)","506296","Trustworthy,Untrustworthy","","1698","","","","decision","","<div class='trialDiv'><img src='Fruit/lime.png'><br><font class='baseline'><strong>Limin' Large</strong><p>Choose number of points to bet.</font><div class='respPicDiv'><img src='img/responseButtonOffersNo0L.png' class='respPic'></div></div>","2","12","Limin' Large","Fruit/lime.png","Lost","0.35,0.8","10","0.35","150","34","",""
"html-keyboard-response","110","224580","0.0-11.0-2.33","5cd10012174fc60016c10ffd","bdp_rwlrn","Sat Apr 08 2023 12:33:50 GMT-0400 (Eastern Daylight Time)","506296","Trustworthy,Untrustworthy","","null","","","","decisionFB","","<div class='trialDiv'><img src='Fruit/lime.png'><br><font class='baseline'><strong>Limin' Large</strong><p>Choose number of points to bet.</font><div class='respPicDiv'><img src='img/responseButtonOffersNo0L2.png' class='respPic'></div></div>","null","12","Limin' Large","Fruit/lime.png","Lost","0.35,0.8","10","0.35","148","34","",""
"html-keyboard-response","111","225596","0.0-11.0-3.33","5cd10012174fc60016c10ffd","bdp_rwlrn","Sat Apr 08 2023 12:33:50 GMT-0400 (Eastern Daylight Time)","506296","Trustworthy,Untrustworthy","","null","","","","feedback","","<div class='respPicDiv'><img src='img/responseButtonOffersNo0_wht.png' class='respPic'></div><div class='trialDiv'><img src='Fruit/lime.png'><br><font class='baseline'><strong>Limin' Large</strong><p><strong><font class='negOutcome'>You LOST</font><p>You bet: 2</strong></font> &nbsp; &nbsp; &nbsp; &nbsp; &nbsp; &nbsp;<font class='negOutcome'>You receive: <strong>0</strong></font></div>","null","12","Limin' Large","Fruit/lime.png","Lost","0.35,0.8","10","0.35","148","34","",""
"html-keyboard-response","112","226259","0.0-11.0-1.34","5cd10012174fc60016c10ffd","bdp_rwlrn","Sat Apr 08 2023 12:33:50 GMT-0400 (Eastern Daylight Time)","506296","Trustworthy,Untrustworthy","","659","","","","decision","","<div class='trialDiv'><img src='Fruit/plums1.png'><br><font class='baseline'><strong>Plum Powerball</strong><p>Choose number of points to bet.</font><div class='respPicDiv'><img src='img/responseButtonOffersNo0L.png' class='respPic'></div></div>","5","12","Plum Powerball","Fruit/plums1.png","Won","0.35,0.65","11","0.35","153","35","",""
"html-keyboard-response","113","226517","0.0-11.0-2.34","5cd10012174fc60016c10ffd","bdp_rwlrn","Sat Apr 08 2023 12:33:50 GMT-0400 (Eastern Daylight Time)","506296","Trustworthy,Untrustworthy","","null","","","","decisionFB","","<div class='trialDiv'><img src='Fruit/plums1.png'><br><font class='baseline'><strong>Plum Powerball</strong><p>Choose number of points to bet.</font><div class='respPicDiv'><img src='img/responseButtonOffersNo0L5.png' class='respPic'></div></div>","null","12","Plum Powerball","Fruit/plums1.png","Won","0.35,0.65","11","0.35","148","35","",""
"html-keyboard-response","114","227534","0.0-11.0-3.34","5cd10012174fc60016c10ffd","bdp_rwlrn","Sat Apr 08 2023 12:33:50 GMT-0400 (Eastern Daylight Time)","506296","Trustworthy,Untrustworthy","","null","","","","feedback","","<div class='respPicDiv'><img src='img/responseButtonOffersNo0_wht.png' class='respPic'></div><div class='trialDiv'><img src='Fruit/plums1.png'><br><font class='baseline'><strong>Plum Powerball</strong><p><strong><font class='posOutcome'>You WON</font><p>You bet: 5</strong></font> &nbsp; &nbsp; &nbsp; &nbsp; &nbsp; &nbsp;<font class='posOutcome'>you receive: <strong>10</strong></font></div>","null","12","Plum Powerball","Fruit/plums1.png","Won","0.35,0.65","11","0.35","158","35","",""
"html-keyboard-response","115","229020","0.0-11.0-1.35","5cd10012174fc60016c10ffd","bdp_rwlrn","Sat Apr 08 2023 12:33:50 GMT-0400 (Eastern Daylight Time)","506296","Trustworthy,Untrustworthy","","1482","","","","decision","","<div class='trialDiv'><img src='Fruit/pears.png'><br><font class='baseline'><strong>Pears Aplenty</strong><p>Choose number of points to bet.</font><div class='respPicDiv'><img src='img/responseButtonOffersNo0L.png' class='respPic'></div></div>","2","12","Pears Aplenty","Fruit/pears.png","Lost","0.65,0.2","8","0.65","163","36","",""
"html-keyboard-response","116","229284","0.0-11.0-2.35","5cd10012174fc60016c10ffd","bdp_rwlrn","Sat Apr 08 2023 12:33:50 GMT-0400 (Eastern Daylight Time)","506296","Trustworthy,Untrustworthy","","null","","","","decisionFB","","<div class='trialDiv'><img src='Fruit/pears.png'><br><font class='baseline'><strong>Pears Aplenty</strong><p>Choose number of points to bet.</font><div class='respPicDiv'><img src='img/responseButtonOffersNo0L2.png' class='respPic'></div></div>","null","12","Pears Aplenty","Fruit/pears.png","Lost","0.65,0.2","8","0.65","161","36","",""
"html-keyboard-response","117","230316","0.0-11.0-3.35","5cd10012174fc60016c10ffd","bdp_rwlrn","Sat Apr 08 2023 12:33:50 GMT-0400 (Eastern Daylight Time)","506296","Trustworthy,Untrustworthy","","null","","","","feedback","","<div class='respPicDiv'><img src='img/responseButtonOffersNo0_wht.png' class='respPic'></div><div class='trialDiv'><img src='Fruit/pears.png'><br><font class='baseline'><strong>Pears Aplenty</strong><p><strong><font class='negOutcome'>You LOST</font><p>You bet: 2</strong></font> &nbsp; &nbsp; &nbsp; &nbsp; &nbsp; &nbsp;<font class='negOutcome'>You receive: <strong>0</strong></font></div>","null","12","Pears Aplenty","Fruit/pears.png","Lost","0.65,0.2","8","0.65","161","36","",""
"html-keyboard-response","118","231260","0.0-11.0-1.36","5cd10012174fc60016c10ffd","bdp_rwlrn","Sat Apr 08 2023 12:33:50 GMT-0400 (Eastern Daylight Time)","506296","Trustworthy,Untrustworthy","","941","","","","decision","","<div class='trialDiv'><img src='Fruit/lime.png'><br><font class='baseline'><strong>Limin' Large</strong><p>Choose number of points to bet.</font><div class='respPicDiv'><img src='img/responseButtonOffersNo0L.png' class='respPic'></div></div>","3","13","Limin' Large","Fruit/lime.png","Won","0.35,0.8","10","0.35","166","37","",""
"html-keyboard-response","119","231518","0.0-11.0-2.36","5cd10012174fc60016c10ffd","bdp_rwlrn","Sat Apr 08 2023 12:33:50 GMT-0400 (Eastern Daylight Time)","506296","Trustworthy,Untrustworthy","","null","","","","decisionFB","","<div class='trialDiv'><img src='Fruit/lime.png'><br><font class='baseline'><strong>Limin' Large</strong><p>Choose number of points to bet.</font><div class='respPicDiv'><img src='img/responseButtonOffersNo0L3.png' class='respPic'></div></div>","null","13","Limin' Large","Fruit/lime.png","Won","0.35,0.8","10","0.35","163","37","",""
"html-keyboard-response","120","232535","0.0-11.0-3.36","5cd10012174fc60016c10ffd","bdp_rwlrn","Sat Apr 08 2023 12:33:50 GMT-0400 (Eastern Daylight Time)","506296","Trustworthy,Untrustworthy","","null","","","","feedback","","<div class='respPicDiv'><img src='img/responseButtonOffersNo0_wht.png' class='respPic'></div><div class='trialDiv'><img src='Fruit/lime.png'><br><font class='baseline'><strong>Limin' Large</strong><p><strong><font class='posOutcome'>You WON</font><p>You bet: 3</strong></font> &nbsp; &nbsp; &nbsp; &nbsp; &nbsp; &nbsp;<font class='posOutcome'>you receive: <strong>6</strong></font></div>","null","13","Limin' Large","Fruit/lime.png","Won","0.35,0.8","10","0.35","169","37","",""
"html-keyboard-response","121","233687","0.0-11.0-1.37","5cd10012174fc60016c10ffd","bdp_rwlrn","Sat Apr 08 2023 12:33:50 GMT-0400 (Eastern Daylight Time)","506296","Trustworthy,Untrustworthy","","1148","","","","decision","","<div class='trialDiv'><img src='Fruit/pears.png'><br><font class='baseline'><strong>Pears Aplenty</strong><p>Choose number of points to bet.</font><div class='respPicDiv'><img src='img/responseButtonOffersNo0L.png' class='respPic'></div></div>","2","13","Pears Aplenty","Fruit/pears.png","Lost","0.65,0.2","8","0.65","174","38","",""
"html-keyboard-response","122","233941","0.0-11.0-2.37","5cd10012174fc60016c10ffd","bdp_rwlrn","Sat Apr 08 2023 12:33:50 GMT-0400 (Eastern Daylight Time)","506296","Trustworthy,Untrustworthy","","null","","","","decisionFB","","<div class='trialDiv'><img src='Fruit/pears.png'><br><font class='baseline'><strong>Pears Aplenty</strong><p>Choose number of points to bet.</font><div class='respPicDiv'><img src='img/responseButtonOffersNo0L2.png' class='respPic'></div></div>","null","13","Pears Aplenty","Fruit/pears.png","Lost","0.65,0.2","8","0.65","172","38","",""
"html-keyboard-response","123","234957","0.0-11.0-3.37","5cd10012174fc60016c10ffd","bdp_rwlrn","Sat Apr 08 2023 12:33:50 GMT-0400 (Eastern Daylight Time)","506296","Trustworthy,Untrustworthy","","null","","","","feedback","","<div class='respPicDiv'><img src='img/responseButtonOffersNo0_wht.png' class='respPic'></div><div class='trialDiv'><img src='Fruit/pears.png'><br><font class='baseline'><strong>Pears Aplenty</strong><p><strong><font class='negOutcome'>You LOST</font><p>You bet: 2</strong></font> &nbsp; &nbsp; &nbsp; &nbsp; &nbsp; &nbsp;<font class='negOutcome'>You receive: <strong>0</strong></font></div>","null","13","Pears Aplenty","Fruit/pears.png","Lost","0.65,0.2","8","0.65","172","38","",""
"html-keyboard-response","124","235676","0.0-11.0-1.38","5cd10012174fc60016c10ffd","bdp_rwlrn","Sat Apr 08 2023 12:33:50 GMT-0400 (Eastern Daylight Time)","506296","Trustworthy,Untrustworthy","","715","","","","decision","","<div class='trialDiv'><img src='Fruit/plums1.png'><br><font class='baseline'><strong>Plum Powerball</strong><p>Choose number of points to bet.</font><div class='respPicDiv'><img src='img/responseButtonOffersNo0L.png' class='respPic'></div></div>","5","13","Plum Powerball","Fruit/plums1.png","Won","0.35,0.65","11","0.35","177","39","",""
"html-keyboard-response","125","235942","0.0-11.0-2.38","5cd10012174fc60016c10ffd","bdp_rwlrn","Sat Apr 08 2023 12:33:50 GMT-0400 (Eastern Daylight Time)","506296","Trustworthy,Untrustworthy","","null","","","","decisionFB","","<div class='trialDiv'><img src='Fruit/plums1.png'><br><font class='baseline'><strong>Plum Powerball</strong><p>Choose number of points to bet.</font><div class='respPicDiv'><img src='img/responseButtonOffersNo0L5.png' class='respPic'></div></div>","null","13","Plum Powerball","Fruit/plums1.png","Won","0.35,0.65","11","0.35","172","39","",""
"html-keyboard-response","126","236974","0.0-11.0-3.38","5cd10012174fc60016c10ffd","bdp_rwlrn","Sat Apr 08 2023 12:33:50 GMT-0400 (Eastern Daylight Time)","506296","Trustworthy,Untrustworthy","","null","","","","feedback","","<div class='respPicDiv'><img src='img/responseButtonOffersNo0_wht.png' class='respPic'></div><div class='trialDiv'><img src='Fruit/plums1.png'><br><font class='baseline'><strong>Plum Powerball</strong><p><strong><font class='posOutcome'>You WON</font><p>You bet: 5</strong></font> &nbsp; &nbsp; &nbsp; &nbsp; &nbsp; &nbsp;<font class='posOutcome'>you receive: <strong>10</strong></font></div>","null","13","Plum Powerball","Fruit/plums1.png","Won","0.35,0.65","11","0.35","182","39","",""
"html-keyboard-response","127","238006","0.0-11.0-1.39","5cd10012174fc60016c10ffd","bdp_rwlrn","Sat Apr 08 2023 12:33:50 GMT-0400 (Eastern Daylight Time)","506296","Trustworthy,Untrustworthy","","1029","","","","decision","","<div class='trialDiv'><img src='Fruit/lime.png'><br><font class='baseline'><strong>Limin' Large</strong><p>Choose number of points to bet.</font><div class='respPicDiv'><img src='img/responseButtonOffersNo0L.png' class='respPic'></div></div>","3","14","Limin' Large","Fruit/lime.png","Won","0.35,0.8","10","0.35","187","40","",""
"html-keyboard-response","128","238266","0.0-11.0-2.39","5cd10012174fc60016c10ffd","bdp_rwlrn","Sat Apr 08 2023 12:33:50 GMT-0400 (Eastern Daylight Time)","506296","Trustworthy,Untrustworthy","","null","","","","decisionFB","","<div class='trialDiv'><img src='Fruit/lime.png'><br><font class='baseline'><strong>Limin' Large</strong><p>Choose number of points to bet.</font><div class='respPicDiv'><img src='img/responseButtonOffersNo0L3.png' class='respPic'></div></div>","null","14","Limin' Large","Fruit/lime.png","Won","0.35,0.8","10","0.35","184","40","",""
"html-keyboard-response","129","239281","0.0-11.0-3.39","5cd10012174fc60016c10ffd","bdp_rwlrn","Sat Apr 08 2023 12:33:50 GMT-0400 (Eastern Daylight Time)","506296","Trustworthy,Untrustworthy","","null","","","","feedback","","<div class='respPicDiv'><img src='img/responseButtonOffersNo0_wht.png' class='respPic'></div><div class='trialDiv'><img src='Fruit/lime.png'><br><font class='baseline'><strong>Limin' Large</strong><p><strong><font class='posOutcome'>You WON</font><p>You bet: 3</strong></font> &nbsp; &nbsp; &nbsp; &nbsp; &nbsp; &nbsp;<font class='posOutcome'>you receive: <strong>6</strong></font></div>","null","14","Limin' Large","Fruit/lime.png","Won","0.35,0.8","10","0.35","190","40","",""
"html-keyboard-response","130","239928","0.0-11.0-1.40","5cd10012174fc60016c10ffd","bdp_rwlrn","Sat Apr 08 2023 12:33:50 GMT-0400 (Eastern Daylight Time)","506296","Trustworthy,Untrustworthy","","643","","","","decision","","<div class='trialDiv'><img src='Fruit/plums1.png'><br><font class='baseline'><strong>Plum Powerball</strong><p>Choose number of points to bet.</font><div class='respPicDiv'><img src='img/responseButtonOffersNo0L.png' class='respPic'></div></div>","5","14","Plum Powerball","Fruit/plums1.png","Won","0.35,0.65","11","0.35","195","41","",""
"html-keyboard-response","131","240188","0.0-11.0-2.40","5cd10012174fc60016c10ffd","bdp_rwlrn","Sat Apr 08 2023 12:33:50 GMT-0400 (Eastern Daylight Time)","506296","Trustworthy,Untrustworthy","","null","","","","decisionFB","","<div class='trialDiv'><img src='Fruit/plums1.png'><br><font class='baseline'><strong>Plum Powerball</strong><p>Choose number of points to bet.</font><div class='respPicDiv'><img src='img/responseButtonOffersNo0L5.png' class='respPic'></div></div>","null","14","Plum Powerball","Fruit/plums1.png","Won","0.35,0.65","11","0.35","190","41","",""
"html-keyboard-response","132","241204","0.0-11.0-3.40","5cd10012174fc60016c10ffd","bdp_rwlrn","Sat Apr 08 2023 12:33:50 GMT-0400 (Eastern Daylight Time)","506296","Trustworthy,Untrustworthy","","null","","","","feedback","","<div class='respPicDiv'><img src='img/responseButtonOffersNo0_wht.png' class='respPic'></div><div class='trialDiv'><img src='Fruit/plums1.png'><br><font class='baseline'><strong>Plum Powerball</strong><p><strong><font class='posOutcome'>You WON</font><p>You bet: 5</strong></font> &nbsp; &nbsp; &nbsp; &nbsp; &nbsp; &nbsp;<font class='posOutcome'>you receive: <strong>10</strong></font></div>","null","14","Plum Powerball","Fruit/plums1.png","Won","0.35,0.65","11","0.35","200","41","",""
"html-keyboard-response","133","242341","0.0-11.0-1.41","5cd10012174fc60016c10ffd","bdp_rwlrn","Sat Apr 08 2023 12:33:50 GMT-0400 (Eastern Daylight Time)","506296","Trustworthy,Untrustworthy","","1133","","","","decision","","<div class='trialDiv'><img src='Fruit/pears.png'><br><font class='baseline'><strong>Pears Aplenty</strong><p>Choose number of points to bet.</font><div class='respPicDiv'><img src='img/responseButtonOffersNo0L.png' class='respPic'></div></div>","1","14","Pears Aplenty","Fruit/pears.png","Won","0.65,0.2","8","0.65","205","42","",""
"html-keyboard-response","134","242595","0.0-11.0-2.41","5cd10012174fc60016c10ffd","bdp_rwlrn","Sat Apr 08 2023 12:33:50 GMT-0400 (Eastern Daylight Time)","506296","Trustworthy,Untrustworthy","","null","","","","decisionFB","","<div class='trialDiv'><img src='Fruit/pears.png'><br><font class='baseline'><strong>Pears Aplenty</strong><p>Choose number of points to bet.</font><div class='respPicDiv'><img src='img/responseButtonOffersNo0L1.png' class='respPic'></div></div>","null","14","Pears Aplenty","Fruit/pears.png","Won","0.65,0.2","8","0.65","204","42","",""
"html-keyboard-response","135","243626","0.0-11.0-3.41","5cd10012174fc60016c10ffd","bdp_rwlrn","Sat Apr 08 2023 12:33:50 GMT-0400 (Eastern Daylight Time)","506296","Trustworthy,Untrustworthy","","null","","","","feedback","","<div class='respPicDiv'><img src='img/responseButtonOffersNo0_wht.png' class='respPic'></div><div class='trialDiv'><img src='Fruit/pears.png'><br><font class='baseline'><strong>Pears Aplenty</strong><p><strong><font class='posOutcome'>You WON</font><p>You bet: 1</strong></font> &nbsp; &nbsp; &nbsp; &nbsp; &nbsp; &nbsp;<font class='posOutcome'>you receive: <strong>2</strong></font></div>","null","14","Pears Aplenty","Fruit/pears.png","Won","0.65,0.2","8","0.65","206","42","",""
"html-keyboard-response","136","244539","0.0-11.0-1.42","5cd10012174fc60016c10ffd","bdp_rwlrn","Sat Apr 08 2023 12:33:50 GMT-0400 (Eastern Daylight Time)","506296","Trustworthy,Untrustworthy","","909","","","","decision","","<div class='trialDiv'><img src='Fruit/lime.png'><br><font class='baseline'><strong>Limin' Large</strong><p>Choose number of points to bet.</font><div class='respPicDiv'><img src='img/responseButtonOffersNo0L.png' class='respPic'></div></div>","3","15","Limin' Large","Fruit/lime.png","Won","0.35,0.8","10","0.35","211","43","",""
"html-keyboard-response","137","244799","0.0-11.0-2.42","5cd10012174fc60016c10ffd","bdp_rwlrn","Sat Apr 08 2023 12:33:50 GMT-0400 (Eastern Daylight Time)","506296","Trustworthy,Untrustworthy","","null","","","","decisionFB","","<div class='trialDiv'><img src='Fruit/lime.png'><br><font class='baseline'><strong>Limin' Large</strong><p>Choose number of points to bet.</font><div class='respPicDiv'><img src='img/responseButtonOffersNo0L3.png' class='respPic'></div></div>","null","15","Limin' Large","Fruit/lime.png","Won","0.35,0.8","10","0.35","208","43","",""
"html-keyboard-response","138","245815","0.0-11.0-3.42","5cd10012174fc60016c10ffd","bdp_rwlrn","Sat Apr 08 2023 12:33:50 GMT-0400 (Eastern Daylight Time)","506296","Trustworthy,Untrustworthy","","null","","","","feedback","","<div class='respPicDiv'><img src='img/responseButtonOffersNo0_wht.png' class='respPic'></div><div class='trialDiv'><img src='Fruit/lime.png'><br><font class='baseline'><strong>Limin' Large</strong><p><strong><font class='posOutcome'>You WON</font><p>You bet: 3</strong></font> &nbsp; &nbsp; &nbsp; &nbsp; &nbsp; &nbsp;<font class='posOutcome'>you receive: <strong>6</strong></font></div>","null","15","Limin' Large","Fruit/lime.png","Won","0.35,0.8","10","0.35","214","43","",""
"html-keyboard-response","139","246453","0.0-11.0-1.43","5cd10012174fc60016c10ffd","bdp_rwlrn","Sat Apr 08 2023 12:33:50 GMT-0400 (Eastern Daylight Time)","506296","Trustworthy,Untrustworthy","","635","","","","decision","","<div class='trialDiv'><img src='Fruit/plums1.png'><br><font class='baseline'><strong>Plum Powerball</strong><p>Choose number of points to bet.</font><div class='respPicDiv'><img src='img/responseButtonOffersNo0L.png' class='respPic'></div></div>","5","15","Plum Powerball","Fruit/plums1.png","Lost","0.35,0.65","11","0.35","219","44","",""
"html-keyboard-response","140","246721","0.0-11.0-2.43","5cd10012174fc60016c10ffd","bdp_rwlrn","Sat Apr 08 2023 12:33:50 GMT-0400 (Eastern Daylight Time)","506296","Trustworthy,Untrustworthy","","null","","","","decisionFB","","<div class='trialDiv'><img src='Fruit/plums1.png'><br><font class='baseline'><strong>Plum Powerball</strong><p>Choose number of points to bet.</font><div class='respPicDiv'><img src='img/responseButtonOffersNo0L5.png' class='respPic'></div></div>","null","15","Plum Powerball","Fruit/plums1.png","Lost","0.35,0.65","11","0.35","214","44","",""
"html-keyboard-response","141","247736","0.0-11.0-3.43","5cd10012174fc60016c10ffd","bdp_rwlrn","Sat Apr 08 2023 12:33:50 GMT-0400 (Eastern Daylight Time)","506296","Trustworthy,Untrustworthy","","null","","","","feedback","","<div class='respPicDiv'><img src='img/responseButtonOffersNo0_wht.png' class='respPic'></div><div class='trialDiv'><img src='Fruit/plums1.png'><br><font class='baseline'><strong>Plum Powerball</strong><p><strong><font class='negOutcome'>You LOST</font><p>You bet: 5</strong></font> &nbsp; &nbsp; &nbsp; &nbsp; &nbsp; &nbsp;<font class='negOutcome'>You receive: <strong>0</strong></font></div>","null","15","Plum Powerball","Fruit/plums1.png","Lost","0.35,0.65","11","0.35","214","44","",""
"html-keyboard-response","142","249351","0.0-11.0-1.44","5cd10012174fc60016c10ffd","bdp_rwlrn","Sat Apr 08 2023 12:33:50 GMT-0400 (Eastern Daylight Time)","506296","Trustworthy,Untrustworthy","","1610","","","","decision","","<div class='trialDiv'><img src='Fruit/pears.png'><br><font class='baseline'><strong>Pears Aplenty</strong><p>Choose number of points to bet.</font><div class='respPicDiv'><img src='img/responseButtonOffersNo0L.png' class='respPic'></div></div>","1","15","Pears Aplenty","Fruit/pears.png","Lost","0.65,0.2","8","0.65","219","45","",""
"html-keyboard-response","143","249612","0.0-11.0-2.44","5cd10012174fc60016c10ffd","bdp_rwlrn","Sat Apr 08 2023 12:33:50 GMT-0400 (Eastern Daylight Time)","506296","Trustworthy,Untrustworthy","","null","","","","decisionFB","","<div class='trialDiv'><img src='Fruit/pears.png'><br><font class='baseline'><strong>Pears Aplenty</strong><p>Choose number of points to bet.</font><div class='respPicDiv'><img src='img/responseButtonOffersNo0L1.png' class='respPic'></div></div>","null","15","Pears Aplenty","Fruit/pears.png","Lost","0.65,0.2","8","0.65","218","45","",""
"html-keyboard-response","144","250628","0.0-11.0-3.44","5cd10012174fc60016c10ffd","bdp_rwlrn","Sat Apr 08 2023 12:33:50 GMT-0400 (Eastern Daylight Time)","506296","Trustworthy,Untrustworthy","","null","","","","feedback","","<div class='respPicDiv'><img src='img/responseButtonOffersNo0_wht.png' class='respPic'></div><div class='trialDiv'><img src='Fruit/pears.png'><br><font class='baseline'><strong>Pears Aplenty</strong><p><strong><font class='negOutcome'>You LOST</font><p>You bet: 1</strong></font> &nbsp; &nbsp; &nbsp; &nbsp; &nbsp; &nbsp;<font class='negOutcome'>You receive: <strong>0</strong></font></div>","null","15","Pears Aplenty","Fruit/pears.png","Lost","0.65,0.2","8","0.65","218","45","",""
"html-keyboard-response","145","251630","0.0-11.0-1.45","5cd10012174fc60016c10ffd","bdp_rwlrn","Sat Apr 08 2023 12:33:50 GMT-0400 (Eastern Daylight Time)","506296","Trustworthy,Untrustworthy","","999","","","","decision","","<div class='trialDiv'><img src='Fruit/plums1.png'><br><font class='baseline'><strong>Plum Powerball</strong><p>Choose number of points to bet.</font><div class='respPicDiv'><img src='img/responseButtonOffersNo0L.png' class='respPic'></div></div>","5","16","Plum Powerball","Fruit/plums1.png","Won","0.35,0.65","11","0.35","223","46","",""
"html-keyboard-response","146","251893","0.0-11.0-2.45","5cd10012174fc60016c10ffd","bdp_rwlrn","Sat Apr 08 2023 12:33:50 GMT-0400 (Eastern Daylight Time)","506296","Trustworthy,Untrustworthy","","null","","","","decisionFB","","<div class='trialDiv'><img src='Fruit/plums1.png'><br><font class='baseline'><strong>Plum Powerball</strong><p>Choose number of points to bet.</font><div class='respPicDiv'><img src='img/responseButtonOffersNo0L5.png' class='respPic'></div></div>","null","16","Plum Powerball","Fruit/plums1.png","Won","0.35,0.65","11","0.35","218","46","",""
"html-keyboard-response","147","252909","0.0-11.0-3.45","5cd10012174fc60016c10ffd","bdp_rwlrn","Sat Apr 08 2023 12:33:50 GMT-0400 (Eastern Daylight Time)","506296","Trustworthy,Untrustworthy","","null","","","","feedback","","<div class='respPicDiv'><img src='img/responseButtonOffersNo0_wht.png' class='respPic'></div><div class='trialDiv'><img src='Fruit/plums1.png'><br><font class='baseline'><strong>Plum Powerball</strong><p><strong><font class='posOutcome'>You WON</font><p>You bet: 5</strong></font> &nbsp; &nbsp; &nbsp; &nbsp; &nbsp; &nbsp;<font class='posOutcome'>you receive: <strong>10</strong></font></div>","null","16","Plum Powerball","Fruit/plums1.png","Won","0.35,0.65","11","0.35","228","46","",""
"html-keyboard-response","148","253948","0.0-11.0-1.46","5cd10012174fc60016c10ffd","bdp_rwlrn","Sat Apr 08 2023 12:33:50 GMT-0400 (Eastern Daylight Time)","506296","Trustworthy,Untrustworthy","","1035","","","","decision","","<div class='trialDiv'><img src='Fruit/pears.png'><br><font class='baseline'><strong>Pears Aplenty</strong><p>Choose number of points to bet.</font><div class='respPicDiv'><img src='img/responseButtonOffersNo0L.png' class='respPic'></div></div>","2","16","Pears Aplenty","Fruit/pears.png","Won","0.65,0.2","8","0.65","233","47","",""
"html-keyboard-response","149","254206","0.0-11.0-2.46","5cd10012174fc60016c10ffd","bdp_rwlrn","Sat Apr 08 2023 12:33:50 GMT-0400 (Eastern Daylight Time)","506296","Trustworthy,Untrustworthy","","null","","","","decisionFB","","<div class='trialDiv'><img src='Fruit/pears.png'><br><font class='baseline'><strong>Pears Aplenty</strong><p>Choose number of points to bet.</font><div class='respPicDiv'><img src='img/responseButtonOffersNo0L2.png' class='respPic'></div></div>","null","16","Pears Aplenty","Fruit/pears.png","Won","0.65,0.2","8","0.65","231","47","",""
"html-keyboard-response","150","255238","0.0-11.0-3.46","5cd10012174fc60016c10ffd","bdp_rwlrn","Sat Apr 08 2023 12:33:50 GMT-0400 (Eastern Daylight Time)","506296","Trustworthy,Untrustworthy","","null","","","","feedback","","<div class='respPicDiv'><img src='img/responseButtonOffersNo0_wht.png' class='respPic'></div><div class='trialDiv'><img src='Fruit/pears.png'><br><font class='baseline'><strong>Pears Aplenty</strong><p><strong><font class='posOutcome'>You WON</font><p>You bet: 2</strong></font> &nbsp; &nbsp; &nbsp; &nbsp; &nbsp; &nbsp;<font class='posOutcome'>you receive: <strong>4</strong></font></div>","null","16","Pears Aplenty","Fruit/pears.png","Won","0.65,0.2","8","0.65","235","47","",""
"html-keyboard-response","151","256036","0.0-11.0-1.47","5cd10012174fc60016c10ffd","bdp_rwlrn","Sat Apr 08 2023 12:33:50 GMT-0400 (Eastern Daylight Time)","506296","Trustworthy,Untrustworthy","","794","","","","decision","","<div class='trialDiv'><img src='Fruit/lime.png'><br><font class='baseline'><strong>Limin' Large</strong><p>Choose number of points to bet.</font><div class='respPicDiv'><img src='img/responseButtonOffersNo0L.png' class='respPic'></div></div>","3","16","Limin' Large","Fruit/lime.png","Won","0.35,0.8","10","0.35","240","48","",""
"html-keyboard-response","152","256300","0.0-11.0-2.47","5cd10012174fc60016c10ffd","bdp_rwlrn","Sat Apr 08 2023 12:33:50 GMT-0400 (Eastern Daylight Time)","506296","Trustworthy,Untrustworthy","","null","","","","decisionFB","","<div class='trialDiv'><img src='Fruit/lime.png'><br><font class='baseline'><strong>Limin' Large</strong><p>Choose number of points to bet.</font><div class='respPicDiv'><img src='img/responseButtonOffersNo0L3.png' class='respPic'></div></div>","null","16","Limin' Large","Fruit/lime.png","Won","0.35,0.8","10","0.35","237","48","",""
"html-keyboard-response","153","257318","0.0-11.0-3.47","5cd10012174fc60016c10ffd","bdp_rwlrn","Sat Apr 08 2023 12:33:50 GMT-0400 (Eastern Daylight Time)","506296","Trustworthy,Untrustworthy","","null","","","","feedback","","<div class='respPicDiv'><img src='img/responseButtonOffersNo0_wht.png' class='respPic'></div><div class='trialDiv'><img src='Fruit/lime.png'><br><font class='baseline'><strong>Limin' Large</strong><p><strong><font class='posOutcome'>You WON</font><p>You bet: 3</strong></font> &nbsp; &nbsp; &nbsp; &nbsp; &nbsp; &nbsp;<font class='posOutcome'>you receive: <strong>6</strong></font></div>","null","16","Limin' Large","Fruit/lime.png","Won","0.35,0.8","10","0.35","243","48","",""
"html-keyboard-response","154","258179","0.0-11.0-1.48","5cd10012174fc60016c10ffd","bdp_rwlrn","Sat Apr 08 2023 12:33:50 GMT-0400 (Eastern Daylight Time)","506296","Trustworthy,Untrustworthy","","857","","","","decision","","<div class='trialDiv'><img src='Fruit/pears.png'><br><font class='baseline'><strong>Pears Aplenty</strong><p>Choose number of points to bet.</font><div class='respPicDiv'><img src='img/responseButtonOffersNo0L.png' class='respPic'></div></div>","2","17","Pears Aplenty","Fruit/pears.png","Won","0.65,0.2","8","0.65","248","49","",""
"html-keyboard-response","155","258444","0.0-11.0-2.48","5cd10012174fc60016c10ffd","bdp_rwlrn","Sat Apr 08 2023 12:33:50 GMT-0400 (Eastern Daylight Time)","506296","Trustworthy,Untrustworthy","","null","","","","decisionFB","","<div class='trialDiv'><img src='Fruit/pears.png'><br><font class='baseline'><strong>Pears Aplenty</strong><p>Choose number of points to bet.</font><div class='respPicDiv'><img src='img/responseButtonOffersNo0L2.png' class='respPic'></div></div>","null","17","Pears Aplenty","Fruit/pears.png","Won","0.65,0.2","8","0.65","246","49","",""
"html-keyboard-response","156","259459","0.0-11.0-3.48","5cd10012174fc60016c10ffd","bdp_rwlrn","Sat Apr 08 2023 12:33:50 GMT-0400 (Eastern Daylight Time)","506296","Trustworthy,Untrustworthy","","null","","","","feedback","","<div class='respPicDiv'><img src='img/responseButtonOffersNo0_wht.png' class='respPic'></div><div class='trialDiv'><img src='Fruit/pears.png'><br><font class='baseline'><strong>Pears Aplenty</strong><p><strong><font class='posOutcome'>You WON</font><p>You bet: 2</strong></font> &nbsp; &nbsp; &nbsp; &nbsp; &nbsp; &nbsp;<font class='posOutcome'>you receive: <strong>4</strong></font></div>","null","17","Pears Aplenty","Fruit/pears.png","Won","0.65,0.2","8","0.65","250","49","",""
"html-keyboard-response","157","260107","0.0-11.0-1.49","5cd10012174fc60016c10ffd","bdp_rwlrn","Sat Apr 08 2023 12:33:50 GMT-0400 (Eastern Daylight Time)","506296","Trustworthy,Untrustworthy","","644","","","","decision","","<div class='trialDiv'><img src='Fruit/plums1.png'><br><font class='baseline'><strong>Plum Powerball</strong><p>Choose number of points to bet.</font><div class='respPicDiv'><img src='img/responseButtonOffersNo0L.png' class='respPic'></div></div>","5","17","Plum Powerball","Fruit/plums1.png","Won","0.35,0.65","11","0.35","255","50","",""
"html-keyboard-response","158","260365","0.0-11.0-2.49","5cd10012174fc60016c10ffd","bdp_rwlrn","Sat Apr 08 2023 12:33:50 GMT-0400 (Eastern Daylight Time)","506296","Trustworthy,Untrustworthy","","null","","","","decisionFB","","<div class='trialDiv'><img src='Fruit/plums1.png'><br><font class='baseline'><strong>Plum Powerball</strong><p>Choose number of points to bet.</font><div class='respPicDiv'><img src='img/responseButtonOffersNo0L5.png' class='respPic'></div></div>","null","17","Plum Powerball","Fruit/plums1.png","Won","0.35,0.65","11","0.35","250","50","",""
"html-keyboard-response","159","261397","0.0-11.0-3.49","5cd10012174fc60016c10ffd","bdp_rwlrn","Sat Apr 08 2023 12:33:50 GMT-0400 (Eastern Daylight Time)","506296","Trustworthy,Untrustworthy","","null","","","","feedback","","<div class='respPicDiv'><img src='img/responseButtonOffersNo0_wht.png' class='respPic'></div><div class='trialDiv'><img src='Fruit/plums1.png'><br><font class='baseline'><strong>Plum Powerball</strong><p><strong><font class='posOutcome'>You WON</font><p>You bet: 5</strong></font> &nbsp; &nbsp; &nbsp; &nbsp; &nbsp; &nbsp;<font class='posOutcome'>you receive: <strong>10</strong></font></div>","null","17","Plum Powerball","Fruit/plums1.png","Won","0.35,0.65","11","0.35","260","50","",""
"html-keyboard-response","160","262161","0.0-11.0-1.50","5cd10012174fc60016c10ffd","bdp_rwlrn","Sat Apr 08 2023 12:33:50 GMT-0400 (Eastern Daylight Time)","506296","Trustworthy,Untrustworthy","","759","","","","decision","","<div class='trialDiv'><img src='Fruit/lime.png'><br><font class='baseline'><strong>Limin' Large</strong><p>Choose number of points to bet.</font><div class='respPicDiv'><img src='img/responseButtonOffersNo0L.png' class='respPic'></div></div>","3","17","Limin' Large","Fruit/lime.png","Won","0.35,0.8","10","0.35","265","51","",""
"html-keyboard-response","161","262428","0.0-11.0-2.50","5cd10012174fc60016c10ffd","bdp_rwlrn","Sat Apr 08 2023 12:33:50 GMT-0400 (Eastern Daylight Time)","506296","Trustworthy,Untrustworthy","","null","","","","decisionFB","","<div class='trialDiv'><img src='Fruit/lime.png'><br><font class='baseline'><strong>Limin' Large</strong><p>Choose number of points to bet.</font><div class='respPicDiv'><img src='img/responseButtonOffersNo0L3.png' class='respPic'></div></div>","null","17","Limin' Large","Fruit/lime.png","Won","0.35,0.8","10","0.35","262","51","",""
"html-keyboard-response","162","263444","0.0-11.0-3.50","5cd10012174fc60016c10ffd","bdp_rwlrn","Sat Apr 08 2023 12:33:50 GMT-0400 (Eastern Daylight Time)","506296","Trustworthy,Untrustworthy","","null","","","","feedback","","<div class='respPicDiv'><img src='img/responseButtonOffersNo0_wht.png' class='respPic'></div><div class='trialDiv'><img src='Fruit/lime.png'><br><font class='baseline'><strong>Limin' Large</strong><p><strong><font class='posOutcome'>You WON</font><p>You bet: 3</strong></font> &nbsp; &nbsp; &nbsp; &nbsp; &nbsp; &nbsp;<font class='posOutcome'>you receive: <strong>6</strong></font></div>","null","17","Limin' Large","Fruit/lime.png","Won","0.35,0.8","10","0.35","268","51","",""
"html-keyboard-response","163","264130","0.0-11.0-1.51","5cd10012174fc60016c10ffd","bdp_rwlrn","Sat Apr 08 2023 12:33:50 GMT-0400 (Eastern Daylight Time)","506296","Trustworthy,Untrustworthy","","682","","","","decision","","<div class='trialDiv'><img src='Fruit/plums1.png'><br><font class='baseline'><strong>Plum Powerball</strong><p>Choose number of points to bet.</font><div class='respPicDiv'><img src='img/responseButtonOffersNo0L.png' class='respPic'></div></div>","5","18","Plum Powerball","Fruit/plums1.png","Lost","0.35,0.65","11","0.35","273","52","",""
