"trial_type","trial_index","time_elapsed","internal_node_id","subject_id","task","startTime","totalTime","labels","view_history","rt","event","trial","time","trialtype","success","stimulus","key_press","ltround","name","fileID","outcome","lottotype","lottoswpt","lottocurrpshare","point_total","round","faceID","face"
"pavlovia","0","6","0.0-0.0","5f5691fb24d1090e6bcdf1ec","bdp_rwlrn","Sun Mar 12 2023 15:50:47 GMT-0500 (Central Daylight Time)","443622","Trustworthy,Untrustworthy","","","","","","","","","","","","","","","","","","","",""
"instructions","1","5884","0.0-1.0","5f5691fb24d1090e6bcdf1ec","bdp_rwlrn","Sun Mar 12 2023 15:50:47 GMT-0500 (Central Daylight Time)","443622","Trustworthy,Untrustworthy","[{""page_index"":0,""viewing_time"":5877}]","5877","","","","","","","","","","","","","","","","","",""
"","","","","5f5691fb24d1090e6bcdf1ec","bdp_rwlrn","Sun Mar 12 2023 15:50:47 GMT-0500 (Central Daylight Time)","443622","Trustworthy,Untrustworthy","","","fullscreenenter","2","7745","fullscreenenter","","","","","","","","","","","","","",""
"fullscreen","2","8739","0.0-2.0","5f5691fb24d1090e6bcdf1ec","bdp_rwlrn","Sun Mar 12 2023 15:50:47 GMT-0500 (Central Daylight Time)","443622","Trustworthy,Untrustworthy","","","","","","","true","","","","","","","","","","","","",""
"instructions","3","72761","0.0-4.0","5f5691fb24d1090e6bcdf1ec","bdp_rwlrn","Sun Mar 12 2023 15:50:47 GMT-0500 (Central Daylight Time)","443622","Trustworthy,Untrustworthy","[{""page_index"":0,""viewing_time"":9226},{""page_index"":1,""viewing_time"":9974},{""page_index"":2,""viewing_time"":12144},{""page_index"":3,""viewing_time"":6771},{""page_index"":4,""viewing_time"":18510},{""page_index"":5,""viewing_time"":7390}]","64015","","","","","","","","","","","","","","","","","",""
"html-keyboard-response","4","77215","0.0-5.0","5f5691fb24d1090e6bcdf1ec","bdp_rwlrn","Sun Mar 12 2023 15:50:47 GMT-0500 (Central Daylight Time)","443622","Trustworthy,Untrustworthy","","4450","","","","","","<div class='header' style='text-align:left; position: absolute; top: 5%; left: 5%;'><small>Task 1 of 5</small></div><div class='instruxDiv'><p><strong>1) What is the maximum number of points you can choose to bet on a lottery?</strong></p><p>a) 0</p><p>b) 1</p><p>c) 5</p>","C","","","","","","","","","","",""
"html-keyboard-response","5","79476","0.0-6.0","5f5691fb24d1090e6bcdf1ec","bdp_rwlrn","Sun Mar 12 2023 15:50:47 GMT-0500 (Central Daylight Time)","443622","Trustworthy,Untrustworthy","","2156","","","","","","<div class='header' style='text-align:left; position: absolute; top: 5%; left: 5%;'><small>Task 1 of 5</small></div><div class='instruxDiv'><p><strong>1) What is the maximum number of points you can choose to bet on a lottery?</strong></p><p>a) 1</p><p>b) 1</p><p style='color:#00FF00'>c) 5</p><h3 style='color:#00FF00'>Correct!</h3><h3 class='center-content'>The correct response is c).</h3><h3 class='center-content'>The maximum number of points you can choose to bet on a lottery is 5 points.</h3><p><em>Press SPACEBAR to continue</em></p></div>"," ","","","","","","","","","","",""
"html-keyboard-response","6","83000","0.0-7.0","5f5691fb24d1090e6bcdf1ec","bdp_rwlrn","Sun Mar 12 2023 15:50:47 GMT-0500 (Central Daylight Time)","443622","Trustworthy,Untrustworthy","","3417","","","","","","<div class='header' style='text-align:left; position: absolute; top: 5%; left: 5%;'><small>Task 1 of 5</small></div><div class='instruxDiv'><p><strong>2) How many points can you win each round?</strong></p><p>a) 10 points</p><p>b) Double what you bet</p><p>c) Quadruple what you bet</p>","B","","","","","","","","","","",""
"html-keyboard-response","7","86341","0.0-8.0","5f5691fb24d1090e6bcdf1ec","bdp_rwlrn","Sun Mar 12 2023 15:50:47 GMT-0500 (Central Daylight Time)","443622","Trustworthy,Untrustworthy","","3235","","","","","","<div class='header' style='text-align:left; position: absolute; top: 5%; left: 5%;'><small>Task 1 of 5</small></div><div class='instruxDiv'><p><strong>2) How many points can you win each round?</strong></p><p>a) 10 points</p><p style='color:#00FF00'>b) Double what you bet</p><p>c) Quadruple what you bet</p><h3 style='color:#00FF00'>Correct!</h3><h3 class='center-content'>The correct response is b).</h3><h3 class='center-content'>You can win double the amount of points you bet.</h3><p><em>Press SPACEBAR to continue</em></p></div>"," ","","","","","","","","","","",""
"html-keyboard-response","8","91450","0.0-9.0","5f5691fb24d1090e6bcdf1ec","bdp_rwlrn","Sun Mar 12 2023 15:50:47 GMT-0500 (Central Daylight Time)","443622","Trustworthy,Untrustworthy","","null","","","","","","<div class='header' style='text-align:left; position: absolute; top: 5%; left: 5%;'><small>Task 1 of 5</small></div><div class='instruxDiv'><p>Thank you for completing the quiz<p>These are the actual lotteries you will be playing in the next block:<p><div class='tc' align='center'><img class='introPic' src='Fruit/pineapple.png'><br><strong>Primo Pineapple</strong></div><div class='bl' align='center'><img class='introPic' src='Fruit/orange.png'><br><strong>Odds are Orange</strong></div><div class='br' align='center'><img class='introPic' src='Fruit/grapes.png'><br><strong>Great Grapes</strong></div></div><p>Across <strong>66 rounds</strong> you will play each lottery <strong>22 times</strong> (in random order).<p style='align:center; color:white'><font <em>Press SPACEBAR to continue</em></p>","null","","","","","","","","","","",""
"instructions","9","101359","0.0-10.0","5f5691fb24d1090e6bcdf1ec","bdp_rwlrn","Sun Mar 12 2023 15:50:47 GMT-0500 (Central Daylight Time)","443622","Trustworthy,Untrustworthy","[{""page_index"":0,""viewing_time"":7606},{""page_index"":1,""viewing_time"":2301}]","9908","","","","","","","","","","","","","","","","","",""
"html-keyboard-response","10","109399","0.0-11.0-1.0","5f5691fb24d1090e6bcdf1ec","bdp_rwlrn","Sun Mar 12 2023 15:50:47 GMT-0500 (Central Daylight Time)","443622","Trustworthy,Untrustworthy","","7931","","","","decision","","<div class='trialDiv'><img src='Fruit/orange.png'><br><font class='baseline'><strong>Odds are Orange</strong><p>Choose number of points to bet.</font><div class='respPicDiv'><img src='img/responseButtonOffersNo0L.png' class='respPic'></div></div>","3","1","Odds are Orange","Fruit/orange.png","Won","0.8,0.35","9","0.8","5","1","",""
"html-keyboard-response","11","109657","0.0-11.0-2.0","5f5691fb24d1090e6bcdf1ec","bdp_rwlrn","Sun Mar 12 2023 15:50:47 GMT-0500 (Central Daylight Time)","443622","Trustworthy,Untrustworthy","","null","","","","decisionFB","","<div class='trialDiv'><img src='Fruit/orange.png'><br><font class='baseline'><strong>Odds are Orange</strong><p>Choose number of points to bet.</font><div class='respPicDiv'><img src='img/responseButtonOffersNo0L3.png' class='respPic'></div></div>","null","1","Odds are Orange","Fruit/orange.png","Won","0.8,0.35","9","0.8","2","1","",""
"html-keyboard-response","12","110665","0.0-11.0-3.0","5f5691fb24d1090e6bcdf1ec","bdp_rwlrn","Sun Mar 12 2023 15:50:47 GMT-0500 (Central Daylight Time)","443622","Trustworthy,Untrustworthy","","null","","","","feedback","","<div class='respPicDiv'><img src='img/responseButtonOffersNo0_wht.png' class='respPic'></div><div class='trialDiv'><img src='Fruit/orange.png'><br><font class='baseline'><strong>Odds are Orange</strong><p><strong><font class='posOutcome'>You WON</font><p>You bet: 3</strong></font> &nbsp; &nbsp; &nbsp; &nbsp; &nbsp; &nbsp;<font class='posOutcome'>you receive: <strong>6</strong></font></div>","null","1","Odds are Orange","Fruit/orange.png","Won","0.8,0.35","9","0.8","8","1","",""
"html-keyboard-response","13","112844","0.0-11.0-1.1","5f5691fb24d1090e6bcdf1ec","bdp_rwlrn","Sun Mar 12 2023 15:50:47 GMT-0500 (Central Daylight Time)","443622","Trustworthy,Untrustworthy","","2176","","","","decision","","<div class='trialDiv'><img src='Fruit/grapes.png'><br><font class='baseline'><strong>Great Grapes</strong><p>Choose number of points to bet.</font><div class='respPicDiv'><img src='img/responseButtonOffersNo0L.png' class='respPic'></div></div>","3","1","Great Grapes","Fruit/grapes.png","Lost","0.35,0.8","13","0.35","13","2","",""
"html-keyboard-response","14","113102","0.0-11.0-2.1","5f5691fb24d1090e6bcdf1ec","bdp_rwlrn","Sun Mar 12 2023 15:50:47 GMT-0500 (Central Daylight Time)","443622","Trustworthy,Untrustworthy","","null","","","","decisionFB","","<div class='trialDiv'><img src='Fruit/grapes.png'><br><font class='baseline'><strong>Great Grapes</strong><p>Choose number of points to bet.</font><div class='respPicDiv'><img src='img/responseButtonOffersNo0L3.png' class='respPic'></div></div>","null","1","Great Grapes","Fruit/grapes.png","Lost","0.35,0.8","13","0.35","10","2","",""
"html-keyboard-response","15","114108","0.0-11.0-3.1","5f5691fb24d1090e6bcdf1ec","bdp_rwlrn","Sun Mar 12 2023 15:50:47 GMT-0500 (Central Daylight Time)","443622","Trustworthy,Untrustworthy","","null","","","","feedback","","<div class='respPicDiv'><img src='img/responseButtonOffersNo0_wht.png' class='respPic'></div><div class='trialDiv'><img src='Fruit/grapes.png'><br><font class='baseline'><strong>Great Grapes</strong><p><strong><font class='negOutcome'>You LOST</font><p>You bet: 3</strong></font> &nbsp; &nbsp; &nbsp; &nbsp; &nbsp; &nbsp;<font class='negOutcome'>You receive: <strong>0</strong></font></div>","null","1","Great Grapes","Fruit/grapes.png","Lost","0.35,0.8","13","0.35","10","2","",""
"html-keyboard-response","16","115399","0.0-11.0-1.2","5f5691fb24d1090e6bcdf1ec","bdp_rwlrn","Sun Mar 12 2023 15:50:47 GMT-0500 (Central Daylight Time)","443622","Trustworthy,Untrustworthy","","1288","","","","decision","","<div class='trialDiv'><img src='Fruit/pineapple.png'><br><font class='baseline'><strong>Primo Pineapple</strong><p>Choose number of points to bet.</font><div class='respPicDiv'><img src='img/responseButtonOffersNo0L.png' class='respPic'></div></div>","3","1","Primo Pineapple","Fruit/pineapple.png","Won","0.65,0.35","12","0.65","15","3","",""
"html-keyboard-response","17","115657","0.0-11.0-2.2","5f5691fb24d1090e6bcdf1ec","bdp_rwlrn","Sun Mar 12 2023 15:50:47 GMT-0500 (Central Daylight Time)","443622","Trustworthy,Untrustworthy","","null","","","","decisionFB","","<div class='trialDiv'><img src='Fruit/pineapple.png'><br><font class='baseline'><strong>Primo Pineapple</strong><p>Choose number of points to bet.</font><div class='respPicDiv'><img src='img/responseButtonOffersNo0L3.png' class='respPic'></div></div>","null","1","Primo Pineapple","Fruit/pineapple.png","Won","0.65,0.35","12","0.65","12","3","",""
"html-keyboard-response","18","116665","0.0-11.0-3.2","5f5691fb24d1090e6bcdf1ec","bdp_rwlrn","Sun Mar 12 2023 15:50:47 GMT-0500 (Central Daylight Time)","443622","Trustworthy,Untrustworthy","","null","","","","feedback","","<div class='respPicDiv'><img src='img/responseButtonOffersNo0_wht.png' class='respPic'></div><div class='trialDiv'><img src='Fruit/pineapple.png'><br><font class='baseline'><strong>Primo Pineapple</strong><p><strong><font class='posOutcome'>You WON</font><p>You bet: 3</strong></font> &nbsp; &nbsp; &nbsp; &nbsp; &nbsp; &nbsp;<font class='posOutcome'>you receive: <strong>6</strong></font></div>","null","1","Primo Pineapple","Fruit/pineapple.png","Won","0.65,0.35","12","0.65","18","3","",""
"html-keyboard-response","19","117757","0.0-11.0-1.3","5f5691fb24d1090e6bcdf1ec","bdp_rwlrn","Sun Mar 12 2023 15:50:47 GMT-0500 (Central Daylight Time)","443622","Trustworthy,Untrustworthy","","1089","","","","decision","","<div class='trialDiv'><img src='Fruit/orange.png'><br><font class='baseline'><strong>Odds are Orange</strong><p>Choose number of points to bet.</font><div class='respPicDiv'><img src='img/responseButtonOffersNo0L.png' class='respPic'></div></div>","4","2","Odds are Orange","Fruit/orange.png","Won","0.8,0.35","9","0.8","23","4","",""
"html-keyboard-response","20","118015","0.0-11.0-2.3","5f5691fb24d1090e6bcdf1ec","bdp_rwlrn","Sun Mar 12 2023 15:50:47 GMT-0500 (Central Daylight Time)","443622","Trustworthy,Untrustworthy","","null","","","","decisionFB","","<div class='trialDiv'><img src='Fruit/orange.png'><br><font class='baseline'><strong>Odds are Orange</strong><p>Choose number of points to bet.</font><div class='respPicDiv'><img src='img/responseButtonOffersNo0L4.png' class='respPic'></div></div>","null","2","Odds are Orange","Fruit/orange.png","Won","0.8,0.35","9","0.8","19","4","",""
"html-keyboard-response","21","119023","0.0-11.0-3.3","5f5691fb24d1090e6bcdf1ec","bdp_rwlrn","Sun Mar 12 2023 15:50:47 GMT-0500 (Central Daylight Time)","443622","Trustworthy,Untrustworthy","","null","","","","feedback","","<div class='respPicDiv'><img src='img/responseButtonOffersNo0_wht.png' class='respPic'></div><div class='trialDiv'><img src='Fruit/orange.png'><br><font class='baseline'><strong>Odds are Orange</strong><p><strong><font class='posOutcome'>You WON</font><p>You bet: 4</strong></font> &nbsp; &nbsp; &nbsp; &nbsp; &nbsp; &nbsp;<font class='posOutcome'>you receive: <strong>8</strong></font></div>","null","2","Odds are Orange","Fruit/orange.png","Won","0.8,0.35","9","0.8","27","4","",""
"html-keyboard-response","22","119718","0.0-11.0-1.4","5f5691fb24d1090e6bcdf1ec","bdp_rwlrn","Sun Mar 12 2023 15:50:47 GMT-0500 (Central Daylight Time)","443622","Trustworthy,Untrustworthy","","693","","","","decision","","<div class='trialDiv'><img src='Fruit/grapes.png'><br><font class='baseline'><strong>Great Grapes</strong><p>Choose number of points to bet.</font><div class='respPicDiv'><img src='img/responseButtonOffersNo0L.png' class='respPic'></div></div>","1","2","Great Grapes","Fruit/grapes.png","Won","0.35,0.8","13","0.35","32","5","",""
"html-keyboard-response","23","119974","0.0-11.0-2.4","5f5691fb24d1090e6bcdf1ec","bdp_rwlrn","Sun Mar 12 2023 15:50:47 GMT-0500 (Central Daylight Time)","443622","Trustworthy,Untrustworthy","","null","","","","decisionFB","","<div class='trialDiv'><img src='Fruit/grapes.png'><br><font class='baseline'><strong>Great Grapes</strong><p>Choose number of points to bet.</font><div class='respPicDiv'><img src='img/responseButtonOffersNo0L1.png' class='respPic'></div></div>","null","2","Great Grapes","Fruit/grapes.png","Won","0.35,0.8","13","0.35","31","5","",""
"html-keyboard-response","24","120982","0.0-11.0-3.4","5f5691fb24d1090e6bcdf1ec","bdp_rwlrn","Sun Mar 12 2023 15:50:47 GMT-0500 (Central Daylight Time)","443622","Trustworthy,Untrustworthy","","null","","","","feedback","","<div class='respPicDiv'><img src='img/responseButtonOffersNo0_wht.png' class='respPic'></div><div class='trialDiv'><img src='Fruit/grapes.png'><br><font class='baseline'><strong>Great Grapes</strong><p><strong><font class='posOutcome'>You WON</font><p>You bet: 1</strong></font> &nbsp; &nbsp; &nbsp; &nbsp; &nbsp; &nbsp;<font class='posOutcome'>you receive: <strong>2</strong></font></div>","null","2","Great Grapes","Fruit/grapes.png","Won","0.35,0.8","13","0.35","33","5","",""
"html-keyboard-response","25","123506","0.0-11.0-1.5","5f5691fb24d1090e6bcdf1ec","bdp_rwlrn","Sun Mar 12 2023 15:50:47 GMT-0500 (Central Daylight Time)","443622","Trustworthy,Untrustworthy","","2521","","","","decision","","<div class='trialDiv'><img src='Fruit/pineapple.png'><br><font class='baseline'><strong>Primo Pineapple</strong><p>Choose number of points to bet.</font><div class='respPicDiv'><img src='img/responseButtonOffersNo0L.png' class='respPic'></div></div>","2","2","Primo Pineapple","Fruit/pineapple.png","Won","0.65,0.35","12","0.65","38","6","",""
"html-keyboard-response","26","123762","0.0-11.0-2.5","5f5691fb24d1090e6bcdf1ec","bdp_rwlrn","Sun Mar 12 2023 15:50:47 GMT-0500 (Central Daylight Time)","443622","Trustworthy,Untrustworthy","","null","","","","decisionFB","","<div class='trialDiv'><img src='Fruit/pineapple.png'><br><font class='baseline'><strong>Primo Pineapple</strong><p>Choose number of points to bet.</font><div class='respPicDiv'><img src='img/responseButtonOffersNo0L2.png' class='respPic'></div></div>","null","2","Primo Pineapple","Fruit/pineapple.png","Won","0.65,0.35","12","0.65","36","6","",""
"html-keyboard-response","27","124768","0.0-11.0-3.5","5f5691fb24d1090e6bcdf1ec","bdp_rwlrn","Sun Mar 12 2023 15:50:47 GMT-0500 (Central Daylight Time)","443622","Trustworthy,Untrustworthy","","null","","","","feedback","","<div class='respPicDiv'><img src='img/responseButtonOffersNo0_wht.png' class='respPic'></div><div class='trialDiv'><img src='Fruit/pineapple.png'><br><font class='baseline'><strong>Primo Pineapple</strong><p><strong><font class='posOutcome'>You WON</font><p>You bet: 2</strong></font> &nbsp; &nbsp; &nbsp; &nbsp; &nbsp; &nbsp;<font class='posOutcome'>you receive: <strong>4</strong></font></div>","null","2","Primo Pineapple","Fruit/pineapple.png","Won","0.65,0.35","12","0.65","40","6","",""
"html-keyboard-response","28","125977","0.0-11.0-1.6","5f5691fb24d1090e6bcdf1ec","bdp_rwlrn","Sun Mar 12 2023 15:50:47 GMT-0500 (Central Daylight Time)","443622","Trustworthy,Untrustworthy","","1206","","","","decision","","<div class='trialDiv'><img src='Fruit/grapes.png'><br><font class='baseline'><strong>Great Grapes</strong><p>Choose number of points to bet.</font><div class='respPicDiv'><img src='img/responseButtonOffersNo0L.png' class='respPic'></div></div>","2","3","Great Grapes","Fruit/grapes.png","Lost","0.35,0.8","13","0.35","45","7","",""
"html-keyboard-response","29","126233","0.0-11.0-2.6","5f5691fb24d1090e6bcdf1ec","bdp_rwlrn","Sun Mar 12 2023 15:50:47 GMT-0500 (Central Daylight Time)","443622","Trustworthy,Untrustworthy","","null","","","","decisionFB","","<div class='trialDiv'><img src='Fruit/grapes.png'><br><font class='baseline'><strong>Great Grapes</strong><p>Choose number of points to bet.</font><div class='respPicDiv'><img src='img/responseButtonOffersNo0L2.png' class='respPic'></div></div>","null","3","Great Grapes","Fruit/grapes.png","Lost","0.35,0.8","13","0.35","43","7","",""
"html-keyboard-response","30","127241","0.0-11.0-3.6","5f5691fb24d1090e6bcdf1ec","bdp_rwlrn","Sun Mar 12 2023 15:50:47 GMT-0500 (Central Daylight Time)","443622","Trustworthy,Untrustworthy","","null","","","","feedback","","<div class='respPicDiv'><img src='img/responseButtonOffersNo0_wht.png' class='respPic'></div><div class='trialDiv'><img src='Fruit/grapes.png'><br><font class='baseline'><strong>Great Grapes</strong><p><strong><font class='negOutcome'>You LOST</font><p>You bet: 2</strong></font> &nbsp; &nbsp; &nbsp; &nbsp; &nbsp; &nbsp;<font class='negOutcome'>You receive: <strong>0</strong></font></div>","null","3","Great Grapes","Fruit/grapes.png","Lost","0.35,0.8","13","0.35","43","7","",""
"html-keyboard-response","31","128128","0.0-11.0-1.7","5f5691fb24d1090e6bcdf1ec","bdp_rwlrn","Sun Mar 12 2023 15:50:47 GMT-0500 (Central Daylight Time)","443622","Trustworthy,Untrustworthy","","885","","","","decision","","<div class='trialDiv'><img src='Fruit/orange.png'><br><font class='baseline'><strong>Odds are Orange</strong><p>Choose number of points to bet.</font><div class='respPicDiv'><img src='img/responseButtonOffersNo0L.png' class='respPic'></div></div>","4","3","Odds are Orange","Fruit/orange.png","Won","0.8,0.35","9","0.8","48","8","",""
"html-keyboard-response","32","128386","0.0-11.0-2.7","5f5691fb24d1090e6bcdf1ec","bdp_rwlrn","Sun Mar 12 2023 15:50:47 GMT-0500 (Central Daylight Time)","443622","Trustworthy,Untrustworthy","","null","","","","decisionFB","","<div class='trialDiv'><img src='Fruit/orange.png'><br><font class='baseline'><strong>Odds are Orange</strong><p>Choose number of points to bet.</font><div class='respPicDiv'><img src='img/responseButtonOffersNo0L4.png' class='respPic'></div></div>","null","3","Odds are Orange","Fruit/orange.png","Won","0.8,0.35","9","0.8","44","8","",""
"html-keyboard-response","33","129389","0.0-11.0-3.7","5f5691fb24d1090e6bcdf1ec","bdp_rwlrn","Sun Mar 12 2023 15:50:47 GMT-0500 (Central Daylight Time)","443622","Trustworthy,Untrustworthy","","null","","","","feedback","","<div class='respPicDiv'><img src='img/responseButtonOffersNo0_wht.png' class='respPic'></div><div class='trialDiv'><img src='Fruit/orange.png'><br><font class='baseline'><strong>Odds are Orange</strong><p><strong><font class='posOutcome'>You WON</font><p>You bet: 4</strong></font> &nbsp; &nbsp; &nbsp; &nbsp; &nbsp; &nbsp;<font class='posOutcome'>you receive: <strong>8</strong></font></div>","null","3","Odds are Orange","Fruit/orange.png","Won","0.8,0.35","9","0.8","52","8","",""
"html-keyboard-response","34","130946","0.0-11.0-1.8","5f5691fb24d1090e6bcdf1ec","bdp_rwlrn","Sun Mar 12 2023 15:50:47 GMT-0500 (Central Daylight Time)","443622","Trustworthy,Untrustworthy","","1554","","","","decision","","<div class='trialDiv'><img src='Fruit/pineapple.png'><br><font class='baseline'><strong>Primo Pineapple</strong><p>Choose number of points to bet.</font><div class='respPicDiv'><img src='img/responseButtonOffersNo0L.png' class='respPic'></div></div>","3","3","Primo Pineapple","Fruit/pineapple.png","Won","0.65,0.35","12","0.65","57","9","",""
"html-keyboard-response","35","131201","0.0-11.0-2.8","5f5691fb24d1090e6bcdf1ec","bdp_rwlrn","Sun Mar 12 2023 15:50:47 GMT-0500 (Central Daylight Time)","443622","Trustworthy,Untrustworthy","","null","","","","decisionFB","","<div class='trialDiv'><img src='Fruit/pineapple.png'><br><font class='baseline'><strong>Primo Pineapple</strong><p>Choose number of points to bet.</font><div class='respPicDiv'><img src='img/responseButtonOffersNo0L3.png' class='respPic'></div></div>","null","3","Primo Pineapple","Fruit/pineapple.png","Won","0.65,0.35","12","0.65","54","9","",""
"html-keyboard-response","36","132210","0.0-11.0-3.8","5f5691fb24d1090e6bcdf1ec","bdp_rwlrn","Sun Mar 12 2023 15:50:47 GMT-0500 (Central Daylight Time)","443622","Trustworthy,Untrustworthy","","null","","","","feedback","","<div class='respPicDiv'><img src='img/responseButtonOffersNo0_wht.png' class='respPic'></div><div class='trialDiv'><img src='Fruit/pineapple.png'><br><font class='baseline'><strong>Primo Pineapple</strong><p><strong><font class='posOutcome'>You WON</font><p>You bet: 3</strong></font> &nbsp; &nbsp; &nbsp; &nbsp; &nbsp; &nbsp;<font class='posOutcome'>you receive: <strong>6</strong></font></div>","null","3","Primo Pineapple","Fruit/pineapple.png","Won","0.65,0.35","12","0.65","60","9","",""
"html-keyboard-response","37","133734","0.0-11.0-1.9","5f5691fb24d1090e6bcdf1ec","bdp_rwlrn","Sun Mar 12 2023 15:50:47 GMT-0500 (Central Daylight Time)","443622","Trustworthy,Untrustworthy","","1521","","","","decision","","<div class='trialDiv'><img src='Fruit/grapes.png'><br><font class='baseline'><strong>Great Grapes</strong><p>Choose number of points to bet.</font><div class='respPicDiv'><img src='img/responseButtonOffersNo0L.png' class='respPic'></div></div>","2","4","Great Grapes","Fruit/grapes.png","Lost","0.35,0.8","13","0.35","65","10","",""
"html-keyboard-response","38","133988","0.0-11.0-2.9","5f5691fb24d1090e6bcdf1ec","bdp_rwlrn","Sun Mar 12 2023 15:50:47 GMT-0500 (Central Daylight Time)","443622","Trustworthy,Untrustworthy","","null","","","","decisionFB","","<div class='trialDiv'><img src='Fruit/grapes.png'><br><font class='baseline'><strong>Great Grapes</strong><p>Choose number of points to bet.</font><div class='respPicDiv'><img src='img/responseButtonOffersNo0L2.png' class='respPic'></div></div>","null","4","Great Grapes","Fruit/grapes.png","Lost","0.35,0.8","13","0.35","63","10","",""
"html-keyboard-response","39","134994","0.0-11.0-3.9","5f5691fb24d1090e6bcdf1ec","bdp_rwlrn","Sun Mar 12 2023 15:50:47 GMT-0500 (Central Daylight Time)","443622","Trustworthy,Untrustworthy","","null","","","","feedback","","<div class='respPicDiv'><img src='img/responseButtonOffersNo0_wht.png' class='respPic'></div><div class='trialDiv'><img src='Fruit/grapes.png'><br><font class='baseline'><strong>Great Grapes</strong><p><strong><font class='negOutcome'>You LOST</font><p>You bet: 2</strong></font> &nbsp; &nbsp; &nbsp; &nbsp; &nbsp; &nbsp;<font class='negOutcome'>You receive: <strong>0</strong></font></div>","null","4","Great Grapes","Fruit/grapes.png","Lost","0.35,0.8","13","0.35","63","10","",""
"html-keyboard-response","40","137459","0.0-11.0-1.10","5f5691fb24d1090e6bcdf1ec","bdp_rwlrn","Sun Mar 12 2023 15:50:47 GMT-0500 (Central Daylight Time)","443622","Trustworthy,Untrustworthy","","2461","","","","decision","","<div class='trialDiv'><img src='Fruit/orange.png'><br><font class='baseline'><strong>Odds are Orange</strong><p>Choose number of points to bet.</font><div class='respPicDiv'><img src='img/responseButtonOffersNo0L.png' class='respPic'></div></div>","5","4","Odds are Orange","Fruit/orange.png","Won","0.8,0.35","9","0.8","68","11","",""
"html-keyboard-response","41","137714","0.0-11.0-2.10","5f5691fb24d1090e6bcdf1ec","bdp_rwlrn","Sun Mar 12 2023 15:50:47 GMT-0500 (Central Daylight Time)","443622","Trustworthy,Untrustworthy","","null","","","","decisionFB","","<div class='trialDiv'><img src='Fruit/orange.png'><br><font class='baseline'><strong>Odds are Orange</strong><p>Choose number of points to bet.</font><div class='respPicDiv'><img src='img/responseButtonOffersNo0L5.png' class='respPic'></div></div>","null","4","Odds are Orange","Fruit/orange.png","Won","0.8,0.35","9","0.8","63","11","",""
"html-keyboard-response","42","138722","0.0-11.0-3.10","5f5691fb24d1090e6bcdf1ec","bdp_rwlrn","Sun Mar 12 2023 15:50:47 GMT-0500 (Central Daylight Time)","443622","Trustworthy,Untrustworthy","","null","","","","feedback","","<div class='respPicDiv'><img src='img/responseButtonOffersNo0_wht.png' class='respPic'></div><div class='trialDiv'><img src='Fruit/orange.png'><br><font class='baseline'><strong>Odds are Orange</strong><p><strong><font class='posOutcome'>You WON</font><p>You bet: 5</strong></font> &nbsp; &nbsp; &nbsp; &nbsp; &nbsp; &nbsp;<font class='posOutcome'>you receive: <strong>10</strong></font></div>","null","4","Odds are Orange","Fruit/orange.png","Won","0.8,0.35","9","0.8","73","11","",""
"html-keyboard-response","43","140006","0.0-11.0-1.11","5f5691fb24d1090e6bcdf1ec","bdp_rwlrn","Sun Mar 12 2023 15:50:47 GMT-0500 (Central Daylight Time)","443622","Trustworthy,Untrustworthy","","1281","","","","decision","","<div class='trialDiv'><img src='Fruit/pineapple.png'><br><font class='baseline'><strong>Primo Pineapple</strong><p>Choose number of points to bet.</font><div class='respPicDiv'><img src='img/responseButtonOffersNo0L.png' class='respPic'></div></div>","4","4","Primo Pineapple","Fruit/pineapple.png","Won","0.65,0.35","12","0.65","78","12","",""
"html-keyboard-response","44","140263","0.0-11.0-2.11","5f5691fb24d1090e6bcdf1ec","bdp_rwlrn","Sun Mar 12 2023 15:50:47 GMT-0500 (Central Daylight Time)","443622","Trustworthy,Untrustworthy","","null","","","","decisionFB","","<div class='trialDiv'><img src='Fruit/pineapple.png'><br><font class='baseline'><strong>Primo Pineapple</strong><p>Choose number of points to bet.</font><div class='respPicDiv'><img src='img/responseButtonOffersNo0L4.png' class='respPic'></div></div>","null","4","Primo Pineapple","Fruit/pineapple.png","Won","0.65,0.35","12","0.65","74","12","",""
"html-keyboard-response","45","141271","0.0-11.0-3.11","5f5691fb24d1090e6bcdf1ec","bdp_rwlrn","Sun Mar 12 2023 15:50:47 GMT-0500 (Central Daylight Time)","443622","Trustworthy,Untrustworthy","","null","","","","feedback","","<div class='respPicDiv'><img src='img/responseButtonOffersNo0_wht.png' class='respPic'></div><div class='trialDiv'><img src='Fruit/pineapple.png'><br><font class='baseline'><strong>Primo Pineapple</strong><p><strong><font class='posOutcome'>You WON</font><p>You bet: 4</strong></font> &nbsp; &nbsp; &nbsp; &nbsp; &nbsp; &nbsp;<font class='posOutcome'>you receive: <strong>8</strong></font></div>","null","4","Primo Pineapple","Fruit/pineapple.png","Won","0.65,0.35","12","0.65","82","12","",""
"html-keyboard-response","46","142327","0.0-11.0-1.12","5f5691fb24d1090e6bcdf1ec","bdp_rwlrn","Sun Mar 12 2023 15:50:47 GMT-0500 (Central Daylight Time)","443622","Trustworthy,Untrustworthy","","1054","","","","decision","","<div class='trialDiv'><img src='Fruit/orange.png'><br><font class='baseline'><strong>Odds are Orange</strong><p>Choose number of points to bet.</font><div class='respPicDiv'><img src='img/responseButtonOffersNo0L.png' class='respPic'></div></div>","5","5","Odds are Orange","Fruit/orange.png","Won","0.8,0.35","9","0.8","87","13","",""
"html-keyboard-response","47","142581","0.0-11.0-2.12","5f5691fb24d1090e6bcdf1ec","bdp_rwlrn","Sun Mar 12 2023 15:50:47 GMT-0500 (Central Daylight Time)","443622","Trustworthy,Untrustworthy","","null","","","","decisionFB","","<div class='trialDiv'><img src='Fruit/orange.png'><br><font class='baseline'><strong>Odds are Orange</strong><p>Choose number of points to bet.</font><div class='respPicDiv'><img src='img/responseButtonOffersNo0L5.png' class='respPic'></div></div>","null","5","Odds are Orange","Fruit/orange.png","Won","0.8,0.35","9","0.8","82","13","",""
"html-keyboard-response","48","143586","0.0-11.0-3.12","5f5691fb24d1090e6bcdf1ec","bdp_rwlrn","Sun Mar 12 2023 15:50:47 GMT-0500 (Central Daylight Time)","443622","Trustworthy,Untrustworthy","","null","","","","feedback","","<div class='respPicDiv'><img src='img/responseButtonOffersNo0_wht.png' class='respPic'></div><div class='trialDiv'><img src='Fruit/orange.png'><br><font class='baseline'><strong>Odds are Orange</strong><p><strong><font class='posOutcome'>You WON</font><p>You bet: 5</strong></font> &nbsp; &nbsp; &nbsp; &nbsp; &nbsp; &nbsp;<font class='posOutcome'>you receive: <strong>10</strong></font></div>","null","5","Odds are Orange","Fruit/orange.png","Won","0.8,0.35","9","0.8","92","13","",""
"html-keyboard-response","49","144644","0.0-11.0-1.13","5f5691fb24d1090e6bcdf1ec","bdp_rwlrn","Sun Mar 12 2023 15:50:47 GMT-0500 (Central Daylight Time)","443622","Trustworthy,Untrustworthy","","1055","","","","decision","","<div class='trialDiv'><img src='Fruit/pineapple.png'><br><font class='baseline'><strong>Primo Pineapple</strong><p>Choose number of points to bet.</font><div class='respPicDiv'><img src='img/responseButtonOffersNo0L.png' class='respPic'></div></div>","3","5","Primo Pineapple","Fruit/pineapple.png","Lost","0.65,0.35","12","0.65","97","14","",""
"html-keyboard-response","50","144900","0.0-11.0-2.13","5f5691fb24d1090e6bcdf1ec","bdp_rwlrn","Sun Mar 12 2023 15:50:47 GMT-0500 (Central Daylight Time)","443622","Trustworthy,Untrustworthy","","null","","","","decisionFB","","<div class='trialDiv'><img src='Fruit/pineapple.png'><br><font class='baseline'><strong>Primo Pineapple</strong><p>Choose number of points to bet.</font><div class='respPicDiv'><img src='img/responseButtonOffersNo0L3.png' class='respPic'></div></div>","null","5","Primo Pineapple","Fruit/pineapple.png","Lost","0.65,0.35","12","0.65","94","14","",""
"html-keyboard-response","51","145908","0.0-11.0-3.13","5f5691fb24d1090e6bcdf1ec","bdp_rwlrn","Sun Mar 12 2023 15:50:47 GMT-0500 (Central Daylight Time)","443622","Trustworthy,Untrustworthy","","null","","","","feedback","","<div class='respPicDiv'><img src='img/responseButtonOffersNo0_wht.png' class='respPic'></div><div class='trialDiv'><img src='Fruit/pineapple.png'><br><font class='baseline'><strong>Primo Pineapple</strong><p><strong><font class='negOutcome'>You LOST</font><p>You bet: 3</strong></font> &nbsp; &nbsp; &nbsp; &nbsp; &nbsp; &nbsp;<font class='negOutcome'>You receive: <strong>0</strong></font></div>","null","5","Primo Pineapple","Fruit/pineapple.png","Lost","0.65,0.35","12","0.65","94","14","",""
"html-keyboard-response","52","147497","0.0-11.0-1.14","5f5691fb24d1090e6bcdf1ec","bdp_rwlrn","Sun Mar 12 2023 15:50:47 GMT-0500 (Central Daylight Time)","443622","Trustworthy,Untrustworthy","","1586","","","","decision","","<div class='trialDiv'><img src='Fruit/grapes.png'><br><font class='baseline'><strong>Great Grapes</strong><p>Choose number of points to bet.</font><div class='respPicDiv'><img src='img/responseButtonOffersNo0L.png' class='respPic'></div></div>","1","5","Great Grapes","Fruit/grapes.png","Lost","0.35,0.8","13","0.35","99","15","",""
"html-keyboard-response","53","147754","0.0-11.0-2.14","5f5691fb24d1090e6bcdf1ec","bdp_rwlrn","Sun Mar 12 2023 15:50:47 GMT-0500 (Central Daylight Time)","443622","Trustworthy,Untrustworthy","","null","","","","decisionFB","","<div class='trialDiv'><img src='Fruit/grapes.png'><br><font class='baseline'><strong>Great Grapes</strong><p>Choose number of points to bet.</font><div class='respPicDiv'><img src='img/responseButtonOffersNo0L1.png' class='respPic'></div></div>","null","5","Great Grapes","Fruit/grapes.png","Lost","0.35,0.8","13","0.35","98","15","",""
"html-keyboard-response","54","148762","0.0-11.0-3.14","5f5691fb24d1090e6bcdf1ec","bdp_rwlrn","Sun Mar 12 2023 15:50:47 GMT-0500 (Central Daylight Time)","443622","Trustworthy,Untrustworthy","","null","","","","feedback","","<div class='respPicDiv'><img src='img/responseButtonOffersNo0_wht.png' class='respPic'></div><div class='trialDiv'><img src='Fruit/grapes.png'><br><font class='baseline'><strong>Great Grapes</strong><p><strong><font class='negOutcome'>You LOST</font><p>You bet: 1</strong></font> &nbsp; &nbsp; &nbsp; &nbsp; &nbsp; &nbsp;<font class='negOutcome'>You receive: <strong>0</strong></font></div>","null","5","Great Grapes","Fruit/grapes.png","Lost","0.35,0.8","13","0.35","98","15","",""
"html-keyboard-response","55","150442","0.0-11.0-1.15","5f5691fb24d1090e6bcdf1ec","bdp_rwlrn","Sun Mar 12 2023 15:50:47 GMT-0500 (Central Daylight Time)","443622","Trustworthy,Untrustworthy","","1677","","","","decision","","<div class='trialDiv'><img src='Fruit/pineapple.png'><br><font class='baseline'><strong>Primo Pineapple</strong><p>Choose number of points to bet.</font><div class='respPicDiv'><img src='img/responseButtonOffersNo0L.png' class='respPic'></div></div>","3","6","Primo Pineapple","Fruit/pineapple.png","Lost","0.65,0.35","12","0.65","103","16","",""
"html-keyboard-response","56","150700","0.0-11.0-2.15","5f5691fb24d1090e6bcdf1ec","bdp_rwlrn","Sun Mar 12 2023 15:50:47 GMT-0500 (Central Daylight Time)","443622","Trustworthy,Untrustworthy","","null","","","","decisionFB","","<div class='trialDiv'><img src='Fruit/pineapple.png'><br><font class='baseline'><strong>Primo Pineapple</strong><p>Choose number of points to bet.</font><div class='respPicDiv'><img src='img/responseButtonOffersNo0L3.png' class='respPic'></div></div>","null","6","Primo Pineapple","Fruit/pineapple.png","Lost","0.65,0.35","12","0.65","100","16","",""
"html-keyboard-response","57","151703","0.0-11.0-3.15","5f5691fb24d1090e6bcdf1ec","bdp_rwlrn","Sun Mar 12 2023 15:50:47 GMT-0500 (Central Daylight Time)","443622","Trustworthy,Untrustworthy","","null","","","","feedback","","<div class='respPicDiv'><img src='img/responseButtonOffersNo0_wht.png' class='respPic'></div><div class='trialDiv'><img src='Fruit/pineapple.png'><br><font class='baseline'><strong>Primo Pineapple</strong><p><strong><font class='negOutcome'>You LOST</font><p>You bet: 3</strong></font> &nbsp; &nbsp; &nbsp; &nbsp; &nbsp; &nbsp;<font class='negOutcome'>You receive: <strong>0</strong></font></div>","null","6","Primo Pineapple","Fruit/pineapple.png","Lost","0.65,0.35","12","0.65","100","16","",""
"html-keyboard-response","58","152344","0.0-11.0-1.16","5f5691fb24d1090e6bcdf1ec","bdp_rwlrn","Sun Mar 12 2023 15:50:47 GMT-0500 (Central Daylight Time)","443622","Trustworthy,Untrustworthy","","637","","","","decision","","<div class='trialDiv'><img src='Fruit/orange.png'><br><font class='baseline'><strong>Odds are Orange</strong><p>Choose number of points to bet.</font><div class='respPicDiv'><img src='img/responseButtonOffersNo0L.png' class='respPic'></div></div>","5","6","Odds are Orange","Fruit/orange.png","Won","0.8,0.35","9","0.8","105","17","",""
"html-keyboard-response","59","152597","0.0-11.0-2.16","5f5691fb24d1090e6bcdf1ec","bdp_rwlrn","Sun Mar 12 2023 15:50:47 GMT-0500 (Central Daylight Time)","443622","Trustworthy,Untrustworthy","","null","","","","decisionFB","","<div class='trialDiv'><img src='Fruit/orange.png'><br><font class='baseline'><strong>Odds are Orange</strong><p>Choose number of points to bet.</font><div class='respPicDiv'><img src='img/responseButtonOffersNo0L5.png' class='respPic'></div></div>","null","6","Odds are Orange","Fruit/orange.png","Won","0.8,0.35","9","0.8","100","17","",""
"html-keyboard-response","60","153604","0.0-11.0-3.16","5f5691fb24d1090e6bcdf1ec","bdp_rwlrn","Sun Mar 12 2023 15:50:47 GMT-0500 (Central Daylight Time)","443622","Trustworthy,Untrustworthy","","null","","","","feedback","","<div class='respPicDiv'><img src='img/responseButtonOffersNo0_wht.png' class='respPic'></div><div class='trialDiv'><img src='Fruit/orange.png'><br><font class='baseline'><strong>Odds are Orange</strong><p><strong><font class='posOutcome'>You WON</font><p>You bet: 5</strong></font> &nbsp; &nbsp; &nbsp; &nbsp; &nbsp; &nbsp;<font class='posOutcome'>you receive: <strong>10</strong></font></div>","null","6","Odds are Orange","Fruit/orange.png","Won","0.8,0.35","9","0.8","110","17","",""
"html-keyboard-response","61","154574","0.0-11.0-1.17","5f5691fb24d1090e6bcdf1ec","bdp_rwlrn","Sun Mar 12 2023 15:50:47 GMT-0500 (Central Daylight Time)","443622","Trustworthy,Untrustworthy","","968","","","","decision","","<div class='trialDiv'><img src='Fruit/grapes.png'><br><font class='baseline'><strong>Great Grapes</strong><p>Choose number of points to bet.</font><div class='respPicDiv'><img src='img/responseButtonOffersNo0L.png' class='respPic'></div></div>","1","6","Great Grapes","Fruit/grapes.png","Lost","0.35,0.8","13","0.35","115","18","",""
"html-keyboard-response","62","154827","0.0-11.0-2.17","5f5691fb24d1090e6bcdf1ec","bdp_rwlrn","Sun Mar 12 2023 15:50:47 GMT-0500 (Central Daylight Time)","443622","Trustworthy,Untrustworthy","","null","","","","decisionFB","","<div class='trialDiv'><img src='Fruit/grapes.png'><br><font class='baseline'><strong>Great Grapes</strong><p>Choose number of points to bet.</font><div class='respPicDiv'><img src='img/responseButtonOffersNo0L1.png' class='respPic'></div></div>","null","6","Great Grapes","Fruit/grapes.png","Lost","0.35,0.8","13","0.35","114","18","",""
"html-keyboard-response","63","155829","0.0-11.0-3.17","5f5691fb24d1090e6bcdf1ec","bdp_rwlrn","Sun Mar 12 2023 15:50:47 GMT-0500 (Central Daylight Time)","443622","Trustworthy,Untrustworthy","","null","","","","feedback","","<div class='respPicDiv'><img src='img/responseButtonOffersNo0_wht.png' class='respPic'></div><div class='trialDiv'><img src='Fruit/grapes.png'><br><font class='baseline'><strong>Great Grapes</strong><p><strong><font class='negOutcome'>You LOST</font><p>You bet: 1</strong></font> &nbsp; &nbsp; &nbsp; &nbsp; &nbsp; &nbsp;<font class='negOutcome'>You receive: <strong>0</strong></font></div>","null","6","Great Grapes","Fruit/grapes.png","Lost","0.35,0.8","13","0.35","114","18","",""
"html-keyboard-response","64","156771","0.0-11.0-1.18","5f5691fb24d1090e6bcdf1ec","bdp_rwlrn","Sun Mar 12 2023 15:50:47 GMT-0500 (Central Daylight Time)","443622","Trustworthy,Untrustworthy","","939","","","","decision","","<div class='trialDiv'><img src='Fruit/orange.png'><br><font class='baseline'><strong>Odds are Orange</strong><p>Choose number of points to bet.</font><div class='respPicDiv'><img src='img/responseButtonOffersNo0L.png' class='respPic'></div></div>","5","7","Odds are Orange","Fruit/orange.png","Won","0.8,0.35","9","0.8","119","19","",""
"html-keyboard-response","65","157028","0.0-11.0-2.18","5f5691fb24d1090e6bcdf1ec","bdp_rwlrn","Sun Mar 12 2023 15:50:47 GMT-0500 (Central Daylight Time)","443622","Trustworthy,Untrustworthy","","null","","","","decisionFB","","<div class='trialDiv'><img src='Fruit/orange.png'><br><font class='baseline'><strong>Odds are Orange</strong><p>Choose number of points to bet.</font><div class='respPicDiv'><img src='img/responseButtonOffersNo0L5.png' class='respPic'></div></div>","null","7","Odds are Orange","Fruit/orange.png","Won","0.8,0.35","9","0.8","114","19","",""
"html-keyboard-response","66","158035","0.0-11.0-3.18","5f5691fb24d1090e6bcdf1ec","bdp_rwlrn","Sun Mar 12 2023 15:50:47 GMT-0500 (Central Daylight Time)","443622","Trustworthy,Untrustworthy","","null","","","","feedback","","<div class='respPicDiv'><img src='img/responseButtonOffersNo0_wht.png' class='respPic'></div><div class='trialDiv'><img src='Fruit/orange.png'><br><font class='baseline'><strong>Odds are Orange</strong><p><strong><font class='posOutcome'>You WON</font><p>You bet: 5</strong></font> &nbsp; &nbsp; &nbsp; &nbsp; &nbsp; &nbsp;<font class='posOutcome'>you receive: <strong>10</strong></font></div>","null","7","Odds are Orange","Fruit/orange.png","Won","0.8,0.35","9","0.8","124","19","",""
"html-keyboard-response","67","158917","0.0-11.0-1.19","5f5691fb24d1090e6bcdf1ec","bdp_rwlrn","Sun Mar 12 2023 15:50:47 GMT-0500 (Central Daylight Time)","443622","Trustworthy,Untrustworthy","","880","","","","decision","","<div class='trialDiv'><img src='Fruit/pineapple.png'><br><font class='baseline'><strong>Primo Pineapple</strong><p>Choose number of points to bet.</font><div class='respPicDiv'><img src='img/responseButtonOffersNo0L.png' class='respPic'></div></div>","2","7","Primo Pineapple","Fruit/pineapple.png","Won","0.65,0.35","12","0.65","129","20","",""
"html-keyboard-response","68","159175","0.0-11.0-2.19","5f5691fb24d1090e6bcdf1ec","bdp_rwlrn","Sun Mar 12 2023 15:50:47 GMT-0500 (Central Daylight Time)","443622","Trustworthy,Untrustworthy","","null","","","","decisionFB","","<div class='trialDiv'><img src='Fruit/pineapple.png'><br><font class='baseline'><strong>Primo Pineapple</strong><p>Choose number of points to bet.</font><div class='respPicDiv'><img src='img/responseButtonOffersNo0L2.png' class='respPic'></div></div>","null","7","Primo Pineapple","Fruit/pineapple.png","Won","0.65,0.35","12","0.65","127","20","",""
"html-keyboard-response","69","160182","0.0-11.0-3.19","5f5691fb24d1090e6bcdf1ec","bdp_rwlrn","Sun Mar 12 2023 15:50:47 GMT-0500 (Central Daylight Time)","443622","Trustworthy,Untrustworthy","","null","","","","feedback","","<div class='respPicDiv'><img src='img/responseButtonOffersNo0_wht.png' class='respPic'></div><div class='trialDiv'><img src='Fruit/pineapple.png'><br><font class='baseline'><strong>Primo Pineapple</strong><p><strong><font class='posOutcome'>You WON</font><p>You bet: 2</strong></font> &nbsp; &nbsp; &nbsp; &nbsp; &nbsp; &nbsp;<font class='posOutcome'>you receive: <strong>4</strong></font></div>","null","7","Primo Pineapple","Fruit/pineapple.png","Won","0.65,0.35","12","0.65","131","20","",""
"html-keyboard-response","70","160964","0.0-11.0-1.20","5f5691fb24d1090e6bcdf1ec","bdp_rwlrn","Sun Mar 12 2023 15:50:47 GMT-0500 (Central Daylight Time)","443622","Trustworthy,Untrustworthy","","779","","","","decision","","<div class='trialDiv'><img src='Fruit/grapes.png'><br><font class='baseline'><strong>Great Grapes</strong><p>Choose number of points to bet.</font><div class='respPicDiv'><img src='img/responseButtonOffersNo0L.png' class='respPic'></div></div>","1","7","Great Grapes","Fruit/grapes.png","Lost","0.35,0.8","13","0.35","136","21","",""
"html-keyboard-response","71","161222","0.0-11.0-2.20","5f5691fb24d1090e6bcdf1ec","bdp_rwlrn","Sun Mar 12 2023 15:50:47 GMT-0500 (Central Daylight Time)","443622","Trustworthy,Untrustworthy","","null","","","","decisionFB","","<div class='trialDiv'><img src='Fruit/grapes.png'><br><font class='baseline'><strong>Great Grapes</strong><p>Choose number of points to bet.</font><div class='respPicDiv'><img src='img/responseButtonOffersNo0L1.png' class='respPic'></div></div>","null","7","Great Grapes","Fruit/grapes.png","Lost","0.35,0.8","13","0.35","135","21","",""
"html-keyboard-response","72","162230","0.0-11.0-3.20","5f5691fb24d1090e6bcdf1ec","bdp_rwlrn","Sun Mar 12 2023 15:50:47 GMT-0500 (Central Daylight Time)","443622","Trustworthy,Untrustworthy","","null","","","","feedback","","<div class='respPicDiv'><img src='img/responseButtonOffersNo0_wht.png' class='respPic'></div><div class='trialDiv'><img src='Fruit/grapes.png'><br><font class='baseline'><strong>Great Grapes</strong><p><strong><font class='negOutcome'>You LOST</font><p>You bet: 1</strong></font> &nbsp; &nbsp; &nbsp; &nbsp; &nbsp; &nbsp;<font class='negOutcome'>You receive: <strong>0</strong></font></div>","null","7","Great Grapes","Fruit/grapes.png","Lost","0.35,0.8","13","0.35","135","21","",""
"html-keyboard-response","73","163841","0.0-11.0-1.21","5f5691fb24d1090e6bcdf1ec","bdp_rwlrn","Sun Mar 12 2023 15:50:47 GMT-0500 (Central Daylight Time)","443622","Trustworthy,Untrustworthy","","1610","","","","decision","","<div class='trialDiv'><img src='Fruit/pineapple.png'><br><font class='baseline'><strong>Primo Pineapple</strong><p>Choose number of points to bet.</font><div class='respPicDiv'><img src='img/responseButtonOffersNo0L.png' class='respPic'></div></div>","3","8","Primo Pineapple","Fruit/pineapple.png","Won","0.65,0.35","12","0.65","140","22","",""
"html-keyboard-response","74","164098","0.0-11.0-2.21","5f5691fb24d1090e6bcdf1ec","bdp_rwlrn","Sun Mar 12 2023 15:50:47 GMT-0500 (Central Daylight Time)","443622","Trustworthy,Untrustworthy","","null","","","","decisionFB","","<div class='trialDiv'><img src='Fruit/pineapple.png'><br><font class='baseline'><strong>Primo Pineapple</strong><p>Choose number of points to bet.</font><div class='respPicDiv'><img src='img/responseButtonOffersNo0L3.png' class='respPic'></div></div>","null","8","Primo Pineapple","Fruit/pineapple.png","Won","0.65,0.35","12","0.65","137","22","",""
"html-keyboard-response","75","165105","0.0-11.0-3.21","5f5691fb24d1090e6bcdf1ec","bdp_rwlrn","Sun Mar 12 2023 15:50:47 GMT-0500 (Central Daylight Time)","443622","Trustworthy,Untrustworthy","","null","","","","feedback","","<div class='respPicDiv'><img src='img/responseButtonOffersNo0_wht.png' class='respPic'></div><div class='trialDiv'><img src='Fruit/pineapple.png'><br><font class='baseline'><strong>Primo Pineapple</strong><p><strong><font class='posOutcome'>You WON</font><p>You bet: 3</strong></font> &nbsp; &nbsp; &nbsp; &nbsp; &nbsp; &nbsp;<font class='posOutcome'>you receive: <strong>6</strong></font></div>","null","8","Primo Pineapple","Fruit/pineapple.png","Won","0.65,0.35","12","0.65","143","22","",""
"html-keyboard-response","76","166120","0.0-11.0-1.22","5f5691fb24d1090e6bcdf1ec","bdp_rwlrn","Sun Mar 12 2023 15:50:47 GMT-0500 (Central Daylight Time)","443622","Trustworthy,Untrustworthy","","1011","","","","decision","","<div class='trialDiv'><img src='Fruit/grapes.png'><br><font class='baseline'><strong>Great Grapes</strong><p>Choose number of points to bet.</font><div class='respPicDiv'><img src='img/responseButtonOffersNo0L.png' class='respPic'></div></div>","1","8","Great Grapes","Fruit/grapes.png","Lost","0.35,0.8","13","0.35","148","23","",""
"html-keyboard-response","77","166378","0.0-11.0-2.22","5f5691fb24d1090e6bcdf1ec","bdp_rwlrn","Sun Mar 12 2023 15:50:47 GMT-0500 (Central Daylight Time)","443622","Trustworthy,Untrustworthy","","null","","","","decisionFB","","<div class='trialDiv'><img src='Fruit/grapes.png'><br><font class='baseline'><strong>Great Grapes</strong><p>Choose number of points to bet.</font><div class='respPicDiv'><img src='img/responseButtonOffersNo0L1.png' class='respPic'></div></div>","null","8","Great Grapes","Fruit/grapes.png","Lost","0.35,0.8","13","0.35","147","23","",""
"html-keyboard-response","78","167385","0.0-11.0-3.22","5f5691fb24d1090e6bcdf1ec","bdp_rwlrn","Sun Mar 12 2023 15:50:47 GMT-0500 (Central Daylight Time)","443622","Trustworthy,Untrustworthy","","null","","","","feedback","","<div class='respPicDiv'><img src='img/responseButtonOffersNo0_wht.png' class='respPic'></div><div class='trialDiv'><img src='Fruit/grapes.png'><br><font class='baseline'><strong>Great Grapes</strong><p><strong><font class='negOutcome'>You LOST</font><p>You bet: 1</strong></font> &nbsp; &nbsp; &nbsp; &nbsp; &nbsp; &nbsp;<font class='negOutcome'>You receive: <strong>0</strong></font></div>","null","8","Great Grapes","Fruit/grapes.png","Lost","0.35,0.8","13","0.35","147","23","",""
"html-keyboard-response","79","168046","0.0-11.0-1.23","5f5691fb24d1090e6bcdf1ec","bdp_rwlrn","Sun Mar 12 2023 15:50:47 GMT-0500 (Central Daylight Time)","443622","Trustworthy,Untrustworthy","","658","","","","decision","","<div class='trialDiv'><img src='Fruit/orange.png'><br><font class='baseline'><strong>Odds are Orange</strong><p>Choose number of points to bet.</font><div class='respPicDiv'><img src='img/responseButtonOffersNo0L.png' class='respPic'></div></div>","5","8","Odds are Orange","Fruit/orange.png","Won","0.8,0.35","9","0.8","152","24","",""
"html-keyboard-response","80","168303","0.0-11.0-2.23","5f5691fb24d1090e6bcdf1ec","bdp_rwlrn","Sun Mar 12 2023 15:50:47 GMT-0500 (Central Daylight Time)","443622","Trustworthy,Untrustworthy","","null","","","","decisionFB","","<div class='trialDiv'><img src='Fruit/orange.png'><br><font class='baseline'><strong>Odds are Orange</strong><p>Choose number of points to bet.</font><div class='respPicDiv'><img src='img/responseButtonOffersNo0L5.png' class='respPic'></div></div>","null","8","Odds are Orange","Fruit/orange.png","Won","0.8,0.35","9","0.8","147","24","",""
"html-keyboard-response","81","169310","0.0-11.0-3.23","5f5691fb24d1090e6bcdf1ec","bdp_rwlrn","Sun Mar 12 2023 15:50:47 GMT-0500 (Central Daylight Time)","443622","Trustworthy,Untrustworthy","","null","","","","feedback","","<div class='respPicDiv'><img src='img/responseButtonOffersNo0_wht.png' class='respPic'></div><div class='trialDiv'><img src='Fruit/orange.png'><br><font class='baseline'><strong>Odds are Orange</strong><p><strong><font class='posOutcome'>You WON</font><p>You bet: 5</strong></font> &nbsp; &nbsp; &nbsp; &nbsp; &nbsp; &nbsp;<font class='posOutcome'>you receive: <strong>10</strong></font></div>","null","8","Odds are Orange","Fruit/orange.png","Won","0.8,0.35","9","0.8","157","24","",""
"html-keyboard-response","82","170434","0.0-11.0-1.24","5f5691fb24d1090e6bcdf1ec","bdp_rwlrn","Sun Mar 12 2023 15:50:47 GMT-0500 (Central Daylight Time)","443622","Trustworthy,Untrustworthy","","1122","","","","decision","","<div class='trialDiv'><img src='Fruit/pineapple.png'><br><font class='baseline'><strong>Primo Pineapple</strong><p>Choose number of points to bet.</font><div class='respPicDiv'><img src='img/responseButtonOffersNo0L.png' class='respPic'></div></div>","3","9","Primo Pineapple","Fruit/pineapple.png","Lost","0.65,0.35","12","0.65","162","25","",""
"html-keyboard-response","83","170691","0.0-11.0-2.24","5f5691fb24d1090e6bcdf1ec","bdp_rwlrn","Sun Mar 12 2023 15:50:47 GMT-0500 (Central Daylight Time)","443622","Trustworthy,Untrustworthy","","null","","","","decisionFB","","<div class='trialDiv'><img src='Fruit/pineapple.png'><br><font class='baseline'><strong>Primo Pineapple</strong><p>Choose number of points to bet.</font><div class='respPicDiv'><img src='img/responseButtonOffersNo0L3.png' class='respPic'></div></div>","null","9","Primo Pineapple","Fruit/pineapple.png","Lost","0.65,0.35","12","0.65","159","25","",""
"html-keyboard-response","84","171699","0.0-11.0-3.24","5f5691fb24d1090e6bcdf1ec","bdp_rwlrn","Sun Mar 12 2023 15:50:47 GMT-0500 (Central Daylight Time)","443622","Trustworthy,Untrustworthy","","null","","","","feedback","","<div class='respPicDiv'><img src='img/responseButtonOffersNo0_wht.png' class='respPic'></div><div class='trialDiv'><img src='Fruit/pineapple.png'><br><font class='baseline'><strong>Primo Pineapple</strong><p><strong><font class='negOutcome'>You LOST</font><p>You bet: 3</strong></font> &nbsp; &nbsp; &nbsp; &nbsp; &nbsp; &nbsp;<font class='negOutcome'>You receive: <strong>0</strong></font></div>","null","9","Primo Pineapple","Fruit/pineapple.png","Lost","0.65,0.35","12","0.65","159","25","",""
"html-keyboard-response","85","172272","0.0-11.0-1.25","5f5691fb24d1090e6bcdf1ec","bdp_rwlrn","Sun Mar 12 2023 15:50:47 GMT-0500 (Central Daylight Time)","443622","Trustworthy,Untrustworthy","","571","","","","decision","","<div class='trialDiv'><img src='Fruit/orange.png'><br><font class='baseline'><strong>Odds are Orange</strong><p>Choose number of points to bet.</font><div class='respPicDiv'><img src='img/responseButtonOffersNo0L.png' class='respPic'></div></div>","5","9","Odds are Orange","Fruit/orange.png","Lost","0.8,0.35","9","0.8","164","26","",""
"html-keyboard-response","86","172527","0.0-11.0-2.25","5f5691fb24d1090e6bcdf1ec","bdp_rwlrn","Sun Mar 12 2023 15:50:47 GMT-0500 (Central Daylight Time)","443622","Trustworthy,Untrustworthy","","null","","","","decisionFB","","<div class='trialDiv'><img src='Fruit/orange.png'><br><font class='baseline'><strong>Odds are Orange</strong><p>Choose number of points to bet.</font><div class='respPicDiv'><img src='img/responseButtonOffersNo0L5.png' class='respPic'></div></div>","null","9","Odds are Orange","Fruit/orange.png","Lost","0.8,0.35","9","0.8","159","26","",""
"html-keyboard-response","87","173531","0.0-11.0-3.25","5f5691fb24d1090e6bcdf1ec","bdp_rwlrn","Sun Mar 12 2023 15:50:47 GMT-0500 (Central Daylight Time)","443622","Trustworthy,Untrustworthy","","null","","","","feedback","","<div class='respPicDiv'><img src='img/responseButtonOffersNo0_wht.png' class='respPic'></div><div class='trialDiv'><img src='Fruit/orange.png'><br><font class='baseline'><strong>Odds are Orange</strong><p><strong><font class='negOutcome'>You LOST</font><p>You bet: 5</strong></font> &nbsp; &nbsp; &nbsp; &nbsp; &nbsp; &nbsp;<font class='negOutcome'>You receive: <strong>0</strong></font></div>","null","9","Odds are Orange","Fruit/orange.png","Lost","0.8,0.35","9","0.8","159","26","",""
"html-keyboard-response","88","174568","0.0-11.0-1.26","5f5691fb24d1090e6bcdf1ec","bdp_rwlrn","Sun Mar 12 2023 15:50:47 GMT-0500 (Central Daylight Time)","443622","Trustworthy,Untrustworthy","","1035","","","","decision","","<div class='trialDiv'><img src='Fruit/grapes.png'><br><font class='baseline'><strong>Great Grapes</strong><p>Choose number of points to bet.</font><div class='respPicDiv'><img src='img/responseButtonOffersNo0L.png' class='respPic'></div></div>","2","9","Great Grapes","Fruit/grapes.png","Won","0.35,0.8","13","0.35","164","27","",""
"html-keyboard-response","89","174824","0.0-11.0-2.26","5f5691fb24d1090e6bcdf1ec","bdp_rwlrn","Sun Mar 12 2023 15:50:47 GMT-0500 (Central Daylight Time)","443622","Trustworthy,Untrustworthy","","null","","","","decisionFB","","<div class='trialDiv'><img src='Fruit/grapes.png'><br><font class='baseline'><strong>Great Grapes</strong><p>Choose number of points to bet.</font><div class='respPicDiv'><img src='img/responseButtonOffersNo0L2.png' class='respPic'></div></div>","null","9","Great Grapes","Fruit/grapes.png","Won","0.35,0.8","13","0.35","162","27","",""
"html-keyboard-response","90","175832","0.0-11.0-3.26","5f5691fb24d1090e6bcdf1ec","bdp_rwlrn","Sun Mar 12 2023 15:50:47 GMT-0500 (Central Daylight Time)","443622","Trustworthy,Untrustworthy","","null","","","","feedback","","<div class='respPicDiv'><img src='img/responseButtonOffersNo0_wht.png' class='respPic'></div><div class='trialDiv'><img src='Fruit/grapes.png'><br><font class='baseline'><strong>Great Grapes</strong><p><strong><font class='posOutcome'>You WON</font><p>You bet: 2</strong></font> &nbsp; &nbsp; &nbsp; &nbsp; &nbsp; &nbsp;<font class='posOutcome'>you receive: <strong>4</strong></font></div>","null","9","Great Grapes","Fruit/grapes.png","Won","0.35,0.8","13","0.35","166","27","",""
"html-keyboard-response","91","176730","0.0-11.0-1.27","5f5691fb24d1090e6bcdf1ec","bdp_rwlrn","Sun Mar 12 2023 15:50:47 GMT-0500 (Central Daylight Time)","443622","Trustworthy,Untrustworthy","","896","","","","decision","","<div class='trialDiv'><img src='Fruit/pineapple.png'><br><font class='baseline'><strong>Primo Pineapple</strong><p>Choose number of points to bet.</font><div class='respPicDiv'><img src='img/responseButtonOffersNo0L.png' class='respPic'></div></div>","3","10","Primo Pineapple","Fruit/pineapple.png","Won","0.65,0.35","12","0.65","171","28","",""
"html-keyboard-response","92","176988","0.0-11.0-2.27","5f5691fb24d1090e6bcdf1ec","bdp_rwlrn","Sun Mar 12 2023 15:50:47 GMT-0500 (Central Daylight Time)","443622","Trustworthy,Untrustworthy","","null","","","","decisionFB","","<div class='trialDiv'><img src='Fruit/pineapple.png'><br><font class='baseline'><strong>Primo Pineapple</strong><p>Choose number of points to bet.</font><div class='respPicDiv'><img src='img/responseButtonOffersNo0L3.png' class='respPic'></div></div>","null","10","Primo Pineapple","Fruit/pineapple.png","Won","0.65,0.35","12","0.65","168","28","",""
"html-keyboard-response","93","177992","0.0-11.0-3.27","5f5691fb24d1090e6bcdf1ec","bdp_rwlrn","Sun Mar 12 2023 15:50:47 GMT-0500 (Central Daylight Time)","443622","Trustworthy,Untrustworthy","","null","","","","feedback","","<div class='respPicDiv'><img src='img/responseButtonOffersNo0_wht.png' class='respPic'></div><div class='trialDiv'><img src='Fruit/pineapple.png'><br><font class='baseline'><strong>Primo Pineapple</strong><p><strong><font class='posOutcome'>You WON</font><p>You bet: 3</strong></font> &nbsp; &nbsp; &nbsp; &nbsp; &nbsp; &nbsp;<font class='posOutcome'>you receive: <strong>6</strong></font></div>","null","10","Primo Pineapple","Fruit/pineapple.png","Won","0.65,0.35","12","0.65","174","28","",""
"html-keyboard-response","94","178382","0.0-11.0-1.28","5f5691fb24d1090e6bcdf1ec","bdp_rwlrn","Sun Mar 12 2023 15:50:47 GMT-0500 (Central Daylight Time)","443622","Trustworthy,Untrustworthy","","388","","","","decision","","<div class='trialDiv'><img src='Fruit/orange.png'><br><font class='baseline'><strong>Odds are Orange</strong><p>Choose number of points to bet.</font><div class='respPicDiv'><img src='img/responseButtonOffersNo0L.png' class='respPic'></div></div>","5","10","Odds are Orange","Fruit/orange.png","Lost","0.8,0.35","9","0.8","179","29","",""
"html-keyboard-response","95","178635","0.0-11.0-2.28","5f5691fb24d1090e6bcdf1ec","bdp_rwlrn","Sun Mar 12 2023 15:50:47 GMT-0500 (Central Daylight Time)","443622","Trustworthy,Untrustworthy","","null","","","","decisionFB","","<div class='trialDiv'><img src='Fruit/orange.png'><br><font class='baseline'><strong>Odds are Orange</strong><p>Choose number of points to bet.</font><div class='respPicDiv'><img src='img/responseButtonOffersNo0L5.png' class='respPic'></div></div>","null","10","Odds are Orange","Fruit/orange.png","Lost","0.8,0.35","9","0.8","174","29","",""
"html-keyboard-response","96","179640","0.0-11.0-3.28","5f5691fb24d1090e6bcdf1ec","bdp_rwlrn","Sun Mar 12 2023 15:50:47 GMT-0500 (Central Daylight Time)","443622","Trustworthy,Untrustworthy","","null","","","","feedback","","<div class='respPicDiv'><img src='img/responseButtonOffersNo0_wht.png' class='respPic'></div><div class='trialDiv'><img src='Fruit/orange.png'><br><font class='baseline'><strong>Odds are Orange</strong><p><strong><font class='negOutcome'>You LOST</font><p>You bet: 5</strong></font> &nbsp; &nbsp; &nbsp; &nbsp; &nbsp; &nbsp;<font class='negOutcome'>You receive: <strong>0</strong></font></div>","null","10","Odds are Orange","Fruit/orange.png","Lost","0.8,0.35","9","0.8","174","29","",""
"html-keyboard-response","97","180113","0.0-11.0-1.29","5f5691fb24d1090e6bcdf1ec","bdp_rwlrn","Sun Mar 12 2023 15:50:47 GMT-0500 (Central Daylight Time)","443622","Trustworthy,Untrustworthy","","470","","","","decision","","<div class='trialDiv'><img src='Fruit/grapes.png'><br><font class='baseline'><strong>Great Grapes</strong><p>Choose number of points to bet.</font><div class='respPicDiv'><img src='img/responseButtonOffersNo0L.png' class='respPic'></div></div>","1","10","Great Grapes","Fruit/grapes.png","Won","0.35,0.8","13","0.35","179","30","",""
"html-keyboard-response","98","180370","0.0-11.0-2.29","5f5691fb24d1090e6bcdf1ec","bdp_rwlrn","Sun Mar 12 2023 15:50:47 GMT-0500 (Central Daylight Time)","443622","Trustworthy,Untrustworthy","","null","","","","decisionFB","","<div class='trialDiv'><img src='Fruit/grapes.png'><br><font class='baseline'><strong>Great Grapes</strong><p>Choose number of points to bet.</font><div class='respPicDiv'><img src='img/responseButtonOffersNo0L1.png' class='respPic'></div></div>","null","10","Great Grapes","Fruit/grapes.png","Won","0.35,0.8","13","0.35","178","30","",""
"html-keyboard-response","99","181378","0.0-11.0-3.29","5f5691fb24d1090e6bcdf1ec","bdp_rwlrn","Sun Mar 12 2023 15:50:47 GMT-0500 (Central Daylight Time)","443622","Trustworthy,Untrustworthy","","null","","","","feedback","","<div class='respPicDiv'><img src='img/responseButtonOffersNo0_wht.png' class='respPic'></div><div class='trialDiv'><img src='Fruit/grapes.png'><br><font class='baseline'><strong>Great Grapes</strong><p><strong><font class='posOutcome'>You WON</font><p>You bet: 1</strong></font> &nbsp; &nbsp; &nbsp; &nbsp; &nbsp; &nbsp;<font class='posOutcome'>you receive: <strong>2</strong></font></div>","null","10","Great Grapes","Fruit/grapes.png","Won","0.35,0.8","13","0.35","180","30","",""
"html-keyboard-response","100","182552","0.0-11.0-1.30","5f5691fb24d1090e6bcdf1ec","bdp_rwlrn","Sun Mar 12 2023 15:50:47 GMT-0500 (Central Daylight Time)","443622","Trustworthy,Untrustworthy","","1171","","","","decision","","<div class='trialDiv'><img src='Fruit/orange.png'><br><font class='baseline'><strong>Odds are Orange</strong><p>Choose number of points to bet.</font><div class='respPicDiv'><img src='img/responseButtonOffersNo0L.png' class='respPic'></div></div>","3","11","Odds are Orange","Fruit/orange.png","Won","0.8,0.35","9","0.8","185","31","",""
"html-keyboard-response","101","182809","0.0-11.0-2.30","5f5691fb24d1090e6bcdf1ec","bdp_rwlrn","Sun Mar 12 2023 15:50:47 GMT-0500 (Central Daylight Time)","443622","Trustworthy,Untrustworthy","","null","","","","decisionFB","","<div class='trialDiv'><img src='Fruit/orange.png'><br><font class='baseline'><strong>Odds are Orange</strong><p>Choose number of points to bet.</font><div class='respPicDiv'><img src='img/responseButtonOffersNo0L3.png' class='respPic'></div></div>","null","11","Odds are Orange","Fruit/orange.png","Won","0.8,0.35","9","0.8","182","31","",""
"html-keyboard-response","102","183817","0.0-11.0-3.30","5f5691fb24d1090e6bcdf1ec","bdp_rwlrn","Sun Mar 12 2023 15:50:47 GMT-0500 (Central Daylight Time)","443622","Trustworthy,Untrustworthy","","null","","","","feedback","","<div class='respPicDiv'><img src='img/responseButtonOffersNo0_wht.png' class='respPic'></div><div class='trialDiv'><img src='Fruit/orange.png'><br><font class='baseline'><strong>Odds are Orange</strong><p><strong><font class='posOutcome'>You WON</font><p>You bet: 3</strong></font> &nbsp; &nbsp; &nbsp; &nbsp; &nbsp; &nbsp;<font class='posOutcome'>you receive: <strong>6</strong></font></div>","null","11","Odds are Orange","Fruit/orange.png","Won","0.8,0.35","9","0.8","188","31","",""
"html-keyboard-response","103","184731","0.0-11.0-1.31","5f5691fb24d1090e6bcdf1ec","bdp_rwlrn","Sun Mar 12 2023 15:50:47 GMT-0500 (Central Daylight Time)","443622","Trustworthy,Untrustworthy","","911","","","","decision","","<div class='trialDiv'><img src='Fruit/pineapple.png'><br><font class='baseline'><strong>Primo Pineapple</strong><p>Choose number of points to bet.</font><div class='respPicDiv'><img src='img/responseButtonOffersNo0L.png' class='respPic'></div></div>","2","11","Primo Pineapple","Fruit/pineapple.png","Lost","0.65,0.35","12","0.65","193","32","",""
"html-keyboard-response","104","184989","0.0-11.0-2.31","5f5691fb24d1090e6bcdf1ec","bdp_rwlrn","Sun Mar 12 2023 15:50:47 GMT-0500 (Central Daylight Time)","443622","Trustworthy,Untrustworthy","","null","","","","decisionFB","","<div class='trialDiv'><img src='Fruit/pineapple.png'><br><font class='baseline'><strong>Primo Pineapple</strong><p>Choose number of points to bet.</font><div class='respPicDiv'><img src='img/responseButtonOffersNo0L2.png' class='respPic'></div></div>","null","11","Primo Pineapple","Fruit/pineapple.png","Lost","0.65,0.35","12","0.65","191","32","",""
"html-keyboard-response","105","185996","0.0-11.0-3.31","5f5691fb24d1090e6bcdf1ec","bdp_rwlrn","Sun Mar 12 2023 15:50:47 GMT-0500 (Central Daylight Time)","443622","Trustworthy,Untrustworthy","","null","","","","feedback","","<div class='respPicDiv'><img src='img/responseButtonOffersNo0_wht.png' class='respPic'></div><div class='trialDiv'><img src='Fruit/pineapple.png'><br><font class='baseline'><strong>Primo Pineapple</strong><p><strong><font class='negOutcome'>You LOST</font><p>You bet: 2</strong></font> &nbsp; &nbsp; &nbsp; &nbsp; &nbsp; &nbsp;<font class='negOutcome'>You receive: <strong>0</strong></font></div>","null","11","Primo Pineapple","Fruit/pineapple.png","Lost","0.65,0.35","12","0.65","191","32","",""
"html-keyboard-response","106","186926","0.0-11.0-1.32","5f5691fb24d1090e6bcdf1ec","bdp_rwlrn","Sun Mar 12 2023 15:50:47 GMT-0500 (Central Daylight Time)","443622","Trustworthy,Untrustworthy","","927","","","","decision","","<div class='trialDiv'><img src='Fruit/grapes.png'><br><font class='baseline'><strong>Great Grapes</strong><p>Choose number of points to bet.</font><div class='respPicDiv'><img src='img/responseButtonOffersNo0L.png' class='respPic'></div></div>","3","11","Great Grapes","Fruit/grapes.png","Lost","0.35,0.8","13","0.35","196","33","",""
"html-keyboard-response","107","187181","0.0-11.0-2.32","5f5691fb24d1090e6bcdf1ec","bdp_rwlrn","Sun Mar 12 2023 15:50:47 GMT-0500 (Central Daylight Time)","443622","Trustworthy,Untrustworthy","","null","","","","decisionFB","","<div class='trialDiv'><img src='Fruit/grapes.png'><br><font class='baseline'><strong>Great Grapes</strong><p>Choose number of points to bet.</font><div class='respPicDiv'><img src='img/responseButtonOffersNo0L3.png' class='respPic'></div></div>","null","11","Great Grapes","Fruit/grapes.png","Lost","0.35,0.8","13","0.35","193","33","",""
"html-keyboard-response","108","188189","0.0-11.0-3.32","5f5691fb24d1090e6bcdf1ec","bdp_rwlrn","Sun Mar 12 2023 15:50:47 GMT-0500 (Central Daylight Time)","443622","Trustworthy,Untrustworthy","","null","","","","feedback","","<div class='respPicDiv'><img src='img/responseButtonOffersNo0_wht.png' class='respPic'></div><div class='trialDiv'><img src='Fruit/grapes.png'><br><font class='baseline'><strong>Great Grapes</strong><p><strong><font class='negOutcome'>You LOST</font><p>You bet: 3</strong></font> &nbsp; &nbsp; &nbsp; &nbsp; &nbsp; &nbsp;<font class='negOutcome'>You receive: <strong>0</strong></font></div>","null","11","Great Grapes","Fruit/grapes.png","Lost","0.35,0.8","13","0.35","193","33","",""
"html-keyboard-response","109","188922","0.0-11.0-1.33","5f5691fb24d1090e6bcdf1ec","bdp_rwlrn","Sun Mar 12 2023 15:50:47 GMT-0500 (Central Daylight Time)","443622","Trustworthy,Untrustworthy","","730","","","","decision","","<div class='trialDiv'><img src='Fruit/orange.png'><br><font class='baseline'><strong>Odds are Orange</strong><p>Choose number of points to bet.</font><div class='respPicDiv'><img src='img/responseButtonOffersNo0L.png' class='respPic'></div></div>","5","12","Odds are Orange","Fruit/orange.png","Lost","0.8,0.35","9","0.8","198","34","",""
"html-keyboard-response","110","189176","0.0-11.0-2.33","5f5691fb24d1090e6bcdf1ec","bdp_rwlrn","Sun Mar 12 2023 15:50:47 GMT-0500 (Central Daylight Time)","443622","Trustworthy,Untrustworthy","","null","","","","decisionFB","","<div class='trialDiv'><img src='Fruit/orange.png'><br><font class='baseline'><strong>Odds are Orange</strong><p>Choose number of points to bet.</font><div class='respPicDiv'><img src='img/responseButtonOffersNo0L5.png' class='respPic'></div></div>","null","12","Odds are Orange","Fruit/orange.png","Lost","0.8,0.35","9","0.8","193","34","",""
"html-keyboard-response","111","190182","0.0-11.0-3.33","5f5691fb24d1090e6bcdf1ec","bdp_rwlrn","Sun Mar 12 2023 15:50:47 GMT-0500 (Central Daylight Time)","443622","Trustworthy,Untrustworthy","","null","","","","feedback","","<div class='respPicDiv'><img src='img/responseButtonOffersNo0_wht.png' class='respPic'></div><div class='trialDiv'><img src='Fruit/orange.png'><br><font class='baseline'><strong>Odds are Orange</strong><p><strong><font class='negOutcome'>You LOST</font><p>You bet: 5</strong></font> &nbsp; &nbsp; &nbsp; &nbsp; &nbsp; &nbsp;<font class='negOutcome'>You receive: <strong>0</strong></font></div>","null","12","Odds are Orange","Fruit/orange.png","Lost","0.8,0.35","9","0.8","193","34","",""
"html-keyboard-response","112","190628","0.0-11.0-1.34","5f5691fb24d1090e6bcdf1ec","bdp_rwlrn","Sun Mar 12 2023 15:50:47 GMT-0500 (Central Daylight Time)","443622","Trustworthy,Untrustworthy","","444","","","","decision","","<div class='trialDiv'><img src='Fruit/pineapple.png'><br><font class='baseline'><strong>Primo Pineapple</strong><p>Choose number of points to bet.</font><div class='respPicDiv'><img src='img/responseButtonOffersNo0L.png' class='respPic'></div></div>","1","12","Primo Pineapple","Fruit/pineapple.png","Won","0.65,0.35","12","0.65","198","35","",""
"html-keyboard-response","113","190881","0.0-11.0-2.34","5f5691fb24d1090e6bcdf1ec","bdp_rwlrn","Sun Mar 12 2023 15:50:47 GMT-0500 (Central Daylight Time)","443622","Trustworthy,Untrustworthy","","null","","","","decisionFB","","<div class='trialDiv'><img src='Fruit/pineapple.png'><br><font class='baseline'><strong>Primo Pineapple</strong><p>Choose number of points to bet.</font><div class='respPicDiv'><img src='img/responseButtonOffersNo0L1.png' class='respPic'></div></div>","null","12","Primo Pineapple","Fruit/pineapple.png","Won","0.65,0.35","12","0.65","197","35","",""
"html-keyboard-response","114","191889","0.0-11.0-3.34","5f5691fb24d1090e6bcdf1ec","bdp_rwlrn","Sun Mar 12 2023 15:50:47 GMT-0500 (Central Daylight Time)","443622","Trustworthy,Untrustworthy","","null","","","","feedback","","<div class='respPicDiv'><img src='img/responseButtonOffersNo0_wht.png' class='respPic'></div><div class='trialDiv'><img src='Fruit/pineapple.png'><br><font class='baseline'><strong>Primo Pineapple</strong><p><strong><font class='posOutcome'>You WON</font><p>You bet: 1</strong></font> &nbsp; &nbsp; &nbsp; &nbsp; &nbsp; &nbsp;<font class='posOutcome'>you receive: <strong>2</strong></font></div>","null","12","Primo Pineapple","Fruit/pineapple.png","Won","0.65,0.35","12","0.65","199","35","",""
"html-keyboard-response","115","192733","0.0-11.0-1.35","5f5691fb24d1090e6bcdf1ec","bdp_rwlrn","Sun Mar 12 2023 15:50:47 GMT-0500 (Central Daylight Time)","443622","Trustworthy,Untrustworthy","","842","","","","decision","","<div class='trialDiv'><img src='Fruit/grapes.png'><br><font class='baseline'><strong>Great Grapes</strong><p>Choose number of points to bet.</font><div class='respPicDiv'><img src='img/responseButtonOffersNo0L.png' class='respPic'></div></div>","3","12","Great Grapes","Fruit/grapes.png","Won","0.35,0.8","13","0.35","204","36","",""
"html-keyboard-response","116","192991","0.0-11.0-2.35","5f5691fb24d1090e6bcdf1ec","bdp_rwlrn","Sun Mar 12 2023 15:50:47 GMT-0500 (Central Daylight Time)","443622","Trustworthy,Untrustworthy","","null","","","","decisionFB","","<div class='trialDiv'><img src='Fruit/grapes.png'><br><font class='baseline'><strong>Great Grapes</strong><p>Choose number of points to bet.</font><div class='respPicDiv'><img src='img/responseButtonOffersNo0L3.png' class='respPic'></div></div>","null","12","Great Grapes","Fruit/grapes.png","Won","0.35,0.8","13","0.35","201","36","",""
"html-keyboard-response","117","193999","0.0-11.0-3.35","5f5691fb24d1090e6bcdf1ec","bdp_rwlrn","Sun Mar 12 2023 15:50:47 GMT-0500 (Central Daylight Time)","443622","Trustworthy,Untrustworthy","","null","","","","feedback","","<div class='respPicDiv'><img src='img/responseButtonOffersNo0_wht.png' class='respPic'></div><div class='trialDiv'><img src='Fruit/grapes.png'><br><font class='baseline'><strong>Great Grapes</strong><p><strong><font class='posOutcome'>You WON</font><p>You bet: 3</strong></font> &nbsp; &nbsp; &nbsp; &nbsp; &nbsp; &nbsp;<font class='posOutcome'>you receive: <strong>6</strong></font></div>","null","12","Great Grapes","Fruit/grapes.png","Won","0.35,0.8","13","0.35","207","36","",""
"html-keyboard-response","118","197586","0.0-11.0-1.36","5f5691fb24d1090e6bcdf1ec","bdp_rwlrn","Sun Mar 12 2023 15:50:47 GMT-0500 (Central Daylight Time)","443622","Trustworthy,Untrustworthy","","3585","","","","decision","","<div class='trialDiv'><img src='Fruit/pineapple.png'><br><font class='baseline'><strong>Primo Pineapple</strong><p>Choose number of points to bet.</font><div class='respPicDiv'><img src='img/responseButtonOffersNo0L.png' class='respPic'></div></div>","3","13","Primo Pineapple","Fruit/pineapple.png","Lost","0.65,0.35","12","0.65","212","37","",""
"html-keyboard-response","119","197843","0.0-11.0-2.36","5f5691fb24d1090e6bcdf1ec","bdp_rwlrn","Sun Mar 12 2023 15:50:47 GMT-0500 (Central Daylight Time)","443622","Trustworthy,Untrustworthy","","null","","","","decisionFB","","<div class='trialDiv'><img src='Fruit/pineapple.png'><br><font class='baseline'><strong>Primo Pineapple</strong><p>Choose number of points to bet.</font><div class='respPicDiv'><img src='img/responseButtonOffersNo0L3.png' class='respPic'></div></div>","null","13","Primo Pineapple","Fruit/pineapple.png","Lost","0.65,0.35","12","0.65","209","37","",""
"html-keyboard-response","120","198851","0.0-11.0-3.36","5f5691fb24d1090e6bcdf1ec","bdp_rwlrn","Sun Mar 12 2023 15:50:47 GMT-0500 (Central Daylight Time)","443622","Trustworthy,Untrustworthy","","null","","","","feedback","","<div class='respPicDiv'><img src='img/responseButtonOffersNo0_wht.png' class='respPic'></div><div class='trialDiv'><img src='Fruit/pineapple.png'><br><font class='baseline'><strong>Primo Pineapple</strong><p><strong><font class='negOutcome'>You LOST</font><p>You bet: 3</strong></font> &nbsp; &nbsp; &nbsp; &nbsp; &nbsp; &nbsp;<font class='negOutcome'>You receive: <strong>0</strong></font></div>","null","13","Primo Pineapple","Fruit/pineapple.png","Lost","0.65,0.35","12","0.65","209","37","",""
"html-keyboard-response","121","200089","0.0-11.0-1.37","5f5691fb24d1090e6bcdf1ec","bdp_rwlrn","Sun Mar 12 2023 15:50:47 GMT-0500 (Central Daylight Time)","443622","Trustworthy,Untrustworthy","","1235","","","","decision","","<div class='trialDiv'><img src='Fruit/grapes.png'><br><font class='baseline'><strong>Great Grapes</strong><p>Choose number of points to bet.</font><div class='respPicDiv'><img src='img/responseButtonOffersNo0L.png' class='respPic'></div></div>","3","13","Great Grapes","Fruit/grapes.png","Won","0.35,0.8","13","0.35","214","38","",""
"html-keyboard-response","122","200346","0.0-11.0-2.37","5f5691fb24d1090e6bcdf1ec","bdp_rwlrn","Sun Mar 12 2023 15:50:47 GMT-0500 (Central Daylight Time)","443622","Trustworthy,Untrustworthy","","null","","","","decisionFB","","<div class='trialDiv'><img src='Fruit/grapes.png'><br><font class='baseline'><strong>Great Grapes</strong><p>Choose number of points to bet.</font><div class='respPicDiv'><img src='img/responseButtonOffersNo0L3.png' class='respPic'></div></div>","null","13","Great Grapes","Fruit/grapes.png","Won","0.35,0.8","13","0.35","211","38","",""
"html-keyboard-response","123","201353","0.0-11.0-3.37","5f5691fb24d1090e6bcdf1ec","bdp_rwlrn","Sun Mar 12 2023 15:50:47 GMT-0500 (Central Daylight Time)","443622","Trustworthy,Untrustworthy","","null","","","","feedback","","<div class='respPicDiv'><img src='img/responseButtonOffersNo0_wht.png' class='respPic'></div><div class='trialDiv'><img src='Fruit/grapes.png'><br><font class='baseline'><strong>Great Grapes</strong><p><strong><font class='posOutcome'>You WON</font><p>You bet: 3</strong></font> &nbsp; &nbsp; &nbsp; &nbsp; &nbsp; &nbsp;<font class='posOutcome'>you receive: <strong>6</strong></font></div>","null","13","Great Grapes","Fruit/grapes.png","Won","0.35,0.8","13","0.35","217","38","",""
"html-keyboard-response","124","202531","0.0-11.0-1.38","5f5691fb24d1090e6bcdf1ec","bdp_rwlrn","Sun Mar 12 2023 15:50:47 GMT-0500 (Central Daylight Time)","443622","Trustworthy,Untrustworthy","","1175","","","","decision","","<div class='trialDiv'><img src='Fruit/orange.png'><br><font class='baseline'><strong>Odds are Orange</strong><p>Choose number of points to bet.</font><div class='respPicDiv'><img src='img/responseButtonOffersNo0L.png' class='respPic'></div></div>","5","13","Odds are Orange","Fruit/orange.png","Lost","0.8,0.35","9","0.8","222","39","",""
"html-keyboard-response","125","202788","0.0-11.0-2.38","5f5691fb24d1090e6bcdf1ec","bdp_rwlrn","Sun Mar 12 2023 15:50:47 GMT-0500 (Central Daylight Time)","443622","Trustworthy,Untrustworthy","","null","","","","decisionFB","","<div class='trialDiv'><img src='Fruit/orange.png'><br><font class='baseline'><strong>Odds are Orange</strong><p>Choose number of points to bet.</font><div class='respPicDiv'><img src='img/responseButtonOffersNo0L5.png' class='respPic'></div></div>","null","13","Odds are Orange","Fruit/orange.png","Lost","0.8,0.35","9","0.8","217","39","",""
"html-keyboard-response","126","203794","0.0-11.0-3.38","5f5691fb24d1090e6bcdf1ec","bdp_rwlrn","Sun Mar 12 2023 15:50:47 GMT-0500 (Central Daylight Time)","443622","Trustworthy,Untrustworthy","","null","","","","feedback","","<div class='respPicDiv'><img src='img/responseButtonOffersNo0_wht.png' class='respPic'></div><div class='trialDiv'><img src='Fruit/orange.png'><br><font class='baseline'><strong>Odds are Orange</strong><p><strong><font class='negOutcome'>You LOST</font><p>You bet: 5</strong></font> &nbsp; &nbsp; &nbsp; &nbsp; &nbsp; &nbsp;<font class='negOutcome'>You receive: <strong>0</strong></font></div>","null","13","Odds are Orange","Fruit/orange.png","Lost","0.8,0.35","9","0.8","217","39","",""
"html-keyboard-response","127","203853","0.0-11.0-1.39","5f5691fb24d1090e6bcdf1ec","bdp_rwlrn","Sun Mar 12 2023 15:50:47 GMT-0500 (Central Daylight Time)","443622","Trustworthy,Untrustworthy","","57","","","","decision","","<div class='trialDiv'><img src='Fruit/grapes.png'><br><font class='baseline'><strong>Great Grapes</strong><p>Choose number of points to bet.</font><div class='respPicDiv'><img src='img/responseButtonOffersNo0L.png' class='respPic'></div></div>","3","14","Great Grapes","Fruit/grapes.png","Lost","0.35,0.8","13","0.35","222","40","",""
"html-keyboard-response","128","204110","0.0-11.0-2.39","5f5691fb24d1090e6bcdf1ec","bdp_rwlrn","Sun Mar 12 2023 15:50:47 GMT-0500 (Central Daylight Time)","443622","Trustworthy,Untrustworthy","","null","","","","decisionFB","","<div class='trialDiv'><img src='Fruit/grapes.png'><br><font class='baseline'><strong>Great Grapes</strong><p>Choose number of points to bet.</font><div class='respPicDiv'><img src='img/responseButtonOffersNo0L3.png' class='respPic'></div></div>","null","14","Great Grapes","Fruit/grapes.png","Lost","0.35,0.8","13","0.35","219","40","",""
"html-keyboard-response","129","205118","0.0-11.0-3.39","5f5691fb24d1090e6bcdf1ec","bdp_rwlrn","Sun Mar 12 2023 15:50:47 GMT-0500 (Central Daylight Time)","443622","Trustworthy,Untrustworthy","","null","","","","feedback","","<div class='respPicDiv'><img src='img/responseButtonOffersNo0_wht.png' class='respPic'></div><div class='trialDiv'><img src='Fruit/grapes.png'><br><font class='baseline'><strong>Great Grapes</strong><p><strong><font class='negOutcome'>You LOST</font><p>You bet: 3</strong></font> &nbsp; &nbsp; &nbsp; &nbsp; &nbsp; &nbsp;<font class='negOutcome'>You receive: <strong>0</strong></font></div>","null","14","Great Grapes","Fruit/grapes.png","Lost","0.35,0.8","13","0.35","219","40","",""
"html-keyboard-response","130","205821","0.0-11.0-1.40","5f5691fb24d1090e6bcdf1ec","bdp_rwlrn","Sun Mar 12 2023 15:50:47 GMT-0500 (Central Daylight Time)","443622","Trustworthy,Untrustworthy","","700","","","","decision","","<div class='trialDiv'><img src='Fruit/orange.png'><br><font class='baseline'><strong>Odds are Orange</strong><p>Choose number of points to bet.</font><div class='respPicDiv'><img src='img/responseButtonOffersNo0L.png' class='respPic'></div></div>","5","14","Odds are Orange","Fruit/orange.png","Won","0.8,0.35","9","0.8","224","41","",""
"html-keyboard-response","131","206074","0.0-11.0-2.40","5f5691fb24d1090e6bcdf1ec","bdp_rwlrn","Sun Mar 12 2023 15:50:47 GMT-0500 (Central Daylight Time)","443622","Trustworthy,Untrustworthy","","null","","","","decisionFB","","<div class='trialDiv'><img src='Fruit/orange.png'><br><font class='baseline'><strong>Odds are Orange</strong><p>Choose number of points to bet.</font><div class='respPicDiv'><img src='img/responseButtonOffersNo0L5.png' class='respPic'></div></div>","null","14","Odds are Orange","Fruit/orange.png","Won","0.8,0.35","9","0.8","219","41","",""
"html-keyboard-response","132","207080","0.0-11.0-3.40","5f5691fb24d1090e6bcdf1ec","bdp_rwlrn","Sun Mar 12 2023 15:50:47 GMT-0500 (Central Daylight Time)","443622","Trustworthy,Untrustworthy","","null","","","","feedback","","<div class='respPicDiv'><img src='img/responseButtonOffersNo0_wht.png' class='respPic'></div><div class='trialDiv'><img src='Fruit/orange.png'><br><font class='baseline'><strong>Odds are Orange</strong><p><strong><font class='posOutcome'>You WON</font><p>You bet: 5</strong></font> &nbsp; &nbsp; &nbsp; &nbsp; &nbsp; &nbsp;<font class='posOutcome'>you receive: <strong>10</strong></font></div>","null","14","Odds are Orange","Fruit/orange.png","Won","0.8,0.35","9","0.8","229","41","",""
"html-keyboard-response","133","208206","0.0-11.0-1.41","5f5691fb24d1090e6bcdf1ec","bdp_rwlrn","Sun Mar 12 2023 15:50:47 GMT-0500 (Central Daylight Time)","443622","Trustworthy,Untrustworthy","","1123","","","","decision","","<div class='trialDiv'><img src='Fruit/pineapple.png'><br><font class='baseline'><strong>Primo Pineapple</strong><p>Choose number of points to bet.</font><div class='respPicDiv'><img src='img/responseButtonOffersNo0L.png' class='respPic'></div></div>","3","14","Primo Pineapple","Fruit/pineapple.png","Won","0.65,0.35","12","0.65","234","42","",""
"html-keyboard-response","134","208458","0.0-11.0-2.41","5f5691fb24d1090e6bcdf1ec","bdp_rwlrn","Sun Mar 12 2023 15:50:47 GMT-0500 (Central Daylight Time)","443622","Trustworthy,Untrustworthy","","null","","","","decisionFB","","<div class='trialDiv'><img src='Fruit/pineapple.png'><br><font class='baseline'><strong>Primo Pineapple</strong><p>Choose number of points to bet.</font><div class='respPicDiv'><img src='img/responseButtonOffersNo0L3.png' class='respPic'></div></div>","null","14","Primo Pineapple","Fruit/pineapple.png","Won","0.65,0.35","12","0.65","231","42","",""
"html-keyboard-response","135","209466","0.0-11.0-3.41","5f5691fb24d1090e6bcdf1ec","bdp_rwlrn","Sun Mar 12 2023 15:50:47 GMT-0500 (Central Daylight Time)","443622","Trustworthy,Untrustworthy","","null","","","","feedback","","<div class='respPicDiv'><img src='img/responseButtonOffersNo0_wht.png' class='respPic'></div><div class='trialDiv'><img src='Fruit/pineapple.png'><br><font class='baseline'><strong>Primo Pineapple</strong><p><strong><font class='posOutcome'>You WON</font><p>You bet: 3</strong></font> &nbsp; &nbsp; &nbsp; &nbsp; &nbsp; &nbsp;<font class='posOutcome'>you receive: <strong>6</strong></font></div>","null","14","Primo Pineapple","Fruit/pineapple.png","Won","0.65,0.35","12","0.65","237","42","",""
"html-keyboard-response","136","210392","0.0-11.0-1.42","5f5691fb24d1090e6bcdf1ec","bdp_rwlrn","Sun Mar 12 2023 15:50:47 GMT-0500 (Central Daylight Time)","443622","Trustworthy,Untrustworthy","","924","","","","decision","","<div class='trialDiv'><img src='Fruit/grapes.png'><br><font class='baseline'><strong>Great Grapes</strong><p>Choose number of points to bet.</font><div class='respPicDiv'><img src='img/responseButtonOffersNo0L.png' class='respPic'></div></div>","2","15","Great Grapes","Fruit/grapes.png","Won","0.35,0.8","13","0.35","242","43","",""
"html-keyboard-response","137","210644","0.0-11.0-2.42","5f5691fb24d1090e6bcdf1ec","bdp_rwlrn","Sun Mar 12 2023 15:50:47 GMT-0500 (Central Daylight Time)","443622","Trustworthy,Untrustworthy","","null","","","","decisionFB","","<div class='trialDiv'><img src='Fruit/grapes.png'><br><font class='baseline'><strong>Great Grapes</strong><p>Choose number of points to bet.</font><div class='respPicDiv'><img src='img/responseButtonOffersNo0L2.png' class='respPic'></div></div>","null","15","Great Grapes","Fruit/grapes.png","Won","0.35,0.8","13","0.35","240","43","",""
"html-keyboard-response","138","211651","0.0-11.0-3.42","5f5691fb24d1090e6bcdf1ec","bdp_rwlrn","Sun Mar 12 2023 15:50:47 GMT-0500 (Central Daylight Time)","443622","Trustworthy,Untrustworthy","","null","","","","feedback","","<div class='respPicDiv'><img src='img/responseButtonOffersNo0_wht.png' class='respPic'></div><div class='trialDiv'><img src='Fruit/grapes.png'><br><font class='baseline'><strong>Great Grapes</strong><p><strong><font class='posOutcome'>You WON</font><p>You bet: 2</strong></font> &nbsp; &nbsp; &nbsp; &nbsp; &nbsp; &nbsp;<font class='posOutcome'>you receive: <strong>4</strong></font></div>","null","15","Great Grapes","Fruit/grapes.png","Won","0.35,0.8","13","0.35","244","43","",""
"html-keyboard-response","139","212353","0.0-11.0-1.43","5f5691fb24d1090e6bcdf1ec","bdp_rwlrn","Sun Mar 12 2023 15:50:47 GMT-0500 (Central Daylight Time)","443622","Trustworthy,Untrustworthy","","698","","","","decision","","<div class='trialDiv'><img src='Fruit/pineapple.png'><br><font class='baseline'><strong>Primo Pineapple</strong><p>Choose number of points to bet.</font><div class='respPicDiv'><img src='img/responseButtonOffersNo0L.png' class='respPic'></div></div>","3","15","Primo Pineapple","Fruit/pineapple.png","Lost","0.65,0.35","12","0.65","249","44","",""
"html-keyboard-response","140","212606","0.0-11.0-2.43","5f5691fb24d1090e6bcdf1ec","bdp_rwlrn","Sun Mar 12 2023 15:50:47 GMT-0500 (Central Daylight Time)","443622","Trustworthy,Untrustworthy","","null","","","","decisionFB","","<div class='trialDiv'><img src='Fruit/pineapple.png'><br><font class='baseline'><strong>Primo Pineapple</strong><p>Choose number of points to bet.</font><div class='respPicDiv'><img src='img/responseButtonOffersNo0L3.png' class='respPic'></div></div>","null","15","Primo Pineapple","Fruit/pineapple.png","Lost","0.65,0.35","12","0.65","246","44","",""
"html-keyboard-response","141","213611","0.0-11.0-3.43","5f5691fb24d1090e6bcdf1ec","bdp_rwlrn","Sun Mar 12 2023 15:50:47 GMT-0500 (Central Daylight Time)","443622","Trustworthy,Untrustworthy","","null","","","","feedback","","<div class='respPicDiv'><img src='img/responseButtonOffersNo0_wht.png' class='respPic'></div><div class='trialDiv'><img src='Fruit/pineapple.png'><br><font class='baseline'><strong>Primo Pineapple</strong><p><strong><font class='negOutcome'>You LOST</font><p>You bet: 3</strong></font> &nbsp; &nbsp; &nbsp; &nbsp; &nbsp; &nbsp;<font class='negOutcome'>You receive: <strong>0</strong></font></div>","null","15","Primo Pineapple","Fruit/pineapple.png","Lost","0.65,0.35","12","0.65","246","44","",""
"html-keyboard-response","142","214121","0.0-11.0-1.44","5f5691fb24d1090e6bcdf1ec","bdp_rwlrn","Sun Mar 12 2023 15:50:47 GMT-0500 (Central Daylight Time)","443622","Trustworthy,Untrustworthy","","508","","","","decision","","<div class='trialDiv'><img src='Fruit/orange.png'><br><font class='baseline'><strong>Odds are Orange</strong><p>Choose number of points to bet.</font><div class='respPicDiv'><img src='img/responseButtonOffersNo0L.png' class='respPic'></div></div>","5","15","Odds are Orange","Fruit/orange.png","Lost","0.8,0.35","9","0.8","251","45","",""
"html-keyboard-response","143","214378","0.0-11.0-2.44","5f5691fb24d1090e6bcdf1ec","bdp_rwlrn","Sun Mar 12 2023 15:50:47 GMT-0500 (Central Daylight Time)","443622","Trustworthy,Untrustworthy","","null","","","","decisionFB","","<div class='trialDiv'><img src='Fruit/orange.png'><br><font class='baseline'><strong>Odds are Orange</strong><p>Choose number of points to bet.</font><div class='respPicDiv'><img src='img/responseButtonOffersNo0L5.png' class='respPic'></div></div>","null","15","Odds are Orange","Fruit/orange.png","Lost","0.8,0.35","9","0.8","246","45","",""
"html-keyboard-response","144","215384","0.0-11.0-3.44","5f5691fb24d1090e6bcdf1ec","bdp_rwlrn","Sun Mar 12 2023 15:50:47 GMT-0500 (Central Daylight Time)","443622","Trustworthy,Untrustworthy","","null","","","","feedback","","<div class='respPicDiv'><img src='img/responseButtonOffersNo0_wht.png' class='respPic'></div><div class='trialDiv'><img src='Fruit/orange.png'><br><font class='baseline'><strong>Odds are Orange</strong><p><strong><font class='negOutcome'>You LOST</font><p>You bet: 5</strong></font> &nbsp; &nbsp; &nbsp; &nbsp; &nbsp; &nbsp;<font class='negOutcome'>You receive: <strong>0</strong></font></div>","null","15","Odds are Orange","Fruit/orange.png","Lost","0.8,0.35","9","0.8","246","45","",""
"html-keyboard-response","145","215540","0.0-11.0-1.45","5f5691fb24d1090e6bcdf1ec","bdp_rwlrn","Sun Mar 12 2023 15:50:47 GMT-0500 (Central Daylight Time)","443622","Trustworthy,Untrustworthy","","153","","","","decision","","<div class='trialDiv'><img src='Fruit/pineapple.png'><br><font class='baseline'><strong>Primo Pineapple</strong><p>Choose number of points to bet.</font><div class='respPicDiv'><img src='img/responseButtonOffersNo0L.png' class='respPic'></div></div>","3","16","Primo Pineapple","Fruit/pineapple.png","Lost","0.65,0.35","12","0.65","251","46","",""
"html-keyboard-response","146","215794","0.0-11.0-2.45","5f5691fb24d1090e6bcdf1ec","bdp_rwlrn","Sun Mar 12 2023 15:50:47 GMT-0500 (Central Daylight Time)","443622","Trustworthy,Untrustworthy","","null","","","","decisionFB","","<div class='trialDiv'><img src='Fruit/pineapple.png'><br><font class='baseline'><strong>Primo Pineapple</strong><p>Choose number of points to bet.</font><div class='respPicDiv'><img src='img/responseButtonOffersNo0L3.png' class='respPic'></div></div>","null","16","Primo Pineapple","Fruit/pineapple.png","Lost","0.65,0.35","12","0.65","248","46","",""
"html-keyboard-response","147","216802","0.0-11.0-3.45","5f5691fb24d1090e6bcdf1ec","bdp_rwlrn","Sun Mar 12 2023 15:50:47 GMT-0500 (Central Daylight Time)","443622","Trustworthy,Untrustworthy","","null","","","","feedback","","<div class='respPicDiv'><img src='img/responseButtonOffersNo0_wht.png' class='respPic'></div><div class='trialDiv'><img src='Fruit/pineapple.png'><br><font class='baseline'><strong>Primo Pineapple</strong><p><strong><font class='negOutcome'>You LOST</font><p>You bet: 3</strong></font> &nbsp; &nbsp; &nbsp; &nbsp; &nbsp; &nbsp;<font class='negOutcome'>You receive: <strong>0</strong></font></div>","null","16","Primo Pineapple","Fruit/pineapple.png","Lost","0.65,0.35","12","0.65","248","46","",""
"html-keyboard-response","148","217590","0.0-11.0-1.46","5f5691fb24d1090e6bcdf1ec","bdp_rwlrn","Sun Mar 12 2023 15:50:47 GMT-0500 (Central Daylight Time)","443622","Trustworthy,Untrustworthy","","785","","","","decision","","<div class='trialDiv'><img src='Fruit/orange.png'><br><font class='baseline'><strong>Odds are Orange</strong><p>Choose number of points to bet.</font><div class='respPicDiv'><img src='img/responseButtonOffersNo0L.png' class='respPic'></div></div>","5","16","Odds are Orange","Fruit/orange.png","Won","0.8,0.35","9","0.8","253","47","",""
"html-keyboard-response","149","217847","0.0-11.0-2.46","5f5691fb24d1090e6bcdf1ec","bdp_rwlrn","Sun Mar 12 2023 15:50:47 GMT-0500 (Central Daylight Time)","443622","Trustworthy,Untrustworthy","","null","","","","decisionFB","","<div class='trialDiv'><img src='Fruit/orange.png'><br><font class='baseline'><strong>Odds are Orange</strong><p>Choose number of points to bet.</font><div class='respPicDiv'><img src='img/responseButtonOffersNo0L5.png' class='respPic'></div></div>","null","16","Odds are Orange","Fruit/orange.png","Won","0.8,0.35","9","0.8","248","47","",""
"html-keyboard-response","150","218856","0.0-11.0-3.46","5f5691fb24d1090e6bcdf1ec","bdp_rwlrn","Sun Mar 12 2023 15:50:47 GMT-0500 (Central Daylight Time)","443622","Trustworthy,Untrustworthy","","null","","","","feedback","","<div class='respPicDiv'><img src='img/responseButtonOffersNo0_wht.png' class='respPic'></div><div class='trialDiv'><img src='Fruit/orange.png'><br><font class='baseline'><strong>Odds are Orange</strong><p><strong><font class='posOutcome'>You WON</font><p>You bet: 5</strong></font> &nbsp; &nbsp; &nbsp; &nbsp; &nbsp; &nbsp;<font class='posOutcome'>you receive: <strong>10</strong></font></div>","null","16","Odds are Orange","Fruit/orange.png","Won","0.8,0.35","9","0.8","258","47","",""
"html-keyboard-response","151","219648","0.0-11.0-1.47","5f5691fb24d1090e6bcdf1ec","bdp_rwlrn","Sun Mar 12 2023 15:50:47 GMT-0500 (Central Daylight Time)","443622","Trustworthy,Untrustworthy","","790","","","","decision","","<div class='trialDiv'><img src='Fruit/grapes.png'><br><font class='baseline'><strong>Great Grapes</strong><p>Choose number of points to bet.</font><div class='respPicDiv'><img src='img/responseButtonOffersNo0L.png' class='respPic'></div></div>","3","16","Great Grapes","Fruit/grapes.png","Won","0.35,0.8","13","0.35","263","48","",""
"html-keyboard-response","152","219900","0.0-11.0-2.47","5f5691fb24d1090e6bcdf1ec","bdp_rwlrn","Sun Mar 12 2023 15:50:47 GMT-0500 (Central Daylight Time)","443622","Trustworthy,Untrustworthy","","null","","","","decisionFB","","<div class='trialDiv'><img src='Fruit/grapes.png'><br><font class='baseline'><strong>Great Grapes</strong><p>Choose number of points to bet.</font><div class='respPicDiv'><img src='img/responseButtonOffersNo0L3.png' class='respPic'></div></div>","null","16","Great Grapes","Fruit/grapes.png","Won","0.35,0.8","13","0.35","260","48","",""
"html-keyboard-response","153","220907","0.0-11.0-3.47","5f5691fb24d1090e6bcdf1ec","bdp_rwlrn","Sun Mar 12 2023 15:50:47 GMT-0500 (Central Daylight Time)","443622","Trustworthy,Untrustworthy","","null","","","","feedback","","<div class='respPicDiv'><img src='img/responseButtonOffersNo0_wht.png' class='respPic'></div><div class='trialDiv'><img src='Fruit/grapes.png'><br><font class='baseline'><strong>Great Grapes</strong><p><strong><font class='posOutcome'>You WON</font><p>You bet: 3</strong></font> &nbsp; &nbsp; &nbsp; &nbsp; &nbsp; &nbsp;<font class='posOutcome'>you receive: <strong>6</strong></font></div>","null","16","Great Grapes","Fruit/grapes.png","Won","0.35,0.8","13","0.35","266","48","",""
"html-keyboard-response","154","221596","0.0-11.0-1.48","5f5691fb24d1090e6bcdf1ec","bdp_rwlrn","Sun Mar 12 2023 15:50:47 GMT-0500 (Central Daylight Time)","443622","Trustworthy,Untrustworthy","","686","","","","decision","","<div class='trialDiv'><img src='Fruit/orange.png'><br><font class='baseline'><strong>Odds are Orange</strong><p>Choose number of points to bet.</font><div class='respPicDiv'><img src='img/responseButtonOffersNo0L.png' class='respPic'></div></div>","5","17","Odds are Orange","Fruit/orange.png","Won","0.8,0.35","9","0.8","271","49","",""
"html-keyboard-response","155","221848","0.0-11.0-2.48","5f5691fb24d1090e6bcdf1ec","bdp_rwlrn","Sun Mar 12 2023 15:50:47 GMT-0500 (Central Daylight Time)","443622","Trustworthy,Untrustworthy","","null","","","","decisionFB","","<div class='trialDiv'><img src='Fruit/orange.png'><br><font class='baseline'><strong>Odds are Orange</strong><p>Choose number of points to bet.</font><div class='respPicDiv'><img src='img/responseButtonOffersNo0L5.png' class='respPic'></div></div>","null","17","Odds are Orange","Fruit/orange.png","Won","0.8,0.35","9","0.8","266","49","",""
"html-keyboard-response","156","222856","0.0-11.0-3.48","5f5691fb24d1090e6bcdf1ec","bdp_rwlrn","Sun Mar 12 2023 15:50:47 GMT-0500 (Central Daylight Time)","443622","Trustworthy,Untrustworthy","","null","","","","feedback","","<div class='respPicDiv'><img src='img/responseButtonOffersNo0_wht.png' class='respPic'></div><div class='trialDiv'><img src='Fruit/orange.png'><br><font class='baseline'><strong>Odds are Orange</strong><p><strong><font class='posOutcome'>You WON</font><p>You bet: 5</strong></font> &nbsp; &nbsp; &nbsp; &nbsp; &nbsp; &nbsp;<font class='posOutcome'>you receive: <strong>10</strong></font></div>","null","17","Odds are Orange","Fruit/orange.png","Won","0.8,0.35","9","0.8","276","49","",""
"html-keyboard-response","157","223494","0.0-11.0-1.49","5f5691fb24d1090e6bcdf1ec","bdp_rwlrn","Sun Mar 12 2023 15:50:47 GMT-0500 (Central Daylight Time)","443622","Trustworthy,Untrustworthy","","636","","","","decision","","<div class='trialDiv'><img src='Fruit/grapes.png'><br><font class='baseline'><strong>Great Grapes</strong><p>Choose number of points to bet.</font><div class='respPicDiv'><img src='img/responseButtonOffersNo0L.png' class='respPic'></div></div>","1","17","Great Grapes","Fruit/grapes.png","Won","0.35,0.8","13","0.35","281","50","",""
"html-keyboard-response","158","223748","0.0-11.0-2.49","5f5691fb24d1090e6bcdf1ec","bdp_rwlrn","Sun Mar 12 2023 15:50:47 GMT-0500 (Central Daylight Time)","443622","Trustworthy,Untrustworthy","","null","","","","decisionFB","","<div class='trialDiv'><img src='Fruit/grapes.png'><br><font class='baseline'><strong>Great Grapes</strong><p>Choose number of points to bet.</font><div class='respPicDiv'><img src='img/responseButtonOffersNo0L1.png' class='respPic'></div></div>","null","17","Great Grapes","Fruit/grapes.png","Won","0.35,0.8","13","0.35","280","50","",""
"html-keyboard-response","159","224756","0.0-11.0-3.49","5f5691fb24d1090e6bcdf1ec","bdp_rwlrn","Sun Mar 12 2023 15:50:47 GMT-0500 (Central Daylight Time)","443622","Trustworthy,Untrustworthy","","null","","","","feedback","","<div class='respPicDiv'><img src='img/responseButtonOffersNo0_wht.png' class='respPic'></div><div class='trialDiv'><img src='Fruit/grapes.png'><br><font class='baseline'><strong>Great Grapes</strong><p><strong><font class='posOutcome'>You WON</font><p>You bet: 1</strong></font> &nbsp; &nbsp; &nbsp; &nbsp; &nbsp; &nbsp;<font class='posOutcome'>you receive: <strong>2</strong></font></div>","null","17","Great Grapes","Fruit/grapes.png","Won","0.35,0.8","13","0.35","282","50","",""
"html-keyboard-response","160","225468","0.0-11.0-1.50","5f5691fb24d1090e6bcdf1ec","bdp_rwlrn","Sun Mar 12 2023 15:50:47 GMT-0500 (Central Daylight Time)","443622","Trustworthy,Untrustworthy","","710","","","","decision","","<div class='trialDiv'><img src='Fruit/pineapple.png'><br><font class='baseline'><strong>Primo Pineapple</strong><p>Choose number of points to bet.</font><div class='respPicDiv'><img src='img/responseButtonOffersNo0L.png' class='respPic'></div></div>","1","17","Primo Pineapple","Fruit/pineapple.png","Lost","0.65,0.35","12","0.65","287","51","",""
"html-keyboard-response","161","225725","0.0-11.0-2.50","5f5691fb24d1090e6bcdf1ec","bdp_rwlrn","Sun Mar 12 2023 15:50:47 GMT-0500 (Central Daylight Time)","443622","Trustworthy,Untrustworthy","","null","","","","decisionFB","","<div class='trialDiv'><img src='Fruit/pineapple.png'><br><font class='baseline'><strong>Primo Pineapple</strong><p>Choose number of points to bet.</font><div class='respPicDiv'><img src='img/responseButtonOffersNo0L1.png' class='respPic'></div></div>","null","17","Primo Pineapple","Fruit/pineapple.png","Lost","0.65,0.35","12","0.65","286","51","",""
