"event","trial","time","trialtype","subject_id","task","startTime","totalTime","labels","trial_type","trial_index","time_elapsed","internal_node_id","numBlurs","view_history","rt","success","stimulus","key_press","ltround","name","fileID","outcome","lottotype","lottoswpt","lottocurrpshare","point_total","round","faceID","face"
"focus","0","0","focusevent","63bd81516745e78ee7f50f7f","bdp_rwlrn","Mon Mar 13 2023 14:50:14 GMT-0400 (Eastern Daylight Time)","480843","Trustworthy,Untrustworthy","","","","","","","","","","","","","","","","","","","","",""
"focus","0","0","focusevent","63bd81516745e78ee7f50f7f","bdp_rwlrn","Mon Mar 13 2023 14:50:14 GMT-0400 (Eastern Daylight Time)","480843","Trustworthy,Untrustworthy","","","","","","","","","","","","","","","","","","","","",""
"","","","","63bd81516745e78ee7f50f7f","bdp_rwlrn","Mon Mar 13 2023 14:50:14 GMT-0400 (Eastern Daylight Time)","480843","Trustworthy,Untrustworthy","pavlovia","0","2","0.0-0.0","","","","","","","","","","","","","","","","",""
"blur","1","271","blurevent","63bd81516745e78ee7f50f7f","bdp_rwlrn","Mon Mar 13 2023 14:50:14 GMT-0400 (Eastern Daylight Time)","480843","Trustworthy,Untrustworthy","","","","","1","","","","","","","","","","","","","","","",""
"focus","1","11793","focusevent","63bd81516745e78ee7f50f7f","bdp_rwlrn","Mon Mar 13 2023 14:50:14 GMT-0400 (Eastern Daylight Time)","480843","Trustworthy,Untrustworthy","","","","","","","","","","","","","","","","","","","","",""
"","","","","63bd81516745e78ee7f50f7f","bdp_rwlrn","Mon Mar 13 2023 14:50:14 GMT-0400 (Eastern Daylight Time)","480843","Trustworthy,Untrustworthy","instructions","1","19228","0.0-1.0","","[{""page_index"":0,""viewing_time"":19225}]","19225","","","","","","","","","","","","","",""
"fullscreenenter","2","22126","fullscreenenter","63bd81516745e78ee7f50f7f","bdp_rwlrn","Mon Mar 13 2023 14:50:14 GMT-0400 (Eastern Daylight Time)","480843","Trustworthy,Untrustworthy","","","","","","","","","","","","","","","","","","","","",""
"","","","","63bd81516745e78ee7f50f7f","bdp_rwlrn","Mon Mar 13 2023 14:50:14 GMT-0400 (Eastern Daylight Time)","480843","Trustworthy,Untrustworthy","fullscreen","2","23133","0.0-2.0","","","","true","","","","","","","","","","","","",""
"","","","","63bd81516745e78ee7f50f7f","bdp_rwlrn","Mon Mar 13 2023 14:50:14 GMT-0400 (Eastern Daylight Time)","480843","Trustworthy,Untrustworthy","instructions","3","164294","0.0-4.0","","[{""page_index"":0,""viewing_time"":22017},{""page_index"":1,""viewing_time"":32768},{""page_index"":2,""viewing_time"":21260},{""page_index"":3,""viewing_time"":9072},{""page_index"":4,""viewing_time"":47941},{""page_index"":5,""viewing_time"":8102}]","141160","","","","","","","","","","","","","",""
"","","","","63bd81516745e78ee7f50f7f","bdp_rwlrn","Mon Mar 13 2023 14:50:14 GMT-0400 (Eastern Daylight Time)","480843","Trustworthy,Untrustworthy","html-keyboard-response","4","171790","0.0-5.0","","","7494","","<div class='header' style='text-align:left; position: absolute; top: 5%; left: 5%;'><small>Task 1 of 5</small></div><div class='instruxDiv'><p><strong>1) What is the maximum number of points you can choose to bet on a lottery?</strong></p><p>a) 0</p><p>b) 1</p><p>c) 5</p>","C","","","","","","","","","","",""
"","","","","63bd81516745e78ee7f50f7f","bdp_rwlrn","Mon Mar 13 2023 14:50:14 GMT-0400 (Eastern Daylight Time)","480843","Trustworthy,Untrustworthy","html-keyboard-response","5","173455","0.0-6.0","","","1553","","<div class='header' style='text-align:left; position: absolute; top: 5%; left: 5%;'><small>Task 1 of 5</small></div><div class='instruxDiv'><p><strong>1) What is the maximum number of points you can choose to bet on a lottery?</strong></p><p>a) 1</p><p>b) 1</p><p style='color:#00FF00'>c) 5</p><h3 style='color:#00FF00'>Correct!</h3><h3 class='center-content'>The correct response is c).</h3><h3 class='center-content'>The maximum number of points you can choose to bet on a lottery is 5 points.</h3><p><em>Press SPACEBAR to continue</em></p></div>"," ","","","","","","","","","","",""
"","","","","63bd81516745e78ee7f50f7f","bdp_rwlrn","Mon Mar 13 2023 14:50:14 GMT-0400 (Eastern Daylight Time)","480843","Trustworthy,Untrustworthy","html-keyboard-response","6","178206","0.0-7.0","","","4642","","<div class='header' style='text-align:left; position: absolute; top: 5%; left: 5%;'><small>Task 1 of 5</small></div><div class='instruxDiv'><p><strong>2) How many points can you win each round?</strong></p><p>a) 10 points</p><p>b) Double what you bet</p><p>c) Quadruple what you bet</p>","B","","","","","","","","","","",""
"","","","","63bd81516745e78ee7f50f7f","bdp_rwlrn","Mon Mar 13 2023 14:50:14 GMT-0400 (Eastern Daylight Time)","480843","Trustworthy,Untrustworthy","html-keyboard-response","7","179342","0.0-8.0","","","1026","","<div class='header' style='text-align:left; position: absolute; top: 5%; left: 5%;'><small>Task 1 of 5</small></div><div class='instruxDiv'><p><strong>2) How many points can you win each round?</strong></p><p>a) 10 points</p><p style='color:#00FF00'>b) Double what you bet</p><p>c) Quadruple what you bet</p><h3 style='color:#00FF00'>Correct!</h3><h3 class='center-content'>The correct response is b).</h3><h3 class='center-content'>You can win double the amount of points you bet.</h3><p><em>Press SPACEBAR to continue</em></p></div>"," ","","","","","","","","","","",""
"","","","","63bd81516745e78ee7f50f7f","bdp_rwlrn","Mon Mar 13 2023 14:50:14 GMT-0400 (Eastern Daylight Time)","480843","Trustworthy,Untrustworthy","html-keyboard-response","8","184460","0.0-9.0","","","null","","<div class='header' style='text-align:left; position: absolute; top: 5%; left: 5%;'><small>Task 1 of 5</small></div><div class='instruxDiv'><p>Thank you for completing the quiz<p>These are the actual lotteries you will be playing in the next block:<p><div class='tc' align='center'><img class='introPic' src='Fruit/Kiwi.png'><br><strong>Kiwi Kash</strong></div><div class='bl' align='center'><img class='introPic' src='Fruit/mixed-berries2.png'><br><strong>Berry Bla$t</strong></div><div class='br' align='center'><img class='introPic' src='Fruit/pears.png'><br><strong>Pears Aplenty</strong></div></div><p>Across <strong>66 rounds</strong> you will play each lottery <strong>22 times</strong> (in random order).<p style='align:center; color:white'><font <em>Press SPACEBAR to continue</em></p>","null","","","","","","","","","","",""
"","","","","63bd81516745e78ee7f50f7f","bdp_rwlrn","Mon Mar 13 2023 14:50:14 GMT-0400 (Eastern Daylight Time)","480843","Trustworthy,Untrustworthy","instructions","9","188373","0.0-10.0","","[{""page_index"":0,""viewing_time"":1892},{""page_index"":1,""viewing_time"":2019}]","3911","","","","","","","","","","","","","",""
"","","","decision","63bd81516745e78ee7f50f7f","bdp_rwlrn","Mon Mar 13 2023 14:50:14 GMT-0400 (Eastern Daylight Time)","480843","Trustworthy,Untrustworthy","html-keyboard-response","10","189569","0.0-11.0-1.0","","","1082","","<div class='trialDiv'><img src='Fruit/Kiwi.png'><br><font class='baseline'><strong>Kiwi Kash</strong><p>Choose number of points to bet.</font><div class='respPicDiv'><img src='img/responseButtonOffersNo0L.png' class='respPic'></div></div>","2","1","Kiwi Kash","Fruit/Kiwi.png","Lost","0.35,0.8","9","0.35","5","1","",""
"","","","decisionFB","63bd81516745e78ee7f50f7f","bdp_rwlrn","Mon Mar 13 2023 14:50:14 GMT-0400 (Eastern Daylight Time)","480843","Trustworthy,Untrustworthy","html-keyboard-response","11","189825","0.0-11.0-2.0","","","null","","<div class='trialDiv'><img src='Fruit/Kiwi.png'><br><font class='baseline'><strong>Kiwi Kash</strong><p>Choose number of points to bet.</font><div class='respPicDiv'><img src='img/responseButtonOffersNo0L2.png' class='respPic'></div></div>","null","1","Kiwi Kash","Fruit/Kiwi.png","Lost","0.35,0.8","9","0.35","3","1","",""
"","","","feedback","63bd81516745e78ee7f50f7f","bdp_rwlrn","Mon Mar 13 2023 14:50:14 GMT-0400 (Eastern Daylight Time)","480843","Trustworthy,Untrustworthy","html-keyboard-response","12","190831","0.0-11.0-3.0","","","null","","<div class='respPicDiv'><img src='img/responseButtonOffersNo0_wht.png' class='respPic'></div><div class='trialDiv'><img src='Fruit/Kiwi.png'><br><font class='baseline'><strong>Kiwi Kash</strong><p><strong><font class='negOutcome'>You LOST</font><p>You bet: 2</strong></font> &nbsp; &nbsp; &nbsp; &nbsp; &nbsp; &nbsp;<font class='negOutcome'>You receive: <strong>0</strong></font></div>","null","1","Kiwi Kash","Fruit/Kiwi.png","Lost","0.35,0.8","9","0.35","3","1","",""
"","","","decision","63bd81516745e78ee7f50f7f","bdp_rwlrn","Mon Mar 13 2023 14:50:14 GMT-0400 (Eastern Daylight Time)","480843","Trustworthy,Untrustworthy","html-keyboard-response","13","191526","0.0-11.0-1.1","","","694","","<div class='trialDiv'><img src='Fruit/mixed-berries2.png'><br><font class='baseline'><strong>Berry Bla$t</strong><p>Choose number of points to bet.</font><div class='respPicDiv'><img src='img/responseButtonOffersNo0L.png' class='respPic'></div></div>","1","1","Berry Bla$t","Fruit/mixed-berries2.png","Won","0.65,0.2","10","0.65","8","2","",""
"","","","decisionFB","63bd81516745e78ee7f50f7f","bdp_rwlrn","Mon Mar 13 2023 14:50:14 GMT-0400 (Eastern Daylight Time)","480843","Trustworthy,Untrustworthy","html-keyboard-response","14","191785","0.0-11.0-2.1","","","null","","<div class='trialDiv'><img src='Fruit/mixed-berries2.png'><br><font class='baseline'><strong>Berry Bla$t</strong><p>Choose number of points to bet.</font><div class='respPicDiv'><img src='img/responseButtonOffersNo0L1.png' class='respPic'></div></div>","null","1","Berry Bla$t","Fruit/mixed-berries2.png","Won","0.65,0.2","10","0.65","7","2","",""
"","","","feedback","63bd81516745e78ee7f50f7f","bdp_rwlrn","Mon Mar 13 2023 14:50:14 GMT-0400 (Eastern Daylight Time)","480843","Trustworthy,Untrustworthy","html-keyboard-response","15","192794","0.0-11.0-3.1","","","null","","<div class='respPicDiv'><img src='img/responseButtonOffersNo0_wht.png' class='respPic'></div><div class='trialDiv'><img src='Fruit/mixed-berries2.png'><br><font class='baseline'><strong>Berry Bla$t</strong><p><strong><font class='posOutcome'>You WON</font><p>You bet: 1</strong></font> &nbsp; &nbsp; &nbsp; &nbsp; &nbsp; &nbsp;<font class='posOutcome'>you receive: <strong>2</strong></font></div>","null","1","Berry Bla$t","Fruit/mixed-berries2.png","Won","0.65,0.2","10","0.65","9","2","",""
"","","","decision","63bd81516745e78ee7f50f7f","bdp_rwlrn","Mon Mar 13 2023 14:50:14 GMT-0400 (Eastern Daylight Time)","480843","Trustworthy,Untrustworthy","html-keyboard-response","16","194152","0.0-11.0-1.2","","","1357","","<div class='trialDiv'><img src='Fruit/pears.png'><br><font class='baseline'><strong>Pears Aplenty</strong><p>Choose number of points to bet.</font><div class='respPicDiv'><img src='img/responseButtonOffersNo0L.png' class='respPic'></div></div>","4","1","Pears Aplenty","Fruit/pears.png","Lost","0.2,0.8","14","0.2","14","3","",""
"","","","decisionFB","63bd81516745e78ee7f50f7f","bdp_rwlrn","Mon Mar 13 2023 14:50:14 GMT-0400 (Eastern Daylight Time)","480843","Trustworthy,Untrustworthy","html-keyboard-response","17","194407","0.0-11.0-2.2","","","null","","<div class='trialDiv'><img src='Fruit/pears.png'><br><font class='baseline'><strong>Pears Aplenty</strong><p>Choose number of points to bet.</font><div class='respPicDiv'><img src='img/responseButtonOffersNo0L4.png' class='respPic'></div></div>","null","1","Pears Aplenty","Fruit/pears.png","Lost","0.2,0.8","14","0.2","10","3","",""
"","","","feedback","63bd81516745e78ee7f50f7f","bdp_rwlrn","Mon Mar 13 2023 14:50:14 GMT-0400 (Eastern Daylight Time)","480843","Trustworthy,Untrustworthy","html-keyboard-response","18","195420","0.0-11.0-3.2","","","null","","<div class='respPicDiv'><img src='img/responseButtonOffersNo0_wht.png' class='respPic'></div><div class='trialDiv'><img src='Fruit/pears.png'><br><font class='baseline'><strong>Pears Aplenty</strong><p><strong><font class='negOutcome'>You LOST</font><p>You bet: 4</strong></font> &nbsp; &nbsp; &nbsp; &nbsp; &nbsp; &nbsp;<font class='negOutcome'>You receive: <strong>0</strong></font></div>","null","1","Pears Aplenty","Fruit/pears.png","Lost","0.2,0.8","14","0.2","10","3","",""
"","","","decision","63bd81516745e78ee7f50f7f","bdp_rwlrn","Mon Mar 13 2023 14:50:14 GMT-0400 (Eastern Daylight Time)","480843","Trustworthy,Untrustworthy","html-keyboard-response","19","196234","0.0-11.0-1.3","","","813","","<div class='trialDiv'><img src='Fruit/mixed-berries2.png'><br><font class='baseline'><strong>Berry Bla$t</strong><p>Choose number of points to bet.</font><div class='respPicDiv'><img src='img/responseButtonOffersNo0L.png' class='respPic'></div></div>","4","2","Berry Bla$t","Fruit/mixed-berries2.png","Won","0.65,0.2","10","0.65","15","4","",""
"","","","decisionFB","63bd81516745e78ee7f50f7f","bdp_rwlrn","Mon Mar 13 2023 14:50:14 GMT-0400 (Eastern Daylight Time)","480843","Trustworthy,Untrustworthy","html-keyboard-response","20","196490","0.0-11.0-2.3","","","null","","<div class='trialDiv'><img src='Fruit/mixed-berries2.png'><br><font class='baseline'><strong>Berry Bla$t</strong><p>Choose number of points to bet.</font><div class='respPicDiv'><img src='img/responseButtonOffersNo0L4.png' class='respPic'></div></div>","null","2","Berry Bla$t","Fruit/mixed-berries2.png","Won","0.65,0.2","10","0.65","11","4","",""
"","","","feedback","63bd81516745e78ee7f50f7f","bdp_rwlrn","Mon Mar 13 2023 14:50:14 GMT-0400 (Eastern Daylight Time)","480843","Trustworthy,Untrustworthy","html-keyboard-response","21","197498","0.0-11.0-3.3","","","null","","<div class='respPicDiv'><img src='img/responseButtonOffersNo0_wht.png' class='respPic'></div><div class='trialDiv'><img src='Fruit/mixed-berries2.png'><br><font class='baseline'><strong>Berry Bla$t</strong><p><strong><font class='posOutcome'>You WON</font><p>You bet: 4</strong></font> &nbsp; &nbsp; &nbsp; &nbsp; &nbsp; &nbsp;<font class='posOutcome'>you receive: <strong>8</strong></font></div>","null","2","Berry Bla$t","Fruit/mixed-berries2.png","Won","0.65,0.2","10","0.65","19","4","",""
"","","","decision","63bd81516745e78ee7f50f7f","bdp_rwlrn","Mon Mar 13 2023 14:50:14 GMT-0400 (Eastern Daylight Time)","480843","Trustworthy,Untrustworthy","html-keyboard-response","22","200354","0.0-11.0-1.4","","","2855","","<div class='trialDiv'><img src='Fruit/pears.png'><br><font class='baseline'><strong>Pears Aplenty</strong><p>Choose number of points to bet.</font><div class='respPicDiv'><img src='img/responseButtonOffersNo0L.png' class='respPic'></div></div>","5","2","Pears Aplenty","Fruit/pears.png","Lost","0.2,0.8","14","0.2","24","5","",""
"","","","decisionFB","63bd81516745e78ee7f50f7f","bdp_rwlrn","Mon Mar 13 2023 14:50:14 GMT-0400 (Eastern Daylight Time)","480843","Trustworthy,Untrustworthy","html-keyboard-response","23","200607","0.0-11.0-2.4","","","null","","<div class='trialDiv'><img src='Fruit/pears.png'><br><font class='baseline'><strong>Pears Aplenty</strong><p>Choose number of points to bet.</font><div class='respPicDiv'><img src='img/responseButtonOffersNo0L5.png' class='respPic'></div></div>","null","2","Pears Aplenty","Fruit/pears.png","Lost","0.2,0.8","14","0.2","19","5","",""
"","","","feedback","63bd81516745e78ee7f50f7f","bdp_rwlrn","Mon Mar 13 2023 14:50:14 GMT-0400 (Eastern Daylight Time)","480843","Trustworthy,Untrustworthy","html-keyboard-response","24","201616","0.0-11.0-3.4","","","null","","<div class='respPicDiv'><img src='img/responseButtonOffersNo0_wht.png' class='respPic'></div><div class='trialDiv'><img src='Fruit/pears.png'><br><font class='baseline'><strong>Pears Aplenty</strong><p><strong><font class='negOutcome'>You LOST</font><p>You bet: 5</strong></font> &nbsp; &nbsp; &nbsp; &nbsp; &nbsp; &nbsp;<font class='negOutcome'>You receive: <strong>0</strong></font></div>","null","2","Pears Aplenty","Fruit/pears.png","Lost","0.2,0.8","14","0.2","19","5","",""
"","","","decision","63bd81516745e78ee7f50f7f","bdp_rwlrn","Mon Mar 13 2023 14:50:14 GMT-0400 (Eastern Daylight Time)","480843","Trustworthy,Untrustworthy","html-keyboard-response","25","202217","0.0-11.0-1.5","","","600","","<div class='trialDiv'><img src='Fruit/Kiwi.png'><br><font class='baseline'><strong>Kiwi Kash</strong><p>Choose number of points to bet.</font><div class='respPicDiv'><img src='img/responseButtonOffersNo0L.png' class='respPic'></div></div>","2","2","Kiwi Kash","Fruit/Kiwi.png","Lost","0.35,0.8","9","0.35","24","6","",""
"","","","decisionFB","63bd81516745e78ee7f50f7f","bdp_rwlrn","Mon Mar 13 2023 14:50:14 GMT-0400 (Eastern Daylight Time)","480843","Trustworthy,Untrustworthy","html-keyboard-response","26","202471","0.0-11.0-2.5","","","null","","<div class='trialDiv'><img src='Fruit/Kiwi.png'><br><font class='baseline'><strong>Kiwi Kash</strong><p>Choose number of points to bet.</font><div class='respPicDiv'><img src='img/responseButtonOffersNo0L2.png' class='respPic'></div></div>","null","2","Kiwi Kash","Fruit/Kiwi.png","Lost","0.35,0.8","9","0.35","22","6","",""
"","","","feedback","63bd81516745e78ee7f50f7f","bdp_rwlrn","Mon Mar 13 2023 14:50:14 GMT-0400 (Eastern Daylight Time)","480843","Trustworthy,Untrustworthy","html-keyboard-response","27","203480","0.0-11.0-3.5","","","null","","<div class='respPicDiv'><img src='img/responseButtonOffersNo0_wht.png' class='respPic'></div><div class='trialDiv'><img src='Fruit/Kiwi.png'><br><font class='baseline'><strong>Kiwi Kash</strong><p><strong><font class='negOutcome'>You LOST</font><p>You bet: 2</strong></font> &nbsp; &nbsp; &nbsp; &nbsp; &nbsp; &nbsp;<font class='negOutcome'>You receive: <strong>0</strong></font></div>","null","2","Kiwi Kash","Fruit/Kiwi.png","Lost","0.35,0.8","9","0.35","22","6","",""
"","","","decision","63bd81516745e78ee7f50f7f","bdp_rwlrn","Mon Mar 13 2023 14:50:14 GMT-0400 (Eastern Daylight Time)","480843","Trustworthy,Untrustworthy","html-keyboard-response","28","203938","0.0-11.0-1.6","","","457","","<div class='trialDiv'><img src='Fruit/mixed-berries2.png'><br><font class='baseline'><strong>Berry Bla$t</strong><p>Choose number of points to bet.</font><div class='respPicDiv'><img src='img/responseButtonOffersNo0L.png' class='respPic'></div></div>","3","3","Berry Bla$t","Fruit/mixed-berries2.png","Won","0.65,0.2","10","0.65","27","7","",""
"","","","decisionFB","63bd81516745e78ee7f50f7f","bdp_rwlrn","Mon Mar 13 2023 14:50:14 GMT-0400 (Eastern Daylight Time)","480843","Trustworthy,Untrustworthy","html-keyboard-response","29","204196","0.0-11.0-2.6","","","null","","<div class='trialDiv'><img src='Fruit/mixed-berries2.png'><br><font class='baseline'><strong>Berry Bla$t</strong><p>Choose number of points to bet.</font><div class='respPicDiv'><img src='img/responseButtonOffersNo0L3.png' class='respPic'></div></div>","null","3","Berry Bla$t","Fruit/mixed-berries2.png","Won","0.65,0.2","10","0.65","24","7","",""
"","","","feedback","63bd81516745e78ee7f50f7f","bdp_rwlrn","Mon Mar 13 2023 14:50:14 GMT-0400 (Eastern Daylight Time)","480843","Trustworthy,Untrustworthy","html-keyboard-response","30","205204","0.0-11.0-3.6","","","null","","<div class='respPicDiv'><img src='img/responseButtonOffersNo0_wht.png' class='respPic'></div><div class='trialDiv'><img src='Fruit/mixed-berries2.png'><br><font class='baseline'><strong>Berry Bla$t</strong><p><strong><font class='posOutcome'>You WON</font><p>You bet: 3</strong></font> &nbsp; &nbsp; &nbsp; &nbsp; &nbsp; &nbsp;<font class='posOutcome'>you receive: <strong>6</strong></font></div>","null","3","Berry Bla$t","Fruit/mixed-berries2.png","Won","0.65,0.2","10","0.65","30","7","",""
"","","","decision","63bd81516745e78ee7f50f7f","bdp_rwlrn","Mon Mar 13 2023 14:50:14 GMT-0400 (Eastern Daylight Time)","480843","Trustworthy,Untrustworthy","html-keyboard-response","31","205725","0.0-11.0-1.7","","","520","","<div class='trialDiv'><img src='Fruit/Kiwi.png'><br><font class='baseline'><strong>Kiwi Kash</strong><p>Choose number of points to bet.</font><div class='respPicDiv'><img src='img/responseButtonOffersNo0L.png' class='respPic'></div></div>","3","3","Kiwi Kash","Fruit/Kiwi.png","Lost","0.35,0.8","9","0.35","35","8","",""
"","","","decisionFB","63bd81516745e78ee7f50f7f","bdp_rwlrn","Mon Mar 13 2023 14:50:14 GMT-0400 (Eastern Daylight Time)","480843","Trustworthy,Untrustworthy","html-keyboard-response","32","205985","0.0-11.0-2.7","","","null","","<div class='trialDiv'><img src='Fruit/Kiwi.png'><br><font class='baseline'><strong>Kiwi Kash</strong><p>Choose number of points to bet.</font><div class='respPicDiv'><img src='img/responseButtonOffersNo0L3.png' class='respPic'></div></div>","null","3","Kiwi Kash","Fruit/Kiwi.png","Lost","0.35,0.8","9","0.35","32","8","",""
"","","","feedback","63bd81516745e78ee7f50f7f","bdp_rwlrn","Mon Mar 13 2023 14:50:14 GMT-0400 (Eastern Daylight Time)","480843","Trustworthy,Untrustworthy","html-keyboard-response","33","206995","0.0-11.0-3.7","","","null","","<div class='respPicDiv'><img src='img/responseButtonOffersNo0_wht.png' class='respPic'></div><div class='trialDiv'><img src='Fruit/Kiwi.png'><br><font class='baseline'><strong>Kiwi Kash</strong><p><strong><font class='negOutcome'>You LOST</font><p>You bet: 3</strong></font> &nbsp; &nbsp; &nbsp; &nbsp; &nbsp; &nbsp;<font class='negOutcome'>You receive: <strong>0</strong></font></div>","null","3","Kiwi Kash","Fruit/Kiwi.png","Lost","0.35,0.8","9","0.35","32","8","",""
"","","","decision","63bd81516745e78ee7f50f7f","bdp_rwlrn","Mon Mar 13 2023 14:50:14 GMT-0400 (Eastern Daylight Time)","480843","Trustworthy,Untrustworthy","html-keyboard-response","34","208642","0.0-11.0-1.8","","","1646","","<div class='trialDiv'><img src='Fruit/pears.png'><br><font class='baseline'><strong>Pears Aplenty</strong><p>Choose number of points to bet.</font><div class='respPicDiv'><img src='img/responseButtonOffersNo0L.png' class='respPic'></div></div>","2","3","Pears Aplenty","Fruit/pears.png","Lost","0.2,0.8","14","0.2","37","9","",""
"","","","decisionFB","63bd81516745e78ee7f50f7f","bdp_rwlrn","Mon Mar 13 2023 14:50:14 GMT-0400 (Eastern Daylight Time)","480843","Trustworthy,Untrustworthy","html-keyboard-response","35","208900","0.0-11.0-2.8","","","null","","<div class='trialDiv'><img src='Fruit/pears.png'><br><font class='baseline'><strong>Pears Aplenty</strong><p>Choose number of points to bet.</font><div class='respPicDiv'><img src='img/responseButtonOffersNo0L2.png' class='respPic'></div></div>","null","3","Pears Aplenty","Fruit/pears.png","Lost","0.2,0.8","14","0.2","35","9","",""
"","","","feedback","63bd81516745e78ee7f50f7f","bdp_rwlrn","Mon Mar 13 2023 14:50:14 GMT-0400 (Eastern Daylight Time)","480843","Trustworthy,Untrustworthy","html-keyboard-response","36","209908","0.0-11.0-3.8","","","null","","<div class='respPicDiv'><img src='img/responseButtonOffersNo0_wht.png' class='respPic'></div><div class='trialDiv'><img src='Fruit/pears.png'><br><font class='baseline'><strong>Pears Aplenty</strong><p><strong><font class='negOutcome'>You LOST</font><p>You bet: 2</strong></font> &nbsp; &nbsp; &nbsp; &nbsp; &nbsp; &nbsp;<font class='negOutcome'>You receive: <strong>0</strong></font></div>","null","3","Pears Aplenty","Fruit/pears.png","Lost","0.2,0.8","14","0.2","35","9","",""
"","","","decision","63bd81516745e78ee7f50f7f","bdp_rwlrn","Mon Mar 13 2023 14:50:14 GMT-0400 (Eastern Daylight Time)","480843","Trustworthy,Untrustworthy","html-keyboard-response","37","212261","0.0-11.0-1.9","","","2351","","<div class='trialDiv'><img src='Fruit/Kiwi.png'><br><font class='baseline'><strong>Kiwi Kash</strong><p>Choose number of points to bet.</font><div class='respPicDiv'><img src='img/responseButtonOffersNo0L.png' class='respPic'></div></div>","5","4","Kiwi Kash","Fruit/Kiwi.png","Won","0.35,0.8","9","0.35","40","10","",""
"","","","decisionFB","63bd81516745e78ee7f50f7f","bdp_rwlrn","Mon Mar 13 2023 14:50:14 GMT-0400 (Eastern Daylight Time)","480843","Trustworthy,Untrustworthy","html-keyboard-response","38","212520","0.0-11.0-2.9","","","null","","<div class='trialDiv'><img src='Fruit/Kiwi.png'><br><font class='baseline'><strong>Kiwi Kash</strong><p>Choose number of points to bet.</font><div class='respPicDiv'><img src='img/responseButtonOffersNo0L5.png' class='respPic'></div></div>","null","4","Kiwi Kash","Fruit/Kiwi.png","Won","0.35,0.8","9","0.35","35","10","",""
"","","","feedback","63bd81516745e78ee7f50f7f","bdp_rwlrn","Mon Mar 13 2023 14:50:14 GMT-0400 (Eastern Daylight Time)","480843","Trustworthy,Untrustworthy","html-keyboard-response","39","213529","0.0-11.0-3.9","","","null","","<div class='respPicDiv'><img src='img/responseButtonOffersNo0_wht.png' class='respPic'></div><div class='trialDiv'><img src='Fruit/Kiwi.png'><br><font class='baseline'><strong>Kiwi Kash</strong><p><strong><font class='posOutcome'>You WON</font><p>You bet: 5</strong></font> &nbsp; &nbsp; &nbsp; &nbsp; &nbsp; &nbsp;<font class='posOutcome'>you receive: <strong>10</strong></font></div>","null","4","Kiwi Kash","Fruit/Kiwi.png","Won","0.35,0.8","9","0.35","45","10","",""
"","","","decision","63bd81516745e78ee7f50f7f","bdp_rwlrn","Mon Mar 13 2023 14:50:14 GMT-0400 (Eastern Daylight Time)","480843","Trustworthy,Untrustworthy","html-keyboard-response","40","215200","0.0-11.0-1.10","","","1670","","<div class='trialDiv'><img src='Fruit/mixed-berries2.png'><br><font class='baseline'><strong>Berry Bla$t</strong><p>Choose number of points to bet.</font><div class='respPicDiv'><img src='img/responseButtonOffersNo0L.png' class='respPic'></div></div>","1","4","Berry Bla$t","Fruit/mixed-berries2.png","Lost","0.65,0.2","10","0.65","50","11","",""
"","","","decisionFB","63bd81516745e78ee7f50f7f","bdp_rwlrn","Mon Mar 13 2023 14:50:14 GMT-0400 (Eastern Daylight Time)","480843","Trustworthy,Untrustworthy","html-keyboard-response","41","215460","0.0-11.0-2.10","","","null","","<div class='trialDiv'><img src='Fruit/mixed-berries2.png'><br><font class='baseline'><strong>Berry Bla$t</strong><p>Choose number of points to bet.</font><div class='respPicDiv'><img src='img/responseButtonOffersNo0L1.png' class='respPic'></div></div>","null","4","Berry Bla$t","Fruit/mixed-berries2.png","Lost","0.65,0.2","10","0.65","49","11","",""
"","","","feedback","63bd81516745e78ee7f50f7f","bdp_rwlrn","Mon Mar 13 2023 14:50:14 GMT-0400 (Eastern Daylight Time)","480843","Trustworthy,Untrustworthy","html-keyboard-response","42","216468","0.0-11.0-3.10","","","null","","<div class='respPicDiv'><img src='img/responseButtonOffersNo0_wht.png' class='respPic'></div><div class='trialDiv'><img src='Fruit/mixed-berries2.png'><br><font class='baseline'><strong>Berry Bla$t</strong><p><strong><font class='negOutcome'>You LOST</font><p>You bet: 1</strong></font> &nbsp; &nbsp; &nbsp; &nbsp; &nbsp; &nbsp;<font class='negOutcome'>You receive: <strong>0</strong></font></div>","null","4","Berry Bla$t","Fruit/mixed-berries2.png","Lost","0.65,0.2","10","0.65","49","11","",""
"","","","decision","63bd81516745e78ee7f50f7f","bdp_rwlrn","Mon Mar 13 2023 14:50:14 GMT-0400 (Eastern Daylight Time)","480843","Trustworthy,Untrustworthy","html-keyboard-response","43","217739","0.0-11.0-1.11","","","1270","","<div class='trialDiv'><img src='Fruit/pears.png'><br><font class='baseline'><strong>Pears Aplenty</strong><p>Choose number of points to bet.</font><div class='respPicDiv'><img src='img/responseButtonOffersNo0L.png' class='respPic'></div></div>","3","4","Pears Aplenty","Fruit/pears.png","Lost","0.2,0.8","14","0.2","54","12","",""
"","","","decisionFB","63bd81516745e78ee7f50f7f","bdp_rwlrn","Mon Mar 13 2023 14:50:14 GMT-0400 (Eastern Daylight Time)","480843","Trustworthy,Untrustworthy","html-keyboard-response","44","217991","0.0-11.0-2.11","","","null","","<div class='trialDiv'><img src='Fruit/pears.png'><br><font class='baseline'><strong>Pears Aplenty</strong><p>Choose number of points to bet.</font><div class='respPicDiv'><img src='img/responseButtonOffersNo0L3.png' class='respPic'></div></div>","null","4","Pears Aplenty","Fruit/pears.png","Lost","0.2,0.8","14","0.2","51","12","",""
"","","","feedback","63bd81516745e78ee7f50f7f","bdp_rwlrn","Mon Mar 13 2023 14:50:14 GMT-0400 (Eastern Daylight Time)","480843","Trustworthy,Untrustworthy","html-keyboard-response","45","219000","0.0-11.0-3.11","","","null","","<div class='respPicDiv'><img src='img/responseButtonOffersNo0_wht.png' class='respPic'></div><div class='trialDiv'><img src='Fruit/pears.png'><br><font class='baseline'><strong>Pears Aplenty</strong><p><strong><font class='negOutcome'>You LOST</font><p>You bet: 3</strong></font> &nbsp; &nbsp; &nbsp; &nbsp; &nbsp; &nbsp;<font class='negOutcome'>You receive: <strong>0</strong></font></div>","null","4","Pears Aplenty","Fruit/pears.png","Lost","0.2,0.8","14","0.2","51","12","",""
"","","","decision","63bd81516745e78ee7f50f7f","bdp_rwlrn","Mon Mar 13 2023 14:50:14 GMT-0400 (Eastern Daylight Time)","480843","Trustworthy,Untrustworthy","html-keyboard-response","46","220434","0.0-11.0-1.12","","","1433","","<div class='trialDiv'><img src='Fruit/Kiwi.png'><br><font class='baseline'><strong>Kiwi Kash</strong><p>Choose number of points to bet.</font><div class='respPicDiv'><img src='img/responseButtonOffersNo0L.png' class='respPic'></div></div>","2","5","Kiwi Kash","Fruit/Kiwi.png","Lost","0.35,0.8","9","0.35","56","13","",""
"","","","decisionFB","63bd81516745e78ee7f50f7f","bdp_rwlrn","Mon Mar 13 2023 14:50:14 GMT-0400 (Eastern Daylight Time)","480843","Trustworthy,Untrustworthy","html-keyboard-response","47","220692","0.0-11.0-2.12","","","null","","<div class='trialDiv'><img src='Fruit/Kiwi.png'><br><font class='baseline'><strong>Kiwi Kash</strong><p>Choose number of points to bet.</font><div class='respPicDiv'><img src='img/responseButtonOffersNo0L2.png' class='respPic'></div></div>","null","5","Kiwi Kash","Fruit/Kiwi.png","Lost","0.35,0.8","9","0.35","54","13","",""
"","","","feedback","63bd81516745e78ee7f50f7f","bdp_rwlrn","Mon Mar 13 2023 14:50:14 GMT-0400 (Eastern Daylight Time)","480843","Trustworthy,Untrustworthy","html-keyboard-response","48","221695","0.0-11.0-3.12","","","null","","<div class='respPicDiv'><img src='img/responseButtonOffersNo0_wht.png' class='respPic'></div><div class='trialDiv'><img src='Fruit/Kiwi.png'><br><font class='baseline'><strong>Kiwi Kash</strong><p><strong><font class='negOutcome'>You LOST</font><p>You bet: 2</strong></font> &nbsp; &nbsp; &nbsp; &nbsp; &nbsp; &nbsp;<font class='negOutcome'>You receive: <strong>0</strong></font></div>","null","5","Kiwi Kash","Fruit/Kiwi.png","Lost","0.35,0.8","9","0.35","54","13","",""
"","","","decision","63bd81516745e78ee7f50f7f","bdp_rwlrn","Mon Mar 13 2023 14:50:14 GMT-0400 (Eastern Daylight Time)","480843","Trustworthy,Untrustworthy","html-keyboard-response","49","222731","0.0-11.0-1.13","","","1035","","<div class='trialDiv'><img src='Fruit/pears.png'><br><font class='baseline'><strong>Pears Aplenty</strong><p>Choose number of points to bet.</font><div class='respPicDiv'><img src='img/responseButtonOffersNo0L.png' class='respPic'></div></div>","3","5","Pears Aplenty","Fruit/pears.png","Lost","0.2,0.8","14","0.2","59","14","",""
"","","","decisionFB","63bd81516745e78ee7f50f7f","bdp_rwlrn","Mon Mar 13 2023 14:50:14 GMT-0400 (Eastern Daylight Time)","480843","Trustworthy,Untrustworthy","html-keyboard-response","50","222986","0.0-11.0-2.13","","","null","","<div class='trialDiv'><img src='Fruit/pears.png'><br><font class='baseline'><strong>Pears Aplenty</strong><p>Choose number of points to bet.</font><div class='respPicDiv'><img src='img/responseButtonOffersNo0L3.png' class='respPic'></div></div>","null","5","Pears Aplenty","Fruit/pears.png","Lost","0.2,0.8","14","0.2","56","14","",""
"","","","feedback","63bd81516745e78ee7f50f7f","bdp_rwlrn","Mon Mar 13 2023 14:50:14 GMT-0400 (Eastern Daylight Time)","480843","Trustworthy,Untrustworthy","html-keyboard-response","51","223994","0.0-11.0-3.13","","","null","","<div class='respPicDiv'><img src='img/responseButtonOffersNo0_wht.png' class='respPic'></div><div class='trialDiv'><img src='Fruit/pears.png'><br><font class='baseline'><strong>Pears Aplenty</strong><p><strong><font class='negOutcome'>You LOST</font><p>You bet: 3</strong></font> &nbsp; &nbsp; &nbsp; &nbsp; &nbsp; &nbsp;<font class='negOutcome'>You receive: <strong>0</strong></font></div>","null","5","Pears Aplenty","Fruit/pears.png","Lost","0.2,0.8","14","0.2","56","14","",""
"","","","decision","63bd81516745e78ee7f50f7f","bdp_rwlrn","Mon Mar 13 2023 14:50:14 GMT-0400 (Eastern Daylight Time)","480843","Trustworthy,Untrustworthy","html-keyboard-response","52","225821","0.0-11.0-1.14","","","1826","","<div class='trialDiv'><img src='Fruit/mixed-berries2.png'><br><font class='baseline'><strong>Berry Bla$t</strong><p>Choose number of points to bet.</font><div class='respPicDiv'><img src='img/responseButtonOffersNo0L.png' class='respPic'></div></div>","2","5","Berry Bla$t","Fruit/mixed-berries2.png","Won","0.65,0.2","10","0.65","61","15","",""
"","","","decisionFB","63bd81516745e78ee7f50f7f","bdp_rwlrn","Mon Mar 13 2023 14:50:14 GMT-0400 (Eastern Daylight Time)","480843","Trustworthy,Untrustworthy","html-keyboard-response","53","226084","0.0-11.0-2.14","","","null","","<div class='trialDiv'><img src='Fruit/mixed-berries2.png'><br><font class='baseline'><strong>Berry Bla$t</strong><p>Choose number of points to bet.</font><div class='respPicDiv'><img src='img/responseButtonOffersNo0L2.png' class='respPic'></div></div>","null","5","Berry Bla$t","Fruit/mixed-berries2.png","Won","0.65,0.2","10","0.65","59","15","",""
"","","","feedback","63bd81516745e78ee7f50f7f","bdp_rwlrn","Mon Mar 13 2023 14:50:14 GMT-0400 (Eastern Daylight Time)","480843","Trustworthy,Untrustworthy","html-keyboard-response","54","227088","0.0-11.0-3.14","","","null","","<div class='respPicDiv'><img src='img/responseButtonOffersNo0_wht.png' class='respPic'></div><div class='trialDiv'><img src='Fruit/mixed-berries2.png'><br><font class='baseline'><strong>Berry Bla$t</strong><p><strong><font class='posOutcome'>You WON</font><p>You bet: 2</strong></font> &nbsp; &nbsp; &nbsp; &nbsp; &nbsp; &nbsp;<font class='posOutcome'>you receive: <strong>4</strong></font></div>","null","5","Berry Bla$t","Fruit/mixed-berries2.png","Won","0.65,0.2","10","0.65","63","15","",""
"","","","decision","63bd81516745e78ee7f50f7f","bdp_rwlrn","Mon Mar 13 2023 14:50:14 GMT-0400 (Eastern Daylight Time)","480843","Trustworthy,Untrustworthy","html-keyboard-response","55","228347","0.0-11.0-1.15","","","1258","","<div class='trialDiv'><img src='Fruit/Kiwi.png'><br><font class='baseline'><strong>Kiwi Kash</strong><p>Choose number of points to bet.</font><div class='respPicDiv'><img src='img/responseButtonOffersNo0L.png' class='respPic'></div></div>","2","6","Kiwi Kash","Fruit/Kiwi.png","Won","0.35,0.8","9","0.35","68","16","",""
"","","","decisionFB","63bd81516745e78ee7f50f7f","bdp_rwlrn","Mon Mar 13 2023 14:50:14 GMT-0400 (Eastern Daylight Time)","480843","Trustworthy,Untrustworthy","html-keyboard-response","56","228604","0.0-11.0-2.15","","","null","","<div class='trialDiv'><img src='Fruit/Kiwi.png'><br><font class='baseline'><strong>Kiwi Kash</strong><p>Choose number of points to bet.</font><div class='respPicDiv'><img src='img/responseButtonOffersNo0L2.png' class='respPic'></div></div>","null","6","Kiwi Kash","Fruit/Kiwi.png","Won","0.35,0.8","9","0.35","66","16","",""
"","","","feedback","63bd81516745e78ee7f50f7f","bdp_rwlrn","Mon Mar 13 2023 14:50:14 GMT-0400 (Eastern Daylight Time)","480843","Trustworthy,Untrustworthy","html-keyboard-response","57","229612","0.0-11.0-3.15","","","null","","<div class='respPicDiv'><img src='img/responseButtonOffersNo0_wht.png' class='respPic'></div><div class='trialDiv'><img src='Fruit/Kiwi.png'><br><font class='baseline'><strong>Kiwi Kash</strong><p><strong><font class='posOutcome'>You WON</font><p>You bet: 2</strong></font> &nbsp; &nbsp; &nbsp; &nbsp; &nbsp; &nbsp;<font class='posOutcome'>you receive: <strong>4</strong></font></div>","null","6","Kiwi Kash","Fruit/Kiwi.png","Won","0.35,0.8","9","0.35","70","16","",""
"","","","decision","63bd81516745e78ee7f50f7f","bdp_rwlrn","Mon Mar 13 2023 14:50:14 GMT-0400 (Eastern Daylight Time)","480843","Trustworthy,Untrustworthy","html-keyboard-response","58","230147","0.0-11.0-1.16","","","534","","<div class='trialDiv'><img src='Fruit/mixed-berries2.png'><br><font class='baseline'><strong>Berry Bla$t</strong><p>Choose number of points to bet.</font><div class='respPicDiv'><img src='img/responseButtonOffersNo0L.png' class='respPic'></div></div>","3","6","Berry Bla$t","Fruit/mixed-berries2.png","Lost","0.65,0.2","10","0.65","75","17","",""
"","","","decisionFB","63bd81516745e78ee7f50f7f","bdp_rwlrn","Mon Mar 13 2023 14:50:14 GMT-0400 (Eastern Daylight Time)","480843","Trustworthy,Untrustworthy","html-keyboard-response","59","230399","0.0-11.0-2.16","","","null","","<div class='trialDiv'><img src='Fruit/mixed-berries2.png'><br><font class='baseline'><strong>Berry Bla$t</strong><p>Choose number of points to bet.</font><div class='respPicDiv'><img src='img/responseButtonOffersNo0L3.png' class='respPic'></div></div>","null","6","Berry Bla$t","Fruit/mixed-berries2.png","Lost","0.65,0.2","10","0.65","72","17","",""
"","","","feedback","63bd81516745e78ee7f50f7f","bdp_rwlrn","Mon Mar 13 2023 14:50:14 GMT-0400 (Eastern Daylight Time)","480843","Trustworthy,Untrustworthy","html-keyboard-response","60","231407","0.0-11.0-3.16","","","null","","<div class='respPicDiv'><img src='img/responseButtonOffersNo0_wht.png' class='respPic'></div><div class='trialDiv'><img src='Fruit/mixed-berries2.png'><br><font class='baseline'><strong>Berry Bla$t</strong><p><strong><font class='negOutcome'>You LOST</font><p>You bet: 3</strong></font> &nbsp; &nbsp; &nbsp; &nbsp; &nbsp; &nbsp;<font class='negOutcome'>You receive: <strong>0</strong></font></div>","null","6","Berry Bla$t","Fruit/mixed-berries2.png","Lost","0.65,0.2","10","0.65","72","17","",""
"","","","decision","63bd81516745e78ee7f50f7f","bdp_rwlrn","Mon Mar 13 2023 14:50:14 GMT-0400 (Eastern Daylight Time)","480843","Trustworthy,Untrustworthy","html-keyboard-response","61","232213","0.0-11.0-1.17","","","805","","<div class='trialDiv'><img src='Fruit/pears.png'><br><font class='baseline'><strong>Pears Aplenty</strong><p>Choose number of points to bet.</font><div class='respPicDiv'><img src='img/responseButtonOffersNo0L.png' class='respPic'></div></div>","4","6","Pears Aplenty","Fruit/pears.png","Lost","0.2,0.8","14","0.2","77","18","",""
"","","","decisionFB","63bd81516745e78ee7f50f7f","bdp_rwlrn","Mon Mar 13 2023 14:50:14 GMT-0400 (Eastern Daylight Time)","480843","Trustworthy,Untrustworthy","html-keyboard-response","62","232475","0.0-11.0-2.17","","","null","","<div class='trialDiv'><img src='Fruit/pears.png'><br><font class='baseline'><strong>Pears Aplenty</strong><p>Choose number of points to bet.</font><div class='respPicDiv'><img src='img/responseButtonOffersNo0L4.png' class='respPic'></div></div>","null","6","Pears Aplenty","Fruit/pears.png","Lost","0.2,0.8","14","0.2","73","18","",""
"","","","feedback","63bd81516745e78ee7f50f7f","bdp_rwlrn","Mon Mar 13 2023 14:50:14 GMT-0400 (Eastern Daylight Time)","480843","Trustworthy,Untrustworthy","html-keyboard-response","63","233482","0.0-11.0-3.17","","","null","","<div class='respPicDiv'><img src='img/responseButtonOffersNo0_wht.png' class='respPic'></div><div class='trialDiv'><img src='Fruit/pears.png'><br><font class='baseline'><strong>Pears Aplenty</strong><p><strong><font class='negOutcome'>You LOST</font><p>You bet: 4</strong></font> &nbsp; &nbsp; &nbsp; &nbsp; &nbsp; &nbsp;<font class='negOutcome'>You receive: <strong>0</strong></font></div>","null","6","Pears Aplenty","Fruit/pears.png","Lost","0.2,0.8","14","0.2","73","18","",""
"","","","decision","63bd81516745e78ee7f50f7f","bdp_rwlrn","Mon Mar 13 2023 14:50:14 GMT-0400 (Eastern Daylight Time)","480843","Trustworthy,Untrustworthy","html-keyboard-response","64","233839","0.0-11.0-1.18","","","356","","<div class='trialDiv'><img src='Fruit/Kiwi.png'><br><font class='baseline'><strong>Kiwi Kash</strong><p>Choose number of points to bet.</font><div class='respPicDiv'><img src='img/responseButtonOffersNo0L.png' class='respPic'></div></div>","5","7","Kiwi Kash","Fruit/Kiwi.png","Lost","0.35,0.8","9","0.35","78","19","",""
"","","","decisionFB","63bd81516745e78ee7f50f7f","bdp_rwlrn","Mon Mar 13 2023 14:50:14 GMT-0400 (Eastern Daylight Time)","480843","Trustworthy,Untrustworthy","html-keyboard-response","65","234099","0.0-11.0-2.18","","","null","","<div class='trialDiv'><img src='Fruit/Kiwi.png'><br><font class='baseline'><strong>Kiwi Kash</strong><p>Choose number of points to bet.</font><div class='respPicDiv'><img src='img/responseButtonOffersNo0L5.png' class='respPic'></div></div>","null","7","Kiwi Kash","Fruit/Kiwi.png","Lost","0.35,0.8","9","0.35","73","19","",""
"","","","feedback","63bd81516745e78ee7f50f7f","bdp_rwlrn","Mon Mar 13 2023 14:50:14 GMT-0400 (Eastern Daylight Time)","480843","Trustworthy,Untrustworthy","html-keyboard-response","66","235104","0.0-11.0-3.18","","","null","","<div class='respPicDiv'><img src='img/responseButtonOffersNo0_wht.png' class='respPic'></div><div class='trialDiv'><img src='Fruit/Kiwi.png'><br><font class='baseline'><strong>Kiwi Kash</strong><p><strong><font class='negOutcome'>You LOST</font><p>You bet: 5</strong></font> &nbsp; &nbsp; &nbsp; &nbsp; &nbsp; &nbsp;<font class='negOutcome'>You receive: <strong>0</strong></font></div>","null","7","Kiwi Kash","Fruit/Kiwi.png","Lost","0.35,0.8","9","0.35","73","19","",""
"","","","decision","63bd81516745e78ee7f50f7f","bdp_rwlrn","Mon Mar 13 2023 14:50:14 GMT-0400 (Eastern Daylight Time)","480843","Trustworthy,Untrustworthy","html-keyboard-response","67","235437","0.0-11.0-1.19","","","332","","<div class='trialDiv'><img src='Fruit/mixed-berries2.png'><br><font class='baseline'><strong>Berry Bla$t</strong><p>Choose number of points to bet.</font><div class='respPicDiv'><img src='img/responseButtonOffersNo0L.png' class='respPic'></div></div>","2","7","Berry Bla$t","Fruit/mixed-berries2.png","Won","0.65,0.2","10","0.65","78","20","",""
"","","","decisionFB","63bd81516745e78ee7f50f7f","bdp_rwlrn","Mon Mar 13 2023 14:50:14 GMT-0400 (Eastern Daylight Time)","480843","Trustworthy,Untrustworthy","html-keyboard-response","68","235696","0.0-11.0-2.19","","","null","","<div class='trialDiv'><img src='Fruit/mixed-berries2.png'><br><font class='baseline'><strong>Berry Bla$t</strong><p>Choose number of points to bet.</font><div class='respPicDiv'><img src='img/responseButtonOffersNo0L2.png' class='respPic'></div></div>","null","7","Berry Bla$t","Fruit/mixed-berries2.png","Won","0.65,0.2","10","0.65","76","20","",""
"","","","feedback","63bd81516745e78ee7f50f7f","bdp_rwlrn","Mon Mar 13 2023 14:50:14 GMT-0400 (Eastern Daylight Time)","480843","Trustworthy,Untrustworthy","html-keyboard-response","69","236705","0.0-11.0-3.19","","","null","","<div class='respPicDiv'><img src='img/responseButtonOffersNo0_wht.png' class='respPic'></div><div class='trialDiv'><img src='Fruit/mixed-berries2.png'><br><font class='baseline'><strong>Berry Bla$t</strong><p><strong><font class='posOutcome'>You WON</font><p>You bet: 2</strong></font> &nbsp; &nbsp; &nbsp; &nbsp; &nbsp; &nbsp;<font class='posOutcome'>you receive: <strong>4</strong></font></div>","null","7","Berry Bla$t","Fruit/mixed-berries2.png","Won","0.65,0.2","10","0.65","80","20","",""
"","","","decision","63bd81516745e78ee7f50f7f","bdp_rwlrn","Mon Mar 13 2023 14:50:14 GMT-0400 (Eastern Daylight Time)","480843","Trustworthy,Untrustworthy","html-keyboard-response","70","237399","0.0-11.0-1.20","","","693","","<div class='trialDiv'><img src='Fruit/pears.png'><br><font class='baseline'><strong>Pears Aplenty</strong><p>Choose number of points to bet.</font><div class='respPicDiv'><img src='img/responseButtonOffersNo0L.png' class='respPic'></div></div>","2","7","Pears Aplenty","Fruit/pears.png","Lost","0.2,0.8","14","0.2","85","21","",""
"","","","decisionFB","63bd81516745e78ee7f50f7f","bdp_rwlrn","Mon Mar 13 2023 14:50:14 GMT-0400 (Eastern Daylight Time)","480843","Trustworthy,Untrustworthy","html-keyboard-response","71","237659","0.0-11.0-2.20","","","null","","<div class='trialDiv'><img src='Fruit/pears.png'><br><font class='baseline'><strong>Pears Aplenty</strong><p>Choose number of points to bet.</font><div class='respPicDiv'><img src='img/responseButtonOffersNo0L2.png' class='respPic'></div></div>","null","7","Pears Aplenty","Fruit/pears.png","Lost","0.2,0.8","14","0.2","83","21","",""
"","","","feedback","63bd81516745e78ee7f50f7f","bdp_rwlrn","Mon Mar 13 2023 14:50:14 GMT-0400 (Eastern Daylight Time)","480843","Trustworthy,Untrustworthy","html-keyboard-response","72","238663","0.0-11.0-3.20","","","null","","<div class='respPicDiv'><img src='img/responseButtonOffersNo0_wht.png' class='respPic'></div><div class='trialDiv'><img src='Fruit/pears.png'><br><font class='baseline'><strong>Pears Aplenty</strong><p><strong><font class='negOutcome'>You LOST</font><p>You bet: 2</strong></font> &nbsp; &nbsp; &nbsp; &nbsp; &nbsp; &nbsp;<font class='negOutcome'>You receive: <strong>0</strong></font></div>","null","7","Pears Aplenty","Fruit/pears.png","Lost","0.2,0.8","14","0.2","83","21","",""
"","","","decision","63bd81516745e78ee7f50f7f","bdp_rwlrn","Mon Mar 13 2023 14:50:14 GMT-0400 (Eastern Daylight Time)","480843","Trustworthy,Untrustworthy","html-keyboard-response","73","239185","0.0-11.0-1.21","","","521","","<div class='trialDiv'><img src='Fruit/Kiwi.png'><br><font class='baseline'><strong>Kiwi Kash</strong><p>Choose number of points to bet.</font><div class='respPicDiv'><img src='img/responseButtonOffersNo0L.png' class='respPic'></div></div>","3","8","Kiwi Kash","Fruit/Kiwi.png","Lost","0.35,0.8","9","0.35","88","22","",""
"","","","decisionFB","63bd81516745e78ee7f50f7f","bdp_rwlrn","Mon Mar 13 2023 14:50:14 GMT-0400 (Eastern Daylight Time)","480843","Trustworthy,Untrustworthy","html-keyboard-response","74","239440","0.0-11.0-2.21","","","null","","<div class='trialDiv'><img src='Fruit/Kiwi.png'><br><font class='baseline'><strong>Kiwi Kash</strong><p>Choose number of points to bet.</font><div class='respPicDiv'><img src='img/responseButtonOffersNo0L3.png' class='respPic'></div></div>","null","8","Kiwi Kash","Fruit/Kiwi.png","Lost","0.35,0.8","9","0.35","85","22","",""
"","","","feedback","63bd81516745e78ee7f50f7f","bdp_rwlrn","Mon Mar 13 2023 14:50:14 GMT-0400 (Eastern Daylight Time)","480843","Trustworthy,Untrustworthy","html-keyboard-response","75","240448","0.0-11.0-3.21","","","null","","<div class='respPicDiv'><img src='img/responseButtonOffersNo0_wht.png' class='respPic'></div><div class='trialDiv'><img src='Fruit/Kiwi.png'><br><font class='baseline'><strong>Kiwi Kash</strong><p><strong><font class='negOutcome'>You LOST</font><p>You bet: 3</strong></font> &nbsp; &nbsp; &nbsp; &nbsp; &nbsp; &nbsp;<font class='negOutcome'>You receive: <strong>0</strong></font></div>","null","8","Kiwi Kash","Fruit/Kiwi.png","Lost","0.35,0.8","9","0.35","85","22","",""
"","","","decision","63bd81516745e78ee7f50f7f","bdp_rwlrn","Mon Mar 13 2023 14:50:14 GMT-0400 (Eastern Daylight Time)","480843","Trustworthy,Untrustworthy","html-keyboard-response","76","240807","0.0-11.0-1.22","","","357","","<div class='trialDiv'><img src='Fruit/mixed-berries2.png'><br><font class='baseline'><strong>Berry Bla$t</strong><p>Choose number of points to bet.</font><div class='respPicDiv'><img src='img/responseButtonOffersNo0L.png' class='respPic'></div></div>","2","8","Berry Bla$t","Fruit/mixed-berries2.png","Lost","0.65,0.2","10","0.65","90","23","",""
"","","","decisionFB","63bd81516745e78ee7f50f7f","bdp_rwlrn","Mon Mar 13 2023 14:50:14 GMT-0400 (Eastern Daylight Time)","480843","Trustworthy,Untrustworthy","html-keyboard-response","77","241064","0.0-11.0-2.22","","","null","","<div class='trialDiv'><img src='Fruit/mixed-berries2.png'><br><font class='baseline'><strong>Berry Bla$t</strong><p>Choose number of points to bet.</font><div class='respPicDiv'><img src='img/responseButtonOffersNo0L2.png' class='respPic'></div></div>","null","8","Berry Bla$t","Fruit/mixed-berries2.png","Lost","0.65,0.2","10","0.65","88","23","",""
"","","","feedback","63bd81516745e78ee7f50f7f","bdp_rwlrn","Mon Mar 13 2023 14:50:14 GMT-0400 (Eastern Daylight Time)","480843","Trustworthy,Untrustworthy","html-keyboard-response","78","242071","0.0-11.0-3.22","","","null","","<div class='respPicDiv'><img src='img/responseButtonOffersNo0_wht.png' class='respPic'></div><div class='trialDiv'><img src='Fruit/mixed-berries2.png'><br><font class='baseline'><strong>Berry Bla$t</strong><p><strong><font class='negOutcome'>You LOST</font><p>You bet: 2</strong></font> &nbsp; &nbsp; &nbsp; &nbsp; &nbsp; &nbsp;<font class='negOutcome'>You receive: <strong>0</strong></font></div>","null","8","Berry Bla$t","Fruit/mixed-berries2.png","Lost","0.65,0.2","10","0.65","88","23","",""
"","","","decision","63bd81516745e78ee7f50f7f","bdp_rwlrn","Mon Mar 13 2023 14:50:14 GMT-0400 (Eastern Daylight Time)","480843","Trustworthy,Untrustworthy","html-keyboard-response","79","242491","0.0-11.0-1.23","","","419","","<div class='trialDiv'><img src='Fruit/pears.png'><br><font class='baseline'><strong>Pears Aplenty</strong><p>Choose number of points to bet.</font><div class='respPicDiv'><img src='img/responseButtonOffersNo0L.png' class='respPic'></div></div>","4","8","Pears Aplenty","Fruit/pears.png","Lost","0.2,0.8","14","0.2","93","24","",""
"","","","decisionFB","63bd81516745e78ee7f50f7f","bdp_rwlrn","Mon Mar 13 2023 14:50:14 GMT-0400 (Eastern Daylight Time)","480843","Trustworthy,Untrustworthy","html-keyboard-response","80","242743","0.0-11.0-2.23","","","null","","<div class='trialDiv'><img src='Fruit/pears.png'><br><font class='baseline'><strong>Pears Aplenty</strong><p>Choose number of points to bet.</font><div class='respPicDiv'><img src='img/responseButtonOffersNo0L4.png' class='respPic'></div></div>","null","8","Pears Aplenty","Fruit/pears.png","Lost","0.2,0.8","14","0.2","89","24","",""
"","","","feedback","63bd81516745e78ee7f50f7f","bdp_rwlrn","Mon Mar 13 2023 14:50:14 GMT-0400 (Eastern Daylight Time)","480843","Trustworthy,Untrustworthy","html-keyboard-response","81","243752","0.0-11.0-3.23","","","null","","<div class='respPicDiv'><img src='img/responseButtonOffersNo0_wht.png' class='respPic'></div><div class='trialDiv'><img src='Fruit/pears.png'><br><font class='baseline'><strong>Pears Aplenty</strong><p><strong><font class='negOutcome'>You LOST</font><p>You bet: 4</strong></font> &nbsp; &nbsp; &nbsp; &nbsp; &nbsp; &nbsp;<font class='negOutcome'>You receive: <strong>0</strong></font></div>","null","8","Pears Aplenty","Fruit/pears.png","Lost","0.2,0.8","14","0.2","89","24","",""
"","","","decision","63bd81516745e78ee7f50f7f","bdp_rwlrn","Mon Mar 13 2023 14:50:14 GMT-0400 (Eastern Daylight Time)","480843","Trustworthy,Untrustworthy","html-keyboard-response","82","244130","0.0-11.0-1.24","","","377","","<div class='trialDiv'><img src='Fruit/mixed-berries2.png'><br><font class='baseline'><strong>Berry Bla$t</strong><p>Choose number of points to bet.</font><div class='respPicDiv'><img src='img/responseButtonOffersNo0L.png' class='respPic'></div></div>","5","9","Berry Bla$t","Fruit/mixed-berries2.png","Won","0.65,0.2","10","0.65","94","25","",""
"","","","decisionFB","63bd81516745e78ee7f50f7f","bdp_rwlrn","Mon Mar 13 2023 14:50:14 GMT-0400 (Eastern Daylight Time)","480843","Trustworthy,Untrustworthy","html-keyboard-response","83","244387","0.0-11.0-2.24","","","null","","<div class='trialDiv'><img src='Fruit/mixed-berries2.png'><br><font class='baseline'><strong>Berry Bla$t</strong><p>Choose number of points to bet.</font><div class='respPicDiv'><img src='img/responseButtonOffersNo0L5.png' class='respPic'></div></div>","null","9","Berry Bla$t","Fruit/mixed-berries2.png","Won","0.65,0.2","10","0.65","89","25","",""
"","","","feedback","63bd81516745e78ee7f50f7f","bdp_rwlrn","Mon Mar 13 2023 14:50:14 GMT-0400 (Eastern Daylight Time)","480843","Trustworthy,Untrustworthy","html-keyboard-response","84","245396","0.0-11.0-3.24","","","null","","<div class='respPicDiv'><img src='img/responseButtonOffersNo0_wht.png' class='respPic'></div><div class='trialDiv'><img src='Fruit/mixed-berries2.png'><br><font class='baseline'><strong>Berry Bla$t</strong><p><strong><font class='posOutcome'>You WON</font><p>You bet: 5</strong></font> &nbsp; &nbsp; &nbsp; &nbsp; &nbsp; &nbsp;<font class='posOutcome'>you receive: <strong>10</strong></font></div>","null","9","Berry Bla$t","Fruit/mixed-berries2.png","Won","0.65,0.2","10","0.65","99","25","",""
"","","","decision","63bd81516745e78ee7f50f7f","bdp_rwlrn","Mon Mar 13 2023 14:50:14 GMT-0400 (Eastern Daylight Time)","480843","Trustworthy,Untrustworthy","html-keyboard-response","85","246007","0.0-11.0-1.25","","","610","","<div class='trialDiv'><img src='Fruit/pears.png'><br><font class='baseline'><strong>Pears Aplenty</strong><p>Choose number of points to bet.</font><div class='respPicDiv'><img src='img/responseButtonOffersNo0L.png' class='respPic'></div></div>","5","9","Pears Aplenty","Fruit/pears.png","Lost","0.2,0.8","14","0.2","104","26","",""
"","","","decisionFB","63bd81516745e78ee7f50f7f","bdp_rwlrn","Mon Mar 13 2023 14:50:14 GMT-0400 (Eastern Daylight Time)","480843","Trustworthy,Untrustworthy","html-keyboard-response","86","246265","0.0-11.0-2.25","","","null","","<div class='trialDiv'><img src='Fruit/pears.png'><br><font class='baseline'><strong>Pears Aplenty</strong><p>Choose number of points to bet.</font><div class='respPicDiv'><img src='img/responseButtonOffersNo0L5.png' class='respPic'></div></div>","null","9","Pears Aplenty","Fruit/pears.png","Lost","0.2,0.8","14","0.2","99","26","",""
"","","","feedback","63bd81516745e78ee7f50f7f","bdp_rwlrn","Mon Mar 13 2023 14:50:14 GMT-0400 (Eastern Daylight Time)","480843","Trustworthy,Untrustworthy","html-keyboard-response","87","247272","0.0-11.0-3.25","","","null","","<div class='respPicDiv'><img src='img/responseButtonOffersNo0_wht.png' class='respPic'></div><div class='trialDiv'><img src='Fruit/pears.png'><br><font class='baseline'><strong>Pears Aplenty</strong><p><strong><font class='negOutcome'>You LOST</font><p>You bet: 5</strong></font> &nbsp; &nbsp; &nbsp; &nbsp; &nbsp; &nbsp;<font class='negOutcome'>You receive: <strong>0</strong></font></div>","null","9","Pears Aplenty","Fruit/pears.png","Lost","0.2,0.8","14","0.2","99","26","",""
"","","","decision","63bd81516745e78ee7f50f7f","bdp_rwlrn","Mon Mar 13 2023 14:50:14 GMT-0400 (Eastern Daylight Time)","480843","Trustworthy,Untrustworthy","html-keyboard-response","88","248129","0.0-11.0-1.26","","","856","","<div class='trialDiv'><img src='Fruit/Kiwi.png'><br><font class='baseline'><strong>Kiwi Kash</strong><p>Choose number of points to bet.</font><div class='respPicDiv'><img src='img/responseButtonOffersNo0L.png' class='respPic'></div></div>","5","9","Kiwi Kash","Fruit/Kiwi.png","Lost","0.35,0.8","9","0.35","104","27","",""
"","","","decisionFB","63bd81516745e78ee7f50f7f","bdp_rwlrn","Mon Mar 13 2023 14:50:14 GMT-0400 (Eastern Daylight Time)","480843","Trustworthy,Untrustworthy","html-keyboard-response","89","248387","0.0-11.0-2.26","","","null","","<div class='trialDiv'><img src='Fruit/Kiwi.png'><br><font class='baseline'><strong>Kiwi Kash</strong><p>Choose number of points to bet.</font><div class='respPicDiv'><img src='img/responseButtonOffersNo0L5.png' class='respPic'></div></div>","null","9","Kiwi Kash","Fruit/Kiwi.png","Lost","0.35,0.8","9","0.35","99","27","",""
"","","","feedback","63bd81516745e78ee7f50f7f","bdp_rwlrn","Mon Mar 13 2023 14:50:14 GMT-0400 (Eastern Daylight Time)","480843","Trustworthy,Untrustworthy","html-keyboard-response","90","249392","0.0-11.0-3.26","","","null","","<div class='respPicDiv'><img src='img/responseButtonOffersNo0_wht.png' class='respPic'></div><div class='trialDiv'><img src='Fruit/Kiwi.png'><br><font class='baseline'><strong>Kiwi Kash</strong><p><strong><font class='negOutcome'>You LOST</font><p>You bet: 5</strong></font> &nbsp; &nbsp; &nbsp; &nbsp; &nbsp; &nbsp;<font class='negOutcome'>You receive: <strong>0</strong></font></div>","null","9","Kiwi Kash","Fruit/Kiwi.png","Lost","0.35,0.8","9","0.35","99","27","",""
"","","","decision","63bd81516745e78ee7f50f7f","bdp_rwlrn","Mon Mar 13 2023 14:50:14 GMT-0400 (Eastern Daylight Time)","480843","Trustworthy,Untrustworthy","html-keyboard-response","91","250174","0.0-11.0-1.27","","","781","","<div class='trialDiv'><img src='Fruit/pears.png'><br><font class='baseline'><strong>Pears Aplenty</strong><p>Choose number of points to bet.</font><div class='respPicDiv'><img src='img/responseButtonOffersNo0L.png' class='respPic'></div></div>","5","10","Pears Aplenty","Fruit/pears.png","Lost","0.2,0.8","14","0.2","104","28","",""
"","","","decisionFB","63bd81516745e78ee7f50f7f","bdp_rwlrn","Mon Mar 13 2023 14:50:14 GMT-0400 (Eastern Daylight Time)","480843","Trustworthy,Untrustworthy","html-keyboard-response","92","250432","0.0-11.0-2.27","","","null","","<div class='trialDiv'><img src='Fruit/pears.png'><br><font class='baseline'><strong>Pears Aplenty</strong><p>Choose number of points to bet.</font><div class='respPicDiv'><img src='img/responseButtonOffersNo0L5.png' class='respPic'></div></div>","null","10","Pears Aplenty","Fruit/pears.png","Lost","0.2,0.8","14","0.2","99","28","",""
"","","","feedback","63bd81516745e78ee7f50f7f","bdp_rwlrn","Mon Mar 13 2023 14:50:14 GMT-0400 (Eastern Daylight Time)","480843","Trustworthy,Untrustworthy","html-keyboard-response","93","251441","0.0-11.0-3.27","","","null","","<div class='respPicDiv'><img src='img/responseButtonOffersNo0_wht.png' class='respPic'></div><div class='trialDiv'><img src='Fruit/pears.png'><br><font class='baseline'><strong>Pears Aplenty</strong><p><strong><font class='negOutcome'>You LOST</font><p>You bet: 5</strong></font> &nbsp; &nbsp; &nbsp; &nbsp; &nbsp; &nbsp;<font class='negOutcome'>You receive: <strong>0</strong></font></div>","null","10","Pears Aplenty","Fruit/pears.png","Lost","0.2,0.8","14","0.2","99","28","",""
"","","","decision","63bd81516745e78ee7f50f7f","bdp_rwlrn","Mon Mar 13 2023 14:50:14 GMT-0400 (Eastern Daylight Time)","480843","Trustworthy,Untrustworthy","html-keyboard-response","94","251901","0.0-11.0-1.28","","","458","","<div class='trialDiv'><img src='Fruit/mixed-berries2.png'><br><font class='baseline'><strong>Berry Bla$t</strong><p>Choose number of points to bet.</font><div class='respPicDiv'><img src='img/responseButtonOffersNo0L.png' class='respPic'></div></div>","5","10","Berry Bla$t","Fruit/mixed-berries2.png","Lost","0.65,0.2","10","0.65","104","29","",""
"","","","decisionFB","63bd81516745e78ee7f50f7f","bdp_rwlrn","Mon Mar 13 2023 14:50:14 GMT-0400 (Eastern Daylight Time)","480843","Trustworthy,Untrustworthy","html-keyboard-response","95","252160","0.0-11.0-2.28","","","null","","<div class='trialDiv'><img src='Fruit/mixed-berries2.png'><br><font class='baseline'><strong>Berry Bla$t</strong><p>Choose number of points to bet.</font><div class='respPicDiv'><img src='img/responseButtonOffersNo0L5.png' class='respPic'></div></div>","null","10","Berry Bla$t","Fruit/mixed-berries2.png","Lost","0.65,0.2","10","0.65","99","29","",""
"","","","feedback","63bd81516745e78ee7f50f7f","bdp_rwlrn","Mon Mar 13 2023 14:50:14 GMT-0400 (Eastern Daylight Time)","480843","Trustworthy,Untrustworthy","html-keyboard-response","96","253169","0.0-11.0-3.28","","","null","","<div class='respPicDiv'><img src='img/responseButtonOffersNo0_wht.png' class='respPic'></div><div class='trialDiv'><img src='Fruit/mixed-berries2.png'><br><font class='baseline'><strong>Berry Bla$t</strong><p><strong><font class='negOutcome'>You LOST</font><p>You bet: 5</strong></font> &nbsp; &nbsp; &nbsp; &nbsp; &nbsp; &nbsp;<font class='negOutcome'>You receive: <strong>0</strong></font></div>","null","10","Berry Bla$t","Fruit/mixed-berries2.png","Lost","0.65,0.2","10","0.65","99","29","",""
"","","","decision","63bd81516745e78ee7f50f7f","bdp_rwlrn","Mon Mar 13 2023 14:50:14 GMT-0400 (Eastern Daylight Time)","480843","Trustworthy,Untrustworthy","html-keyboard-response","97","253568","0.0-11.0-1.29","","","398","","<div class='trialDiv'><img src='Fruit/Kiwi.png'><br><font class='baseline'><strong>Kiwi Kash</strong><p>Choose number of points to bet.</font><div class='respPicDiv'><img src='img/responseButtonOffersNo0L.png' class='respPic'></div></div>","4","10","Kiwi Kash","Fruit/Kiwi.png","Won","0.35,0.8","9","0.35","104","30","",""
"","","","decisionFB","63bd81516745e78ee7f50f7f","bdp_rwlrn","Mon Mar 13 2023 14:50:14 GMT-0400 (Eastern Daylight Time)","480843","Trustworthy,Untrustworthy","html-keyboard-response","98","253823","0.0-11.0-2.29","","","null","","<div class='trialDiv'><img src='Fruit/Kiwi.png'><br><font class='baseline'><strong>Kiwi Kash</strong><p>Choose number of points to bet.</font><div class='respPicDiv'><img src='img/responseButtonOffersNo0L4.png' class='respPic'></div></div>","null","10","Kiwi Kash","Fruit/Kiwi.png","Won","0.35,0.8","9","0.35","100","30","",""
"","","","feedback","63bd81516745e78ee7f50f7f","bdp_rwlrn","Mon Mar 13 2023 14:50:14 GMT-0400 (Eastern Daylight Time)","480843","Trustworthy,Untrustworthy","html-keyboard-response","99","254833","0.0-11.0-3.29","","","null","","<div class='respPicDiv'><img src='img/responseButtonOffersNo0_wht.png' class='respPic'></div><div class='trialDiv'><img src='Fruit/Kiwi.png'><br><font class='baseline'><strong>Kiwi Kash</strong><p><strong><font class='posOutcome'>You WON</font><p>You bet: 4</strong></font> &nbsp; &nbsp; &nbsp; &nbsp; &nbsp; &nbsp;<font class='posOutcome'>you receive: <strong>8</strong></font></div>","null","10","Kiwi Kash","Fruit/Kiwi.png","Won","0.35,0.8","9","0.35","108","30","",""
"","","","decision","63bd81516745e78ee7f50f7f","bdp_rwlrn","Mon Mar 13 2023 14:50:14 GMT-0400 (Eastern Daylight Time)","480843","Trustworthy,Untrustworthy","html-keyboard-response","100","255473","0.0-11.0-1.30","","","639","","<div class='trialDiv'><img src='Fruit/pears.png'><br><font class='baseline'><strong>Pears Aplenty</strong><p>Choose number of points to bet.</font><div class='respPicDiv'><img src='img/responseButtonOffersNo0L.png' class='respPic'></div></div>","4","11","Pears Aplenty","Fruit/pears.png","Won","0.2,0.8","14","0.2","113","31","",""
"","","","decisionFB","63bd81516745e78ee7f50f7f","bdp_rwlrn","Mon Mar 13 2023 14:50:14 GMT-0400 (Eastern Daylight Time)","480843","Trustworthy,Untrustworthy","html-keyboard-response","101","255727","0.0-11.0-2.30","","","null","","<div class='trialDiv'><img src='Fruit/pears.png'><br><font class='baseline'><strong>Pears Aplenty</strong><p>Choose number of points to bet.</font><div class='respPicDiv'><img src='img/responseButtonOffersNo0L4.png' class='respPic'></div></div>","null","11","Pears Aplenty","Fruit/pears.png","Won","0.2,0.8","14","0.2","109","31","",""
"","","","feedback","63bd81516745e78ee7f50f7f","bdp_rwlrn","Mon Mar 13 2023 14:50:14 GMT-0400 (Eastern Daylight Time)","480843","Trustworthy,Untrustworthy","html-keyboard-response","102","256735","0.0-11.0-3.30","","","null","","<div class='respPicDiv'><img src='img/responseButtonOffersNo0_wht.png' class='respPic'></div><div class='trialDiv'><img src='Fruit/pears.png'><br><font class='baseline'><strong>Pears Aplenty</strong><p><strong><font class='posOutcome'>You WON</font><p>You bet: 4</strong></font> &nbsp; &nbsp; &nbsp; &nbsp; &nbsp; &nbsp;<font class='posOutcome'>you receive: <strong>8</strong></font></div>","null","11","Pears Aplenty","Fruit/pears.png","Won","0.2,0.8","14","0.2","117","31","",""
"","","","decision","63bd81516745e78ee7f50f7f","bdp_rwlrn","Mon Mar 13 2023 14:50:14 GMT-0400 (Eastern Daylight Time)","480843","Trustworthy,Untrustworthy","html-keyboard-response","103","257322","0.0-11.0-1.31","","","585","","<div class='trialDiv'><img src='Fruit/mixed-berries2.png'><br><font class='baseline'><strong>Berry Bla$t</strong><p>Choose number of points to bet.</font><div class='respPicDiv'><img src='img/responseButtonOffersNo0L.png' class='respPic'></div></div>","5","11","Berry Bla$t","Fruit/mixed-berries2.png","Lost","0.65,0.2","10","0.65","122","32","",""
"","","","decisionFB","63bd81516745e78ee7f50f7f","bdp_rwlrn","Mon Mar 13 2023 14:50:14 GMT-0400 (Eastern Daylight Time)","480843","Trustworthy,Untrustworthy","html-keyboard-response","104","257574","0.0-11.0-2.31","","","null","","<div class='trialDiv'><img src='Fruit/mixed-berries2.png'><br><font class='baseline'><strong>Berry Bla$t</strong><p>Choose number of points to bet.</font><div class='respPicDiv'><img src='img/responseButtonOffersNo0L5.png' class='respPic'></div></div>","null","11","Berry Bla$t","Fruit/mixed-berries2.png","Lost","0.65,0.2","10","0.65","117","32","",""
"","","","feedback","63bd81516745e78ee7f50f7f","bdp_rwlrn","Mon Mar 13 2023 14:50:14 GMT-0400 (Eastern Daylight Time)","480843","Trustworthy,Untrustworthy","html-keyboard-response","105","258584","0.0-11.0-3.31","","","null","","<div class='respPicDiv'><img src='img/responseButtonOffersNo0_wht.png' class='respPic'></div><div class='trialDiv'><img src='Fruit/mixed-berries2.png'><br><font class='baseline'><strong>Berry Bla$t</strong><p><strong><font class='negOutcome'>You LOST</font><p>You bet: 5</strong></font> &nbsp; &nbsp; &nbsp; &nbsp; &nbsp; &nbsp;<font class='negOutcome'>You receive: <strong>0</strong></font></div>","null","11","Berry Bla$t","Fruit/mixed-berries2.png","Lost","0.65,0.2","10","0.65","117","32","",""
"","","","decision","63bd81516745e78ee7f50f7f","bdp_rwlrn","Mon Mar 13 2023 14:50:14 GMT-0400 (Eastern Daylight Time)","480843","Trustworthy,Untrustworthy","html-keyboard-response","106","259019","0.0-11.0-1.32","","","434","","<div class='trialDiv'><img src='Fruit/Kiwi.png'><br><font class='baseline'><strong>Kiwi Kash</strong><p>Choose number of points to bet.</font><div class='respPicDiv'><img src='img/responseButtonOffersNo0L.png' class='respPic'></div></div>","2","11","Kiwi Kash","Fruit/Kiwi.png","Won","0.35,0.8","9","0.35","122","33","",""
"","","","decisionFB","63bd81516745e78ee7f50f7f","bdp_rwlrn","Mon Mar 13 2023 14:50:14 GMT-0400 (Eastern Daylight Time)","480843","Trustworthy,Untrustworthy","html-keyboard-response","107","259272","0.0-11.0-2.32","","","null","","<div class='trialDiv'><img src='Fruit/Kiwi.png'><br><font class='baseline'><strong>Kiwi Kash</strong><p>Choose number of points to bet.</font><div class='respPicDiv'><img src='img/responseButtonOffersNo0L2.png' class='respPic'></div></div>","null","11","Kiwi Kash","Fruit/Kiwi.png","Won","0.35,0.8","9","0.35","120","33","",""
"","","","feedback","63bd81516745e78ee7f50f7f","bdp_rwlrn","Mon Mar 13 2023 14:50:14 GMT-0400 (Eastern Daylight Time)","480843","Trustworthy,Untrustworthy","html-keyboard-response","108","260280","0.0-11.0-3.32","","","null","","<div class='respPicDiv'><img src='img/responseButtonOffersNo0_wht.png' class='respPic'></div><div class='trialDiv'><img src='Fruit/Kiwi.png'><br><font class='baseline'><strong>Kiwi Kash</strong><p><strong><font class='posOutcome'>You WON</font><p>You bet: 2</strong></font> &nbsp; &nbsp; &nbsp; &nbsp; &nbsp; &nbsp;<font class='posOutcome'>you receive: <strong>4</strong></font></div>","null","11","Kiwi Kash","Fruit/Kiwi.png","Won","0.35,0.8","9","0.35","124","33","",""
"","","","decision","63bd81516745e78ee7f50f7f","bdp_rwlrn","Mon Mar 13 2023 14:50:14 GMT-0400 (Eastern Daylight Time)","480843","Trustworthy,Untrustworthy","html-keyboard-response","109","260758","0.0-11.0-1.33","","","476","","<div class='trialDiv'><img src='Fruit/mixed-berries2.png'><br><font class='baseline'><strong>Berry Bla$t</strong><p>Choose number of points to bet.</font><div class='respPicDiv'><img src='img/responseButtonOffersNo0L.png' class='respPic'></div></div>","2","12","Berry Bla$t","Fruit/mixed-berries2.png","Lost","0.65,0.2","10","0.65","129","34","",""
"","","","decisionFB","63bd81516745e78ee7f50f7f","bdp_rwlrn","Mon Mar 13 2023 14:50:14 GMT-0400 (Eastern Daylight Time)","480843","Trustworthy,Untrustworthy","html-keyboard-response","110","261015","0.0-11.0-2.33","","","null","","<div class='trialDiv'><img src='Fruit/mixed-berries2.png'><br><font class='baseline'><strong>Berry Bla$t</strong><p>Choose number of points to bet.</font><div class='respPicDiv'><img src='img/responseButtonOffersNo0L2.png' class='respPic'></div></div>","null","12","Berry Bla$t","Fruit/mixed-berries2.png","Lost","0.65,0.2","10","0.65","127","34","",""
"","","","feedback","63bd81516745e78ee7f50f7f","bdp_rwlrn","Mon Mar 13 2023 14:50:14 GMT-0400 (Eastern Daylight Time)","480843","Trustworthy,Untrustworthy","html-keyboard-response","111","262024","0.0-11.0-3.33","","","null","","<div class='respPicDiv'><img src='img/responseButtonOffersNo0_wht.png' class='respPic'></div><div class='trialDiv'><img src='Fruit/mixed-berries2.png'><br><font class='baseline'><strong>Berry Bla$t</strong><p><strong><font class='negOutcome'>You LOST</font><p>You bet: 2</strong></font> &nbsp; &nbsp; &nbsp; &nbsp; &nbsp; &nbsp;<font class='negOutcome'>You receive: <strong>0</strong></font></div>","null","12","Berry Bla$t","Fruit/mixed-berries2.png","Lost","0.65,0.2","10","0.65","127","34","",""
"","","","decision","63bd81516745e78ee7f50f7f","bdp_rwlrn","Mon Mar 13 2023 14:50:14 GMT-0400 (Eastern Daylight Time)","480843","Trustworthy,Untrustworthy","html-keyboard-response","112","262416","0.0-11.0-1.34","","","391","","<div class='trialDiv'><img src='Fruit/Kiwi.png'><br><font class='baseline'><strong>Kiwi Kash</strong><p>Choose number of points to bet.</font><div class='respPicDiv'><img src='img/responseButtonOffersNo0L.png' class='respPic'></div></div>","1","12","Kiwi Kash","Fruit/Kiwi.png","Won","0.35,0.8","9","0.35","132","35","",""
"","","","decisionFB","63bd81516745e78ee7f50f7f","bdp_rwlrn","Mon Mar 13 2023 14:50:14 GMT-0400 (Eastern Daylight Time)","480843","Trustworthy,Untrustworthy","html-keyboard-response","113","262673","0.0-11.0-2.34","","","null","","<div class='trialDiv'><img src='Fruit/Kiwi.png'><br><font class='baseline'><strong>Kiwi Kash</strong><p>Choose number of points to bet.</font><div class='respPicDiv'><img src='img/responseButtonOffersNo0L1.png' class='respPic'></div></div>","null","12","Kiwi Kash","Fruit/Kiwi.png","Won","0.35,0.8","9","0.35","131","35","",""
"","","","feedback","63bd81516745e78ee7f50f7f","bdp_rwlrn","Mon Mar 13 2023 14:50:14 GMT-0400 (Eastern Daylight Time)","480843","Trustworthy,Untrustworthy","html-keyboard-response","114","263683","0.0-11.0-3.34","","","null","","<div class='respPicDiv'><img src='img/responseButtonOffersNo0_wht.png' class='respPic'></div><div class='trialDiv'><img src='Fruit/Kiwi.png'><br><font class='baseline'><strong>Kiwi Kash</strong><p><strong><font class='posOutcome'>You WON</font><p>You bet: 1</strong></font> &nbsp; &nbsp; &nbsp; &nbsp; &nbsp; &nbsp;<font class='posOutcome'>you receive: <strong>2</strong></font></div>","null","12","Kiwi Kash","Fruit/Kiwi.png","Won","0.35,0.8","9","0.35","133","35","",""
"","","","decision","63bd81516745e78ee7f50f7f","bdp_rwlrn","Mon Mar 13 2023 14:50:14 GMT-0400 (Eastern Daylight Time)","480843","Trustworthy,Untrustworthy","html-keyboard-response","115","264541","0.0-11.0-1.35","","","857","","<div class='trialDiv'><img src='Fruit/pears.png'><br><font class='baseline'><strong>Pears Aplenty</strong><p>Choose number of points to bet.</font><div class='respPicDiv'><img src='img/responseButtonOffersNo0L.png' class='respPic'></div></div>","4","12","Pears Aplenty","Fruit/pears.png","Lost","0.2,0.8","14","0.2","138","36","",""
"","","","decisionFB","63bd81516745e78ee7f50f7f","bdp_rwlrn","Mon Mar 13 2023 14:50:14 GMT-0400 (Eastern Daylight Time)","480843","Trustworthy,Untrustworthy","html-keyboard-response","116","264799","0.0-11.0-2.35","","","null","","<div class='trialDiv'><img src='Fruit/pears.png'><br><font class='baseline'><strong>Pears Aplenty</strong><p>Choose number of points to bet.</font><div class='respPicDiv'><img src='img/responseButtonOffersNo0L4.png' class='respPic'></div></div>","null","12","Pears Aplenty","Fruit/pears.png","Lost","0.2,0.8","14","0.2","134","36","",""
"","","","feedback","63bd81516745e78ee7f50f7f","bdp_rwlrn","Mon Mar 13 2023 14:50:14 GMT-0400 (Eastern Daylight Time)","480843","Trustworthy,Untrustworthy","html-keyboard-response","117","265808","0.0-11.0-3.35","","","null","","<div class='respPicDiv'><img src='img/responseButtonOffersNo0_wht.png' class='respPic'></div><div class='trialDiv'><img src='Fruit/pears.png'><br><font class='baseline'><strong>Pears Aplenty</strong><p><strong><font class='negOutcome'>You LOST</font><p>You bet: 4</strong></font> &nbsp; &nbsp; &nbsp; &nbsp; &nbsp; &nbsp;<font class='negOutcome'>You receive: <strong>0</strong></font></div>","null","12","Pears Aplenty","Fruit/pears.png","Lost","0.2,0.8","14","0.2","134","36","",""
"","","","decision","63bd81516745e78ee7f50f7f","bdp_rwlrn","Mon Mar 13 2023 14:50:14 GMT-0400 (Eastern Daylight Time)","480843","Trustworthy,Untrustworthy","html-keyboard-response","118","266206","0.0-11.0-1.36","","","397","","<div class='trialDiv'><img src='Fruit/mixed-berries2.png'><br><font class='baseline'><strong>Berry Bla$t</strong><p>Choose number of points to bet.</font><div class='respPicDiv'><img src='img/responseButtonOffersNo0L.png' class='respPic'></div></div>","2","13","Berry Bla$t","Fruit/mixed-berries2.png","Lost","0.65,0.2","10","0.65","139","37","",""
"","","","decisionFB","63bd81516745e78ee7f50f7f","bdp_rwlrn","Mon Mar 13 2023 14:50:14 GMT-0400 (Eastern Daylight Time)","480843","Trustworthy,Untrustworthy","html-keyboard-response","119","266467","0.0-11.0-2.36","","","null","","<div class='trialDiv'><img src='Fruit/mixed-berries2.png'><br><font class='baseline'><strong>Berry Bla$t</strong><p>Choose number of points to bet.</font><div class='respPicDiv'><img src='img/responseButtonOffersNo0L2.png' class='respPic'></div></div>","null","13","Berry Bla$t","Fruit/mixed-berries2.png","Lost","0.65,0.2","10","0.65","137","37","",""
"","","","feedback","63bd81516745e78ee7f50f7f","bdp_rwlrn","Mon Mar 13 2023 14:50:14 GMT-0400 (Eastern Daylight Time)","480843","Trustworthy,Untrustworthy","html-keyboard-response","120","267475","0.0-11.0-3.36","","","null","","<div class='respPicDiv'><img src='img/responseButtonOffersNo0_wht.png' class='respPic'></div><div class='trialDiv'><img src='Fruit/mixed-berries2.png'><br><font class='baseline'><strong>Berry Bla$t</strong><p><strong><font class='negOutcome'>You LOST</font><p>You bet: 2</strong></font> &nbsp; &nbsp; &nbsp; &nbsp; &nbsp; &nbsp;<font class='negOutcome'>You receive: <strong>0</strong></font></div>","null","13","Berry Bla$t","Fruit/mixed-berries2.png","Lost","0.65,0.2","10","0.65","137","37","",""
"","","","decision","63bd81516745e78ee7f50f7f","bdp_rwlrn","Mon Mar 13 2023 14:50:14 GMT-0400 (Eastern Daylight Time)","480843","Trustworthy,Untrustworthy","html-keyboard-response","121","267805","0.0-11.0-1.37","","","328","","<div class='trialDiv'><img src='Fruit/Kiwi.png'><br><font class='baseline'><strong>Kiwi Kash</strong><p>Choose number of points to bet.</font><div class='respPicDiv'><img src='img/responseButtonOffersNo0L.png' class='respPic'></div></div>","1","13","Kiwi Kash","Fruit/Kiwi.png","Lost","0.35,0.8","9","0.35","142","38","",""
"","","","decisionFB","63bd81516745e78ee7f50f7f","bdp_rwlrn","Mon Mar 13 2023 14:50:14 GMT-0400 (Eastern Daylight Time)","480843","Trustworthy,Untrustworthy","html-keyboard-response","122","268062","0.0-11.0-2.37","","","null","","<div class='trialDiv'><img src='Fruit/Kiwi.png'><br><font class='baseline'><strong>Kiwi Kash</strong><p>Choose number of points to bet.</font><div class='respPicDiv'><img src='img/responseButtonOffersNo0L1.png' class='respPic'></div></div>","null","13","Kiwi Kash","Fruit/Kiwi.png","Lost","0.35,0.8","9","0.35","141","38","",""
"","","","feedback","63bd81516745e78ee7f50f7f","bdp_rwlrn","Mon Mar 13 2023 14:50:14 GMT-0400 (Eastern Daylight Time)","480843","Trustworthy,Untrustworthy","html-keyboard-response","123","269070","0.0-11.0-3.37","","","null","","<div class='respPicDiv'><img src='img/responseButtonOffersNo0_wht.png' class='respPic'></div><div class='trialDiv'><img src='Fruit/Kiwi.png'><br><font class='baseline'><strong>Kiwi Kash</strong><p><strong><font class='negOutcome'>You LOST</font><p>You bet: 1</strong></font> &nbsp; &nbsp; &nbsp; &nbsp; &nbsp; &nbsp;<font class='negOutcome'>You receive: <strong>0</strong></font></div>","null","13","Kiwi Kash","Fruit/Kiwi.png","Lost","0.35,0.8","9","0.35","141","38","",""
"","","","decision","63bd81516745e78ee7f50f7f","bdp_rwlrn","Mon Mar 13 2023 14:50:14 GMT-0400 (Eastern Daylight Time)","480843","Trustworthy,Untrustworthy","html-keyboard-response","124","269354","0.0-11.0-1.38","","","282","","<div class='trialDiv'><img src='Fruit/pears.png'><br><font class='baseline'><strong>Pears Aplenty</strong><p>Choose number of points to bet.</font><div class='respPicDiv'><img src='img/responseButtonOffersNo0L.png' class='respPic'></div></div>","4","13","Pears Aplenty","Fruit/pears.png","Won","0.2,0.8","14","0.2","146","39","",""
"","","","decisionFB","63bd81516745e78ee7f50f7f","bdp_rwlrn","Mon Mar 13 2023 14:50:14 GMT-0400 (Eastern Daylight Time)","480843","Trustworthy,Untrustworthy","html-keyboard-response","125","269611","0.0-11.0-2.38","","","null","","<div class='trialDiv'><img src='Fruit/pears.png'><br><font class='baseline'><strong>Pears Aplenty</strong><p>Choose number of points to bet.</font><div class='respPicDiv'><img src='img/responseButtonOffersNo0L4.png' class='respPic'></div></div>","null","13","Pears Aplenty","Fruit/pears.png","Won","0.2,0.8","14","0.2","142","39","",""
"","","","feedback","63bd81516745e78ee7f50f7f","bdp_rwlrn","Mon Mar 13 2023 14:50:14 GMT-0400 (Eastern Daylight Time)","480843","Trustworthy,Untrustworthy","html-keyboard-response","126","270619","0.0-11.0-3.38","","","null","","<div class='respPicDiv'><img src='img/responseButtonOffersNo0_wht.png' class='respPic'></div><div class='trialDiv'><img src='Fruit/pears.png'><br><font class='baseline'><strong>Pears Aplenty</strong><p><strong><font class='posOutcome'>You WON</font><p>You bet: 4</strong></font> &nbsp; &nbsp; &nbsp; &nbsp; &nbsp; &nbsp;<font class='posOutcome'>you receive: <strong>8</strong></font></div>","null","13","Pears Aplenty","Fruit/pears.png","Won","0.2,0.8","14","0.2","150","39","",""
"","","","decision","63bd81516745e78ee7f50f7f","bdp_rwlrn","Mon Mar 13 2023 14:50:14 GMT-0400 (Eastern Daylight Time)","480843","Trustworthy,Untrustworthy","html-keyboard-response","127","271119","0.0-11.0-1.39","","","498","","<div class='trialDiv'><img src='Fruit/mixed-berries2.png'><br><font class='baseline'><strong>Berry Bla$t</strong><p>Choose number of points to bet.</font><div class='respPicDiv'><img src='img/responseButtonOffersNo0L.png' class='respPic'></div></div>","3","14","Berry Bla$t","Fruit/mixed-berries2.png","Lost","0.65,0.2","10","0.65","155","40","",""
"","","","decisionFB","63bd81516745e78ee7f50f7f","bdp_rwlrn","Mon Mar 13 2023 14:50:14 GMT-0400 (Eastern Daylight Time)","480843","Trustworthy,Untrustworthy","html-keyboard-response","128","271374","0.0-11.0-2.39","","","null","","<div class='trialDiv'><img src='Fruit/mixed-berries2.png'><br><font class='baseline'><strong>Berry Bla$t</strong><p>Choose number of points to bet.</font><div class='respPicDiv'><img src='img/responseButtonOffersNo0L3.png' class='respPic'></div></div>","null","14","Berry Bla$t","Fruit/mixed-berries2.png","Lost","0.65,0.2","10","0.65","152","40","",""
"","","","feedback","63bd81516745e78ee7f50f7f","bdp_rwlrn","Mon Mar 13 2023 14:50:14 GMT-0400 (Eastern Daylight Time)","480843","Trustworthy,Untrustworthy","html-keyboard-response","129","272384","0.0-11.0-3.39","","","null","","<div class='respPicDiv'><img src='img/responseButtonOffersNo0_wht.png' class='respPic'></div><div class='trialDiv'><img src='Fruit/mixed-berries2.png'><br><font class='baseline'><strong>Berry Bla$t</strong><p><strong><font class='negOutcome'>You LOST</font><p>You bet: 3</strong></font> &nbsp; &nbsp; &nbsp; &nbsp; &nbsp; &nbsp;<font class='negOutcome'>You receive: <strong>0</strong></font></div>","null","14","Berry Bla$t","Fruit/mixed-berries2.png","Lost","0.65,0.2","10","0.65","152","40","",""
"","","","decision","63bd81516745e78ee7f50f7f","bdp_rwlrn","Mon Mar 13 2023 14:50:14 GMT-0400 (Eastern Daylight Time)","480843","Trustworthy,Untrustworthy","html-keyboard-response","130","272781","0.0-11.0-1.40","","","396","","<div class='trialDiv'><img src='Fruit/Kiwi.png'><br><font class='baseline'><strong>Kiwi Kash</strong><p>Choose number of points to bet.</font><div class='respPicDiv'><img src='img/responseButtonOffersNo0L.png' class='respPic'></div></div>","2","14","Kiwi Kash","Fruit/Kiwi.png","Lost","0.35,0.8","9","0.35","157","41","",""
"","","","decisionFB","63bd81516745e78ee7f50f7f","bdp_rwlrn","Mon Mar 13 2023 14:50:14 GMT-0400 (Eastern Daylight Time)","480843","Trustworthy,Untrustworthy","html-keyboard-response","131","273039","0.0-11.0-2.40","","","null","","<div class='trialDiv'><img src='Fruit/Kiwi.png'><br><font class='baseline'><strong>Kiwi Kash</strong><p>Choose number of points to bet.</font><div class='respPicDiv'><img src='img/responseButtonOffersNo0L2.png' class='respPic'></div></div>","null","14","Kiwi Kash","Fruit/Kiwi.png","Lost","0.35,0.8","9","0.35","155","41","",""
"","","","feedback","63bd81516745e78ee7f50f7f","bdp_rwlrn","Mon Mar 13 2023 14:50:14 GMT-0400 (Eastern Daylight Time)","480843","Trustworthy,Untrustworthy","html-keyboard-response","132","274049","0.0-11.0-3.40","","","null","","<div class='respPicDiv'><img src='img/responseButtonOffersNo0_wht.png' class='respPic'></div><div class='trialDiv'><img src='Fruit/Kiwi.png'><br><font class='baseline'><strong>Kiwi Kash</strong><p><strong><font class='negOutcome'>You LOST</font><p>You bet: 2</strong></font> &nbsp; &nbsp; &nbsp; &nbsp; &nbsp; &nbsp;<font class='negOutcome'>You receive: <strong>0</strong></font></div>","null","14","Kiwi Kash","Fruit/Kiwi.png","Lost","0.35,0.8","9","0.35","155","41","",""
"","","","decision","63bd81516745e78ee7f50f7f","bdp_rwlrn","Mon Mar 13 2023 14:50:14 GMT-0400 (Eastern Daylight Time)","480843","Trustworthy,Untrustworthy","html-keyboard-response","133","274456","0.0-11.0-1.41","","","405","","<div class='trialDiv'><img src='Fruit/pears.png'><br><font class='baseline'><strong>Pears Aplenty</strong><p>Choose number of points to bet.</font><div class='respPicDiv'><img src='img/responseButtonOffersNo0L.png' class='respPic'></div></div>","5","14","Pears Aplenty","Fruit/pears.png","Won","0.2,0.8","14","0.2","160","42","",""
"","","","decisionFB","63bd81516745e78ee7f50f7f","bdp_rwlrn","Mon Mar 13 2023 14:50:14 GMT-0400 (Eastern Daylight Time)","480843","Trustworthy,Untrustworthy","html-keyboard-response","134","274711","0.0-11.0-2.41","","","null","","<div class='trialDiv'><img src='Fruit/pears.png'><br><font class='baseline'><strong>Pears Aplenty</strong><p>Choose number of points to bet.</font><div class='respPicDiv'><img src='img/responseButtonOffersNo0L5.png' class='respPic'></div></div>","null","14","Pears Aplenty","Fruit/pears.png","Won","0.2,0.8","14","0.2","155","42","",""
"","","","feedback","63bd81516745e78ee7f50f7f","bdp_rwlrn","Mon Mar 13 2023 14:50:14 GMT-0400 (Eastern Daylight Time)","480843","Trustworthy,Untrustworthy","html-keyboard-response","135","275723","0.0-11.0-3.41","","","null","","<div class='respPicDiv'><img src='img/responseButtonOffersNo0_wht.png' class='respPic'></div><div class='trialDiv'><img src='Fruit/pears.png'><br><font class='baseline'><strong>Pears Aplenty</strong><p><strong><font class='posOutcome'>You WON</font><p>You bet: 5</strong></font> &nbsp; &nbsp; &nbsp; &nbsp; &nbsp; &nbsp;<font class='posOutcome'>you receive: <strong>10</strong></font></div>","null","14","Pears Aplenty","Fruit/pears.png","Won","0.2,0.8","14","0.2","165","42","",""
"","","","decision","63bd81516745e78ee7f50f7f","bdp_rwlrn","Mon Mar 13 2023 14:50:14 GMT-0400 (Eastern Daylight Time)","480843","Trustworthy,Untrustworthy","html-keyboard-response","136","276307","0.0-11.0-1.42","","","583","","<div class='trialDiv'><img src='Fruit/Kiwi.png'><br><font class='baseline'><strong>Kiwi Kash</strong><p>Choose number of points to bet.</font><div class='respPicDiv'><img src='img/responseButtonOffersNo0L.png' class='respPic'></div></div>","5","15","Kiwi Kash","Fruit/Kiwi.png","Lost","0.35,0.8","9","0.35","170","43","",""
"","","","decisionFB","63bd81516745e78ee7f50f7f","bdp_rwlrn","Mon Mar 13 2023 14:50:14 GMT-0400 (Eastern Daylight Time)","480843","Trustworthy,Untrustworthy","html-keyboard-response","137","276570","0.0-11.0-2.42","","","null","","<div class='trialDiv'><img src='Fruit/Kiwi.png'><br><font class='baseline'><strong>Kiwi Kash</strong><p>Choose number of points to bet.</font><div class='respPicDiv'><img src='img/responseButtonOffersNo0L5.png' class='respPic'></div></div>","null","15","Kiwi Kash","Fruit/Kiwi.png","Lost","0.35,0.8","9","0.35","165","43","",""
"","","","feedback","63bd81516745e78ee7f50f7f","bdp_rwlrn","Mon Mar 13 2023 14:50:14 GMT-0400 (Eastern Daylight Time)","480843","Trustworthy,Untrustworthy","html-keyboard-response","138","277579","0.0-11.0-3.42","","","null","","<div class='respPicDiv'><img src='img/responseButtonOffersNo0_wht.png' class='respPic'></div><div class='trialDiv'><img src='Fruit/Kiwi.png'><br><font class='baseline'><strong>Kiwi Kash</strong><p><strong><font class='negOutcome'>You LOST</font><p>You bet: 5</strong></font> &nbsp; &nbsp; &nbsp; &nbsp; &nbsp; &nbsp;<font class='negOutcome'>You receive: <strong>0</strong></font></div>","null","15","Kiwi Kash","Fruit/Kiwi.png","Lost","0.35,0.8","9","0.35","165","43","",""
"","","","decision","63bd81516745e78ee7f50f7f","bdp_rwlrn","Mon Mar 13 2023 14:50:14 GMT-0400 (Eastern Daylight Time)","480843","Trustworthy,Untrustworthy","html-keyboard-response","139","277918","0.0-11.0-1.43","","","337","","<div class='trialDiv'><img src='Fruit/mixed-berries2.png'><br><font class='baseline'><strong>Berry Bla$t</strong><p>Choose number of points to bet.</font><div class='respPicDiv'><img src='img/responseButtonOffersNo0L.png' class='respPic'></div></div>","5","15","Berry Bla$t","Fruit/mixed-berries2.png","Lost","0.65,0.2","10","0.65","170","44","",""
"","","","decisionFB","63bd81516745e78ee7f50f7f","bdp_rwlrn","Mon Mar 13 2023 14:50:14 GMT-0400 (Eastern Daylight Time)","480843","Trustworthy,Untrustworthy","html-keyboard-response","140","278176","0.0-11.0-2.43","","","null","","<div class='trialDiv'><img src='Fruit/mixed-berries2.png'><br><font class='baseline'><strong>Berry Bla$t</strong><p>Choose number of points to bet.</font><div class='respPicDiv'><img src='img/responseButtonOffersNo0L5.png' class='respPic'></div></div>","null","15","Berry Bla$t","Fruit/mixed-berries2.png","Lost","0.65,0.2","10","0.65","165","44","",""
"","","","feedback","63bd81516745e78ee7f50f7f","bdp_rwlrn","Mon Mar 13 2023 14:50:14 GMT-0400 (Eastern Daylight Time)","480843","Trustworthy,Untrustworthy","html-keyboard-response","141","279183","0.0-11.0-3.43","","","null","","<div class='respPicDiv'><img src='img/responseButtonOffersNo0_wht.png' class='respPic'></div><div class='trialDiv'><img src='Fruit/mixed-berries2.png'><br><font class='baseline'><strong>Berry Bla$t</strong><p><strong><font class='negOutcome'>You LOST</font><p>You bet: 5</strong></font> &nbsp; &nbsp; &nbsp; &nbsp; &nbsp; &nbsp;<font class='negOutcome'>You receive: <strong>0</strong></font></div>","null","15","Berry Bla$t","Fruit/mixed-berries2.png","Lost","0.65,0.2","10","0.65","165","44","",""
"","","","decision","63bd81516745e78ee7f50f7f","bdp_rwlrn","Mon Mar 13 2023 14:50:14 GMT-0400 (Eastern Daylight Time)","480843","Trustworthy,Untrustworthy","html-keyboard-response","142","279566","0.0-11.0-1.44","","","381","","<div class='trialDiv'><img src='Fruit/pears.png'><br><font class='baseline'><strong>Pears Aplenty</strong><p>Choose number of points to bet.</font><div class='respPicDiv'><img src='img/responseButtonOffersNo0L.png' class='respPic'></div></div>","5","15","Pears Aplenty","Fruit/pears.png","Won","0.2,0.8","14","0.2","170","45","",""
"","","","decisionFB","63bd81516745e78ee7f50f7f","bdp_rwlrn","Mon Mar 13 2023 14:50:14 GMT-0400 (Eastern Daylight Time)","480843","Trustworthy,Untrustworthy","html-keyboard-response","143","279827","0.0-11.0-2.44","","","null","","<div class='trialDiv'><img src='Fruit/pears.png'><br><font class='baseline'><strong>Pears Aplenty</strong><p>Choose number of points to bet.</font><div class='respPicDiv'><img src='img/responseButtonOffersNo0L5.png' class='respPic'></div></div>","null","15","Pears Aplenty","Fruit/pears.png","Won","0.2,0.8","14","0.2","165","45","",""
"","","","feedback","63bd81516745e78ee7f50f7f","bdp_rwlrn","Mon Mar 13 2023 14:50:14 GMT-0400 (Eastern Daylight Time)","480843","Trustworthy,Untrustworthy","html-keyboard-response","144","280831","0.0-11.0-3.44","","","null","","<div class='respPicDiv'><img src='img/responseButtonOffersNo0_wht.png' class='respPic'></div><div class='trialDiv'><img src='Fruit/pears.png'><br><font class='baseline'><strong>Pears Aplenty</strong><p><strong><font class='posOutcome'>You WON</font><p>You bet: 5</strong></font> &nbsp; &nbsp; &nbsp; &nbsp; &nbsp; &nbsp;<font class='posOutcome'>you receive: <strong>10</strong></font></div>","null","15","Pears Aplenty","Fruit/pears.png","Won","0.2,0.8","14","0.2","175","45","",""
"","","","decision","63bd81516745e78ee7f50f7f","bdp_rwlrn","Mon Mar 13 2023 14:50:14 GMT-0400 (Eastern Daylight Time)","480843","Trustworthy,Untrustworthy","html-keyboard-response","145","281234","0.0-11.0-1.45","","","402","","<div class='trialDiv'><img src='Fruit/Kiwi.png'><br><font class='baseline'><strong>Kiwi Kash</strong><p>Choose number of points to bet.</font><div class='respPicDiv'><img src='img/responseButtonOffersNo0L.png' class='respPic'></div></div>","2","16","Kiwi Kash","Fruit/Kiwi.png","Won","0.35,0.8","9","0.35","180","46","",""
"","","","decisionFB","63bd81516745e78ee7f50f7f","bdp_rwlrn","Mon Mar 13 2023 14:50:14 GMT-0400 (Eastern Daylight Time)","480843","Trustworthy,Untrustworthy","html-keyboard-response","146","281487","0.0-11.0-2.45","","","null","","<div class='trialDiv'><img src='Fruit/Kiwi.png'><br><font class='baseline'><strong>Kiwi Kash</strong><p>Choose number of points to bet.</font><div class='respPicDiv'><img src='img/responseButtonOffersNo0L2.png' class='respPic'></div></div>","null","16","Kiwi Kash","Fruit/Kiwi.png","Won","0.35,0.8","9","0.35","178","46","",""
"","","","feedback","63bd81516745e78ee7f50f7f","bdp_rwlrn","Mon Mar 13 2023 14:50:14 GMT-0400 (Eastern Daylight Time)","480843","Trustworthy,Untrustworthy","html-keyboard-response","147","282497","0.0-11.0-3.45","","","null","","<div class='respPicDiv'><img src='img/responseButtonOffersNo0_wht.png' class='respPic'></div><div class='trialDiv'><img src='Fruit/Kiwi.png'><br><font class='baseline'><strong>Kiwi Kash</strong><p><strong><font class='posOutcome'>You WON</font><p>You bet: 2</strong></font> &nbsp; &nbsp; &nbsp; &nbsp; &nbsp; &nbsp;<font class='posOutcome'>you receive: <strong>4</strong></font></div>","null","16","Kiwi Kash","Fruit/Kiwi.png","Won","0.35,0.8","9","0.35","182","46","",""
"","","","decision","63bd81516745e78ee7f50f7f","bdp_rwlrn","Mon Mar 13 2023 14:50:14 GMT-0400 (Eastern Daylight Time)","480843","Trustworthy,Untrustworthy","html-keyboard-response","148","282868","0.0-11.0-1.46","","","370","","<div class='trialDiv'><img src='Fruit/pears.png'><br><font class='baseline'><strong>Pears Aplenty</strong><p>Choose number of points to bet.</font><div class='respPicDiv'><img src='img/responseButtonOffersNo0L.png' class='respPic'></div></div>","5","16","Pears Aplenty","Fruit/pears.png","Won","0.2,0.8","14","0.2","187","47","",""
"","","","decisionFB","63bd81516745e78ee7f50f7f","bdp_rwlrn","Mon Mar 13 2023 14:50:14 GMT-0400 (Eastern Daylight Time)","480843","Trustworthy,Untrustworthy","html-keyboard-response","149","283127","0.0-11.0-2.46","","","null","","<div class='trialDiv'><img src='Fruit/pears.png'><br><font class='baseline'><strong>Pears Aplenty</strong><p>Choose number of points to bet.</font><div class='respPicDiv'><img src='img/responseButtonOffersNo0L5.png' class='respPic'></div></div>","null","16","Pears Aplenty","Fruit/pears.png","Won","0.2,0.8","14","0.2","182","47","",""
"","","","feedback","63bd81516745e78ee7f50f7f","bdp_rwlrn","Mon Mar 13 2023 14:50:14 GMT-0400 (Eastern Daylight Time)","480843","Trustworthy,Untrustworthy","html-keyboard-response","150","284135","0.0-11.0-3.46","","","null","","<div class='respPicDiv'><img src='img/responseButtonOffersNo0_wht.png' class='respPic'></div><div class='trialDiv'><img src='Fruit/pears.png'><br><font class='baseline'><strong>Pears Aplenty</strong><p><strong><font class='posOutcome'>You WON</font><p>You bet: 5</strong></font> &nbsp; &nbsp; &nbsp; &nbsp; &nbsp; &nbsp;<font class='posOutcome'>you receive: <strong>10</strong></font></div>","null","16","Pears Aplenty","Fruit/pears.png","Won","0.2,0.8","14","0.2","192","47","",""
"","","","decision","63bd81516745e78ee7f50f7f","bdp_rwlrn","Mon Mar 13 2023 14:50:14 GMT-0400 (Eastern Daylight Time)","480843","Trustworthy,Untrustworthy","html-keyboard-response","151","284504","0.0-11.0-1.47","","","368","","<div class='trialDiv'><img src='Fruit/mixed-berries2.png'><br><font class='baseline'><strong>Berry Bla$t</strong><p>Choose number of points to bet.</font><div class='respPicDiv'><img src='img/responseButtonOffersNo0L.png' class='respPic'></div></div>","5","16","Berry Bla$t","Fruit/mixed-berries2.png","Lost","0.65,0.2","10","0.65","197","48","",""
"","","","decisionFB","63bd81516745e78ee7f50f7f","bdp_rwlrn","Mon Mar 13 2023 14:50:14 GMT-0400 (Eastern Daylight Time)","480843","Trustworthy,Untrustworthy","html-keyboard-response","152","284759","0.0-11.0-2.47","","","null","","<div class='trialDiv'><img src='Fruit/mixed-berries2.png'><br><font class='baseline'><strong>Berry Bla$t</strong><p>Choose number of points to bet.</font><div class='respPicDiv'><img src='img/responseButtonOffersNo0L5.png' class='respPic'></div></div>","null","16","Berry Bla$t","Fruit/mixed-berries2.png","Lost","0.65,0.2","10","0.65","192","48","",""
"","","","feedback","63bd81516745e78ee7f50f7f","bdp_rwlrn","Mon Mar 13 2023 14:50:14 GMT-0400 (Eastern Daylight Time)","480843","Trustworthy,Untrustworthy","html-keyboard-response","153","285767","0.0-11.0-3.47","","","null","","<div class='respPicDiv'><img src='img/responseButtonOffersNo0_wht.png' class='respPic'></div><div class='trialDiv'><img src='Fruit/mixed-berries2.png'><br><font class='baseline'><strong>Berry Bla$t</strong><p><strong><font class='negOutcome'>You LOST</font><p>You bet: 5</strong></font> &nbsp; &nbsp; &nbsp; &nbsp; &nbsp; &nbsp;<font class='negOutcome'>You receive: <strong>0</strong></font></div>","null","16","Berry Bla$t","Fruit/mixed-berries2.png","Lost","0.65,0.2","10","0.65","192","48","",""
"","","","decision","63bd81516745e78ee7f50f7f","bdp_rwlrn","Mon Mar 13 2023 14:50:14 GMT-0400 (Eastern Daylight Time)","480843","Trustworthy,Untrustworthy","html-keyboard-response","154","286119","0.0-11.0-1.48","","","350","","<div class='trialDiv'><img src='Fruit/Kiwi.png'><br><font class='baseline'><strong>Kiwi Kash</strong><p>Choose number of points to bet.</font><div class='respPicDiv'><img src='img/responseButtonOffersNo0L.png' class='respPic'></div></div>","5","17","Kiwi Kash","Fruit/Kiwi.png","Won","0.35,0.8","9","0.35","197","49","",""
"","","","decisionFB","63bd81516745e78ee7f50f7f","bdp_rwlrn","Mon Mar 13 2023 14:50:14 GMT-0400 (Eastern Daylight Time)","480843","Trustworthy,Untrustworthy","html-keyboard-response","155","286379","0.0-11.0-2.48","","","null","","<div class='trialDiv'><img src='Fruit/Kiwi.png'><br><font class='baseline'><strong>Kiwi Kash</strong><p>Choose number of points to bet.</font><div class='respPicDiv'><img src='img/responseButtonOffersNo0L5.png' class='respPic'></div></div>","null","17","Kiwi Kash","Fruit/Kiwi.png","Won","0.35,0.8","9","0.35","192","49","",""
"","","","feedback","63bd81516745e78ee7f50f7f","bdp_rwlrn","Mon Mar 13 2023 14:50:14 GMT-0400 (Eastern Daylight Time)","480843","Trustworthy,Untrustworthy","html-keyboard-response","156","287385","0.0-11.0-3.48","","","null","","<div class='respPicDiv'><img src='img/responseButtonOffersNo0_wht.png' class='respPic'></div><div class='trialDiv'><img src='Fruit/Kiwi.png'><br><font class='baseline'><strong>Kiwi Kash</strong><p><strong><font class='posOutcome'>You WON</font><p>You bet: 5</strong></font> &nbsp; &nbsp; &nbsp; &nbsp; &nbsp; &nbsp;<font class='posOutcome'>you receive: <strong>10</strong></font></div>","null","17","Kiwi Kash","Fruit/Kiwi.png","Won","0.35,0.8","9","0.35","202","49","",""
"","","","decision","63bd81516745e78ee7f50f7f","bdp_rwlrn","Mon Mar 13 2023 14:50:14 GMT-0400 (Eastern Daylight Time)","480843","Trustworthy,Untrustworthy","html-keyboard-response","157","288019","0.0-11.0-1.49","","","633","","<div class='trialDiv'><img src='Fruit/mixed-berries2.png'><br><font class='baseline'><strong>Berry Bla$t</strong><p>Choose number of points to bet.</font><div class='respPicDiv'><img src='img/responseButtonOffersNo0L.png' class='respPic'></div></div>","5","17","Berry Bla$t","Fruit/mixed-berries2.png","Lost","0.65,0.2","10","0.65","207","50","",""
"","","","decisionFB","63bd81516745e78ee7f50f7f","bdp_rwlrn","Mon Mar 13 2023 14:50:14 GMT-0400 (Eastern Daylight Time)","480843","Trustworthy,Untrustworthy","html-keyboard-response","158","288275","0.0-11.0-2.49","","","null","","<div class='trialDiv'><img src='Fruit/mixed-berries2.png'><br><font class='baseline'><strong>Berry Bla$t</strong><p>Choose number of points to bet.</font><div class='respPicDiv'><img src='img/responseButtonOffersNo0L5.png' class='respPic'></div></div>","null","17","Berry Bla$t","Fruit/mixed-berries2.png","Lost","0.65,0.2","10","0.65","202","50","",""
"","","","feedback","63bd81516745e78ee7f50f7f","bdp_rwlrn","Mon Mar 13 2023 14:50:14 GMT-0400 (Eastern Daylight Time)","480843","Trustworthy,Untrustworthy","html-keyboard-response","159","289282","0.0-11.0-3.49","","","null","","<div class='respPicDiv'><img src='img/responseButtonOffersNo0_wht.png' class='respPic'></div><div class='trialDiv'><img src='Fruit/mixed-berries2.png'><br><font class='baseline'><strong>Berry Bla$t</strong><p><strong><font class='negOutcome'>You LOST</font><p>You bet: 5</strong></font> &nbsp; &nbsp; &nbsp; &nbsp; &nbsp; &nbsp;<font class='negOutcome'>You receive: <strong>0</strong></font></div>","null","17","Berry Bla$t","Fruit/mixed-berries2.png","Lost","0.65,0.2","10","0.65","202","50","",""
"","","","decision","63bd81516745e78ee7f50f7f","bdp_rwlrn","Mon Mar 13 2023 14:50:14 GMT-0400 (Eastern Daylight Time)","480843","Trustworthy,Untrustworthy","html-keyboard-response","160","289611","0.0-11.0-1.50","","","328","","<div class='trialDiv'><img src='Fruit/pears.png'><br><font class='baseline'><strong>Pears Aplenty</strong><p>Choose number of points to bet.</font><div class='respPicDiv'><img src='img/responseButtonOffersNo0L.png' class='respPic'></div></div>","2","17","Pears Aplenty","Fruit/pears.png","Won","0.2,0.8","14","0.2","207","51","",""
"","","","decisionFB","63bd81516745e78ee7f50f7f","bdp_rwlrn","Mon Mar 13 2023 14:50:14 GMT-0400 (Eastern Daylight Time)","480843","Trustworthy,Untrustworthy","html-keyboard-response","161","289872","0.0-11.0-2.50","","","null","","<div class='trialDiv'><img src='Fruit/pears.png'><br><font class='baseline'><strong>Pears Aplenty</strong><p>Choose number of points to bet.</font><div class='respPicDiv'><img src='img/responseButtonOffersNo0L2.png' class='respPic'></div></div>","null","17","Pears Aplenty","Fruit/pears.png","Won","0.2,0.8","14","0.2","205","51","",""
