"trial_type","trial_index","time_elapsed","internal_node_id","subject_id","task","startTime","totalTime","labels","view_history","rt","event","trial","time","trialtype","numBlurs","success","stimulus","key_press","ltround","name","fileID","outcome","lottotype","lottoswpt","lottocurrpshare","point_total","round","faceID","face"
"pavlovia","0","1","0.0-0.0","5f9873550513db147c9d2958","bdp_rwlrn","Tue Mar 14 2023 13:51:14 GMT-0400 (Eastern Daylight Time)","405394","Untrustworthy,Trustworthy","","","","","","","","","","","","","","","","","","","","",""
"instructions","1","2255","0.0-1.0","5f9873550513db147c9d2958","bdp_rwlrn","Tue Mar 14 2023 13:51:14 GMT-0400 (Eastern Daylight Time)","405394","Untrustworthy,Trustworthy","[{""page_index"":0,""viewing_time"":2253}]","2253","","","","","","","","","","","","","","","","","","",""
"","","","","5f9873550513db147c9d2958","bdp_rwlrn","Tue Mar 14 2023 13:51:14 GMT-0400 (Eastern Daylight Time)","405394","Untrustworthy,Trustworthy","","","blur","2","4921","blurevent","1","","","","","","","","","","","","","",""
"","","","","5f9873550513db147c9d2958","bdp_rwlrn","Tue Mar 14 2023 13:51:14 GMT-0400 (Eastern Daylight Time)","405394","Untrustworthy,Trustworthy","","","focus","2","7840","focusevent","","","","","","","","","","","","","","",""
"","","","","5f9873550513db147c9d2958","bdp_rwlrn","Tue Mar 14 2023 13:51:14 GMT-0400 (Eastern Daylight Time)","405394","Untrustworthy,Trustworthy","","","focus","2","7840","focusevent","","","","","","","","","","","","","","",""
"","","","","5f9873550513db147c9d2958","bdp_rwlrn","Tue Mar 14 2023 13:51:14 GMT-0400 (Eastern Daylight Time)","405394","Untrustworthy,Trustworthy","","","fullscreenenter","2","8917","fullscreenenter","","","","","","","","","","","","","","",""
"fullscreen","2","9845","0.0-2.0","5f9873550513db147c9d2958","bdp_rwlrn","Tue Mar 14 2023 13:51:14 GMT-0400 (Eastern Daylight Time)","405394","Untrustworthy,Trustworthy","","","","","","","","true","","","","","","","","","","","","",""
"instructions","3","63523","0.0-4.0","5f9873550513db147c9d2958","bdp_rwlrn","Tue Mar 14 2023 13:51:14 GMT-0400 (Eastern Daylight Time)","405394","Untrustworthy,Trustworthy","[{""page_index"":0,""viewing_time"":13023},{""page_index"":1,""viewing_time"":10437},{""page_index"":2,""viewing_time"":5280},{""page_index"":3,""viewing_time"":4936},{""page_index"":4,""viewing_time"":17422},{""page_index"":5,""viewing_time"":2579}]","53677","","","","","","","","","","","","","","","","","","",""
"html-keyboard-response","4","68897","0.0-5.0","5f9873550513db147c9d2958","bdp_rwlrn","Tue Mar 14 2023 13:51:14 GMT-0400 (Eastern Daylight Time)","405394","Untrustworthy,Trustworthy","","5373","","","","","","","<div class='header' style='text-align:left; position: absolute; top: 5%; left: 5%;'><small>Task 3 of 5</small></div><div class='instruxDiv'><p><strong>1) What is the maximum number of points you can choose to bet on a lottery?</strong></p><p>a) 0</p><p>b) 1</p><p>c) 5</p>","C","","","","","","","","","","",""
"html-keyboard-response","5","69753","0.0-6.0","5f9873550513db147c9d2958","bdp_rwlrn","Tue Mar 14 2023 13:51:14 GMT-0400 (Eastern Daylight Time)","405394","Untrustworthy,Trustworthy","","754","","","","","","","<div class='header' style='text-align:left; position: absolute; top: 5%; left: 5%;'><small>Task 3 of 5</small></div><div class='instruxDiv'><p><strong>1) What is the maximum number of points you can choose to bet on a lottery?</strong></p><p>a) 1</p><p>b) 1</p><p style='color:#00FF00'>c) 5</p><h3 style='color:#00FF00'>Correct!</h3><h3 class='center-content'>The correct response is c).</h3><h3 class='center-content'>The maximum number of points you can choose to bet on a lottery is 5 points.</h3><p><em>Press SPACEBAR to continue</em></p></div>"," ","","","","","","","","","","",""
"html-keyboard-response","6","74566","0.0-7.0","5f9873550513db147c9d2958","bdp_rwlrn","Tue Mar 14 2023 13:51:14 GMT-0400 (Eastern Daylight Time)","405394","Untrustworthy,Trustworthy","","4711","","","","","","","<div class='header' style='text-align:left; position: absolute; top: 5%; left: 5%;'><small>Task 3 of 5</small></div><div class='instruxDiv'><p><strong>2) How many points can you win each round?</strong></p><p>a) 10 points</p><p>b) Double what you bet</p><p>c) Quadruple what you bet</p>","B","","","","","","","","","","",""
"html-keyboard-response","7","75175","0.0-8.0","5f9873550513db147c9d2958","bdp_rwlrn","Tue Mar 14 2023 13:51:14 GMT-0400 (Eastern Daylight Time)","405394","Untrustworthy,Trustworthy","","507","","","","","","","<div class='header' style='text-align:left; position: absolute; top: 5%; left: 5%;'><small>Task 3 of 5</small></div><div class='instruxDiv'><p><strong>2) How many points can you win each round?</strong></p><p>a) 10 points</p><p style='color:#00FF00'>b) Double what you bet</p><p>c) Quadruple what you bet</p><h3 style='color:#00FF00'>Correct!</h3><h3 class='center-content'>The correct response is b).</h3><h3 class='center-content'>You can win double the amount of points you bet.</h3><p><em>Press SPACEBAR to continue</em></p></div>"," ","","","","","","","","","","",""
"html-keyboard-response","8","80278","0.0-9.0","5f9873550513db147c9d2958","bdp_rwlrn","Tue Mar 14 2023 13:51:14 GMT-0400 (Eastern Daylight Time)","405394","Untrustworthy,Trustworthy","","null","","","","","","","<div class='header' style='text-align:left; position: absolute; top: 5%; left: 5%;'><small>Task 3 of 5</small></div><div class='instruxDiv'><p>Thank you for completing the quiz<p>These are the actual lotteries you will be playing in the next block:<p><div class='tc' align='center'><img class='introPic' src='Fruit/apple.png'><br><strong>Awesome Apples</strong></div><div class='bl' align='center'><img class='introPic' src='Fruit/Kiwi.png'><br><strong>Kiwi Kash</strong></div><div class='br' align='center'><img class='introPic' src='Fruit/pineapple.png'><br><strong>Primo Pineapple</strong></div></div><p>Across <strong>66 rounds</strong> you will play each lottery <strong>22 times</strong> (in random order).<p style='align:center; color:white'><font <em>Press SPACEBAR to continue</em></p>","null","","","","","","","","","","",""
"instructions","9","82930","0.0-10.0","5f9873550513db147c9d2958","bdp_rwlrn","Tue Mar 14 2023 13:51:14 GMT-0400 (Eastern Daylight Time)","405394","Untrustworthy,Trustworthy","[{""page_index"":0,""viewing_time"":671},{""page_index"":1,""viewing_time"":1980}]","2651","","","","","","","","","","","","","","","","","","",""
"html-keyboard-response","10","84776","0.0-11.0-1.0","5f9873550513db147c9d2958","bdp_rwlrn","Tue Mar 14 2023 13:51:14 GMT-0400 (Eastern Daylight Time)","405394","Untrustworthy,Trustworthy","","1743","","","","decision","","","<div class='trialDiv'><img src='Fruit/Kiwi.png'><br><font class='baseline'><strong>Kiwi Kash</strong><p>Choose number of points to bet.</font><div class='respPicDiv'><img src='img/responseButtonOffersNo0L.png' class='respPic'></div></div>","3","1","Kiwi Kash","Fruit/Kiwi.png","Lost","0.8,0.2","9","0.8","5","1","",""
"html-keyboard-response","11","85028","0.0-11.0-2.0","5f9873550513db147c9d2958","bdp_rwlrn","Tue Mar 14 2023 13:51:14 GMT-0400 (Eastern Daylight Time)","405394","Untrustworthy,Trustworthy","","null","","","","decisionFB","","","<div class='trialDiv'><img src='Fruit/Kiwi.png'><br><font class='baseline'><strong>Kiwi Kash</strong><p>Choose number of points to bet.</font><div class='respPicDiv'><img src='img/responseButtonOffersNo0L3.png' class='respPic'></div></div>","null","1","Kiwi Kash","Fruit/Kiwi.png","Lost","0.8,0.2","9","0.8","2","1","",""
"html-keyboard-response","12","86031","0.0-11.0-3.0","5f9873550513db147c9d2958","bdp_rwlrn","Tue Mar 14 2023 13:51:14 GMT-0400 (Eastern Daylight Time)","405394","Untrustworthy,Trustworthy","","null","","","","feedback","","","<div class='respPicDiv'><img src='img/responseButtonOffersNo0_wht.png' class='respPic'></div><div class='trialDiv'><img src='Fruit/Kiwi.png'><br><font class='baseline'><strong>Kiwi Kash</strong><p><strong><font class='negOutcome'>You LOST</font><p>You bet: 3</strong></font> &nbsp; &nbsp; &nbsp; &nbsp; &nbsp; &nbsp;<font class='negOutcome'>You receive: <strong>0</strong></font></div>","null","1","Kiwi Kash","Fruit/Kiwi.png","Lost","0.8,0.2","9","0.8","2","1","",""
"html-keyboard-response","13","87185","0.0-11.0-1.1","5f9873550513db147c9d2958","bdp_rwlrn","Tue Mar 14 2023 13:51:14 GMT-0400 (Eastern Daylight Time)","405394","Untrustworthy,Trustworthy","","1153","","","","decision","","","<div class='trialDiv'><img src='Fruit/pineapple.png'><br><font class='baseline'><strong>Primo Pineapple</strong><p>Choose number of points to bet.</font><div class='respPicDiv'><img src='img/responseButtonOffersNo0L.png' class='respPic'></div></div>","3","1","Primo Pineapple","Fruit/pineapple.png","Won","0.8,0.35","12","0.8","7","2","",""
"html-keyboard-response","14","87437","0.0-11.0-2.1","5f9873550513db147c9d2958","bdp_rwlrn","Tue Mar 14 2023 13:51:14 GMT-0400 (Eastern Daylight Time)","405394","Untrustworthy,Trustworthy","","null","","","","decisionFB","","","<div class='trialDiv'><img src='Fruit/pineapple.png'><br><font class='baseline'><strong>Primo Pineapple</strong><p>Choose number of points to bet.</font><div class='respPicDiv'><img src='img/responseButtonOffersNo0L3.png' class='respPic'></div></div>","null","1","Primo Pineapple","Fruit/pineapple.png","Won","0.8,0.35","12","0.8","4","2","",""
"html-keyboard-response","15","88439","0.0-11.0-3.1","5f9873550513db147c9d2958","bdp_rwlrn","Tue Mar 14 2023 13:51:14 GMT-0400 (Eastern Daylight Time)","405394","Untrustworthy,Trustworthy","","null","","","","feedback","","","<div class='respPicDiv'><img src='img/responseButtonOffersNo0_wht.png' class='respPic'></div><div class='trialDiv'><img src='Fruit/pineapple.png'><br><font class='baseline'><strong>Primo Pineapple</strong><p><strong><font class='posOutcome'>You WON</font><p>You bet: 3</strong></font> &nbsp; &nbsp; &nbsp; &nbsp; &nbsp; &nbsp;<font class='posOutcome'>you receive: <strong>6</strong></font></div>","null","1","Primo Pineapple","Fruit/pineapple.png","Won","0.8,0.35","12","0.8","10","2","",""
"html-keyboard-response","16","89425","0.0-11.0-1.2","5f9873550513db147c9d2958","bdp_rwlrn","Tue Mar 14 2023 13:51:14 GMT-0400 (Eastern Daylight Time)","405394","Untrustworthy,Trustworthy","","985","","","","decision","","","<div class='trialDiv'><img src='Fruit/apple.png'><br><font class='baseline'><strong>Awesome Apples</strong><p>Choose number of points to bet.</font><div class='respPicDiv'><img src='img/responseButtonOffersNo0L.png' class='respPic'></div></div>","3","1","Awesome Apples","Fruit/apple.png","Won","0.35,0.8","9","0.35","15","3","",""
"html-keyboard-response","17","89677","0.0-11.0-2.2","5f9873550513db147c9d2958","bdp_rwlrn","Tue Mar 14 2023 13:51:14 GMT-0400 (Eastern Daylight Time)","405394","Untrustworthy,Trustworthy","","null","","","","decisionFB","","","<div class='trialDiv'><img src='Fruit/apple.png'><br><font class='baseline'><strong>Awesome Apples</strong><p>Choose number of points to bet.</font><div class='respPicDiv'><img src='img/responseButtonOffersNo0L3.png' class='respPic'></div></div>","null","1","Awesome Apples","Fruit/apple.png","Won","0.35,0.8","9","0.35","12","3","",""
"html-keyboard-response","18","90679","0.0-11.0-3.2","5f9873550513db147c9d2958","bdp_rwlrn","Tue Mar 14 2023 13:51:14 GMT-0400 (Eastern Daylight Time)","405394","Untrustworthy,Trustworthy","","null","","","","feedback","","","<div class='respPicDiv'><img src='img/responseButtonOffersNo0_wht.png' class='respPic'></div><div class='trialDiv'><img src='Fruit/apple.png'><br><font class='baseline'><strong>Awesome Apples</strong><p><strong><font class='posOutcome'>You WON</font><p>You bet: 3</strong></font> &nbsp; &nbsp; &nbsp; &nbsp; &nbsp; &nbsp;<font class='posOutcome'>you receive: <strong>6</strong></font></div>","null","1","Awesome Apples","Fruit/apple.png","Won","0.35,0.8","9","0.35","18","3","",""
"html-keyboard-response","19","91431","0.0-11.0-1.3","5f9873550513db147c9d2958","bdp_rwlrn","Tue Mar 14 2023 13:51:14 GMT-0400 (Eastern Daylight Time)","405394","Untrustworthy,Trustworthy","","751","","","","decision","","","<div class='trialDiv'><img src='Fruit/Kiwi.png'><br><font class='baseline'><strong>Kiwi Kash</strong><p>Choose number of points to bet.</font><div class='respPicDiv'><img src='img/responseButtonOffersNo0L.png' class='respPic'></div></div>","1","2","Kiwi Kash","Fruit/Kiwi.png","Lost","0.8,0.2","9","0.8","23","4","",""
"html-keyboard-response","20","91684","0.0-11.0-2.3","5f9873550513db147c9d2958","bdp_rwlrn","Tue Mar 14 2023 13:51:14 GMT-0400 (Eastern Daylight Time)","405394","Untrustworthy,Trustworthy","","null","","","","decisionFB","","","<div class='trialDiv'><img src='Fruit/Kiwi.png'><br><font class='baseline'><strong>Kiwi Kash</strong><p>Choose number of points to bet.</font><div class='respPicDiv'><img src='img/responseButtonOffersNo0L1.png' class='respPic'></div></div>","null","2","Kiwi Kash","Fruit/Kiwi.png","Lost","0.8,0.2","9","0.8","22","4","",""
"html-keyboard-response","21","92686","0.0-11.0-3.3","5f9873550513db147c9d2958","bdp_rwlrn","Tue Mar 14 2023 13:51:14 GMT-0400 (Eastern Daylight Time)","405394","Untrustworthy,Trustworthy","","null","","","","feedback","","","<div class='respPicDiv'><img src='img/responseButtonOffersNo0_wht.png' class='respPic'></div><div class='trialDiv'><img src='Fruit/Kiwi.png'><br><font class='baseline'><strong>Kiwi Kash</strong><p><strong><font class='negOutcome'>You LOST</font><p>You bet: 1</strong></font> &nbsp; &nbsp; &nbsp; &nbsp; &nbsp; &nbsp;<font class='negOutcome'>You receive: <strong>0</strong></font></div>","null","2","Kiwi Kash","Fruit/Kiwi.png","Lost","0.8,0.2","9","0.8","22","4","",""
"html-keyboard-response","22","93968","0.0-11.0-1.4","5f9873550513db147c9d2958","bdp_rwlrn","Tue Mar 14 2023 13:51:14 GMT-0400 (Eastern Daylight Time)","405394","Untrustworthy,Trustworthy","","1282","","","","decision","","","<div class='trialDiv'><img src='Fruit/apple.png'><br><font class='baseline'><strong>Awesome Apples</strong><p>Choose number of points to bet.</font><div class='respPicDiv'><img src='img/responseButtonOffersNo0L.png' class='respPic'></div></div>","5","2","Awesome Apples","Fruit/apple.png","Lost","0.35,0.8","9","0.35","27","5","",""
"html-keyboard-response","23","94220","0.0-11.0-2.4","5f9873550513db147c9d2958","bdp_rwlrn","Tue Mar 14 2023 13:51:14 GMT-0400 (Eastern Daylight Time)","405394","Untrustworthy,Trustworthy","","null","","","","decisionFB","","","<div class='trialDiv'><img src='Fruit/apple.png'><br><font class='baseline'><strong>Awesome Apples</strong><p>Choose number of points to bet.</font><div class='respPicDiv'><img src='img/responseButtonOffersNo0L5.png' class='respPic'></div></div>","null","2","Awesome Apples","Fruit/apple.png","Lost","0.35,0.8","9","0.35","22","5","",""
"html-keyboard-response","24","95222","0.0-11.0-3.4","5f9873550513db147c9d2958","bdp_rwlrn","Tue Mar 14 2023 13:51:14 GMT-0400 (Eastern Daylight Time)","405394","Untrustworthy,Trustworthy","","null","","","","feedback","","","<div class='respPicDiv'><img src='img/responseButtonOffersNo0_wht.png' class='respPic'></div><div class='trialDiv'><img src='Fruit/apple.png'><br><font class='baseline'><strong>Awesome Apples</strong><p><strong><font class='negOutcome'>You LOST</font><p>You bet: 5</strong></font> &nbsp; &nbsp; &nbsp; &nbsp; &nbsp; &nbsp;<font class='negOutcome'>You receive: <strong>0</strong></font></div>","null","2","Awesome Apples","Fruit/apple.png","Lost","0.35,0.8","9","0.35","22","5","",""
"html-keyboard-response","25","95681","0.0-11.0-1.5","5f9873550513db147c9d2958","bdp_rwlrn","Tue Mar 14 2023 13:51:14 GMT-0400 (Eastern Daylight Time)","405394","Untrustworthy,Trustworthy","","458","","","","decision","","","<div class='trialDiv'><img src='Fruit/pineapple.png'><br><font class='baseline'><strong>Primo Pineapple</strong><p>Choose number of points to bet.</font><div class='respPicDiv'><img src='img/responseButtonOffersNo0L.png' class='respPic'></div></div>","5","2","Primo Pineapple","Fruit/pineapple.png","Won","0.8,0.35","12","0.8","27","6","",""
"html-keyboard-response","26","95933","0.0-11.0-2.5","5f9873550513db147c9d2958","bdp_rwlrn","Tue Mar 14 2023 13:51:14 GMT-0400 (Eastern Daylight Time)","405394","Untrustworthy,Trustworthy","","null","","","","decisionFB","","","<div class='trialDiv'><img src='Fruit/pineapple.png'><br><font class='baseline'><strong>Primo Pineapple</strong><p>Choose number of points to bet.</font><div class='respPicDiv'><img src='img/responseButtonOffersNo0L5.png' class='respPic'></div></div>","null","2","Primo Pineapple","Fruit/pineapple.png","Won","0.8,0.35","12","0.8","22","6","",""
"html-keyboard-response","27","96935","0.0-11.0-3.5","5f9873550513db147c9d2958","bdp_rwlrn","Tue Mar 14 2023 13:51:14 GMT-0400 (Eastern Daylight Time)","405394","Untrustworthy,Trustworthy","","null","","","","feedback","","","<div class='respPicDiv'><img src='img/responseButtonOffersNo0_wht.png' class='respPic'></div><div class='trialDiv'><img src='Fruit/pineapple.png'><br><font class='baseline'><strong>Primo Pineapple</strong><p><strong><font class='posOutcome'>You WON</font><p>You bet: 5</strong></font> &nbsp; &nbsp; &nbsp; &nbsp; &nbsp; &nbsp;<font class='posOutcome'>you receive: <strong>10</strong></font></div>","null","2","Primo Pineapple","Fruit/pineapple.png","Won","0.8,0.35","12","0.8","32","6","",""
"html-keyboard-response","28","98009","0.0-11.0-1.6","5f9873550513db147c9d2958","bdp_rwlrn","Tue Mar 14 2023 13:51:14 GMT-0400 (Eastern Daylight Time)","405394","Untrustworthy,Trustworthy","","1073","","","","decision","","","<div class='trialDiv'><img src='Fruit/Kiwi.png'><br><font class='baseline'><strong>Kiwi Kash</strong><p>Choose number of points to bet.</font><div class='respPicDiv'><img src='img/responseButtonOffersNo0L.png' class='respPic'></div></div>","1","3","Kiwi Kash","Fruit/Kiwi.png","Won","0.8,0.2","9","0.8","37","7","",""
"html-keyboard-response","29","98261","0.0-11.0-2.6","5f9873550513db147c9d2958","bdp_rwlrn","Tue Mar 14 2023 13:51:14 GMT-0400 (Eastern Daylight Time)","405394","Untrustworthy,Trustworthy","","null","","","","decisionFB","","","<div class='trialDiv'><img src='Fruit/Kiwi.png'><br><font class='baseline'><strong>Kiwi Kash</strong><p>Choose number of points to bet.</font><div class='respPicDiv'><img src='img/responseButtonOffersNo0L1.png' class='respPic'></div></div>","null","3","Kiwi Kash","Fruit/Kiwi.png","Won","0.8,0.2","9","0.8","36","7","",""
"html-keyboard-response","30","99263","0.0-11.0-3.6","5f9873550513db147c9d2958","bdp_rwlrn","Tue Mar 14 2023 13:51:14 GMT-0400 (Eastern Daylight Time)","405394","Untrustworthy,Trustworthy","","null","","","","feedback","","","<div class='respPicDiv'><img src='img/responseButtonOffersNo0_wht.png' class='respPic'></div><div class='trialDiv'><img src='Fruit/Kiwi.png'><br><font class='baseline'><strong>Kiwi Kash</strong><p><strong><font class='posOutcome'>You WON</font><p>You bet: 1</strong></font> &nbsp; &nbsp; &nbsp; &nbsp; &nbsp; &nbsp;<font class='posOutcome'>you receive: <strong>2</strong></font></div>","null","3","Kiwi Kash","Fruit/Kiwi.png","Won","0.8,0.2","9","0.8","38","7","",""
"html-keyboard-response","31","100207","0.0-11.0-1.7","5f9873550513db147c9d2958","bdp_rwlrn","Tue Mar 14 2023 13:51:14 GMT-0400 (Eastern Daylight Time)","405394","Untrustworthy,Trustworthy","","943","","","","decision","","","<div class='trialDiv'><img src='Fruit/pineapple.png'><br><font class='baseline'><strong>Primo Pineapple</strong><p>Choose number of points to bet.</font><div class='respPicDiv'><img src='img/responseButtonOffersNo0L.png' class='respPic'></div></div>","5","3","Primo Pineapple","Fruit/pineapple.png","Won","0.8,0.35","12","0.8","43","8","",""
"html-keyboard-response","32","100458","0.0-11.0-2.7","5f9873550513db147c9d2958","bdp_rwlrn","Tue Mar 14 2023 13:51:14 GMT-0400 (Eastern Daylight Time)","405394","Untrustworthy,Trustworthy","","null","","","","decisionFB","","","<div class='trialDiv'><img src='Fruit/pineapple.png'><br><font class='baseline'><strong>Primo Pineapple</strong><p>Choose number of points to bet.</font><div class='respPicDiv'><img src='img/responseButtonOffersNo0L5.png' class='respPic'></div></div>","null","3","Primo Pineapple","Fruit/pineapple.png","Won","0.8,0.35","12","0.8","38","8","",""
"html-keyboard-response","33","101460","0.0-11.0-3.7","5f9873550513db147c9d2958","bdp_rwlrn","Tue Mar 14 2023 13:51:14 GMT-0400 (Eastern Daylight Time)","405394","Untrustworthy,Trustworthy","","null","","","","feedback","","","<div class='respPicDiv'><img src='img/responseButtonOffersNo0_wht.png' class='respPic'></div><div class='trialDiv'><img src='Fruit/pineapple.png'><br><font class='baseline'><strong>Primo Pineapple</strong><p><strong><font class='posOutcome'>You WON</font><p>You bet: 5</strong></font> &nbsp; &nbsp; &nbsp; &nbsp; &nbsp; &nbsp;<font class='posOutcome'>you receive: <strong>10</strong></font></div>","null","3","Primo Pineapple","Fruit/pineapple.png","Won","0.8,0.35","12","0.8","48","8","",""
"html-keyboard-response","34","102434","0.0-11.0-1.8","5f9873550513db147c9d2958","bdp_rwlrn","Tue Mar 14 2023 13:51:14 GMT-0400 (Eastern Daylight Time)","405394","Untrustworthy,Trustworthy","","973","","","","decision","","","<div class='trialDiv'><img src='Fruit/apple.png'><br><font class='baseline'><strong>Awesome Apples</strong><p>Choose number of points to bet.</font><div class='respPicDiv'><img src='img/responseButtonOffersNo0L.png' class='respPic'></div></div>","1","3","Awesome Apples","Fruit/apple.png","Lost","0.35,0.8","9","0.35","53","9","",""
"html-keyboard-response","35","102686","0.0-11.0-2.8","5f9873550513db147c9d2958","bdp_rwlrn","Tue Mar 14 2023 13:51:14 GMT-0400 (Eastern Daylight Time)","405394","Untrustworthy,Trustworthy","","null","","","","decisionFB","","","<div class='trialDiv'><img src='Fruit/apple.png'><br><font class='baseline'><strong>Awesome Apples</strong><p>Choose number of points to bet.</font><div class='respPicDiv'><img src='img/responseButtonOffersNo0L1.png' class='respPic'></div></div>","null","3","Awesome Apples","Fruit/apple.png","Lost","0.35,0.8","9","0.35","52","9","",""
"html-keyboard-response","36","103688","0.0-11.0-3.8","5f9873550513db147c9d2958","bdp_rwlrn","Tue Mar 14 2023 13:51:14 GMT-0400 (Eastern Daylight Time)","405394","Untrustworthy,Trustworthy","","null","","","","feedback","","","<div class='respPicDiv'><img src='img/responseButtonOffersNo0_wht.png' class='respPic'></div><div class='trialDiv'><img src='Fruit/apple.png'><br><font class='baseline'><strong>Awesome Apples</strong><p><strong><font class='negOutcome'>You LOST</font><p>You bet: 1</strong></font> &nbsp; &nbsp; &nbsp; &nbsp; &nbsp; &nbsp;<font class='negOutcome'>You receive: <strong>0</strong></font></div>","null","3","Awesome Apples","Fruit/apple.png","Lost","0.35,0.8","9","0.35","52","9","",""
"html-keyboard-response","37","104293","0.0-11.0-1.9","5f9873550513db147c9d2958","bdp_rwlrn","Tue Mar 14 2023 13:51:14 GMT-0400 (Eastern Daylight Time)","405394","Untrustworthy,Trustworthy","","604","","","","decision","","","<div class='trialDiv'><img src='Fruit/Kiwi.png'><br><font class='baseline'><strong>Kiwi Kash</strong><p>Choose number of points to bet.</font><div class='respPicDiv'><img src='img/responseButtonOffersNo0L.png' class='respPic'></div></div>","5","4","Kiwi Kash","Fruit/Kiwi.png","Lost","0.8,0.2","9","0.8","57","10","",""
"html-keyboard-response","38","104545","0.0-11.0-2.9","5f9873550513db147c9d2958","bdp_rwlrn","Tue Mar 14 2023 13:51:14 GMT-0400 (Eastern Daylight Time)","405394","Untrustworthy,Trustworthy","","null","","","","decisionFB","","","<div class='trialDiv'><img src='Fruit/Kiwi.png'><br><font class='baseline'><strong>Kiwi Kash</strong><p>Choose number of points to bet.</font><div class='respPicDiv'><img src='img/responseButtonOffersNo0L5.png' class='respPic'></div></div>","null","4","Kiwi Kash","Fruit/Kiwi.png","Lost","0.8,0.2","9","0.8","52","10","",""
"html-keyboard-response","39","105546","0.0-11.0-3.9","5f9873550513db147c9d2958","bdp_rwlrn","Tue Mar 14 2023 13:51:14 GMT-0400 (Eastern Daylight Time)","405394","Untrustworthy,Trustworthy","","null","","","","feedback","","","<div class='respPicDiv'><img src='img/responseButtonOffersNo0_wht.png' class='respPic'></div><div class='trialDiv'><img src='Fruit/Kiwi.png'><br><font class='baseline'><strong>Kiwi Kash</strong><p><strong><font class='negOutcome'>You LOST</font><p>You bet: 5</strong></font> &nbsp; &nbsp; &nbsp; &nbsp; &nbsp; &nbsp;<font class='negOutcome'>You receive: <strong>0</strong></font></div>","null","4","Kiwi Kash","Fruit/Kiwi.png","Lost","0.8,0.2","9","0.8","52","10","",""
"html-keyboard-response","40","105998","0.0-11.0-1.10","5f9873550513db147c9d2958","bdp_rwlrn","Tue Mar 14 2023 13:51:14 GMT-0400 (Eastern Daylight Time)","405394","Untrustworthy,Trustworthy","","451","","","","decision","","","<div class='trialDiv'><img src='Fruit/pineapple.png'><br><font class='baseline'><strong>Primo Pineapple</strong><p>Choose number of points to bet.</font><div class='respPicDiv'><img src='img/responseButtonOffersNo0L.png' class='respPic'></div></div>","5","4","Primo Pineapple","Fruit/pineapple.png","Won","0.8,0.35","12","0.8","57","11","",""
"html-keyboard-response","41","106250","0.0-11.0-2.10","5f9873550513db147c9d2958","bdp_rwlrn","Tue Mar 14 2023 13:51:14 GMT-0400 (Eastern Daylight Time)","405394","Untrustworthy,Trustworthy","","null","","","","decisionFB","","","<div class='trialDiv'><img src='Fruit/pineapple.png'><br><font class='baseline'><strong>Primo Pineapple</strong><p>Choose number of points to bet.</font><div class='respPicDiv'><img src='img/responseButtonOffersNo0L5.png' class='respPic'></div></div>","null","4","Primo Pineapple","Fruit/pineapple.png","Won","0.8,0.35","12","0.8","52","11","",""
"html-keyboard-response","42","107252","0.0-11.0-3.10","5f9873550513db147c9d2958","bdp_rwlrn","Tue Mar 14 2023 13:51:14 GMT-0400 (Eastern Daylight Time)","405394","Untrustworthy,Trustworthy","","null","","","","feedback","","","<div class='respPicDiv'><img src='img/responseButtonOffersNo0_wht.png' class='respPic'></div><div class='trialDiv'><img src='Fruit/pineapple.png'><br><font class='baseline'><strong>Primo Pineapple</strong><p><strong><font class='posOutcome'>You WON</font><p>You bet: 5</strong></font> &nbsp; &nbsp; &nbsp; &nbsp; &nbsp; &nbsp;<font class='posOutcome'>you receive: <strong>10</strong></font></div>","null","4","Primo Pineapple","Fruit/pineapple.png","Won","0.8,0.35","12","0.8","62","11","",""
"html-keyboard-response","43","108560","0.0-11.0-1.11","5f9873550513db147c9d2958","bdp_rwlrn","Tue Mar 14 2023 13:51:14 GMT-0400 (Eastern Daylight Time)","405394","Untrustworthy,Trustworthy","","1307","","","","decision","","","<div class='trialDiv'><img src='Fruit/apple.png'><br><font class='baseline'><strong>Awesome Apples</strong><p>Choose number of points to bet.</font><div class='respPicDiv'><img src='img/responseButtonOffersNo0L.png' class='respPic'></div></div>","1","4","Awesome Apples","Fruit/apple.png","Lost","0.35,0.8","9","0.35","67","12","",""
"html-keyboard-response","44","108812","0.0-11.0-2.11","5f9873550513db147c9d2958","bdp_rwlrn","Tue Mar 14 2023 13:51:14 GMT-0400 (Eastern Daylight Time)","405394","Untrustworthy,Trustworthy","","null","","","","decisionFB","","","<div class='trialDiv'><img src='Fruit/apple.png'><br><font class='baseline'><strong>Awesome Apples</strong><p>Choose number of points to bet.</font><div class='respPicDiv'><img src='img/responseButtonOffersNo0L1.png' class='respPic'></div></div>","null","4","Awesome Apples","Fruit/apple.png","Lost","0.35,0.8","9","0.35","66","12","",""
"html-keyboard-response","45","109814","0.0-11.0-3.11","5f9873550513db147c9d2958","bdp_rwlrn","Tue Mar 14 2023 13:51:14 GMT-0400 (Eastern Daylight Time)","405394","Untrustworthy,Trustworthy","","null","","","","feedback","","","<div class='respPicDiv'><img src='img/responseButtonOffersNo0_wht.png' class='respPic'></div><div class='trialDiv'><img src='Fruit/apple.png'><br><font class='baseline'><strong>Awesome Apples</strong><p><strong><font class='negOutcome'>You LOST</font><p>You bet: 1</strong></font> &nbsp; &nbsp; &nbsp; &nbsp; &nbsp; &nbsp;<font class='negOutcome'>You receive: <strong>0</strong></font></div>","null","4","Awesome Apples","Fruit/apple.png","Lost","0.35,0.8","9","0.35","66","12","",""
"html-keyboard-response","46","113362","0.0-11.0-1.12","5f9873550513db147c9d2958","bdp_rwlrn","Tue Mar 14 2023 13:51:14 GMT-0400 (Eastern Daylight Time)","405394","Untrustworthy,Trustworthy","","3546","","","","decision","","","<div class='trialDiv'><img src='Fruit/pineapple.png'><br><font class='baseline'><strong>Primo Pineapple</strong><p>Choose number of points to bet.</font><div class='respPicDiv'><img src='img/responseButtonOffersNo0L.png' class='respPic'></div></div>","5","5","Primo Pineapple","Fruit/pineapple.png","Lost","0.8,0.35","12","0.8","71","13","",""
"html-keyboard-response","47","113613","0.0-11.0-2.12","5f9873550513db147c9d2958","bdp_rwlrn","Tue Mar 14 2023 13:51:14 GMT-0400 (Eastern Daylight Time)","405394","Untrustworthy,Trustworthy","","null","","","","decisionFB","","","<div class='trialDiv'><img src='Fruit/pineapple.png'><br><font class='baseline'><strong>Primo Pineapple</strong><p>Choose number of points to bet.</font><div class='respPicDiv'><img src='img/responseButtonOffersNo0L5.png' class='respPic'></div></div>","null","5","Primo Pineapple","Fruit/pineapple.png","Lost","0.8,0.35","12","0.8","66","13","",""
"html-keyboard-response","48","114615","0.0-11.0-3.12","5f9873550513db147c9d2958","bdp_rwlrn","Tue Mar 14 2023 13:51:14 GMT-0400 (Eastern Daylight Time)","405394","Untrustworthy,Trustworthy","","null","","","","feedback","","","<div class='respPicDiv'><img src='img/responseButtonOffersNo0_wht.png' class='respPic'></div><div class='trialDiv'><img src='Fruit/pineapple.png'><br><font class='baseline'><strong>Primo Pineapple</strong><p><strong><font class='negOutcome'>You LOST</font><p>You bet: 5</strong></font> &nbsp; &nbsp; &nbsp; &nbsp; &nbsp; &nbsp;<font class='negOutcome'>You receive: <strong>0</strong></font></div>","null","5","Primo Pineapple","Fruit/pineapple.png","Lost","0.8,0.35","12","0.8","66","13","",""
"html-keyboard-response","49","116641","0.0-11.0-1.13","5f9873550513db147c9d2958","bdp_rwlrn","Tue Mar 14 2023 13:51:14 GMT-0400 (Eastern Daylight Time)","405394","Untrustworthy,Trustworthy","","2025","","","","decision","","","<div class='trialDiv'><img src='Fruit/Kiwi.png'><br><font class='baseline'><strong>Kiwi Kash</strong><p>Choose number of points to bet.</font><div class='respPicDiv'><img src='img/responseButtonOffersNo0L.png' class='respPic'></div></div>","1","5","Kiwi Kash","Fruit/Kiwi.png","Won","0.8,0.2","9","0.8","71","14","",""
"html-keyboard-response","50","116892","0.0-11.0-2.13","5f9873550513db147c9d2958","bdp_rwlrn","Tue Mar 14 2023 13:51:14 GMT-0400 (Eastern Daylight Time)","405394","Untrustworthy,Trustworthy","","null","","","","decisionFB","","","<div class='trialDiv'><img src='Fruit/Kiwi.png'><br><font class='baseline'><strong>Kiwi Kash</strong><p>Choose number of points to bet.</font><div class='respPicDiv'><img src='img/responseButtonOffersNo0L1.png' class='respPic'></div></div>","null","5","Kiwi Kash","Fruit/Kiwi.png","Won","0.8,0.2","9","0.8","70","14","",""
"html-keyboard-response","51","117894","0.0-11.0-3.13","5f9873550513db147c9d2958","bdp_rwlrn","Tue Mar 14 2023 13:51:14 GMT-0400 (Eastern Daylight Time)","405394","Untrustworthy,Trustworthy","","null","","","","feedback","","","<div class='respPicDiv'><img src='img/responseButtonOffersNo0_wht.png' class='respPic'></div><div class='trialDiv'><img src='Fruit/Kiwi.png'><br><font class='baseline'><strong>Kiwi Kash</strong><p><strong><font class='posOutcome'>You WON</font><p>You bet: 1</strong></font> &nbsp; &nbsp; &nbsp; &nbsp; &nbsp; &nbsp;<font class='posOutcome'>you receive: <strong>2</strong></font></div>","null","5","Kiwi Kash","Fruit/Kiwi.png","Won","0.8,0.2","9","0.8","72","14","",""
"html-keyboard-response","52","118893","0.0-11.0-1.14","5f9873550513db147c9d2958","bdp_rwlrn","Tue Mar 14 2023 13:51:14 GMT-0400 (Eastern Daylight Time)","405394","Untrustworthy,Trustworthy","","998","","","","decision","","","<div class='trialDiv'><img src='Fruit/apple.png'><br><font class='baseline'><strong>Awesome Apples</strong><p>Choose number of points to bet.</font><div class='respPicDiv'><img src='img/responseButtonOffersNo0L.png' class='respPic'></div></div>","1","5","Awesome Apples","Fruit/apple.png","Won","0.35,0.8","9","0.35","77","15","",""
"html-keyboard-response","53","119145","0.0-11.0-2.14","5f9873550513db147c9d2958","bdp_rwlrn","Tue Mar 14 2023 13:51:14 GMT-0400 (Eastern Daylight Time)","405394","Untrustworthy,Trustworthy","","null","","","","decisionFB","","","<div class='trialDiv'><img src='Fruit/apple.png'><br><font class='baseline'><strong>Awesome Apples</strong><p>Choose number of points to bet.</font><div class='respPicDiv'><img src='img/responseButtonOffersNo0L1.png' class='respPic'></div></div>","null","5","Awesome Apples","Fruit/apple.png","Won","0.35,0.8","9","0.35","76","15","",""
"html-keyboard-response","54","120147","0.0-11.0-3.14","5f9873550513db147c9d2958","bdp_rwlrn","Tue Mar 14 2023 13:51:14 GMT-0400 (Eastern Daylight Time)","405394","Untrustworthy,Trustworthy","","null","","","","feedback","","","<div class='respPicDiv'><img src='img/responseButtonOffersNo0_wht.png' class='respPic'></div><div class='trialDiv'><img src='Fruit/apple.png'><br><font class='baseline'><strong>Awesome Apples</strong><p><strong><font class='posOutcome'>You WON</font><p>You bet: 1</strong></font> &nbsp; &nbsp; &nbsp; &nbsp; &nbsp; &nbsp;<font class='posOutcome'>you receive: <strong>2</strong></font></div>","null","5","Awesome Apples","Fruit/apple.png","Won","0.35,0.8","9","0.35","78","15","",""
"html-keyboard-response","55","121019","0.0-11.0-1.15","5f9873550513db147c9d2958","bdp_rwlrn","Tue Mar 14 2023 13:51:14 GMT-0400 (Eastern Daylight Time)","405394","Untrustworthy,Trustworthy","","871","","","","decision","","","<div class='trialDiv'><img src='Fruit/Kiwi.png'><br><font class='baseline'><strong>Kiwi Kash</strong><p>Choose number of points to bet.</font><div class='respPicDiv'><img src='img/responseButtonOffersNo0L.png' class='respPic'></div></div>","5","6","Kiwi Kash","Fruit/Kiwi.png","Won","0.8,0.2","9","0.8","83","16","",""
"html-keyboard-response","56","121271","0.0-11.0-2.15","5f9873550513db147c9d2958","bdp_rwlrn","Tue Mar 14 2023 13:51:14 GMT-0400 (Eastern Daylight Time)","405394","Untrustworthy,Trustworthy","","null","","","","decisionFB","","","<div class='trialDiv'><img src='Fruit/Kiwi.png'><br><font class='baseline'><strong>Kiwi Kash</strong><p>Choose number of points to bet.</font><div class='respPicDiv'><img src='img/responseButtonOffersNo0L5.png' class='respPic'></div></div>","null","6","Kiwi Kash","Fruit/Kiwi.png","Won","0.8,0.2","9","0.8","78","16","",""
"html-keyboard-response","57","122273","0.0-11.0-3.15","5f9873550513db147c9d2958","bdp_rwlrn","Tue Mar 14 2023 13:51:14 GMT-0400 (Eastern Daylight Time)","405394","Untrustworthy,Trustworthy","","null","","","","feedback","","","<div class='respPicDiv'><img src='img/responseButtonOffersNo0_wht.png' class='respPic'></div><div class='trialDiv'><img src='Fruit/Kiwi.png'><br><font class='baseline'><strong>Kiwi Kash</strong><p><strong><font class='posOutcome'>You WON</font><p>You bet: 5</strong></font> &nbsp; &nbsp; &nbsp; &nbsp; &nbsp; &nbsp;<font class='posOutcome'>you receive: <strong>10</strong></font></div>","null","6","Kiwi Kash","Fruit/Kiwi.png","Won","0.8,0.2","9","0.8","88","16","",""
"html-keyboard-response","58","122828","0.0-11.0-1.16","5f9873550513db147c9d2958","bdp_rwlrn","Tue Mar 14 2023 13:51:14 GMT-0400 (Eastern Daylight Time)","405394","Untrustworthy,Trustworthy","","554","","","","decision","","","<div class='trialDiv'><img src='Fruit/pineapple.png'><br><font class='baseline'><strong>Primo Pineapple</strong><p>Choose number of points to bet.</font><div class='respPicDiv'><img src='img/responseButtonOffersNo0L.png' class='respPic'></div></div>","5","6","Primo Pineapple","Fruit/pineapple.png","Won","0.8,0.35","12","0.8","93","17","",""
"html-keyboard-response","59","123080","0.0-11.0-2.16","5f9873550513db147c9d2958","bdp_rwlrn","Tue Mar 14 2023 13:51:14 GMT-0400 (Eastern Daylight Time)","405394","Untrustworthy,Trustworthy","","null","","","","decisionFB","","","<div class='trialDiv'><img src='Fruit/pineapple.png'><br><font class='baseline'><strong>Primo Pineapple</strong><p>Choose number of points to bet.</font><div class='respPicDiv'><img src='img/responseButtonOffersNo0L5.png' class='respPic'></div></div>","null","6","Primo Pineapple","Fruit/pineapple.png","Won","0.8,0.35","12","0.8","88","17","",""
"html-keyboard-response","60","124082","0.0-11.0-3.16","5f9873550513db147c9d2958","bdp_rwlrn","Tue Mar 14 2023 13:51:14 GMT-0400 (Eastern Daylight Time)","405394","Untrustworthy,Trustworthy","","null","","","","feedback","","","<div class='respPicDiv'><img src='img/responseButtonOffersNo0_wht.png' class='respPic'></div><div class='trialDiv'><img src='Fruit/pineapple.png'><br><font class='baseline'><strong>Primo Pineapple</strong><p><strong><font class='posOutcome'>You WON</font><p>You bet: 5</strong></font> &nbsp; &nbsp; &nbsp; &nbsp; &nbsp; &nbsp;<font class='posOutcome'>you receive: <strong>10</strong></font></div>","null","6","Primo Pineapple","Fruit/pineapple.png","Won","0.8,0.35","12","0.8","98","17","",""
"html-keyboard-response","61","124548","0.0-11.0-1.17","5f9873550513db147c9d2958","bdp_rwlrn","Tue Mar 14 2023 13:51:14 GMT-0400 (Eastern Daylight Time)","405394","Untrustworthy,Trustworthy","","465","","","","decision","","","<div class='trialDiv'><img src='Fruit/apple.png'><br><font class='baseline'><strong>Awesome Apples</strong><p>Choose number of points to bet.</font><div class='respPicDiv'><img src='img/responseButtonOffersNo0L.png' class='respPic'></div></div>","5","6","Awesome Apples","Fruit/apple.png","Lost","0.35,0.8","9","0.35","103","18","",""
"html-keyboard-response","62","124800","0.0-11.0-2.17","5f9873550513db147c9d2958","bdp_rwlrn","Tue Mar 14 2023 13:51:14 GMT-0400 (Eastern Daylight Time)","405394","Untrustworthy,Trustworthy","","null","","","","decisionFB","","","<div class='trialDiv'><img src='Fruit/apple.png'><br><font class='baseline'><strong>Awesome Apples</strong><p>Choose number of points to bet.</font><div class='respPicDiv'><img src='img/responseButtonOffersNo0L5.png' class='respPic'></div></div>","null","6","Awesome Apples","Fruit/apple.png","Lost","0.35,0.8","9","0.35","98","18","",""
"html-keyboard-response","63","125802","0.0-11.0-3.17","5f9873550513db147c9d2958","bdp_rwlrn","Tue Mar 14 2023 13:51:14 GMT-0400 (Eastern Daylight Time)","405394","Untrustworthy,Trustworthy","","null","","","","feedback","","","<div class='respPicDiv'><img src='img/responseButtonOffersNo0_wht.png' class='respPic'></div><div class='trialDiv'><img src='Fruit/apple.png'><br><font class='baseline'><strong>Awesome Apples</strong><p><strong><font class='negOutcome'>You LOST</font><p>You bet: 5</strong></font> &nbsp; &nbsp; &nbsp; &nbsp; &nbsp; &nbsp;<font class='negOutcome'>You receive: <strong>0</strong></font></div>","null","6","Awesome Apples","Fruit/apple.png","Lost","0.35,0.8","9","0.35","98","18","",""
"html-keyboard-response","64","128069","0.0-11.0-1.18","5f9873550513db147c9d2958","bdp_rwlrn","Tue Mar 14 2023 13:51:14 GMT-0400 (Eastern Daylight Time)","405394","Untrustworthy,Trustworthy","","2266","","","","decision","","","<div class='trialDiv'><img src='Fruit/Kiwi.png'><br><font class='baseline'><strong>Kiwi Kash</strong><p>Choose number of points to bet.</font><div class='respPicDiv'><img src='img/responseButtonOffersNo0L.png' class='respPic'></div></div>","5","7","Kiwi Kash","Fruit/Kiwi.png","Lost","0.8,0.2","9","0.8","103","19","",""
"html-keyboard-response","65","128321","0.0-11.0-2.18","5f9873550513db147c9d2958","bdp_rwlrn","Tue Mar 14 2023 13:51:14 GMT-0400 (Eastern Daylight Time)","405394","Untrustworthy,Trustworthy","","null","","","","decisionFB","","","<div class='trialDiv'><img src='Fruit/Kiwi.png'><br><font class='baseline'><strong>Kiwi Kash</strong><p>Choose number of points to bet.</font><div class='respPicDiv'><img src='img/responseButtonOffersNo0L5.png' class='respPic'></div></div>","null","7","Kiwi Kash","Fruit/Kiwi.png","Lost","0.8,0.2","9","0.8","98","19","",""
"html-keyboard-response","66","129323","0.0-11.0-3.18","5f9873550513db147c9d2958","bdp_rwlrn","Tue Mar 14 2023 13:51:14 GMT-0400 (Eastern Daylight Time)","405394","Untrustworthy,Trustworthy","","null","","","","feedback","","","<div class='respPicDiv'><img src='img/responseButtonOffersNo0_wht.png' class='respPic'></div><div class='trialDiv'><img src='Fruit/Kiwi.png'><br><font class='baseline'><strong>Kiwi Kash</strong><p><strong><font class='negOutcome'>You LOST</font><p>You bet: 5</strong></font> &nbsp; &nbsp; &nbsp; &nbsp; &nbsp; &nbsp;<font class='negOutcome'>You receive: <strong>0</strong></font></div>","null","7","Kiwi Kash","Fruit/Kiwi.png","Lost","0.8,0.2","9","0.8","98","19","",""
"html-keyboard-response","67","130278","0.0-11.0-1.19","5f9873550513db147c9d2958","bdp_rwlrn","Tue Mar 14 2023 13:51:14 GMT-0400 (Eastern Daylight Time)","405394","Untrustworthy,Trustworthy","","953","","","","decision","","","<div class='trialDiv'><img src='Fruit/apple.png'><br><font class='baseline'><strong>Awesome Apples</strong><p>Choose number of points to bet.</font><div class='respPicDiv'><img src='img/responseButtonOffersNo0L.png' class='respPic'></div></div>","1","7","Awesome Apples","Fruit/apple.png","Lost","0.35,0.8","9","0.35","103","20","",""
"html-keyboard-response","68","130529","0.0-11.0-2.19","5f9873550513db147c9d2958","bdp_rwlrn","Tue Mar 14 2023 13:51:14 GMT-0400 (Eastern Daylight Time)","405394","Untrustworthy,Trustworthy","","null","","","","decisionFB","","","<div class='trialDiv'><img src='Fruit/apple.png'><br><font class='baseline'><strong>Awesome Apples</strong><p>Choose number of points to bet.</font><div class='respPicDiv'><img src='img/responseButtonOffersNo0L1.png' class='respPic'></div></div>","null","7","Awesome Apples","Fruit/apple.png","Lost","0.35,0.8","9","0.35","102","20","",""
"html-keyboard-response","69","131532","0.0-11.0-3.19","5f9873550513db147c9d2958","bdp_rwlrn","Tue Mar 14 2023 13:51:14 GMT-0400 (Eastern Daylight Time)","405394","Untrustworthy,Trustworthy","","null","","","","feedback","","","<div class='respPicDiv'><img src='img/responseButtonOffersNo0_wht.png' class='respPic'></div><div class='trialDiv'><img src='Fruit/apple.png'><br><font class='baseline'><strong>Awesome Apples</strong><p><strong><font class='negOutcome'>You LOST</font><p>You bet: 1</strong></font> &nbsp; &nbsp; &nbsp; &nbsp; &nbsp; &nbsp;<font class='negOutcome'>You receive: <strong>0</strong></font></div>","null","7","Awesome Apples","Fruit/apple.png","Lost","0.35,0.8","9","0.35","102","20","",""
"html-keyboard-response","70","131934","0.0-11.0-1.20","5f9873550513db147c9d2958","bdp_rwlrn","Tue Mar 14 2023 13:51:14 GMT-0400 (Eastern Daylight Time)","405394","Untrustworthy,Trustworthy","","402","","","","decision","","","<div class='trialDiv'><img src='Fruit/pineapple.png'><br><font class='baseline'><strong>Primo Pineapple</strong><p>Choose number of points to bet.</font><div class='respPicDiv'><img src='img/responseButtonOffersNo0L.png' class='respPic'></div></div>","5","7","Primo Pineapple","Fruit/pineapple.png","Won","0.8,0.35","12","0.8","107","21","",""
"html-keyboard-response","71","132186","0.0-11.0-2.20","5f9873550513db147c9d2958","bdp_rwlrn","Tue Mar 14 2023 13:51:14 GMT-0400 (Eastern Daylight Time)","405394","Untrustworthy,Trustworthy","","null","","","","decisionFB","","","<div class='trialDiv'><img src='Fruit/pineapple.png'><br><font class='baseline'><strong>Primo Pineapple</strong><p>Choose number of points to bet.</font><div class='respPicDiv'><img src='img/responseButtonOffersNo0L5.png' class='respPic'></div></div>","null","7","Primo Pineapple","Fruit/pineapple.png","Won","0.8,0.35","12","0.8","102","21","",""
"html-keyboard-response","72","133188","0.0-11.0-3.20","5f9873550513db147c9d2958","bdp_rwlrn","Tue Mar 14 2023 13:51:14 GMT-0400 (Eastern Daylight Time)","405394","Untrustworthy,Trustworthy","","null","","","","feedback","","","<div class='respPicDiv'><img src='img/responseButtonOffersNo0_wht.png' class='respPic'></div><div class='trialDiv'><img src='Fruit/pineapple.png'><br><font class='baseline'><strong>Primo Pineapple</strong><p><strong><font class='posOutcome'>You WON</font><p>You bet: 5</strong></font> &nbsp; &nbsp; &nbsp; &nbsp; &nbsp; &nbsp;<font class='posOutcome'>you receive: <strong>10</strong></font></div>","null","7","Primo Pineapple","Fruit/pineapple.png","Won","0.8,0.35","12","0.8","112","21","",""
"html-keyboard-response","73","135004","0.0-11.0-1.21","5f9873550513db147c9d2958","bdp_rwlrn","Tue Mar 14 2023 13:51:14 GMT-0400 (Eastern Daylight Time)","405394","Untrustworthy,Trustworthy","","1815","","","","decision","","","<div class='trialDiv'><img src='Fruit/apple.png'><br><font class='baseline'><strong>Awesome Apples</strong><p>Choose number of points to bet.</font><div class='respPicDiv'><img src='img/responseButtonOffersNo0L.png' class='respPic'></div></div>","1","8","Awesome Apples","Fruit/apple.png","Lost","0.35,0.8","9","0.35","117","22","",""
"html-keyboard-response","74","135256","0.0-11.0-2.21","5f9873550513db147c9d2958","bdp_rwlrn","Tue Mar 14 2023 13:51:14 GMT-0400 (Eastern Daylight Time)","405394","Untrustworthy,Trustworthy","","null","","","","decisionFB","","","<div class='trialDiv'><img src='Fruit/apple.png'><br><font class='baseline'><strong>Awesome Apples</strong><p>Choose number of points to bet.</font><div class='respPicDiv'><img src='img/responseButtonOffersNo0L1.png' class='respPic'></div></div>","null","8","Awesome Apples","Fruit/apple.png","Lost","0.35,0.8","9","0.35","116","22","",""
"html-keyboard-response","75","136258","0.0-11.0-3.21","5f9873550513db147c9d2958","bdp_rwlrn","Tue Mar 14 2023 13:51:14 GMT-0400 (Eastern Daylight Time)","405394","Untrustworthy,Trustworthy","","null","","","","feedback","","","<div class='respPicDiv'><img src='img/responseButtonOffersNo0_wht.png' class='respPic'></div><div class='trialDiv'><img src='Fruit/apple.png'><br><font class='baseline'><strong>Awesome Apples</strong><p><strong><font class='negOutcome'>You LOST</font><p>You bet: 1</strong></font> &nbsp; &nbsp; &nbsp; &nbsp; &nbsp; &nbsp;<font class='negOutcome'>You receive: <strong>0</strong></font></div>","null","8","Awesome Apples","Fruit/apple.png","Lost","0.35,0.8","9","0.35","116","22","",""
"html-keyboard-response","76","136950","0.0-11.0-1.22","5f9873550513db147c9d2958","bdp_rwlrn","Tue Mar 14 2023 13:51:14 GMT-0400 (Eastern Daylight Time)","405394","Untrustworthy,Trustworthy","","690","","","","decision","","","<div class='trialDiv'><img src='Fruit/Kiwi.png'><br><font class='baseline'><strong>Kiwi Kash</strong><p>Choose number of points to bet.</font><div class='respPicDiv'><img src='img/responseButtonOffersNo0L.png' class='respPic'></div></div>","1","8","Kiwi Kash","Fruit/Kiwi.png","Lost","0.8,0.2","9","0.8","121","23","",""
"html-keyboard-response","77","137201","0.0-11.0-2.22","5f9873550513db147c9d2958","bdp_rwlrn","Tue Mar 14 2023 13:51:14 GMT-0400 (Eastern Daylight Time)","405394","Untrustworthy,Trustworthy","","null","","","","decisionFB","","","<div class='trialDiv'><img src='Fruit/Kiwi.png'><br><font class='baseline'><strong>Kiwi Kash</strong><p>Choose number of points to bet.</font><div class='respPicDiv'><img src='img/responseButtonOffersNo0L1.png' class='respPic'></div></div>","null","8","Kiwi Kash","Fruit/Kiwi.png","Lost","0.8,0.2","9","0.8","120","23","",""
"html-keyboard-response","78","138204","0.0-11.0-3.22","5f9873550513db147c9d2958","bdp_rwlrn","Tue Mar 14 2023 13:51:14 GMT-0400 (Eastern Daylight Time)","405394","Untrustworthy,Trustworthy","","null","","","","feedback","","","<div class='respPicDiv'><img src='img/responseButtonOffersNo0_wht.png' class='respPic'></div><div class='trialDiv'><img src='Fruit/Kiwi.png'><br><font class='baseline'><strong>Kiwi Kash</strong><p><strong><font class='negOutcome'>You LOST</font><p>You bet: 1</strong></font> &nbsp; &nbsp; &nbsp; &nbsp; &nbsp; &nbsp;<font class='negOutcome'>You receive: <strong>0</strong></font></div>","null","8","Kiwi Kash","Fruit/Kiwi.png","Lost","0.8,0.2","9","0.8","120","23","",""
"html-keyboard-response","79","138617","0.0-11.0-1.23","5f9873550513db147c9d2958","bdp_rwlrn","Tue Mar 14 2023 13:51:14 GMT-0400 (Eastern Daylight Time)","405394","Untrustworthy,Trustworthy","","413","","","","decision","","","<div class='trialDiv'><img src='Fruit/pineapple.png'><br><font class='baseline'><strong>Primo Pineapple</strong><p>Choose number of points to bet.</font><div class='respPicDiv'><img src='img/responseButtonOffersNo0L.png' class='respPic'></div></div>","5","8","Primo Pineapple","Fruit/pineapple.png","Won","0.8,0.35","12","0.8","125","24","",""
"html-keyboard-response","80","138869","0.0-11.0-2.23","5f9873550513db147c9d2958","bdp_rwlrn","Tue Mar 14 2023 13:51:14 GMT-0400 (Eastern Daylight Time)","405394","Untrustworthy,Trustworthy","","null","","","","decisionFB","","","<div class='trialDiv'><img src='Fruit/pineapple.png'><br><font class='baseline'><strong>Primo Pineapple</strong><p>Choose number of points to bet.</font><div class='respPicDiv'><img src='img/responseButtonOffersNo0L5.png' class='respPic'></div></div>","null","8","Primo Pineapple","Fruit/pineapple.png","Won","0.8,0.35","12","0.8","120","24","",""
"html-keyboard-response","81","139871","0.0-11.0-3.23","5f9873550513db147c9d2958","bdp_rwlrn","Tue Mar 14 2023 13:51:14 GMT-0400 (Eastern Daylight Time)","405394","Untrustworthy,Trustworthy","","null","","","","feedback","","","<div class='respPicDiv'><img src='img/responseButtonOffersNo0_wht.png' class='respPic'></div><div class='trialDiv'><img src='Fruit/pineapple.png'><br><font class='baseline'><strong>Primo Pineapple</strong><p><strong><font class='posOutcome'>You WON</font><p>You bet: 5</strong></font> &nbsp; &nbsp; &nbsp; &nbsp; &nbsp; &nbsp;<font class='posOutcome'>you receive: <strong>10</strong></font></div>","null","8","Primo Pineapple","Fruit/pineapple.png","Won","0.8,0.35","12","0.8","130","24","",""
"html-keyboard-response","82","140646","0.0-11.0-1.24","5f9873550513db147c9d2958","bdp_rwlrn","Tue Mar 14 2023 13:51:14 GMT-0400 (Eastern Daylight Time)","405394","Untrustworthy,Trustworthy","","775","","","","decision","","","<div class='trialDiv'><img src='Fruit/Kiwi.png'><br><font class='baseline'><strong>Kiwi Kash</strong><p>Choose number of points to bet.</font><div class='respPicDiv'><img src='img/responseButtonOffersNo0L.png' class='respPic'></div></div>","1","9","Kiwi Kash","Fruit/Kiwi.png","Lost","0.8,0.2","9","0.8","135","25","",""
"html-keyboard-response","83","140898","0.0-11.0-2.24","5f9873550513db147c9d2958","bdp_rwlrn","Tue Mar 14 2023 13:51:14 GMT-0400 (Eastern Daylight Time)","405394","Untrustworthy,Trustworthy","","null","","","","decisionFB","","","<div class='trialDiv'><img src='Fruit/Kiwi.png'><br><font class='baseline'><strong>Kiwi Kash</strong><p>Choose number of points to bet.</font><div class='respPicDiv'><img src='img/responseButtonOffersNo0L1.png' class='respPic'></div></div>","null","9","Kiwi Kash","Fruit/Kiwi.png","Lost","0.8,0.2","9","0.8","134","25","",""
"html-keyboard-response","84","141903","0.0-11.0-3.24","5f9873550513db147c9d2958","bdp_rwlrn","Tue Mar 14 2023 13:51:14 GMT-0400 (Eastern Daylight Time)","405394","Untrustworthy,Trustworthy","","null","","","","feedback","","","<div class='respPicDiv'><img src='img/responseButtonOffersNo0_wht.png' class='respPic'></div><div class='trialDiv'><img src='Fruit/Kiwi.png'><br><font class='baseline'><strong>Kiwi Kash</strong><p><strong><font class='negOutcome'>You LOST</font><p>You bet: 1</strong></font> &nbsp; &nbsp; &nbsp; &nbsp; &nbsp; &nbsp;<font class='negOutcome'>You receive: <strong>0</strong></font></div>","null","9","Kiwi Kash","Fruit/Kiwi.png","Lost","0.8,0.2","9","0.8","134","25","",""
"html-keyboard-response","85","142468","0.0-11.0-1.25","5f9873550513db147c9d2958","bdp_rwlrn","Tue Mar 14 2023 13:51:14 GMT-0400 (Eastern Daylight Time)","405394","Untrustworthy,Trustworthy","","562","","","","decision","","","<div class='trialDiv'><img src='Fruit/pineapple.png'><br><font class='baseline'><strong>Primo Pineapple</strong><p>Choose number of points to bet.</font><div class='respPicDiv'><img src='img/responseButtonOffersNo0L.png' class='respPic'></div></div>","5","9","Primo Pineapple","Fruit/pineapple.png","Won","0.8,0.35","12","0.8","139","26","",""
"html-keyboard-response","86","142720","0.0-11.0-2.25","5f9873550513db147c9d2958","bdp_rwlrn","Tue Mar 14 2023 13:51:14 GMT-0400 (Eastern Daylight Time)","405394","Untrustworthy,Trustworthy","","null","","","","decisionFB","","","<div class='trialDiv'><img src='Fruit/pineapple.png'><br><font class='baseline'><strong>Primo Pineapple</strong><p>Choose number of points to bet.</font><div class='respPicDiv'><img src='img/responseButtonOffersNo0L5.png' class='respPic'></div></div>","null","9","Primo Pineapple","Fruit/pineapple.png","Won","0.8,0.35","12","0.8","134","26","",""
"html-keyboard-response","87","143723","0.0-11.0-3.25","5f9873550513db147c9d2958","bdp_rwlrn","Tue Mar 14 2023 13:51:14 GMT-0400 (Eastern Daylight Time)","405394","Untrustworthy,Trustworthy","","null","","","","feedback","","","<div class='respPicDiv'><img src='img/responseButtonOffersNo0_wht.png' class='respPic'></div><div class='trialDiv'><img src='Fruit/pineapple.png'><br><font class='baseline'><strong>Primo Pineapple</strong><p><strong><font class='posOutcome'>You WON</font><p>You bet: 5</strong></font> &nbsp; &nbsp; &nbsp; &nbsp; &nbsp; &nbsp;<font class='posOutcome'>you receive: <strong>10</strong></font></div>","null","9","Primo Pineapple","Fruit/pineapple.png","Won","0.8,0.35","12","0.8","144","26","",""
"html-keyboard-response","88","144589","0.0-11.0-1.26","5f9873550513db147c9d2958","bdp_rwlrn","Tue Mar 14 2023 13:51:14 GMT-0400 (Eastern Daylight Time)","405394","Untrustworthy,Trustworthy","","865","","","","decision","","","<div class='trialDiv'><img src='Fruit/apple.png'><br><font class='baseline'><strong>Awesome Apples</strong><p>Choose number of points to bet.</font><div class='respPicDiv'><img src='img/responseButtonOffersNo0L.png' class='respPic'></div></div>","1","9","Awesome Apples","Fruit/apple.png","Won","0.35,0.8","9","0.35","149","27","",""
"html-keyboard-response","89","144841","0.0-11.0-2.26","5f9873550513db147c9d2958","bdp_rwlrn","Tue Mar 14 2023 13:51:14 GMT-0400 (Eastern Daylight Time)","405394","Untrustworthy,Trustworthy","","null","","","","decisionFB","","","<div class='trialDiv'><img src='Fruit/apple.png'><br><font class='baseline'><strong>Awesome Apples</strong><p>Choose number of points to bet.</font><div class='respPicDiv'><img src='img/responseButtonOffersNo0L1.png' class='respPic'></div></div>","null","9","Awesome Apples","Fruit/apple.png","Won","0.35,0.8","9","0.35","148","27","",""
"html-keyboard-response","90","145844","0.0-11.0-3.26","5f9873550513db147c9d2958","bdp_rwlrn","Tue Mar 14 2023 13:51:14 GMT-0400 (Eastern Daylight Time)","405394","Untrustworthy,Trustworthy","","null","","","","feedback","","","<div class='respPicDiv'><img src='img/responseButtonOffersNo0_wht.png' class='respPic'></div><div class='trialDiv'><img src='Fruit/apple.png'><br><font class='baseline'><strong>Awesome Apples</strong><p><strong><font class='posOutcome'>You WON</font><p>You bet: 1</strong></font> &nbsp; &nbsp; &nbsp; &nbsp; &nbsp; &nbsp;<font class='posOutcome'>you receive: <strong>2</strong></font></div>","null","9","Awesome Apples","Fruit/apple.png","Won","0.35,0.8","9","0.35","150","27","",""
"html-keyboard-response","91","146583","0.0-11.0-1.27","5f9873550513db147c9d2958","bdp_rwlrn","Tue Mar 14 2023 13:51:14 GMT-0400 (Eastern Daylight Time)","405394","Untrustworthy,Trustworthy","","739","","","","decision","","","<div class='trialDiv'><img src='Fruit/pineapple.png'><br><font class='baseline'><strong>Primo Pineapple</strong><p>Choose number of points to bet.</font><div class='respPicDiv'><img src='img/responseButtonOffersNo0L.png' class='respPic'></div></div>","5","10","Primo Pineapple","Fruit/pineapple.png","Won","0.8,0.35","12","0.8","155","28","",""
"html-keyboard-response","92","146835","0.0-11.0-2.27","5f9873550513db147c9d2958","bdp_rwlrn","Tue Mar 14 2023 13:51:14 GMT-0400 (Eastern Daylight Time)","405394","Untrustworthy,Trustworthy","","null","","","","decisionFB","","","<div class='trialDiv'><img src='Fruit/pineapple.png'><br><font class='baseline'><strong>Primo Pineapple</strong><p>Choose number of points to bet.</font><div class='respPicDiv'><img src='img/responseButtonOffersNo0L5.png' class='respPic'></div></div>","null","10","Primo Pineapple","Fruit/pineapple.png","Won","0.8,0.35","12","0.8","150","28","",""
"html-keyboard-response","93","147837","0.0-11.0-3.27","5f9873550513db147c9d2958","bdp_rwlrn","Tue Mar 14 2023 13:51:14 GMT-0400 (Eastern Daylight Time)","405394","Untrustworthy,Trustworthy","","null","","","","feedback","","","<div class='respPicDiv'><img src='img/responseButtonOffersNo0_wht.png' class='respPic'></div><div class='trialDiv'><img src='Fruit/pineapple.png'><br><font class='baseline'><strong>Primo Pineapple</strong><p><strong><font class='posOutcome'>You WON</font><p>You bet: 5</strong></font> &nbsp; &nbsp; &nbsp; &nbsp; &nbsp; &nbsp;<font class='posOutcome'>you receive: <strong>10</strong></font></div>","null","10","Primo Pineapple","Fruit/pineapple.png","Won","0.8,0.35","12","0.8","160","28","",""
"html-keyboard-response","94","148473","0.0-11.0-1.28","5f9873550513db147c9d2958","bdp_rwlrn","Tue Mar 14 2023 13:51:14 GMT-0400 (Eastern Daylight Time)","405394","Untrustworthy,Trustworthy","","635","","","","decision","","","<div class='trialDiv'><img src='Fruit/apple.png'><br><font class='baseline'><strong>Awesome Apples</strong><p>Choose number of points to bet.</font><div class='respPicDiv'><img src='img/responseButtonOffersNo0L.png' class='respPic'></div></div>","5","10","Awesome Apples","Fruit/apple.png","Won","0.35,0.8","9","0.35","165","29","",""
"html-keyboard-response","95","148725","0.0-11.0-2.28","5f9873550513db147c9d2958","bdp_rwlrn","Tue Mar 14 2023 13:51:14 GMT-0400 (Eastern Daylight Time)","405394","Untrustworthy,Trustworthy","","null","","","","decisionFB","","","<div class='trialDiv'><img src='Fruit/apple.png'><br><font class='baseline'><strong>Awesome Apples</strong><p>Choose number of points to bet.</font><div class='respPicDiv'><img src='img/responseButtonOffersNo0L5.png' class='respPic'></div></div>","null","10","Awesome Apples","Fruit/apple.png","Won","0.35,0.8","9","0.35","160","29","",""
"html-keyboard-response","96","149727","0.0-11.0-3.28","5f9873550513db147c9d2958","bdp_rwlrn","Tue Mar 14 2023 13:51:14 GMT-0400 (Eastern Daylight Time)","405394","Untrustworthy,Trustworthy","","null","","","","feedback","","","<div class='respPicDiv'><img src='img/responseButtonOffersNo0_wht.png' class='respPic'></div><div class='trialDiv'><img src='Fruit/apple.png'><br><font class='baseline'><strong>Awesome Apples</strong><p><strong><font class='posOutcome'>You WON</font><p>You bet: 5</strong></font> &nbsp; &nbsp; &nbsp; &nbsp; &nbsp; &nbsp;<font class='posOutcome'>you receive: <strong>10</strong></font></div>","null","10","Awesome Apples","Fruit/apple.png","Won","0.35,0.8","9","0.35","170","29","",""
"html-keyboard-response","97","150265","0.0-11.0-1.29","5f9873550513db147c9d2958","bdp_rwlrn","Tue Mar 14 2023 13:51:14 GMT-0400 (Eastern Daylight Time)","405394","Untrustworthy,Trustworthy","","537","","","","decision","","","<div class='trialDiv'><img src='Fruit/Kiwi.png'><br><font class='baseline'><strong>Kiwi Kash</strong><p>Choose number of points to bet.</font><div class='respPicDiv'><img src='img/responseButtonOffersNo0L.png' class='respPic'></div></div>","1","10","Kiwi Kash","Fruit/Kiwi.png","Lost","0.8,0.2","9","0.8","175","30","",""
"html-keyboard-response","98","150517","0.0-11.0-2.29","5f9873550513db147c9d2958","bdp_rwlrn","Tue Mar 14 2023 13:51:14 GMT-0400 (Eastern Daylight Time)","405394","Untrustworthy,Trustworthy","","null","","","","decisionFB","","","<div class='trialDiv'><img src='Fruit/Kiwi.png'><br><font class='baseline'><strong>Kiwi Kash</strong><p>Choose number of points to bet.</font><div class='respPicDiv'><img src='img/responseButtonOffersNo0L1.png' class='respPic'></div></div>","null","10","Kiwi Kash","Fruit/Kiwi.png","Lost","0.8,0.2","9","0.8","174","30","",""
"html-keyboard-response","99","151518","0.0-11.0-3.29","5f9873550513db147c9d2958","bdp_rwlrn","Tue Mar 14 2023 13:51:14 GMT-0400 (Eastern Daylight Time)","405394","Untrustworthy,Trustworthy","","null","","","","feedback","","","<div class='respPicDiv'><img src='img/responseButtonOffersNo0_wht.png' class='respPic'></div><div class='trialDiv'><img src='Fruit/Kiwi.png'><br><font class='baseline'><strong>Kiwi Kash</strong><p><strong><font class='negOutcome'>You LOST</font><p>You bet: 1</strong></font> &nbsp; &nbsp; &nbsp; &nbsp; &nbsp; &nbsp;<font class='negOutcome'>You receive: <strong>0</strong></font></div>","null","10","Kiwi Kash","Fruit/Kiwi.png","Lost","0.8,0.2","9","0.8","174","30","",""
"html-keyboard-response","100","151969","0.0-11.0-1.30","5f9873550513db147c9d2958","bdp_rwlrn","Tue Mar 14 2023 13:51:14 GMT-0400 (Eastern Daylight Time)","405394","Untrustworthy,Trustworthy","","451","","","","decision","","","<div class='trialDiv'><img src='Fruit/pineapple.png'><br><font class='baseline'><strong>Primo Pineapple</strong><p>Choose number of points to bet.</font><div class='respPicDiv'><img src='img/responseButtonOffersNo0L.png' class='respPic'></div></div>","5","11","Primo Pineapple","Fruit/pineapple.png","Won","0.8,0.35","12","0.8","179","31","",""
"html-keyboard-response","101","152222","0.0-11.0-2.30","5f9873550513db147c9d2958","bdp_rwlrn","Tue Mar 14 2023 13:51:14 GMT-0400 (Eastern Daylight Time)","405394","Untrustworthy,Trustworthy","","null","","","","decisionFB","","","<div class='trialDiv'><img src='Fruit/pineapple.png'><br><font class='baseline'><strong>Primo Pineapple</strong><p>Choose number of points to bet.</font><div class='respPicDiv'><img src='img/responseButtonOffersNo0L5.png' class='respPic'></div></div>","null","11","Primo Pineapple","Fruit/pineapple.png","Won","0.8,0.35","12","0.8","174","31","",""
"html-keyboard-response","102","153224","0.0-11.0-3.30","5f9873550513db147c9d2958","bdp_rwlrn","Tue Mar 14 2023 13:51:14 GMT-0400 (Eastern Daylight Time)","405394","Untrustworthy,Trustworthy","","null","","","","feedback","","","<div class='respPicDiv'><img src='img/responseButtonOffersNo0_wht.png' class='respPic'></div><div class='trialDiv'><img src='Fruit/pineapple.png'><br><font class='baseline'><strong>Primo Pineapple</strong><p><strong><font class='posOutcome'>You WON</font><p>You bet: 5</strong></font> &nbsp; &nbsp; &nbsp; &nbsp; &nbsp; &nbsp;<font class='posOutcome'>you receive: <strong>10</strong></font></div>","null","11","Primo Pineapple","Fruit/pineapple.png","Won","0.8,0.35","12","0.8","184","31","",""
"html-keyboard-response","103","155602","0.0-11.0-1.31","5f9873550513db147c9d2958","bdp_rwlrn","Tue Mar 14 2023 13:51:14 GMT-0400 (Eastern Daylight Time)","405394","Untrustworthy,Trustworthy","","2376","","","","decision","","","<div class='trialDiv'><img src='Fruit/Kiwi.png'><br><font class='baseline'><strong>Kiwi Kash</strong><p>Choose number of points to bet.</font><div class='respPicDiv'><img src='img/responseButtonOffersNo0L.png' class='respPic'></div></div>","1","11","Kiwi Kash","Fruit/Kiwi.png","Lost","0.8,0.2","9","0.8","189","32","",""
"html-keyboard-response","104","155856","0.0-11.0-2.31","5f9873550513db147c9d2958","bdp_rwlrn","Tue Mar 14 2023 13:51:14 GMT-0400 (Eastern Daylight Time)","405394","Untrustworthy,Trustworthy","","null","","","","decisionFB","","","<div class='trialDiv'><img src='Fruit/Kiwi.png'><br><font class='baseline'><strong>Kiwi Kash</strong><p>Choose number of points to bet.</font><div class='respPicDiv'><img src='img/responseButtonOffersNo0L1.png' class='respPic'></div></div>","null","11","Kiwi Kash","Fruit/Kiwi.png","Lost","0.8,0.2","9","0.8","188","32","",""
"html-keyboard-response","105","156858","0.0-11.0-3.31","5f9873550513db147c9d2958","bdp_rwlrn","Tue Mar 14 2023 13:51:14 GMT-0400 (Eastern Daylight Time)","405394","Untrustworthy,Trustworthy","","null","","","","feedback","","","<div class='respPicDiv'><img src='img/responseButtonOffersNo0_wht.png' class='respPic'></div><div class='trialDiv'><img src='Fruit/Kiwi.png'><br><font class='baseline'><strong>Kiwi Kash</strong><p><strong><font class='negOutcome'>You LOST</font><p>You bet: 1</strong></font> &nbsp; &nbsp; &nbsp; &nbsp; &nbsp; &nbsp;<font class='negOutcome'>You receive: <strong>0</strong></font></div>","null","11","Kiwi Kash","Fruit/Kiwi.png","Lost","0.8,0.2","9","0.8","188","32","",""
"html-keyboard-response","106","157292","0.0-11.0-1.32","5f9873550513db147c9d2958","bdp_rwlrn","Tue Mar 14 2023 13:51:14 GMT-0400 (Eastern Daylight Time)","405394","Untrustworthy,Trustworthy","","433","","","","decision","","","<div class='trialDiv'><img src='Fruit/apple.png'><br><font class='baseline'><strong>Awesome Apples</strong><p>Choose number of points to bet.</font><div class='respPicDiv'><img src='img/responseButtonOffersNo0L.png' class='respPic'></div></div>","5","11","Awesome Apples","Fruit/apple.png","Won","0.35,0.8","9","0.35","193","33","",""
"html-keyboard-response","107","157544","0.0-11.0-2.32","5f9873550513db147c9d2958","bdp_rwlrn","Tue Mar 14 2023 13:51:14 GMT-0400 (Eastern Daylight Time)","405394","Untrustworthy,Trustworthy","","null","","","","decisionFB","","","<div class='trialDiv'><img src='Fruit/apple.png'><br><font class='baseline'><strong>Awesome Apples</strong><p>Choose number of points to bet.</font><div class='respPicDiv'><img src='img/responseButtonOffersNo0L5.png' class='respPic'></div></div>","null","11","Awesome Apples","Fruit/apple.png","Won","0.35,0.8","9","0.35","188","33","",""
"html-keyboard-response","108","158546","0.0-11.0-3.32","5f9873550513db147c9d2958","bdp_rwlrn","Tue Mar 14 2023 13:51:14 GMT-0400 (Eastern Daylight Time)","405394","Untrustworthy,Trustworthy","","null","","","","feedback","","","<div class='respPicDiv'><img src='img/responseButtonOffersNo0_wht.png' class='respPic'></div><div class='trialDiv'><img src='Fruit/apple.png'><br><font class='baseline'><strong>Awesome Apples</strong><p><strong><font class='posOutcome'>You WON</font><p>You bet: 5</strong></font> &nbsp; &nbsp; &nbsp; &nbsp; &nbsp; &nbsp;<font class='posOutcome'>you receive: <strong>10</strong></font></div>","null","11","Awesome Apples","Fruit/apple.png","Won","0.35,0.8","9","0.35","198","33","",""
"html-keyboard-response","109","158997","0.0-11.0-1.33","5f9873550513db147c9d2958","bdp_rwlrn","Tue Mar 14 2023 13:51:14 GMT-0400 (Eastern Daylight Time)","405394","Untrustworthy,Trustworthy","","450","","","","decision","","","<div class='trialDiv'><img src='Fruit/pineapple.png'><br><font class='baseline'><strong>Primo Pineapple</strong><p>Choose number of points to bet.</font><div class='respPicDiv'><img src='img/responseButtonOffersNo0L.png' class='respPic'></div></div>","5","12","Primo Pineapple","Fruit/pineapple.png","Lost","0.8,0.35","12","0.8","203","34","",""
"html-keyboard-response","110","159249","0.0-11.0-2.33","5f9873550513db147c9d2958","bdp_rwlrn","Tue Mar 14 2023 13:51:14 GMT-0400 (Eastern Daylight Time)","405394","Untrustworthy,Trustworthy","","null","","","","decisionFB","","","<div class='trialDiv'><img src='Fruit/pineapple.png'><br><font class='baseline'><strong>Primo Pineapple</strong><p>Choose number of points to bet.</font><div class='respPicDiv'><img src='img/responseButtonOffersNo0L5.png' class='respPic'></div></div>","null","12","Primo Pineapple","Fruit/pineapple.png","Lost","0.8,0.35","12","0.8","198","34","",""
"html-keyboard-response","111","160251","0.0-11.0-3.33","5f9873550513db147c9d2958","bdp_rwlrn","Tue Mar 14 2023 13:51:14 GMT-0400 (Eastern Daylight Time)","405394","Untrustworthy,Trustworthy","","null","","","","feedback","","","<div class='respPicDiv'><img src='img/responseButtonOffersNo0_wht.png' class='respPic'></div><div class='trialDiv'><img src='Fruit/pineapple.png'><br><font class='baseline'><strong>Primo Pineapple</strong><p><strong><font class='negOutcome'>You LOST</font><p>You bet: 5</strong></font> &nbsp; &nbsp; &nbsp; &nbsp; &nbsp; &nbsp;<font class='negOutcome'>You receive: <strong>0</strong></font></div>","null","12","Primo Pineapple","Fruit/pineapple.png","Lost","0.8,0.35","12","0.8","198","34","",""
"html-keyboard-response","112","161171","0.0-11.0-1.34","5f9873550513db147c9d2958","bdp_rwlrn","Tue Mar 14 2023 13:51:14 GMT-0400 (Eastern Daylight Time)","405394","Untrustworthy,Trustworthy","","919","","","","decision","","","<div class='trialDiv'><img src='Fruit/Kiwi.png'><br><font class='baseline'><strong>Kiwi Kash</strong><p>Choose number of points to bet.</font><div class='respPicDiv'><img src='img/responseButtonOffersNo0L.png' class='respPic'></div></div>","1","12","Kiwi Kash","Fruit/Kiwi.png","Lost","0.8,0.2","9","0.8","203","35","",""
"html-keyboard-response","113","161423","0.0-11.0-2.34","5f9873550513db147c9d2958","bdp_rwlrn","Tue Mar 14 2023 13:51:14 GMT-0400 (Eastern Daylight Time)","405394","Untrustworthy,Trustworthy","","null","","","","decisionFB","","","<div class='trialDiv'><img src='Fruit/Kiwi.png'><br><font class='baseline'><strong>Kiwi Kash</strong><p>Choose number of points to bet.</font><div class='respPicDiv'><img src='img/responseButtonOffersNo0L1.png' class='respPic'></div></div>","null","12","Kiwi Kash","Fruit/Kiwi.png","Lost","0.8,0.2","9","0.8","202","35","",""
"html-keyboard-response","114","162426","0.0-11.0-3.34","5f9873550513db147c9d2958","bdp_rwlrn","Tue Mar 14 2023 13:51:14 GMT-0400 (Eastern Daylight Time)","405394","Untrustworthy,Trustworthy","","null","","","","feedback","","","<div class='respPicDiv'><img src='img/responseButtonOffersNo0_wht.png' class='respPic'></div><div class='trialDiv'><img src='Fruit/Kiwi.png'><br><font class='baseline'><strong>Kiwi Kash</strong><p><strong><font class='negOutcome'>You LOST</font><p>You bet: 1</strong></font> &nbsp; &nbsp; &nbsp; &nbsp; &nbsp; &nbsp;<font class='negOutcome'>You receive: <strong>0</strong></font></div>","null","12","Kiwi Kash","Fruit/Kiwi.png","Lost","0.8,0.2","9","0.8","202","35","",""
"html-keyboard-response","115","166146","0.0-11.0-1.35","5f9873550513db147c9d2958","bdp_rwlrn","Tue Mar 14 2023 13:51:14 GMT-0400 (Eastern Daylight Time)","405394","Untrustworthy,Trustworthy","","3719","","","","decision","","","<div class='trialDiv'><img src='Fruit/apple.png'><br><font class='baseline'><strong>Awesome Apples</strong><p>Choose number of points to bet.</font><div class='respPicDiv'><img src='img/responseButtonOffersNo0L.png' class='respPic'></div></div>","5","12","Awesome Apples","Fruit/apple.png","Won","0.35,0.8","9","0.35","207","36","",""
"html-keyboard-response","116","166397","0.0-11.0-2.35","5f9873550513db147c9d2958","bdp_rwlrn","Tue Mar 14 2023 13:51:14 GMT-0400 (Eastern Daylight Time)","405394","Untrustworthy,Trustworthy","","null","","","","decisionFB","","","<div class='trialDiv'><img src='Fruit/apple.png'><br><font class='baseline'><strong>Awesome Apples</strong><p>Choose number of points to bet.</font><div class='respPicDiv'><img src='img/responseButtonOffersNo0L5.png' class='respPic'></div></div>","null","12","Awesome Apples","Fruit/apple.png","Won","0.35,0.8","9","0.35","202","36","",""
"html-keyboard-response","117","167399","0.0-11.0-3.35","5f9873550513db147c9d2958","bdp_rwlrn","Tue Mar 14 2023 13:51:14 GMT-0400 (Eastern Daylight Time)","405394","Untrustworthy,Trustworthy","","null","","","","feedback","","","<div class='respPicDiv'><img src='img/responseButtonOffersNo0_wht.png' class='respPic'></div><div class='trialDiv'><img src='Fruit/apple.png'><br><font class='baseline'><strong>Awesome Apples</strong><p><strong><font class='posOutcome'>You WON</font><p>You bet: 5</strong></font> &nbsp; &nbsp; &nbsp; &nbsp; &nbsp; &nbsp;<font class='posOutcome'>you receive: <strong>10</strong></font></div>","null","12","Awesome Apples","Fruit/apple.png","Won","0.35,0.8","9","0.35","212","36","",""
"html-keyboard-response","118","168213","0.0-11.0-1.36","5f9873550513db147c9d2958","bdp_rwlrn","Tue Mar 14 2023 13:51:14 GMT-0400 (Eastern Daylight Time)","405394","Untrustworthy,Trustworthy","","814","","","","decision","","","<div class='trialDiv'><img src='Fruit/Kiwi.png'><br><font class='baseline'><strong>Kiwi Kash</strong><p>Choose number of points to bet.</font><div class='respPicDiv'><img src='img/responseButtonOffersNo0L.png' class='respPic'></div></div>","1","13","Kiwi Kash","Fruit/Kiwi.png","Lost","0.8,0.2","9","0.8","217","37","",""
"html-keyboard-response","119","168465","0.0-11.0-2.36","5f9873550513db147c9d2958","bdp_rwlrn","Tue Mar 14 2023 13:51:14 GMT-0400 (Eastern Daylight Time)","405394","Untrustworthy,Trustworthy","","null","","","","decisionFB","","","<div class='trialDiv'><img src='Fruit/Kiwi.png'><br><font class='baseline'><strong>Kiwi Kash</strong><p>Choose number of points to bet.</font><div class='respPicDiv'><img src='img/responseButtonOffersNo0L1.png' class='respPic'></div></div>","null","13","Kiwi Kash","Fruit/Kiwi.png","Lost","0.8,0.2","9","0.8","216","37","",""
"html-keyboard-response","120","169467","0.0-11.0-3.36","5f9873550513db147c9d2958","bdp_rwlrn","Tue Mar 14 2023 13:51:14 GMT-0400 (Eastern Daylight Time)","405394","Untrustworthy,Trustworthy","","null","","","","feedback","","","<div class='respPicDiv'><img src='img/responseButtonOffersNo0_wht.png' class='respPic'></div><div class='trialDiv'><img src='Fruit/Kiwi.png'><br><font class='baseline'><strong>Kiwi Kash</strong><p><strong><font class='negOutcome'>You LOST</font><p>You bet: 1</strong></font> &nbsp; &nbsp; &nbsp; &nbsp; &nbsp; &nbsp;<font class='negOutcome'>You receive: <strong>0</strong></font></div>","null","13","Kiwi Kash","Fruit/Kiwi.png","Lost","0.8,0.2","9","0.8","216","37","",""
"html-keyboard-response","121","170396","0.0-11.0-1.37","5f9873550513db147c9d2958","bdp_rwlrn","Tue Mar 14 2023 13:51:14 GMT-0400 (Eastern Daylight Time)","405394","Untrustworthy,Trustworthy","","928","","","","decision","","","<div class='trialDiv'><img src='Fruit/apple.png'><br><font class='baseline'><strong>Awesome Apples</strong><p>Choose number of points to bet.</font><div class='respPicDiv'><img src='img/responseButtonOffersNo0L.png' class='respPic'></div></div>","5","13","Awesome Apples","Fruit/apple.png","Won","0.35,0.8","9","0.35","221","38","",""
"html-keyboard-response","122","170647","0.0-11.0-2.37","5f9873550513db147c9d2958","bdp_rwlrn","Tue Mar 14 2023 13:51:14 GMT-0400 (Eastern Daylight Time)","405394","Untrustworthy,Trustworthy","","null","","","","decisionFB","","","<div class='trialDiv'><img src='Fruit/apple.png'><br><font class='baseline'><strong>Awesome Apples</strong><p>Choose number of points to bet.</font><div class='respPicDiv'><img src='img/responseButtonOffersNo0L5.png' class='respPic'></div></div>","null","13","Awesome Apples","Fruit/apple.png","Won","0.35,0.8","9","0.35","216","38","",""
"html-keyboard-response","123","171650","0.0-11.0-3.37","5f9873550513db147c9d2958","bdp_rwlrn","Tue Mar 14 2023 13:51:14 GMT-0400 (Eastern Daylight Time)","405394","Untrustworthy,Trustworthy","","null","","","","feedback","","","<div class='respPicDiv'><img src='img/responseButtonOffersNo0_wht.png' class='respPic'></div><div class='trialDiv'><img src='Fruit/apple.png'><br><font class='baseline'><strong>Awesome Apples</strong><p><strong><font class='posOutcome'>You WON</font><p>You bet: 5</strong></font> &nbsp; &nbsp; &nbsp; &nbsp; &nbsp; &nbsp;<font class='posOutcome'>you receive: <strong>10</strong></font></div>","null","13","Awesome Apples","Fruit/apple.png","Won","0.35,0.8","9","0.35","226","38","",""
"html-keyboard-response","124","173207","0.0-11.0-1.38","5f9873550513db147c9d2958","bdp_rwlrn","Tue Mar 14 2023 13:51:14 GMT-0400 (Eastern Daylight Time)","405394","Untrustworthy,Trustworthy","","1557","","","","decision","","","<div class='trialDiv'><img src='Fruit/pineapple.png'><br><font class='baseline'><strong>Primo Pineapple</strong><p>Choose number of points to bet.</font><div class='respPicDiv'><img src='img/responseButtonOffersNo0L.png' class='respPic'></div></div>","3","13","Primo Pineapple","Fruit/pineapple.png","Won","0.8,0.35","12","0.8","231","39","",""
"html-keyboard-response","125","173458","0.0-11.0-2.38","5f9873550513db147c9d2958","bdp_rwlrn","Tue Mar 14 2023 13:51:14 GMT-0400 (Eastern Daylight Time)","405394","Untrustworthy,Trustworthy","","null","","","","decisionFB","","","<div class='trialDiv'><img src='Fruit/pineapple.png'><br><font class='baseline'><strong>Primo Pineapple</strong><p>Choose number of points to bet.</font><div class='respPicDiv'><img src='img/responseButtonOffersNo0L3.png' class='respPic'></div></div>","null","13","Primo Pineapple","Fruit/pineapple.png","Won","0.8,0.35","12","0.8","228","39","",""
"html-keyboard-response","126","174460","0.0-11.0-3.38","5f9873550513db147c9d2958","bdp_rwlrn","Tue Mar 14 2023 13:51:14 GMT-0400 (Eastern Daylight Time)","405394","Untrustworthy,Trustworthy","","null","","","","feedback","","","<div class='respPicDiv'><img src='img/responseButtonOffersNo0_wht.png' class='respPic'></div><div class='trialDiv'><img src='Fruit/pineapple.png'><br><font class='baseline'><strong>Primo Pineapple</strong><p><strong><font class='posOutcome'>You WON</font><p>You bet: 3</strong></font> &nbsp; &nbsp; &nbsp; &nbsp; &nbsp; &nbsp;<font class='posOutcome'>you receive: <strong>6</strong></font></div>","null","13","Primo Pineapple","Fruit/pineapple.png","Won","0.8,0.35","12","0.8","234","39","",""
"html-keyboard-response","127","175903","0.0-11.0-1.39","5f9873550513db147c9d2958","bdp_rwlrn","Tue Mar 14 2023 13:51:14 GMT-0400 (Eastern Daylight Time)","405394","Untrustworthy,Trustworthy","","1442","","","","decision","","","<div class='trialDiv'><img src='Fruit/Kiwi.png'><br><font class='baseline'><strong>Kiwi Kash</strong><p>Choose number of points to bet.</font><div class='respPicDiv'><img src='img/responseButtonOffersNo0L.png' class='respPic'></div></div>","1","14","Kiwi Kash","Fruit/Kiwi.png","Lost","0.8,0.2","9","0.8","239","40","",""
"html-keyboard-response","128","176156","0.0-11.0-2.39","5f9873550513db147c9d2958","bdp_rwlrn","Tue Mar 14 2023 13:51:14 GMT-0400 (Eastern Daylight Time)","405394","Untrustworthy,Trustworthy","","null","","","","decisionFB","","","<div class='trialDiv'><img src='Fruit/Kiwi.png'><br><font class='baseline'><strong>Kiwi Kash</strong><p>Choose number of points to bet.</font><div class='respPicDiv'><img src='img/responseButtonOffersNo0L1.png' class='respPic'></div></div>","null","14","Kiwi Kash","Fruit/Kiwi.png","Lost","0.8,0.2","9","0.8","238","40","",""
"html-keyboard-response","129","177158","0.0-11.0-3.39","5f9873550513db147c9d2958","bdp_rwlrn","Tue Mar 14 2023 13:51:14 GMT-0400 (Eastern Daylight Time)","405394","Untrustworthy,Trustworthy","","null","","","","feedback","","","<div class='respPicDiv'><img src='img/responseButtonOffersNo0_wht.png' class='respPic'></div><div class='trialDiv'><img src='Fruit/Kiwi.png'><br><font class='baseline'><strong>Kiwi Kash</strong><p><strong><font class='negOutcome'>You LOST</font><p>You bet: 1</strong></font> &nbsp; &nbsp; &nbsp; &nbsp; &nbsp; &nbsp;<font class='negOutcome'>You receive: <strong>0</strong></font></div>","null","14","Kiwi Kash","Fruit/Kiwi.png","Lost","0.8,0.2","9","0.8","238","40","",""
"html-keyboard-response","130","179078","0.0-11.0-1.40","5f9873550513db147c9d2958","bdp_rwlrn","Tue Mar 14 2023 13:51:14 GMT-0400 (Eastern Daylight Time)","405394","Untrustworthy,Trustworthy","","1917","","","","decision","","","<div class='trialDiv'><img src='Fruit/apple.png'><br><font class='baseline'><strong>Awesome Apples</strong><p>Choose number of points to bet.</font><div class='respPicDiv'><img src='img/responseButtonOffersNo0L.png' class='respPic'></div></div>","5","14","Awesome Apples","Fruit/apple.png","Won","0.35,0.8","9","0.35","243","41","",""
"html-keyboard-response","131","179331","0.0-11.0-2.40","5f9873550513db147c9d2958","bdp_rwlrn","Tue Mar 14 2023 13:51:14 GMT-0400 (Eastern Daylight Time)","405394","Untrustworthy,Trustworthy","","null","","","","decisionFB","","","<div class='trialDiv'><img src='Fruit/apple.png'><br><font class='baseline'><strong>Awesome Apples</strong><p>Choose number of points to bet.</font><div class='respPicDiv'><img src='img/responseButtonOffersNo0L5.png' class='respPic'></div></div>","null","14","Awesome Apples","Fruit/apple.png","Won","0.35,0.8","9","0.35","238","41","",""
"html-keyboard-response","132","180333","0.0-11.0-3.40","5f9873550513db147c9d2958","bdp_rwlrn","Tue Mar 14 2023 13:51:14 GMT-0400 (Eastern Daylight Time)","405394","Untrustworthy,Trustworthy","","null","","","","feedback","","","<div class='respPicDiv'><img src='img/responseButtonOffersNo0_wht.png' class='respPic'></div><div class='trialDiv'><img src='Fruit/apple.png'><br><font class='baseline'><strong>Awesome Apples</strong><p><strong><font class='posOutcome'>You WON</font><p>You bet: 5</strong></font> &nbsp; &nbsp; &nbsp; &nbsp; &nbsp; &nbsp;<font class='posOutcome'>you receive: <strong>10</strong></font></div>","null","14","Awesome Apples","Fruit/apple.png","Won","0.35,0.8","9","0.35","248","41","",""
"html-keyboard-response","133","180803","0.0-11.0-1.41","5f9873550513db147c9d2958","bdp_rwlrn","Tue Mar 14 2023 13:51:14 GMT-0400 (Eastern Daylight Time)","405394","Untrustworthy,Trustworthy","","469","","","","decision","","","<div class='trialDiv'><img src='Fruit/pineapple.png'><br><font class='baseline'><strong>Primo Pineapple</strong><p>Choose number of points to bet.</font><div class='respPicDiv'><img src='img/responseButtonOffersNo0L.png' class='respPic'></div></div>","5","14","Primo Pineapple","Fruit/pineapple.png","Lost","0.8,0.35","12","0.8","253","42","",""
"html-keyboard-response","134","181055","0.0-11.0-2.41","5f9873550513db147c9d2958","bdp_rwlrn","Tue Mar 14 2023 13:51:14 GMT-0400 (Eastern Daylight Time)","405394","Untrustworthy,Trustworthy","","null","","","","decisionFB","","","<div class='trialDiv'><img src='Fruit/pineapple.png'><br><font class='baseline'><strong>Primo Pineapple</strong><p>Choose number of points to bet.</font><div class='respPicDiv'><img src='img/responseButtonOffersNo0L5.png' class='respPic'></div></div>","null","14","Primo Pineapple","Fruit/pineapple.png","Lost","0.8,0.35","12","0.8","248","42","",""
"html-keyboard-response","135","182056","0.0-11.0-3.41","5f9873550513db147c9d2958","bdp_rwlrn","Tue Mar 14 2023 13:51:14 GMT-0400 (Eastern Daylight Time)","405394","Untrustworthy,Trustworthy","","null","","","","feedback","","","<div class='respPicDiv'><img src='img/responseButtonOffersNo0_wht.png' class='respPic'></div><div class='trialDiv'><img src='Fruit/pineapple.png'><br><font class='baseline'><strong>Primo Pineapple</strong><p><strong><font class='negOutcome'>You LOST</font><p>You bet: 5</strong></font> &nbsp; &nbsp; &nbsp; &nbsp; &nbsp; &nbsp;<font class='negOutcome'>You receive: <strong>0</strong></font></div>","null","14","Primo Pineapple","Fruit/pineapple.png","Lost","0.8,0.35","12","0.8","248","42","",""
"html-keyboard-response","136","182697","0.0-11.0-1.42","5f9873550513db147c9d2958","bdp_rwlrn","Tue Mar 14 2023 13:51:14 GMT-0400 (Eastern Daylight Time)","405394","Untrustworthy,Trustworthy","","640","","","","decision","","","<div class='trialDiv'><img src='Fruit/Kiwi.png'><br><font class='baseline'><strong>Kiwi Kash</strong><p>Choose number of points to bet.</font><div class='respPicDiv'><img src='img/responseButtonOffersNo0L.png' class='respPic'></div></div>","5","15","Kiwi Kash","Fruit/Kiwi.png","Lost","0.8,0.2","9","0.8","253","43","",""
"html-keyboard-response","137","182949","0.0-11.0-2.42","5f9873550513db147c9d2958","bdp_rwlrn","Tue Mar 14 2023 13:51:14 GMT-0400 (Eastern Daylight Time)","405394","Untrustworthy,Trustworthy","","null","","","","decisionFB","","","<div class='trialDiv'><img src='Fruit/Kiwi.png'><br><font class='baseline'><strong>Kiwi Kash</strong><p>Choose number of points to bet.</font><div class='respPicDiv'><img src='img/responseButtonOffersNo0L5.png' class='respPic'></div></div>","null","15","Kiwi Kash","Fruit/Kiwi.png","Lost","0.8,0.2","9","0.8","248","43","",""
"html-keyboard-response","138","183950","0.0-11.0-3.42","5f9873550513db147c9d2958","bdp_rwlrn","Tue Mar 14 2023 13:51:14 GMT-0400 (Eastern Daylight Time)","405394","Untrustworthy,Trustworthy","","null","","","","feedback","","","<div class='respPicDiv'><img src='img/responseButtonOffersNo0_wht.png' class='respPic'></div><div class='trialDiv'><img src='Fruit/Kiwi.png'><br><font class='baseline'><strong>Kiwi Kash</strong><p><strong><font class='negOutcome'>You LOST</font><p>You bet: 5</strong></font> &nbsp; &nbsp; &nbsp; &nbsp; &nbsp; &nbsp;<font class='negOutcome'>You receive: <strong>0</strong></font></div>","null","15","Kiwi Kash","Fruit/Kiwi.png","Lost","0.8,0.2","9","0.8","248","43","",""
"html-keyboard-response","139","184521","0.0-11.0-1.43","5f9873550513db147c9d2958","bdp_rwlrn","Tue Mar 14 2023 13:51:14 GMT-0400 (Eastern Daylight Time)","405394","Untrustworthy,Trustworthy","","569","","","","decision","","","<div class='trialDiv'><img src='Fruit/apple.png'><br><font class='baseline'><strong>Awesome Apples</strong><p>Choose number of points to bet.</font><div class='respPicDiv'><img src='img/responseButtonOffersNo0L.png' class='respPic'></div></div>","5","15","Awesome Apples","Fruit/apple.png","Won","0.35,0.8","9","0.35","253","44","",""
"html-keyboard-response","140","184773","0.0-11.0-2.43","5f9873550513db147c9d2958","bdp_rwlrn","Tue Mar 14 2023 13:51:14 GMT-0400 (Eastern Daylight Time)","405394","Untrustworthy,Trustworthy","","null","","","","decisionFB","","","<div class='trialDiv'><img src='Fruit/apple.png'><br><font class='baseline'><strong>Awesome Apples</strong><p>Choose number of points to bet.</font><div class='respPicDiv'><img src='img/responseButtonOffersNo0L5.png' class='respPic'></div></div>","null","15","Awesome Apples","Fruit/apple.png","Won","0.35,0.8","9","0.35","248","44","",""
"html-keyboard-response","141","185774","0.0-11.0-3.43","5f9873550513db147c9d2958","bdp_rwlrn","Tue Mar 14 2023 13:51:14 GMT-0400 (Eastern Daylight Time)","405394","Untrustworthy,Trustworthy","","null","","","","feedback","","","<div class='respPicDiv'><img src='img/responseButtonOffersNo0_wht.png' class='respPic'></div><div class='trialDiv'><img src='Fruit/apple.png'><br><font class='baseline'><strong>Awesome Apples</strong><p><strong><font class='posOutcome'>You WON</font><p>You bet: 5</strong></font> &nbsp; &nbsp; &nbsp; &nbsp; &nbsp; &nbsp;<font class='posOutcome'>you receive: <strong>10</strong></font></div>","null","15","Awesome Apples","Fruit/apple.png","Won","0.35,0.8","9","0.35","258","44","",""
"html-keyboard-response","142","187051","0.0-11.0-1.44","5f9873550513db147c9d2958","bdp_rwlrn","Tue Mar 14 2023 13:51:14 GMT-0400 (Eastern Daylight Time)","405394","Untrustworthy,Trustworthy","","1276","","","","decision","","","<div class='trialDiv'><img src='Fruit/pineapple.png'><br><font class='baseline'><strong>Primo Pineapple</strong><p>Choose number of points to bet.</font><div class='respPicDiv'><img src='img/responseButtonOffersNo0L.png' class='respPic'></div></div>","5","15","Primo Pineapple","Fruit/pineapple.png","Lost","0.8,0.35","12","0.8","263","45","",""
"html-keyboard-response","143","187303","0.0-11.0-2.44","5f9873550513db147c9d2958","bdp_rwlrn","Tue Mar 14 2023 13:51:14 GMT-0400 (Eastern Daylight Time)","405394","Untrustworthy,Trustworthy","","null","","","","decisionFB","","","<div class='trialDiv'><img src='Fruit/pineapple.png'><br><font class='baseline'><strong>Primo Pineapple</strong><p>Choose number of points to bet.</font><div class='respPicDiv'><img src='img/responseButtonOffersNo0L5.png' class='respPic'></div></div>","null","15","Primo Pineapple","Fruit/pineapple.png","Lost","0.8,0.35","12","0.8","258","45","",""
"html-keyboard-response","144","188305","0.0-11.0-3.44","5f9873550513db147c9d2958","bdp_rwlrn","Tue Mar 14 2023 13:51:14 GMT-0400 (Eastern Daylight Time)","405394","Untrustworthy,Trustworthy","","null","","","","feedback","","","<div class='respPicDiv'><img src='img/responseButtonOffersNo0_wht.png' class='respPic'></div><div class='trialDiv'><img src='Fruit/pineapple.png'><br><font class='baseline'><strong>Primo Pineapple</strong><p><strong><font class='negOutcome'>You LOST</font><p>You bet: 5</strong></font> &nbsp; &nbsp; &nbsp; &nbsp; &nbsp; &nbsp;<font class='negOutcome'>You receive: <strong>0</strong></font></div>","null","15","Primo Pineapple","Fruit/pineapple.png","Lost","0.8,0.35","12","0.8","258","45","",""
"html-keyboard-response","145","189772","0.0-11.0-1.45","5f9873550513db147c9d2958","bdp_rwlrn","Tue Mar 14 2023 13:51:14 GMT-0400 (Eastern Daylight Time)","405394","Untrustworthy,Trustworthy","","1466","","","","decision","","","<div class='trialDiv'><img src='Fruit/apple.png'><br><font class='baseline'><strong>Awesome Apples</strong><p>Choose number of points to bet.</font><div class='respPicDiv'><img src='img/responseButtonOffersNo0L.png' class='respPic'></div></div>","5","16","Awesome Apples","Fruit/apple.png","Won","0.35,0.8","9","0.35","263","46","",""
"html-keyboard-response","146","190025","0.0-11.0-2.45","5f9873550513db147c9d2958","bdp_rwlrn","Tue Mar 14 2023 13:51:14 GMT-0400 (Eastern Daylight Time)","405394","Untrustworthy,Trustworthy","","null","","","","decisionFB","","","<div class='trialDiv'><img src='Fruit/apple.png'><br><font class='baseline'><strong>Awesome Apples</strong><p>Choose number of points to bet.</font><div class='respPicDiv'><img src='img/responseButtonOffersNo0L5.png' class='respPic'></div></div>","null","16","Awesome Apples","Fruit/apple.png","Won","0.35,0.8","9","0.35","258","46","",""
"html-keyboard-response","147","191027","0.0-11.0-3.45","5f9873550513db147c9d2958","bdp_rwlrn","Tue Mar 14 2023 13:51:14 GMT-0400 (Eastern Daylight Time)","405394","Untrustworthy,Trustworthy","","null","","","","feedback","","","<div class='respPicDiv'><img src='img/responseButtonOffersNo0_wht.png' class='respPic'></div><div class='trialDiv'><img src='Fruit/apple.png'><br><font class='baseline'><strong>Awesome Apples</strong><p><strong><font class='posOutcome'>You WON</font><p>You bet: 5</strong></font> &nbsp; &nbsp; &nbsp; &nbsp; &nbsp; &nbsp;<font class='posOutcome'>you receive: <strong>10</strong></font></div>","null","16","Awesome Apples","Fruit/apple.png","Won","0.35,0.8","9","0.35","268","46","",""
"html-keyboard-response","148","191773","0.0-11.0-1.46","5f9873550513db147c9d2958","bdp_rwlrn","Tue Mar 14 2023 13:51:14 GMT-0400 (Eastern Daylight Time)","405394","Untrustworthy,Trustworthy","","743","","","","decision","","","<div class='trialDiv'><img src='Fruit/pineapple.png'><br><font class='baseline'><strong>Primo Pineapple</strong><p>Choose number of points to bet.</font><div class='respPicDiv'><img src='img/responseButtonOffersNo0L.png' class='respPic'></div></div>","5","16","Primo Pineapple","Fruit/pineapple.png","Lost","0.8,0.35","12","0.8","273","47","",""
"html-keyboard-response","149","192025","0.0-11.0-2.46","5f9873550513db147c9d2958","bdp_rwlrn","Tue Mar 14 2023 13:51:14 GMT-0400 (Eastern Daylight Time)","405394","Untrustworthy,Trustworthy","","null","","","","decisionFB","","","<div class='trialDiv'><img src='Fruit/pineapple.png'><br><font class='baseline'><strong>Primo Pineapple</strong><p>Choose number of points to bet.</font><div class='respPicDiv'><img src='img/responseButtonOffersNo0L5.png' class='respPic'></div></div>","null","16","Primo Pineapple","Fruit/pineapple.png","Lost","0.8,0.35","12","0.8","268","47","",""
"html-keyboard-response","150","193027","0.0-11.0-3.46","5f9873550513db147c9d2958","bdp_rwlrn","Tue Mar 14 2023 13:51:14 GMT-0400 (Eastern Daylight Time)","405394","Untrustworthy,Trustworthy","","null","","","","feedback","","","<div class='respPicDiv'><img src='img/responseButtonOffersNo0_wht.png' class='respPic'></div><div class='trialDiv'><img src='Fruit/pineapple.png'><br><font class='baseline'><strong>Primo Pineapple</strong><p><strong><font class='negOutcome'>You LOST</font><p>You bet: 5</strong></font> &nbsp; &nbsp; &nbsp; &nbsp; &nbsp; &nbsp;<font class='negOutcome'>You receive: <strong>0</strong></font></div>","null","16","Primo Pineapple","Fruit/pineapple.png","Lost","0.8,0.35","12","0.8","268","47","",""
"html-keyboard-response","151","194225","0.0-11.0-1.47","5f9873550513db147c9d2958","bdp_rwlrn","Tue Mar 14 2023 13:51:14 GMT-0400 (Eastern Daylight Time)","405394","Untrustworthy,Trustworthy","","1197","","","","decision","","","<div class='trialDiv'><img src='Fruit/Kiwi.png'><br><font class='baseline'><strong>Kiwi Kash</strong><p>Choose number of points to bet.</font><div class='respPicDiv'><img src='img/responseButtonOffersNo0L.png' class='respPic'></div></div>","1","16","Kiwi Kash","Fruit/Kiwi.png","Won","0.8,0.2","9","0.8","273","48","",""
"html-keyboard-response","152","194477","0.0-11.0-2.47","5f9873550513db147c9d2958","bdp_rwlrn","Tue Mar 14 2023 13:51:14 GMT-0400 (Eastern Daylight Time)","405394","Untrustworthy,Trustworthy","","null","","","","decisionFB","","","<div class='trialDiv'><img src='Fruit/Kiwi.png'><br><font class='baseline'><strong>Kiwi Kash</strong><p>Choose number of points to bet.</font><div class='respPicDiv'><img src='img/responseButtonOffersNo0L1.png' class='respPic'></div></div>","null","16","Kiwi Kash","Fruit/Kiwi.png","Won","0.8,0.2","9","0.8","272","48","",""
"html-keyboard-response","153","195480","0.0-11.0-3.47","5f9873550513db147c9d2958","bdp_rwlrn","Tue Mar 14 2023 13:51:14 GMT-0400 (Eastern Daylight Time)","405394","Untrustworthy,Trustworthy","","null","","","","feedback","","","<div class='respPicDiv'><img src='img/responseButtonOffersNo0_wht.png' class='respPic'></div><div class='trialDiv'><img src='Fruit/Kiwi.png'><br><font class='baseline'><strong>Kiwi Kash</strong><p><strong><font class='posOutcome'>You WON</font><p>You bet: 1</strong></font> &nbsp; &nbsp; &nbsp; &nbsp; &nbsp; &nbsp;<font class='posOutcome'>you receive: <strong>2</strong></font></div>","null","16","Kiwi Kash","Fruit/Kiwi.png","Won","0.8,0.2","9","0.8","274","48","",""
"html-keyboard-response","154","197076","0.0-11.0-1.48","5f9873550513db147c9d2958","bdp_rwlrn","Tue Mar 14 2023 13:51:14 GMT-0400 (Eastern Daylight Time)","405394","Untrustworthy,Trustworthy","","1596","","","","decision","","","<div class='trialDiv'><img src='Fruit/pineapple.png'><br><font class='baseline'><strong>Primo Pineapple</strong><p>Choose number of points to bet.</font><div class='respPicDiv'><img src='img/responseButtonOffersNo0L.png' class='respPic'></div></div>","5","17","Primo Pineapple","Fruit/pineapple.png","Won","0.8,0.35","12","0.8","279","49","",""
"html-keyboard-response","155","197328","0.0-11.0-2.48","5f9873550513db147c9d2958","bdp_rwlrn","Tue Mar 14 2023 13:51:14 GMT-0400 (Eastern Daylight Time)","405394","Untrustworthy,Trustworthy","","null","","","","decisionFB","","","<div class='trialDiv'><img src='Fruit/pineapple.png'><br><font class='baseline'><strong>Primo Pineapple</strong><p>Choose number of points to bet.</font><div class='respPicDiv'><img src='img/responseButtonOffersNo0L5.png' class='respPic'></div></div>","null","17","Primo Pineapple","Fruit/pineapple.png","Won","0.8,0.35","12","0.8","274","49","",""
"html-keyboard-response","156","198330","0.0-11.0-3.48","5f9873550513db147c9d2958","bdp_rwlrn","Tue Mar 14 2023 13:51:14 GMT-0400 (Eastern Daylight Time)","405394","Untrustworthy,Trustworthy","","null","","","","feedback","","","<div class='respPicDiv'><img src='img/responseButtonOffersNo0_wht.png' class='respPic'></div><div class='trialDiv'><img src='Fruit/pineapple.png'><br><font class='baseline'><strong>Primo Pineapple</strong><p><strong><font class='posOutcome'>You WON</font><p>You bet: 5</strong></font> &nbsp; &nbsp; &nbsp; &nbsp; &nbsp; &nbsp;<font class='posOutcome'>you receive: <strong>10</strong></font></div>","null","17","Primo Pineapple","Fruit/pineapple.png","Won","0.8,0.35","12","0.8","284","49","",""
"html-keyboard-response","157","199614","0.0-11.0-1.49","5f9873550513db147c9d2958","bdp_rwlrn","Tue Mar 14 2023 13:51:14 GMT-0400 (Eastern Daylight Time)","405394","Untrustworthy,Trustworthy","","1284","","","","decision","","","<div class='trialDiv'><img src='Fruit/Kiwi.png'><br><font class='baseline'><strong>Kiwi Kash</strong><p>Choose number of points to bet.</font><div class='respPicDiv'><img src='img/responseButtonOffersNo0L.png' class='respPic'></div></div>","5","17","Kiwi Kash","Fruit/Kiwi.png","Won","0.8,0.2","9","0.8","289","50","",""
"html-keyboard-response","158","199866","0.0-11.0-2.49","5f9873550513db147c9d2958","bdp_rwlrn","Tue Mar 14 2023 13:51:14 GMT-0400 (Eastern Daylight Time)","405394","Untrustworthy,Trustworthy","","null","","","","decisionFB","","","<div class='trialDiv'><img src='Fruit/Kiwi.png'><br><font class='baseline'><strong>Kiwi Kash</strong><p>Choose number of points to bet.</font><div class='respPicDiv'><img src='img/responseButtonOffersNo0L5.png' class='respPic'></div></div>","null","17","Kiwi Kash","Fruit/Kiwi.png","Won","0.8,0.2","9","0.8","284","50","",""
"html-keyboard-response","159","200868","0.0-11.0-3.49","5f9873550513db147c9d2958","bdp_rwlrn","Tue Mar 14 2023 13:51:14 GMT-0400 (Eastern Daylight Time)","405394","Untrustworthy,Trustworthy","","null","","","","feedback","","","<div class='respPicDiv'><img src='img/responseButtonOffersNo0_wht.png' class='respPic'></div><div class='trialDiv'><img src='Fruit/Kiwi.png'><br><font class='baseline'><strong>Kiwi Kash</strong><p><strong><font class='posOutcome'>You WON</font><p>You bet: 5</strong></font> &nbsp; &nbsp; &nbsp; &nbsp; &nbsp; &nbsp;<font class='posOutcome'>you receive: <strong>10</strong></font></div>","null","17","Kiwi Kash","Fruit/Kiwi.png","Won","0.8,0.2","9","0.8","294","50","",""
"html-keyboard-response","160","203928","0.0-11.0-1.50","5f9873550513db147c9d2958","bdp_rwlrn","Tue Mar 14 2023 13:51:14 GMT-0400 (Eastern Daylight Time)","405394","Untrustworthy,Trustworthy","","3058","","","","decision","","","<div class='trialDiv'><img src='Fruit/apple.png'><br><font class='baseline'><strong>Awesome Apples</strong><p>Choose number of points to bet.</font><div class='respPicDiv'><img src='img/responseButtonOffersNo0L.png' class='respPic'></div></div>","2","17","Awesome Apples","Fruit/apple.png","Won","0.35,0.8","9","0.35","299","51","",""
"html-keyboard-response","161","204179","0.0-11.0-2.50","5f9873550513db147c9d2958","bdp_rwlrn","Tue Mar 14 2023 13:51:14 GMT-0400 (Eastern Daylight Time)","405394","Untrustworthy,Trustworthy","","null","","","","decisionFB","","","<div class='trialDiv'><img src='Fruit/apple.png'><br><font class='baseline'><strong>Awesome Apples</strong><p>Choose number of points to bet.</font><div class='respPicDiv'><img src='img/responseButtonOffersNo0L2.png' class='respPic'></div></div>","null","17","Awesome Apples","Fruit/apple.png","Won","0.35,0.8","9","0.35","297","51","",""
