"event","trial","time","trialtype","subject_id","task","startTime","totalTime","labels","trial_type","trial_index","time_elapsed","internal_node_id","view_history","rt","success","stimulus","key_press","ltround","name","fileID","outcome","lottotype","lottoswpt","lottocurrpshare","point_total","round","faceID","face"
"focus","0","0","focusevent","63d9f41910c61f3eb102079f","bdp_rwlrn","Wed Mar 15 2023 14:30:07 GMT-0500 (Central Daylight Time)","600368","Trustworthy,Untrustworthy","","","","","","","","","","","","","","","","","","","",""
"","","","","63d9f41910c61f3eb102079f","bdp_rwlrn","Wed Mar 15 2023 14:30:07 GMT-0500 (Central Daylight Time)","600368","Trustworthy,Untrustworthy","pavlovia","0","16","0.0-0.0","","","","","","","","","","","","","","","",""
"","","","","63d9f41910c61f3eb102079f","bdp_rwlrn","Wed Mar 15 2023 14:30:07 GMT-0500 (Central Daylight Time)","600368","Trustworthy,Untrustworthy","instructions","1","4794","0.0-1.0","[{""page_index"":0,""viewing_time"":4777}]","4777","","","","","","","","","","","","","",""
"fullscreenexit","2","7886","fullscreenexit","63d9f41910c61f3eb102079f","bdp_rwlrn","Wed Mar 15 2023 14:30:07 GMT-0500 (Central Daylight Time)","600368","Trustworthy,Untrustworthy","","","","","","","","","","","","","","","","","","","",""
"","","","","63d9f41910c61f3eb102079f","bdp_rwlrn","Wed Mar 15 2023 14:30:07 GMT-0500 (Central Daylight Time)","600368","Trustworthy,Untrustworthy","fullscreen","2","8660","0.0-2.0","","","true","","","","","","","","","","","","",""
"","","","fullscreenfail","63d9f41910c61f3eb102079f","bdp_rwlrn","Wed Mar 15 2023 14:30:07 GMT-0500 (Central Daylight Time)","600368","Trustworthy,Untrustworthy","image-keyboard-response","3","16468","0.0-3.0-0.0","","7805","","","32","","","","","","","","","","",""
"","","","","63d9f41910c61f3eb102079f","bdp_rwlrn","Wed Mar 15 2023 14:30:07 GMT-0500 (Central Daylight Time)","600368","Trustworthy,Untrustworthy","instructions","4","119877","0.0-4.0","[{""page_index"":0,""viewing_time"":12551},{""page_index"":1,""viewing_time"":17112},{""page_index"":2,""viewing_time"":16491},{""page_index"":3,""viewing_time"":10605},{""page_index"":4,""viewing_time"":26013},{""page_index"":5,""viewing_time"":20377}]","103150","","","","","","","","","","","","","",""
"","","","","63d9f41910c61f3eb102079f","bdp_rwlrn","Wed Mar 15 2023 14:30:07 GMT-0500 (Central Daylight Time)","600368","Trustworthy,Untrustworthy","html-keyboard-response","5","127288","0.0-5.0","","7409","","<div class='header' style='text-align:left; position: absolute; top: 5%; left: 5%;'><small>Task 1 of 5</small></div><div class='instruxDiv'><p><strong>1) What is the maximum number of points you can choose to bet on a lottery?</strong></p><p>a) 0</p><p>b) 1</p><p>c) 5</p>","C","","","","","","","","","","",""
"","","","","63d9f41910c61f3eb102079f","bdp_rwlrn","Wed Mar 15 2023 14:30:07 GMT-0500 (Central Daylight Time)","600368","Trustworthy,Untrustworthy","html-keyboard-response","6","131876","0.0-6.0","","4479","","<div class='header' style='text-align:left; position: absolute; top: 5%; left: 5%;'><small>Task 1 of 5</small></div><div class='instruxDiv'><p><strong>1) What is the maximum number of points you can choose to bet on a lottery?</strong></p><p>a) 1</p><p>b) 1</p><p style='color:#00FF00'>c) 5</p><h3 style='color:#00FF00'>Correct!</h3><h3 class='center-content'>The correct response is c).</h3><h3 class='center-content'>The maximum number of points you can choose to bet on a lottery is 5 points.</h3><p><em>Press SPACEBAR to continue</em></p></div>"," ","","","","","","","","","","",""
"","","","","63d9f41910c61f3eb102079f","bdp_rwlrn","Wed Mar 15 2023 14:30:07 GMT-0500 (Central Daylight Time)","600368","Trustworthy,Untrustworthy","html-keyboard-response","7","162220","0.0-7.0","","30229","","<div class='header' style='text-align:left; position: absolute; top: 5%; left: 5%;'><small>Task 1 of 5</small></div><div class='instruxDiv'><p><strong>2) How many points can you win each round?</strong></p><p>a) 10 points</p><p>b) Double what you bet</p><p>c) Quadruple what you bet</p>","C","","","","","","","","","","",""
"","","","","63d9f41910c61f3eb102079f","bdp_rwlrn","Wed Mar 15 2023 14:30:07 GMT-0500 (Central Daylight Time)","600368","Trustworthy,Untrustworthy","html-keyboard-response","8","166155","0.0-8.0","","3833","","<div class='header' style='text-align:left; position: absolute; top: 5%; left: 5%;'><small>Task 1 of 5</small></div><div class='instruxDiv'><p><strong>2) How many points can you win each round?</strong></p><p>a) 10 points</p><p>b) Double what you bet</p><p style='color:#FF0000'>c) Quadruple what you bet</p><h3 style='color:#FF0000'>Incorrect!</h3><h3 class='center-content'>The correct response is b).</h3><h3 class='center-content'>You can win double the amount of points you bet.</h3><p><em>Press SPACEBAR to continue</em></p></div>"," ","","","","","","","","","","",""
"","","","","63d9f41910c61f3eb102079f","bdp_rwlrn","Wed Mar 15 2023 14:30:07 GMT-0500 (Central Daylight Time)","600368","Trustworthy,Untrustworthy","html-keyboard-response","9","171272","0.0-9.0","","null","","<div class='header' style='text-align:left; position: absolute; top: 5%; left: 5%;'><small>Task 1 of 5</small></div><div class='instruxDiv'><p>Thank you for completing the quiz<p>These are the actual lotteries you will be playing in the next block:<p><div class='tc' align='center'><img class='introPic' src='Fruit/plums1.png'><br><strong>Plum Powerball</strong></div><div class='bl' align='center'><img class='introPic' src='Fruit/bananas.png'><br><strong>Banana Bonanza</strong></div><div class='br' align='center'><img class='introPic' src='Fruit/watermelon.png'><br><strong>Watermelon Win$</strong></div></div><p>Across <strong>66 rounds</strong> you will play each lottery <strong>22 times</strong> (in random order).<p style='align:center; color:white'><font <em>Press SPACEBAR to continue</em></p>","null","","","","","","","","","","",""
"","","","","63d9f41910c61f3eb102079f","bdp_rwlrn","Wed Mar 15 2023 14:30:07 GMT-0500 (Central Daylight Time)","600368","Trustworthy,Untrustworthy","instructions","10","182479","0.0-10.0","[{""page_index"":0,""viewing_time"":7883},{""page_index"":1,""viewing_time"":3324}]","11207","","","","","","","","","","","","","",""
"","","","decision","63d9f41910c61f3eb102079f","bdp_rwlrn","Wed Mar 15 2023 14:30:07 GMT-0500 (Central Daylight Time)","600368","Trustworthy,Untrustworthy","html-keyboard-response","11","190260","0.0-11.0-1.0","","7676","","<div class='trialDiv'><img src='Fruit/plums1.png'><br><font class='baseline'><strong>Plum Powerball</strong><p>Choose number of points to bet.</font><div class='respPicDiv'><img src='img/responseButtonOffersNo0L.png' class='respPic'></div></div>","2","1","Plum Powerball","Fruit/plums1.png","Lost","0.35,0.8","12","0.35","5","1","",""
"","","","decisionFB","63d9f41910c61f3eb102079f","bdp_rwlrn","Wed Mar 15 2023 14:30:07 GMT-0500 (Central Daylight Time)","600368","Trustworthy,Untrustworthy","html-keyboard-response","12","190523","0.0-11.0-2.0","","null","","<div class='trialDiv'><img src='Fruit/plums1.png'><br><font class='baseline'><strong>Plum Powerball</strong><p>Choose number of points to bet.</font><div class='respPicDiv'><img src='img/responseButtonOffersNo0L2.png' class='respPic'></div></div>","null","1","Plum Powerball","Fruit/plums1.png","Lost","0.35,0.8","12","0.35","3","1","",""
"","","","feedback","63d9f41910c61f3eb102079f","bdp_rwlrn","Wed Mar 15 2023 14:30:07 GMT-0500 (Central Daylight Time)","600368","Trustworthy,Untrustworthy","html-keyboard-response","13","191537","0.0-11.0-3.0","","null","","<div class='respPicDiv'><img src='img/responseButtonOffersNo0_wht.png' class='respPic'></div><div class='trialDiv'><img src='Fruit/plums1.png'><br><font class='baseline'><strong>Plum Powerball</strong><p><strong><font class='negOutcome'>You LOST</font><p>You bet: 2</strong></font> &nbsp; &nbsp; &nbsp; &nbsp; &nbsp; &nbsp;<font class='negOutcome'>You receive: <strong>0</strong></font></div>","null","1","Plum Powerball","Fruit/plums1.png","Lost","0.35,0.8","12","0.35","3","1","",""
"","","","decision","63d9f41910c61f3eb102079f","bdp_rwlrn","Wed Mar 15 2023 14:30:07 GMT-0500 (Central Daylight Time)","600368","Trustworthy,Untrustworthy","html-keyboard-response","14","194311","0.0-11.0-1.1","","2772","","<div class='trialDiv'><img src='Fruit/watermelon.png'><br><font class='baseline'><strong>Watermelon Win$</strong><p>Choose number of points to bet.</font><div class='respPicDiv'><img src='img/responseButtonOffersNo0L.png' class='respPic'></div></div>","2","1","Watermelon Win$","Fruit/watermelon.png","Won","0.65,0.35","12","0.65","8","2","",""
"","","","decisionFB","63d9f41910c61f3eb102079f","bdp_rwlrn","Wed Mar 15 2023 14:30:07 GMT-0500 (Central Daylight Time)","600368","Trustworthy,Untrustworthy","html-keyboard-response","15","194570","0.0-11.0-2.1","","null","","<div class='trialDiv'><img src='Fruit/watermelon.png'><br><font class='baseline'><strong>Watermelon Win$</strong><p>Choose number of points to bet.</font><div class='respPicDiv'><img src='img/responseButtonOffersNo0L2.png' class='respPic'></div></div>","null","1","Watermelon Win$","Fruit/watermelon.png","Won","0.65,0.35","12","0.65","6","2","",""
"","","","feedback","63d9f41910c61f3eb102079f","bdp_rwlrn","Wed Mar 15 2023 14:30:07 GMT-0500 (Central Daylight Time)","600368","Trustworthy,Untrustworthy","html-keyboard-response","16","195583","0.0-11.0-3.1","","null","","<div class='respPicDiv'><img src='img/responseButtonOffersNo0_wht.png' class='respPic'></div><div class='trialDiv'><img src='Fruit/watermelon.png'><br><font class='baseline'><strong>Watermelon Win$</strong><p><strong><font class='posOutcome'>You WON</font><p>You bet: 2</strong></font> &nbsp; &nbsp; &nbsp; &nbsp; &nbsp; &nbsp;<font class='posOutcome'>you receive: <strong>4</strong></font></div>","null","1","Watermelon Win$","Fruit/watermelon.png","Won","0.65,0.35","12","0.65","10","2","",""
"","","","decision","63d9f41910c61f3eb102079f","bdp_rwlrn","Wed Mar 15 2023 14:30:07 GMT-0500 (Central Daylight Time)","600368","Trustworthy,Untrustworthy","html-keyboard-response","17","196993","0.0-11.0-1.2","","1410","","<div class='trialDiv'><img src='Fruit/bananas.png'><br><font class='baseline'><strong>Banana Bonanza</strong><p>Choose number of points to bet.</font><div class='respPicDiv'><img src='img/responseButtonOffersNo0L.png' class='respPic'></div></div>","2","1","Banana Bonanza","Fruit/bananas.png","Won","0.8,0.35","11","0.8","15","3","",""
"","","","decisionFB","63d9f41910c61f3eb102079f","bdp_rwlrn","Wed Mar 15 2023 14:30:07 GMT-0500 (Central Daylight Time)","600368","Trustworthy,Untrustworthy","html-keyboard-response","18","197254","0.0-11.0-2.2","","null","","<div class='trialDiv'><img src='Fruit/bananas.png'><br><font class='baseline'><strong>Banana Bonanza</strong><p>Choose number of points to bet.</font><div class='respPicDiv'><img src='img/responseButtonOffersNo0L2.png' class='respPic'></div></div>","null","1","Banana Bonanza","Fruit/bananas.png","Won","0.8,0.35","11","0.8","13","3","",""
"","","","feedback","63d9f41910c61f3eb102079f","bdp_rwlrn","Wed Mar 15 2023 14:30:07 GMT-0500 (Central Daylight Time)","600368","Trustworthy,Untrustworthy","html-keyboard-response","19","198255","0.0-11.0-3.2","","null","","<div class='respPicDiv'><img src='img/responseButtonOffersNo0_wht.png' class='respPic'></div><div class='trialDiv'><img src='Fruit/bananas.png'><br><font class='baseline'><strong>Banana Bonanza</strong><p><strong><font class='posOutcome'>You WON</font><p>You bet: 2</strong></font> &nbsp; &nbsp; &nbsp; &nbsp; &nbsp; &nbsp;<font class='posOutcome'>you receive: <strong>4</strong></font></div>","null","1","Banana Bonanza","Fruit/bananas.png","Won","0.8,0.35","11","0.8","17","3","",""
"","","","decision","63d9f41910c61f3eb102079f","bdp_rwlrn","Wed Mar 15 2023 14:30:07 GMT-0500 (Central Daylight Time)","600368","Trustworthy,Untrustworthy","html-keyboard-response","20","200322","0.0-11.0-1.3","","2066","","<div class='trialDiv'><img src='Fruit/plums1.png'><br><font class='baseline'><strong>Plum Powerball</strong><p>Choose number of points to bet.</font><div class='respPicDiv'><img src='img/responseButtonOffersNo0L.png' class='respPic'></div></div>","1","2","Plum Powerball","Fruit/plums1.png","Lost","0.35,0.8","12","0.35","22","4","",""
"","","","decisionFB","63d9f41910c61f3eb102079f","bdp_rwlrn","Wed Mar 15 2023 14:30:07 GMT-0500 (Central Daylight Time)","600368","Trustworthy,Untrustworthy","html-keyboard-response","21","200583","0.0-11.0-2.3","","null","","<div class='trialDiv'><img src='Fruit/plums1.png'><br><font class='baseline'><strong>Plum Powerball</strong><p>Choose number of points to bet.</font><div class='respPicDiv'><img src='img/responseButtonOffersNo0L1.png' class='respPic'></div></div>","null","2","Plum Powerball","Fruit/plums1.png","Lost","0.35,0.8","12","0.35","21","4","",""
"","","","feedback","63d9f41910c61f3eb102079f","bdp_rwlrn","Wed Mar 15 2023 14:30:07 GMT-0500 (Central Daylight Time)","600368","Trustworthy,Untrustworthy","html-keyboard-response","22","201598","0.0-11.0-3.3","","null","","<div class='respPicDiv'><img src='img/responseButtonOffersNo0_wht.png' class='respPic'></div><div class='trialDiv'><img src='Fruit/plums1.png'><br><font class='baseline'><strong>Plum Powerball</strong><p><strong><font class='negOutcome'>You LOST</font><p>You bet: 1</strong></font> &nbsp; &nbsp; &nbsp; &nbsp; &nbsp; &nbsp;<font class='negOutcome'>You receive: <strong>0</strong></font></div>","null","2","Plum Powerball","Fruit/plums1.png","Lost","0.35,0.8","12","0.35","21","4","",""
"","","","decision","63d9f41910c61f3eb102079f","bdp_rwlrn","Wed Mar 15 2023 14:30:07 GMT-0500 (Central Daylight Time)","600368","Trustworthy,Untrustworthy","html-keyboard-response","23","203555","0.0-11.0-1.4","","1956","","<div class='trialDiv'><img src='Fruit/watermelon.png'><br><font class='baseline'><strong>Watermelon Win$</strong><p>Choose number of points to bet.</font><div class='respPicDiv'><img src='img/responseButtonOffersNo0L.png' class='respPic'></div></div>","3","2","Watermelon Win$","Fruit/watermelon.png","Won","0.65,0.35","12","0.65","26","5","",""
"","","","decisionFB","63d9f41910c61f3eb102079f","bdp_rwlrn","Wed Mar 15 2023 14:30:07 GMT-0500 (Central Daylight Time)","600368","Trustworthy,Untrustworthy","html-keyboard-response","24","203818","0.0-11.0-2.4","","null","","<div class='trialDiv'><img src='Fruit/watermelon.png'><br><font class='baseline'><strong>Watermelon Win$</strong><p>Choose number of points to bet.</font><div class='respPicDiv'><img src='img/responseButtonOffersNo0L3.png' class='respPic'></div></div>","null","2","Watermelon Win$","Fruit/watermelon.png","Won","0.65,0.35","12","0.65","23","5","",""
"","","","feedback","63d9f41910c61f3eb102079f","bdp_rwlrn","Wed Mar 15 2023 14:30:07 GMT-0500 (Central Daylight Time)","600368","Trustworthy,Untrustworthy","html-keyboard-response","25","204828","0.0-11.0-3.4","","null","","<div class='respPicDiv'><img src='img/responseButtonOffersNo0_wht.png' class='respPic'></div><div class='trialDiv'><img src='Fruit/watermelon.png'><br><font class='baseline'><strong>Watermelon Win$</strong><p><strong><font class='posOutcome'>You WON</font><p>You bet: 3</strong></font> &nbsp; &nbsp; &nbsp; &nbsp; &nbsp; &nbsp;<font class='posOutcome'>you receive: <strong>6</strong></font></div>","null","2","Watermelon Win$","Fruit/watermelon.png","Won","0.65,0.35","12","0.65","29","5","",""
"","","","decision","63d9f41910c61f3eb102079f","bdp_rwlrn","Wed Mar 15 2023 14:30:07 GMT-0500 (Central Daylight Time)","600368","Trustworthy,Untrustworthy","html-keyboard-response","26","206009","0.0-11.0-1.5","","1180","","<div class='trialDiv'><img src='Fruit/bananas.png'><br><font class='baseline'><strong>Banana Bonanza</strong><p>Choose number of points to bet.</font><div class='respPicDiv'><img src='img/responseButtonOffersNo0L.png' class='respPic'></div></div>","3","2","Banana Bonanza","Fruit/bananas.png","Won","0.8,0.35","11","0.8","34","6","",""
"","","","decisionFB","63d9f41910c61f3eb102079f","bdp_rwlrn","Wed Mar 15 2023 14:30:07 GMT-0500 (Central Daylight Time)","600368","Trustworthy,Untrustworthy","html-keyboard-response","27","206271","0.0-11.0-2.5","","null","","<div class='trialDiv'><img src='Fruit/bananas.png'><br><font class='baseline'><strong>Banana Bonanza</strong><p>Choose number of points to bet.</font><div class='respPicDiv'><img src='img/responseButtonOffersNo0L3.png' class='respPic'></div></div>","null","2","Banana Bonanza","Fruit/bananas.png","Won","0.8,0.35","11","0.8","31","6","",""
"","","","feedback","63d9f41910c61f3eb102079f","bdp_rwlrn","Wed Mar 15 2023 14:30:07 GMT-0500 (Central Daylight Time)","600368","Trustworthy,Untrustworthy","html-keyboard-response","28","207273","0.0-11.0-3.5","","null","","<div class='respPicDiv'><img src='img/responseButtonOffersNo0_wht.png' class='respPic'></div><div class='trialDiv'><img src='Fruit/bananas.png'><br><font class='baseline'><strong>Banana Bonanza</strong><p><strong><font class='posOutcome'>You WON</font><p>You bet: 3</strong></font> &nbsp; &nbsp; &nbsp; &nbsp; &nbsp; &nbsp;<font class='posOutcome'>you receive: <strong>6</strong></font></div>","null","2","Banana Bonanza","Fruit/bananas.png","Won","0.8,0.35","11","0.8","37","6","",""
"","","","decision","63d9f41910c61f3eb102079f","bdp_rwlrn","Wed Mar 15 2023 14:30:07 GMT-0500 (Central Daylight Time)","600368","Trustworthy,Untrustworthy","html-keyboard-response","29","208467","0.0-11.0-1.6","","1192","","<div class='trialDiv'><img src='Fruit/plums1.png'><br><font class='baseline'><strong>Plum Powerball</strong><p>Choose number of points to bet.</font><div class='respPicDiv'><img src='img/responseButtonOffersNo0L.png' class='respPic'></div></div>","1","3","Plum Powerball","Fruit/plums1.png","Lost","0.35,0.8","12","0.35","42","7","",""
"","","","decisionFB","63d9f41910c61f3eb102079f","bdp_rwlrn","Wed Mar 15 2023 14:30:07 GMT-0500 (Central Daylight Time)","600368","Trustworthy,Untrustworthy","html-keyboard-response","30","208723","0.0-11.0-2.6","","null","","<div class='trialDiv'><img src='Fruit/plums1.png'><br><font class='baseline'><strong>Plum Powerball</strong><p>Choose number of points to bet.</font><div class='respPicDiv'><img src='img/responseButtonOffersNo0L1.png' class='respPic'></div></div>","null","3","Plum Powerball","Fruit/plums1.png","Lost","0.35,0.8","12","0.35","41","7","",""
"","","","feedback","63d9f41910c61f3eb102079f","bdp_rwlrn","Wed Mar 15 2023 14:30:07 GMT-0500 (Central Daylight Time)","600368","Trustworthy,Untrustworthy","html-keyboard-response","31","209739","0.0-11.0-3.6","","null","","<div class='respPicDiv'><img src='img/responseButtonOffersNo0_wht.png' class='respPic'></div><div class='trialDiv'><img src='Fruit/plums1.png'><br><font class='baseline'><strong>Plum Powerball</strong><p><strong><font class='negOutcome'>You LOST</font><p>You bet: 1</strong></font> &nbsp; &nbsp; &nbsp; &nbsp; &nbsp; &nbsp;<font class='negOutcome'>You receive: <strong>0</strong></font></div>","null","3","Plum Powerball","Fruit/plums1.png","Lost","0.35,0.8","12","0.35","41","7","",""
"","","","decision","63d9f41910c61f3eb102079f","bdp_rwlrn","Wed Mar 15 2023 14:30:07 GMT-0500 (Central Daylight Time)","600368","Trustworthy,Untrustworthy","html-keyboard-response","32","211412","0.0-11.0-1.7","","1673","","<div class='trialDiv'><img src='Fruit/bananas.png'><br><font class='baseline'><strong>Banana Bonanza</strong><p>Choose number of points to bet.</font><div class='respPicDiv'><img src='img/responseButtonOffersNo0L.png' class='respPic'></div></div>","5","3","Banana Bonanza","Fruit/bananas.png","Won","0.8,0.35","11","0.8","46","8","",""
"","","","decisionFB","63d9f41910c61f3eb102079f","bdp_rwlrn","Wed Mar 15 2023 14:30:07 GMT-0500 (Central Daylight Time)","600368","Trustworthy,Untrustworthy","html-keyboard-response","33","211673","0.0-11.0-2.7","","null","","<div class='trialDiv'><img src='Fruit/bananas.png'><br><font class='baseline'><strong>Banana Bonanza</strong><p>Choose number of points to bet.</font><div class='respPicDiv'><img src='img/responseButtonOffersNo0L5.png' class='respPic'></div></div>","null","3","Banana Bonanza","Fruit/bananas.png","Won","0.8,0.35","11","0.8","41","8","",""
"","","","feedback","63d9f41910c61f3eb102079f","bdp_rwlrn","Wed Mar 15 2023 14:30:07 GMT-0500 (Central Daylight Time)","600368","Trustworthy,Untrustworthy","html-keyboard-response","34","212675","0.0-11.0-3.7","","null","","<div class='respPicDiv'><img src='img/responseButtonOffersNo0_wht.png' class='respPic'></div><div class='trialDiv'><img src='Fruit/bananas.png'><br><font class='baseline'><strong>Banana Bonanza</strong><p><strong><font class='posOutcome'>You WON</font><p>You bet: 5</strong></font> &nbsp; &nbsp; &nbsp; &nbsp; &nbsp; &nbsp;<font class='posOutcome'>you receive: <strong>10</strong></font></div>","null","3","Banana Bonanza","Fruit/bananas.png","Won","0.8,0.35","11","0.8","51","8","",""
"","","","decision","63d9f41910c61f3eb102079f","bdp_rwlrn","Wed Mar 15 2023 14:30:07 GMT-0500 (Central Daylight Time)","600368","Trustworthy,Untrustworthy","html-keyboard-response","35","213451","0.0-11.0-1.8","","776","","<div class='trialDiv'><img src='Fruit/watermelon.png'><br><font class='baseline'><strong>Watermelon Win$</strong><p>Choose number of points to bet.</font><div class='respPicDiv'><img src='img/responseButtonOffersNo0L.png' class='respPic'></div></div>","5","3","Watermelon Win$","Fruit/watermelon.png","Won","0.65,0.35","12","0.65","56","9","",""
"","","","decisionFB","63d9f41910c61f3eb102079f","bdp_rwlrn","Wed Mar 15 2023 14:30:07 GMT-0500 (Central Daylight Time)","600368","Trustworthy,Untrustworthy","html-keyboard-response","36","213707","0.0-11.0-2.8","","null","","<div class='trialDiv'><img src='Fruit/watermelon.png'><br><font class='baseline'><strong>Watermelon Win$</strong><p>Choose number of points to bet.</font><div class='respPicDiv'><img src='img/responseButtonOffersNo0L5.png' class='respPic'></div></div>","null","3","Watermelon Win$","Fruit/watermelon.png","Won","0.65,0.35","12","0.65","51","9","",""
"","","","feedback","63d9f41910c61f3eb102079f","bdp_rwlrn","Wed Mar 15 2023 14:30:07 GMT-0500 (Central Daylight Time)","600368","Trustworthy,Untrustworthy","html-keyboard-response","37","214710","0.0-11.0-3.8","","null","","<div class='respPicDiv'><img src='img/responseButtonOffersNo0_wht.png' class='respPic'></div><div class='trialDiv'><img src='Fruit/watermelon.png'><br><font class='baseline'><strong>Watermelon Win$</strong><p><strong><font class='posOutcome'>You WON</font><p>You bet: 5</strong></font> &nbsp; &nbsp; &nbsp; &nbsp; &nbsp; &nbsp;<font class='posOutcome'>you receive: <strong>10</strong></font></div>","null","3","Watermelon Win$","Fruit/watermelon.png","Won","0.65,0.35","12","0.65","61","9","",""
"","","","decision","63d9f41910c61f3eb102079f","bdp_rwlrn","Wed Mar 15 2023 14:30:07 GMT-0500 (Central Daylight Time)","600368","Trustworthy,Untrustworthy","html-keyboard-response","38","215716","0.0-11.0-1.9","","1006","","<div class='trialDiv'><img src='Fruit/bananas.png'><br><font class='baseline'><strong>Banana Bonanza</strong><p>Choose number of points to bet.</font><div class='respPicDiv'><img src='img/responseButtonOffersNo0L.png' class='respPic'></div></div>","5","4","Banana Bonanza","Fruit/bananas.png","Lost","0.8,0.35","11","0.8","66","10","",""
"","","","decisionFB","63d9f41910c61f3eb102079f","bdp_rwlrn","Wed Mar 15 2023 14:30:07 GMT-0500 (Central Daylight Time)","600368","Trustworthy,Untrustworthy","html-keyboard-response","39","215977","0.0-11.0-2.9","","null","","<div class='trialDiv'><img src='Fruit/bananas.png'><br><font class='baseline'><strong>Banana Bonanza</strong><p>Choose number of points to bet.</font><div class='respPicDiv'><img src='img/responseButtonOffersNo0L5.png' class='respPic'></div></div>","null","4","Banana Bonanza","Fruit/bananas.png","Lost","0.8,0.35","11","0.8","61","10","",""
"","","","feedback","63d9f41910c61f3eb102079f","bdp_rwlrn","Wed Mar 15 2023 14:30:07 GMT-0500 (Central Daylight Time)","600368","Trustworthy,Untrustworthy","html-keyboard-response","40","216992","0.0-11.0-3.9","","null","","<div class='respPicDiv'><img src='img/responseButtonOffersNo0_wht.png' class='respPic'></div><div class='trialDiv'><img src='Fruit/bananas.png'><br><font class='baseline'><strong>Banana Bonanza</strong><p><strong><font class='negOutcome'>You LOST</font><p>You bet: 5</strong></font> &nbsp; &nbsp; &nbsp; &nbsp; &nbsp; &nbsp;<font class='negOutcome'>You receive: <strong>0</strong></font></div>","null","4","Banana Bonanza","Fruit/bananas.png","Lost","0.8,0.35","11","0.8","61","10","",""
"","","","decision","63d9f41910c61f3eb102079f","bdp_rwlrn","Wed Mar 15 2023 14:30:07 GMT-0500 (Central Daylight Time)","600368","Trustworthy,Untrustworthy","html-keyboard-response","41","220362","0.0-11.0-1.10","","3368","","<div class='trialDiv'><img src='Fruit/plums1.png'><br><font class='baseline'><strong>Plum Powerball</strong><p>Choose number of points to bet.</font><div class='respPicDiv'><img src='img/responseButtonOffersNo0L.png' class='respPic'></div></div>","3","4","Plum Powerball","Fruit/plums1.png","Lost","0.35,0.8","12","0.35","66","11","",""
"","","","decisionFB","63d9f41910c61f3eb102079f","bdp_rwlrn","Wed Mar 15 2023 14:30:07 GMT-0500 (Central Daylight Time)","600368","Trustworthy,Untrustworthy","html-keyboard-response","42","220614","0.0-11.0-2.10","","null","","<div class='trialDiv'><img src='Fruit/plums1.png'><br><font class='baseline'><strong>Plum Powerball</strong><p>Choose number of points to bet.</font><div class='respPicDiv'><img src='img/responseButtonOffersNo0L3.png' class='respPic'></div></div>","null","4","Plum Powerball","Fruit/plums1.png","Lost","0.35,0.8","12","0.35","63","11","",""
"","","","feedback","63d9f41910c61f3eb102079f","bdp_rwlrn","Wed Mar 15 2023 14:30:07 GMT-0500 (Central Daylight Time)","600368","Trustworthy,Untrustworthy","html-keyboard-response","43","221623","0.0-11.0-3.10","","null","","<div class='respPicDiv'><img src='img/responseButtonOffersNo0_wht.png' class='respPic'></div><div class='trialDiv'><img src='Fruit/plums1.png'><br><font class='baseline'><strong>Plum Powerball</strong><p><strong><font class='negOutcome'>You LOST</font><p>You bet: 3</strong></font> &nbsp; &nbsp; &nbsp; &nbsp; &nbsp; &nbsp;<font class='negOutcome'>You receive: <strong>0</strong></font></div>","null","4","Plum Powerball","Fruit/plums1.png","Lost","0.35,0.8","12","0.35","63","11","",""
"","","","decision","63d9f41910c61f3eb102079f","bdp_rwlrn","Wed Mar 15 2023 14:30:07 GMT-0500 (Central Daylight Time)","600368","Trustworthy,Untrustworthy","html-keyboard-response","44","222431","0.0-11.0-1.11","","808","","<div class='trialDiv'><img src='Fruit/watermelon.png'><br><font class='baseline'><strong>Watermelon Win$</strong><p>Choose number of points to bet.</font><div class='respPicDiv'><img src='img/responseButtonOffersNo0L.png' class='respPic'></div></div>","3","4","Watermelon Win$","Fruit/watermelon.png","Won","0.65,0.35","12","0.65","68","12","",""
"","","","decisionFB","63d9f41910c61f3eb102079f","bdp_rwlrn","Wed Mar 15 2023 14:30:07 GMT-0500 (Central Daylight Time)","600368","Trustworthy,Untrustworthy","html-keyboard-response","45","222692","0.0-11.0-2.11","","null","","<div class='trialDiv'><img src='Fruit/watermelon.png'><br><font class='baseline'><strong>Watermelon Win$</strong><p>Choose number of points to bet.</font><div class='respPicDiv'><img src='img/responseButtonOffersNo0L3.png' class='respPic'></div></div>","null","4","Watermelon Win$","Fruit/watermelon.png","Won","0.65,0.35","12","0.65","65","12","",""
"","","","feedback","63d9f41910c61f3eb102079f","bdp_rwlrn","Wed Mar 15 2023 14:30:07 GMT-0500 (Central Daylight Time)","600368","Trustworthy,Untrustworthy","html-keyboard-response","46","223707","0.0-11.0-3.11","","null","","<div class='respPicDiv'><img src='img/responseButtonOffersNo0_wht.png' class='respPic'></div><div class='trialDiv'><img src='Fruit/watermelon.png'><br><font class='baseline'><strong>Watermelon Win$</strong><p><strong><font class='posOutcome'>You WON</font><p>You bet: 3</strong></font> &nbsp; &nbsp; &nbsp; &nbsp; &nbsp; &nbsp;<font class='posOutcome'>you receive: <strong>6</strong></font></div>","null","4","Watermelon Win$","Fruit/watermelon.png","Won","0.65,0.35","12","0.65","71","12","",""
"","","","decision","63d9f41910c61f3eb102079f","bdp_rwlrn","Wed Mar 15 2023 14:30:07 GMT-0500 (Central Daylight Time)","600368","Trustworthy,Untrustworthy","html-keyboard-response","47","227886","0.0-11.0-1.12","","4179","","<div class='trialDiv'><img src='Fruit/plums1.png'><br><font class='baseline'><strong>Plum Powerball</strong><p>Choose number of points to bet.</font><div class='respPicDiv'><img src='img/responseButtonOffersNo0L.png' class='respPic'></div></div>","1","5","Plum Powerball","Fruit/plums1.png","Won","0.35,0.8","12","0.35","76","13","",""
"","","","decisionFB","63d9f41910c61f3eb102079f","bdp_rwlrn","Wed Mar 15 2023 14:30:07 GMT-0500 (Central Daylight Time)","600368","Trustworthy,Untrustworthy","html-keyboard-response","48","228145","0.0-11.0-2.12","","null","","<div class='trialDiv'><img src='Fruit/plums1.png'><br><font class='baseline'><strong>Plum Powerball</strong><p>Choose number of points to bet.</font><div class='respPicDiv'><img src='img/responseButtonOffersNo0L1.png' class='respPic'></div></div>","null","5","Plum Powerball","Fruit/plums1.png","Won","0.35,0.8","12","0.35","75","13","",""
"","","","feedback","63d9f41910c61f3eb102079f","bdp_rwlrn","Wed Mar 15 2023 14:30:07 GMT-0500 (Central Daylight Time)","600368","Trustworthy,Untrustworthy","html-keyboard-response","49","229160","0.0-11.0-3.12","","null","","<div class='respPicDiv'><img src='img/responseButtonOffersNo0_wht.png' class='respPic'></div><div class='trialDiv'><img src='Fruit/plums1.png'><br><font class='baseline'><strong>Plum Powerball</strong><p><strong><font class='posOutcome'>You WON</font><p>You bet: 1</strong></font> &nbsp; &nbsp; &nbsp; &nbsp; &nbsp; &nbsp;<font class='posOutcome'>you receive: <strong>2</strong></font></div>","null","5","Plum Powerball","Fruit/plums1.png","Won","0.35,0.8","12","0.35","77","13","",""
"","","","decision","63d9f41910c61f3eb102079f","bdp_rwlrn","Wed Mar 15 2023 14:30:07 GMT-0500 (Central Daylight Time)","600368","Trustworthy,Untrustworthy","html-keyboard-response","50","230696","0.0-11.0-1.13","","1536","","<div class='trialDiv'><img src='Fruit/bananas.png'><br><font class='baseline'><strong>Banana Bonanza</strong><p>Choose number of points to bet.</font><div class='respPicDiv'><img src='img/responseButtonOffersNo0L.png' class='respPic'></div></div>","3","5","Banana Bonanza","Fruit/bananas.png","Won","0.8,0.35","11","0.8","82","14","",""
"","","","decisionFB","63d9f41910c61f3eb102079f","bdp_rwlrn","Wed Mar 15 2023 14:30:07 GMT-0500 (Central Daylight Time)","600368","Trustworthy,Untrustworthy","html-keyboard-response","51","230957","0.0-11.0-2.13","","null","","<div class='trialDiv'><img src='Fruit/bananas.png'><br><font class='baseline'><strong>Banana Bonanza</strong><p>Choose number of points to bet.</font><div class='respPicDiv'><img src='img/responseButtonOffersNo0L3.png' class='respPic'></div></div>","null","5","Banana Bonanza","Fruit/bananas.png","Won","0.8,0.35","11","0.8","79","14","",""
"","","","feedback","63d9f41910c61f3eb102079f","bdp_rwlrn","Wed Mar 15 2023 14:30:07 GMT-0500 (Central Daylight Time)","600368","Trustworthy,Untrustworthy","html-keyboard-response","52","231961","0.0-11.0-3.13","","null","","<div class='respPicDiv'><img src='img/responseButtonOffersNo0_wht.png' class='respPic'></div><div class='trialDiv'><img src='Fruit/bananas.png'><br><font class='baseline'><strong>Banana Bonanza</strong><p><strong><font class='posOutcome'>You WON</font><p>You bet: 3</strong></font> &nbsp; &nbsp; &nbsp; &nbsp; &nbsp; &nbsp;<font class='posOutcome'>you receive: <strong>6</strong></font></div>","null","5","Banana Bonanza","Fruit/bananas.png","Won","0.8,0.35","11","0.8","85","14","",""
"","","","decision","63d9f41910c61f3eb102079f","bdp_rwlrn","Wed Mar 15 2023 14:30:07 GMT-0500 (Central Daylight Time)","600368","Trustworthy,Untrustworthy","html-keyboard-response","53","234396","0.0-11.0-1.14","","2433","","<div class='trialDiv'><img src='Fruit/watermelon.png'><br><font class='baseline'><strong>Watermelon Win$</strong><p>Choose number of points to bet.</font><div class='respPicDiv'><img src='img/responseButtonOffersNo0L.png' class='respPic'></div></div>","2","5","Watermelon Win$","Fruit/watermelon.png","Lost","0.65,0.35","12","0.65","90","15","",""
"","","","decisionFB","63d9f41910c61f3eb102079f","bdp_rwlrn","Wed Mar 15 2023 14:30:07 GMT-0500 (Central Daylight Time)","600368","Trustworthy,Untrustworthy","html-keyboard-response","54","234659","0.0-11.0-2.14","","null","","<div class='trialDiv'><img src='Fruit/watermelon.png'><br><font class='baseline'><strong>Watermelon Win$</strong><p>Choose number of points to bet.</font><div class='respPicDiv'><img src='img/responseButtonOffersNo0L2.png' class='respPic'></div></div>","null","5","Watermelon Win$","Fruit/watermelon.png","Lost","0.65,0.35","12","0.65","88","15","",""
"","","","feedback","63d9f41910c61f3eb102079f","bdp_rwlrn","Wed Mar 15 2023 14:30:07 GMT-0500 (Central Daylight Time)","600368","Trustworthy,Untrustworthy","html-keyboard-response","55","235662","0.0-11.0-3.14","","null","","<div class='respPicDiv'><img src='img/responseButtonOffersNo0_wht.png' class='respPic'></div><div class='trialDiv'><img src='Fruit/watermelon.png'><br><font class='baseline'><strong>Watermelon Win$</strong><p><strong><font class='negOutcome'>You LOST</font><p>You bet: 2</strong></font> &nbsp; &nbsp; &nbsp; &nbsp; &nbsp; &nbsp;<font class='negOutcome'>You receive: <strong>0</strong></font></div>","null","5","Watermelon Win$","Fruit/watermelon.png","Lost","0.65,0.35","12","0.65","88","15","",""
"","","","decision","63d9f41910c61f3eb102079f","bdp_rwlrn","Wed Mar 15 2023 14:30:07 GMT-0500 (Central Daylight Time)","600368","Trustworthy,Untrustworthy","html-keyboard-response","56","237686","0.0-11.0-1.15","","2023","","<div class='trialDiv'><img src='Fruit/plums1.png'><br><font class='baseline'><strong>Plum Powerball</strong><p>Choose number of points to bet.</font><div class='respPicDiv'><img src='img/responseButtonOffersNo0L.png' class='respPic'></div></div>","3","6","Plum Powerball","Fruit/plums1.png","Won","0.35,0.8","12","0.35","93","16","",""
"","","","decisionFB","63d9f41910c61f3eb102079f","bdp_rwlrn","Wed Mar 15 2023 14:30:07 GMT-0500 (Central Daylight Time)","600368","Trustworthy,Untrustworthy","html-keyboard-response","57","237942","0.0-11.0-2.15","","null","","<div class='trialDiv'><img src='Fruit/plums1.png'><br><font class='baseline'><strong>Plum Powerball</strong><p>Choose number of points to bet.</font><div class='respPicDiv'><img src='img/responseButtonOffersNo0L3.png' class='respPic'></div></div>","null","6","Plum Powerball","Fruit/plums1.png","Won","0.35,0.8","12","0.35","90","16","",""
"","","","feedback","63d9f41910c61f3eb102079f","bdp_rwlrn","Wed Mar 15 2023 14:30:07 GMT-0500 (Central Daylight Time)","600368","Trustworthy,Untrustworthy","html-keyboard-response","58","238942","0.0-11.0-3.15","","null","","<div class='respPicDiv'><img src='img/responseButtonOffersNo0_wht.png' class='respPic'></div><div class='trialDiv'><img src='Fruit/plums1.png'><br><font class='baseline'><strong>Plum Powerball</strong><p><strong><font class='posOutcome'>You WON</font><p>You bet: 3</strong></font> &nbsp; &nbsp; &nbsp; &nbsp; &nbsp; &nbsp;<font class='posOutcome'>you receive: <strong>6</strong></font></div>","null","6","Plum Powerball","Fruit/plums1.png","Won","0.35,0.8","12","0.35","96","16","",""
"","","","decision","63d9f41910c61f3eb102079f","bdp_rwlrn","Wed Mar 15 2023 14:30:07 GMT-0500 (Central Daylight Time)","600368","Trustworthy,Untrustworthy","html-keyboard-response","59","240396","0.0-11.0-1.16","","1453","","<div class='trialDiv'><img src='Fruit/watermelon.png'><br><font class='baseline'><strong>Watermelon Win$</strong><p>Choose number of points to bet.</font><div class='respPicDiv'><img src='img/responseButtonOffersNo0L.png' class='respPic'></div></div>","5","6","Watermelon Win$","Fruit/watermelon.png","Lost","0.65,0.35","12","0.65","101","17","",""
"","","","decisionFB","63d9f41910c61f3eb102079f","bdp_rwlrn","Wed Mar 15 2023 14:30:07 GMT-0500 (Central Daylight Time)","600368","Trustworthy,Untrustworthy","html-keyboard-response","60","240660","0.0-11.0-2.16","","null","","<div class='trialDiv'><img src='Fruit/watermelon.png'><br><font class='baseline'><strong>Watermelon Win$</strong><p>Choose number of points to bet.</font><div class='respPicDiv'><img src='img/responseButtonOffersNo0L5.png' class='respPic'></div></div>","null","6","Watermelon Win$","Fruit/watermelon.png","Lost","0.65,0.35","12","0.65","96","17","",""
"","","","feedback","63d9f41910c61f3eb102079f","bdp_rwlrn","Wed Mar 15 2023 14:30:07 GMT-0500 (Central Daylight Time)","600368","Trustworthy,Untrustworthy","html-keyboard-response","61","241664","0.0-11.0-3.16","","null","","<div class='respPicDiv'><img src='img/responseButtonOffersNo0_wht.png' class='respPic'></div><div class='trialDiv'><img src='Fruit/watermelon.png'><br><font class='baseline'><strong>Watermelon Win$</strong><p><strong><font class='negOutcome'>You LOST</font><p>You bet: 5</strong></font> &nbsp; &nbsp; &nbsp; &nbsp; &nbsp; &nbsp;<font class='negOutcome'>You receive: <strong>0</strong></font></div>","null","6","Watermelon Win$","Fruit/watermelon.png","Lost","0.65,0.35","12","0.65","96","17","",""
"","","","decision","63d9f41910c61f3eb102079f","bdp_rwlrn","Wed Mar 15 2023 14:30:07 GMT-0500 (Central Daylight Time)","600368","Trustworthy,Untrustworthy","html-keyboard-response","62","242322","0.0-11.0-1.17","","658","","<div class='trialDiv'><img src='Fruit/bananas.png'><br><font class='baseline'><strong>Banana Bonanza</strong><p>Choose number of points to bet.</font><div class='respPicDiv'><img src='img/responseButtonOffersNo0L.png' class='respPic'></div></div>","5","6","Banana Bonanza","Fruit/bananas.png","Won","0.8,0.35","11","0.8","101","18","",""
"","","","decisionFB","63d9f41910c61f3eb102079f","bdp_rwlrn","Wed Mar 15 2023 14:30:07 GMT-0500 (Central Daylight Time)","600368","Trustworthy,Untrustworthy","html-keyboard-response","63","242581","0.0-11.0-2.17","","null","","<div class='trialDiv'><img src='Fruit/bananas.png'><br><font class='baseline'><strong>Banana Bonanza</strong><p>Choose number of points to bet.</font><div class='respPicDiv'><img src='img/responseButtonOffersNo0L5.png' class='respPic'></div></div>","null","6","Banana Bonanza","Fruit/bananas.png","Won","0.8,0.35","11","0.8","96","18","",""
"","","","feedback","63d9f41910c61f3eb102079f","bdp_rwlrn","Wed Mar 15 2023 14:30:07 GMT-0500 (Central Daylight Time)","600368","Trustworthy,Untrustworthy","html-keyboard-response","64","243583","0.0-11.0-3.17","","null","","<div class='respPicDiv'><img src='img/responseButtonOffersNo0_wht.png' class='respPic'></div><div class='trialDiv'><img src='Fruit/bananas.png'><br><font class='baseline'><strong>Banana Bonanza</strong><p><strong><font class='posOutcome'>You WON</font><p>You bet: 5</strong></font> &nbsp; &nbsp; &nbsp; &nbsp; &nbsp; &nbsp;<font class='posOutcome'>you receive: <strong>10</strong></font></div>","null","6","Banana Bonanza","Fruit/bananas.png","Won","0.8,0.35","11","0.8","106","18","",""
"","","","decision","63d9f41910c61f3eb102079f","bdp_rwlrn","Wed Mar 15 2023 14:30:07 GMT-0500 (Central Daylight Time)","600368","Trustworthy,Untrustworthy","html-keyboard-response","65","244707","0.0-11.0-1.18","","1123","","<div class='trialDiv'><img src='Fruit/plums1.png'><br><font class='baseline'><strong>Plum Powerball</strong><p>Choose number of points to bet.</font><div class='respPicDiv'><img src='img/responseButtonOffersNo0L.png' class='respPic'></div></div>","2","7","Plum Powerball","Fruit/plums1.png","Won","0.35,0.8","12","0.35","111","19","",""
"","","","decisionFB","63d9f41910c61f3eb102079f","bdp_rwlrn","Wed Mar 15 2023 14:30:07 GMT-0500 (Central Daylight Time)","600368","Trustworthy,Untrustworthy","html-keyboard-response","66","244972","0.0-11.0-2.18","","null","","<div class='trialDiv'><img src='Fruit/plums1.png'><br><font class='baseline'><strong>Plum Powerball</strong><p>Choose number of points to bet.</font><div class='respPicDiv'><img src='img/responseButtonOffersNo0L2.png' class='respPic'></div></div>","null","7","Plum Powerball","Fruit/plums1.png","Won","0.35,0.8","12","0.35","109","19","",""
"","","","feedback","63d9f41910c61f3eb102079f","bdp_rwlrn","Wed Mar 15 2023 14:30:07 GMT-0500 (Central Daylight Time)","600368","Trustworthy,Untrustworthy","html-keyboard-response","67","245974","0.0-11.0-3.18","","null","","<div class='respPicDiv'><img src='img/responseButtonOffersNo0_wht.png' class='respPic'></div><div class='trialDiv'><img src='Fruit/plums1.png'><br><font class='baseline'><strong>Plum Powerball</strong><p><strong><font class='posOutcome'>You WON</font><p>You bet: 2</strong></font> &nbsp; &nbsp; &nbsp; &nbsp; &nbsp; &nbsp;<font class='posOutcome'>you receive: <strong>4</strong></font></div>","null","7","Plum Powerball","Fruit/plums1.png","Won","0.35,0.8","12","0.35","113","19","",""
"","","","decision","63d9f41910c61f3eb102079f","bdp_rwlrn","Wed Mar 15 2023 14:30:07 GMT-0500 (Central Daylight Time)","600368","Trustworthy,Untrustworthy","html-keyboard-response","68","246984","0.0-11.0-1.19","","1009","","<div class='trialDiv'><img src='Fruit/bananas.png'><br><font class='baseline'><strong>Banana Bonanza</strong><p>Choose number of points to bet.</font><div class='respPicDiv'><img src='img/responseButtonOffersNo0L.png' class='respPic'></div></div>","1","7","Banana Bonanza","Fruit/bananas.png","Won","0.8,0.35","11","0.8","118","20","",""
"","","","decisionFB","63d9f41910c61f3eb102079f","bdp_rwlrn","Wed Mar 15 2023 14:30:07 GMT-0500 (Central Daylight Time)","600368","Trustworthy,Untrustworthy","html-keyboard-response","69","247246","0.0-11.0-2.19","","null","","<div class='trialDiv'><img src='Fruit/bananas.png'><br><font class='baseline'><strong>Banana Bonanza</strong><p>Choose number of points to bet.</font><div class='respPicDiv'><img src='img/responseButtonOffersNo0L1.png' class='respPic'></div></div>","null","7","Banana Bonanza","Fruit/bananas.png","Won","0.8,0.35","11","0.8","117","20","",""
"","","","feedback","63d9f41910c61f3eb102079f","bdp_rwlrn","Wed Mar 15 2023 14:30:07 GMT-0500 (Central Daylight Time)","600368","Trustworthy,Untrustworthy","html-keyboard-response","70","248258","0.0-11.0-3.19","","null","","<div class='respPicDiv'><img src='img/responseButtonOffersNo0_wht.png' class='respPic'></div><div class='trialDiv'><img src='Fruit/bananas.png'><br><font class='baseline'><strong>Banana Bonanza</strong><p><strong><font class='posOutcome'>You WON</font><p>You bet: 1</strong></font> &nbsp; &nbsp; &nbsp; &nbsp; &nbsp; &nbsp;<font class='posOutcome'>you receive: <strong>2</strong></font></div>","null","7","Banana Bonanza","Fruit/bananas.png","Won","0.8,0.35","11","0.8","119","20","",""
"","","","decision","63d9f41910c61f3eb102079f","bdp_rwlrn","Wed Mar 15 2023 14:30:07 GMT-0500 (Central Daylight Time)","600368","Trustworthy,Untrustworthy","html-keyboard-response","71","249289","0.0-11.0-1.20","","1030","","<div class='trialDiv'><img src='Fruit/watermelon.png'><br><font class='baseline'><strong>Watermelon Win$</strong><p>Choose number of points to bet.</font><div class='respPicDiv'><img src='img/responseButtonOffersNo0L.png' class='respPic'></div></div>","1","7","Watermelon Win$","Fruit/watermelon.png","Won","0.65,0.35","12","0.65","124","21","",""
"","","","decisionFB","63d9f41910c61f3eb102079f","bdp_rwlrn","Wed Mar 15 2023 14:30:07 GMT-0500 (Central Daylight Time)","600368","Trustworthy,Untrustworthy","html-keyboard-response","72","249550","0.0-11.0-2.20","","null","","<div class='trialDiv'><img src='Fruit/watermelon.png'><br><font class='baseline'><strong>Watermelon Win$</strong><p>Choose number of points to bet.</font><div class='respPicDiv'><img src='img/responseButtonOffersNo0L1.png' class='respPic'></div></div>","null","7","Watermelon Win$","Fruit/watermelon.png","Won","0.65,0.35","12","0.65","123","21","",""
"","","","feedback","63d9f41910c61f3eb102079f","bdp_rwlrn","Wed Mar 15 2023 14:30:07 GMT-0500 (Central Daylight Time)","600368","Trustworthy,Untrustworthy","html-keyboard-response","73","250551","0.0-11.0-3.20","","null","","<div class='respPicDiv'><img src='img/responseButtonOffersNo0_wht.png' class='respPic'></div><div class='trialDiv'><img src='Fruit/watermelon.png'><br><font class='baseline'><strong>Watermelon Win$</strong><p><strong><font class='posOutcome'>You WON</font><p>You bet: 1</strong></font> &nbsp; &nbsp; &nbsp; &nbsp; &nbsp; &nbsp;<font class='posOutcome'>you receive: <strong>2</strong></font></div>","null","7","Watermelon Win$","Fruit/watermelon.png","Won","0.65,0.35","12","0.65","125","21","",""
"","","","decision","63d9f41910c61f3eb102079f","bdp_rwlrn","Wed Mar 15 2023 14:30:07 GMT-0500 (Central Daylight Time)","600368","Trustworthy,Untrustworthy","html-keyboard-response","74","251438","0.0-11.0-1.21","","885","","<div class='trialDiv'><img src='Fruit/bananas.png'><br><font class='baseline'><strong>Banana Bonanza</strong><p>Choose number of points to bet.</font><div class='respPicDiv'><img src='img/responseButtonOffersNo0L.png' class='respPic'></div></div>","1","8","Banana Bonanza","Fruit/bananas.png","Won","0.8,0.35","11","0.8","130","22","",""
"","","","decisionFB","63d9f41910c61f3eb102079f","bdp_rwlrn","Wed Mar 15 2023 14:30:07 GMT-0500 (Central Daylight Time)","600368","Trustworthy,Untrustworthy","html-keyboard-response","75","251695","0.0-11.0-2.21","","null","","<div class='trialDiv'><img src='Fruit/bananas.png'><br><font class='baseline'><strong>Banana Bonanza</strong><p>Choose number of points to bet.</font><div class='respPicDiv'><img src='img/responseButtonOffersNo0L1.png' class='respPic'></div></div>","null","8","Banana Bonanza","Fruit/bananas.png","Won","0.8,0.35","11","0.8","129","22","",""
"","","","feedback","63d9f41910c61f3eb102079f","bdp_rwlrn","Wed Mar 15 2023 14:30:07 GMT-0500 (Central Daylight Time)","600368","Trustworthy,Untrustworthy","html-keyboard-response","76","252709","0.0-11.0-3.21","","null","","<div class='respPicDiv'><img src='img/responseButtonOffersNo0_wht.png' class='respPic'></div><div class='trialDiv'><img src='Fruit/bananas.png'><br><font class='baseline'><strong>Banana Bonanza</strong><p><strong><font class='posOutcome'>You WON</font><p>You bet: 1</strong></font> &nbsp; &nbsp; &nbsp; &nbsp; &nbsp; &nbsp;<font class='posOutcome'>you receive: <strong>2</strong></font></div>","null","8","Banana Bonanza","Fruit/bananas.png","Won","0.8,0.35","11","0.8","131","22","",""
"","","","decision","63d9f41910c61f3eb102079f","bdp_rwlrn","Wed Mar 15 2023 14:30:07 GMT-0500 (Central Daylight Time)","600368","Trustworthy,Untrustworthy","html-keyboard-response","77","253930","0.0-11.0-1.22","","1221","","<div class='trialDiv'><img src='Fruit/plums1.png'><br><font class='baseline'><strong>Plum Powerball</strong><p>Choose number of points to bet.</font><div class='respPicDiv'><img src='img/responseButtonOffersNo0L.png' class='respPic'></div></div>","2","8","Plum Powerball","Fruit/plums1.png","Lost","0.35,0.8","12","0.35","136","23","",""
"","","","decisionFB","63d9f41910c61f3eb102079f","bdp_rwlrn","Wed Mar 15 2023 14:30:07 GMT-0500 (Central Daylight Time)","600368","Trustworthy,Untrustworthy","html-keyboard-response","78","254186","0.0-11.0-2.22","","null","","<div class='trialDiv'><img src='Fruit/plums1.png'><br><font class='baseline'><strong>Plum Powerball</strong><p>Choose number of points to bet.</font><div class='respPicDiv'><img src='img/responseButtonOffersNo0L2.png' class='respPic'></div></div>","null","8","Plum Powerball","Fruit/plums1.png","Lost","0.35,0.8","12","0.35","134","23","",""
"","","","feedback","63d9f41910c61f3eb102079f","bdp_rwlrn","Wed Mar 15 2023 14:30:07 GMT-0500 (Central Daylight Time)","600368","Trustworthy,Untrustworthy","html-keyboard-response","79","255194","0.0-11.0-3.22","","null","","<div class='respPicDiv'><img src='img/responseButtonOffersNo0_wht.png' class='respPic'></div><div class='trialDiv'><img src='Fruit/plums1.png'><br><font class='baseline'><strong>Plum Powerball</strong><p><strong><font class='negOutcome'>You LOST</font><p>You bet: 2</strong></font> &nbsp; &nbsp; &nbsp; &nbsp; &nbsp; &nbsp;<font class='negOutcome'>You receive: <strong>0</strong></font></div>","null","8","Plum Powerball","Fruit/plums1.png","Lost","0.35,0.8","12","0.35","134","23","",""
"","","","decision","63d9f41910c61f3eb102079f","bdp_rwlrn","Wed Mar 15 2023 14:30:07 GMT-0500 (Central Daylight Time)","600368","Trustworthy,Untrustworthy","html-keyboard-response","80","256116","0.0-11.0-1.23","","922","","<div class='trialDiv'><img src='Fruit/watermelon.png'><br><font class='baseline'><strong>Watermelon Win$</strong><p>Choose number of points to bet.</font><div class='respPicDiv'><img src='img/responseButtonOffersNo0L.png' class='respPic'></div></div>","5","8","Watermelon Win$","Fruit/watermelon.png","Lost","0.65,0.35","12","0.65","139","24","",""
"","","","decisionFB","63d9f41910c61f3eb102079f","bdp_rwlrn","Wed Mar 15 2023 14:30:07 GMT-0500 (Central Daylight Time)","600368","Trustworthy,Untrustworthy","html-keyboard-response","81","256378","0.0-11.0-2.23","","null","","<div class='trialDiv'><img src='Fruit/watermelon.png'><br><font class='baseline'><strong>Watermelon Win$</strong><p>Choose number of points to bet.</font><div class='respPicDiv'><img src='img/responseButtonOffersNo0L5.png' class='respPic'></div></div>","null","8","Watermelon Win$","Fruit/watermelon.png","Lost","0.65,0.35","12","0.65","134","24","",""
"","","","feedback","63d9f41910c61f3eb102079f","bdp_rwlrn","Wed Mar 15 2023 14:30:07 GMT-0500 (Central Daylight Time)","600368","Trustworthy,Untrustworthy","html-keyboard-response","82","257381","0.0-11.0-3.23","","null","","<div class='respPicDiv'><img src='img/responseButtonOffersNo0_wht.png' class='respPic'></div><div class='trialDiv'><img src='Fruit/watermelon.png'><br><font class='baseline'><strong>Watermelon Win$</strong><p><strong><font class='negOutcome'>You LOST</font><p>You bet: 5</strong></font> &nbsp; &nbsp; &nbsp; &nbsp; &nbsp; &nbsp;<font class='negOutcome'>You receive: <strong>0</strong></font></div>","null","8","Watermelon Win$","Fruit/watermelon.png","Lost","0.65,0.35","12","0.65","134","24","",""
"","","","decision","63d9f41910c61f3eb102079f","bdp_rwlrn","Wed Mar 15 2023 14:30:07 GMT-0500 (Central Daylight Time)","600368","Trustworthy,Untrustworthy","html-keyboard-response","83","257879","0.0-11.0-1.24","","498","","<div class='trialDiv'><img src='Fruit/bananas.png'><br><font class='baseline'><strong>Banana Bonanza</strong><p>Choose number of points to bet.</font><div class='respPicDiv'><img src='img/responseButtonOffersNo0L.png' class='respPic'></div></div>","5","9","Banana Bonanza","Fruit/bananas.png","Lost","0.8,0.35","11","0.8","139","25","",""
"","","","decisionFB","63d9f41910c61f3eb102079f","bdp_rwlrn","Wed Mar 15 2023 14:30:07 GMT-0500 (Central Daylight Time)","600368","Trustworthy,Untrustworthy","html-keyboard-response","84","258130","0.0-11.0-2.24","","null","","<div class='trialDiv'><img src='Fruit/bananas.png'><br><font class='baseline'><strong>Banana Bonanza</strong><p>Choose number of points to bet.</font><div class='respPicDiv'><img src='img/responseButtonOffersNo0L5.png' class='respPic'></div></div>","null","9","Banana Bonanza","Fruit/bananas.png","Lost","0.8,0.35","11","0.8","134","25","",""
"","","","feedback","63d9f41910c61f3eb102079f","bdp_rwlrn","Wed Mar 15 2023 14:30:07 GMT-0500 (Central Daylight Time)","600368","Trustworthy,Untrustworthy","html-keyboard-response","85","259131","0.0-11.0-3.24","","null","","<div class='respPicDiv'><img src='img/responseButtonOffersNo0_wht.png' class='respPic'></div><div class='trialDiv'><img src='Fruit/bananas.png'><br><font class='baseline'><strong>Banana Bonanza</strong><p><strong><font class='negOutcome'>You LOST</font><p>You bet: 5</strong></font> &nbsp; &nbsp; &nbsp; &nbsp; &nbsp; &nbsp;<font class='negOutcome'>You receive: <strong>0</strong></font></div>","null","9","Banana Bonanza","Fruit/bananas.png","Lost","0.8,0.35","11","0.8","134","25","",""
"","","","decision","63d9f41910c61f3eb102079f","bdp_rwlrn","Wed Mar 15 2023 14:30:07 GMT-0500 (Central Daylight Time)","600368","Trustworthy,Untrustworthy","html-keyboard-response","86","259390","0.0-11.0-1.25","","259","","<div class='trialDiv'><img src='Fruit/watermelon.png'><br><font class='baseline'><strong>Watermelon Win$</strong><p>Choose number of points to bet.</font><div class='respPicDiv'><img src='img/responseButtonOffersNo0L.png' class='respPic'></div></div>","5","9","Watermelon Win$","Fruit/watermelon.png","Won","0.65,0.35","12","0.65","139","26","",""
"","","","decisionFB","63d9f41910c61f3eb102079f","bdp_rwlrn","Wed Mar 15 2023 14:30:07 GMT-0500 (Central Daylight Time)","600368","Trustworthy,Untrustworthy","html-keyboard-response","87","259644","0.0-11.0-2.25","","null","","<div class='trialDiv'><img src='Fruit/watermelon.png'><br><font class='baseline'><strong>Watermelon Win$</strong><p>Choose number of points to bet.</font><div class='respPicDiv'><img src='img/responseButtonOffersNo0L5.png' class='respPic'></div></div>","null","9","Watermelon Win$","Fruit/watermelon.png","Won","0.65,0.35","12","0.65","134","26","",""
"","","","feedback","63d9f41910c61f3eb102079f","bdp_rwlrn","Wed Mar 15 2023 14:30:07 GMT-0500 (Central Daylight Time)","600368","Trustworthy,Untrustworthy","html-keyboard-response","88","260645","0.0-11.0-3.25","","null","","<div class='respPicDiv'><img src='img/responseButtonOffersNo0_wht.png' class='respPic'></div><div class='trialDiv'><img src='Fruit/watermelon.png'><br><font class='baseline'><strong>Watermelon Win$</strong><p><strong><font class='posOutcome'>You WON</font><p>You bet: 5</strong></font> &nbsp; &nbsp; &nbsp; &nbsp; &nbsp; &nbsp;<font class='posOutcome'>you receive: <strong>10</strong></font></div>","null","9","Watermelon Win$","Fruit/watermelon.png","Won","0.65,0.35","12","0.65","144","26","",""
"","","","decision","63d9f41910c61f3eb102079f","bdp_rwlrn","Wed Mar 15 2023 14:30:07 GMT-0500 (Central Daylight Time)","600368","Trustworthy,Untrustworthy","html-keyboard-response","89","262170","0.0-11.0-1.26","","1525","","<div class='trialDiv'><img src='Fruit/plums1.png'><br><font class='baseline'><strong>Plum Powerball</strong><p>Choose number of points to bet.</font><div class='respPicDiv'><img src='img/responseButtonOffersNo0L.png' class='respPic'></div></div>","2","9","Plum Powerball","Fruit/plums1.png","Won","0.35,0.8","12","0.35","149","27","",""
"","","","decisionFB","63d9f41910c61f3eb102079f","bdp_rwlrn","Wed Mar 15 2023 14:30:07 GMT-0500 (Central Daylight Time)","600368","Trustworthy,Untrustworthy","html-keyboard-response","90","262427","0.0-11.0-2.26","","null","","<div class='trialDiv'><img src='Fruit/plums1.png'><br><font class='baseline'><strong>Plum Powerball</strong><p>Choose number of points to bet.</font><div class='respPicDiv'><img src='img/responseButtonOffersNo0L2.png' class='respPic'></div></div>","null","9","Plum Powerball","Fruit/plums1.png","Won","0.35,0.8","12","0.35","147","27","",""
"","","","feedback","63d9f41910c61f3eb102079f","bdp_rwlrn","Wed Mar 15 2023 14:30:07 GMT-0500 (Central Daylight Time)","600368","Trustworthy,Untrustworthy","html-keyboard-response","91","263443","0.0-11.0-3.26","","null","","<div class='respPicDiv'><img src='img/responseButtonOffersNo0_wht.png' class='respPic'></div><div class='trialDiv'><img src='Fruit/plums1.png'><br><font class='baseline'><strong>Plum Powerball</strong><p><strong><font class='posOutcome'>You WON</font><p>You bet: 2</strong></font> &nbsp; &nbsp; &nbsp; &nbsp; &nbsp; &nbsp;<font class='posOutcome'>you receive: <strong>4</strong></font></div>","null","9","Plum Powerball","Fruit/plums1.png","Won","0.35,0.8","12","0.35","151","27","",""
"","","","decision","63d9f41910c61f3eb102079f","bdp_rwlrn","Wed Mar 15 2023 14:30:07 GMT-0500 (Central Daylight Time)","600368","Trustworthy,Untrustworthy","html-keyboard-response","92","264580","0.0-11.0-1.27","","1137","","<div class='trialDiv'><img src='Fruit/watermelon.png'><br><font class='baseline'><strong>Watermelon Win$</strong><p>Choose number of points to bet.</font><div class='respPicDiv'><img src='img/responseButtonOffersNo0L.png' class='respPic'></div></div>","1","10","Watermelon Win$","Fruit/watermelon.png","Won","0.65,0.35","12","0.65","156","28","",""
"","","","decisionFB","63d9f41910c61f3eb102079f","bdp_rwlrn","Wed Mar 15 2023 14:30:07 GMT-0500 (Central Daylight Time)","600368","Trustworthy,Untrustworthy","html-keyboard-response","93","264833","0.0-11.0-2.27","","null","","<div class='trialDiv'><img src='Fruit/watermelon.png'><br><font class='baseline'><strong>Watermelon Win$</strong><p>Choose number of points to bet.</font><div class='respPicDiv'><img src='img/responseButtonOffersNo0L1.png' class='respPic'></div></div>","null","10","Watermelon Win$","Fruit/watermelon.png","Won","0.65,0.35","12","0.65","155","28","",""
"","","","feedback","63d9f41910c61f3eb102079f","bdp_rwlrn","Wed Mar 15 2023 14:30:07 GMT-0500 (Central Daylight Time)","600368","Trustworthy,Untrustworthy","html-keyboard-response","94","265847","0.0-11.0-3.27","","null","","<div class='respPicDiv'><img src='img/responseButtonOffersNo0_wht.png' class='respPic'></div><div class='trialDiv'><img src='Fruit/watermelon.png'><br><font class='baseline'><strong>Watermelon Win$</strong><p><strong><font class='posOutcome'>You WON</font><p>You bet: 1</strong></font> &nbsp; &nbsp; &nbsp; &nbsp; &nbsp; &nbsp;<font class='posOutcome'>you receive: <strong>2</strong></font></div>","null","10","Watermelon Win$","Fruit/watermelon.png","Won","0.65,0.35","12","0.65","157","28","",""
"","","","decision","63d9f41910c61f3eb102079f","bdp_rwlrn","Wed Mar 15 2023 14:30:07 GMT-0500 (Central Daylight Time)","600368","Trustworthy,Untrustworthy","html-keyboard-response","95","267295","0.0-11.0-1.28","","1447","","<div class='trialDiv'><img src='Fruit/bananas.png'><br><font class='baseline'><strong>Banana Bonanza</strong><p>Choose number of points to bet.</font><div class='respPicDiv'><img src='img/responseButtonOffersNo0L.png' class='respPic'></div></div>","1","10","Banana Bonanza","Fruit/bananas.png","Lost","0.8,0.35","11","0.8","162","29","",""
"","","","decisionFB","63d9f41910c61f3eb102079f","bdp_rwlrn","Wed Mar 15 2023 14:30:07 GMT-0500 (Central Daylight Time)","600368","Trustworthy,Untrustworthy","html-keyboard-response","96","267551","0.0-11.0-2.28","","null","","<div class='trialDiv'><img src='Fruit/bananas.png'><br><font class='baseline'><strong>Banana Bonanza</strong><p>Choose number of points to bet.</font><div class='respPicDiv'><img src='img/responseButtonOffersNo0L1.png' class='respPic'></div></div>","null","10","Banana Bonanza","Fruit/bananas.png","Lost","0.8,0.35","11","0.8","161","29","",""
"","","","feedback","63d9f41910c61f3eb102079f","bdp_rwlrn","Wed Mar 15 2023 14:30:07 GMT-0500 (Central Daylight Time)","600368","Trustworthy,Untrustworthy","html-keyboard-response","97","268555","0.0-11.0-3.28","","null","","<div class='respPicDiv'><img src='img/responseButtonOffersNo0_wht.png' class='respPic'></div><div class='trialDiv'><img src='Fruit/bananas.png'><br><font class='baseline'><strong>Banana Bonanza</strong><p><strong><font class='negOutcome'>You LOST</font><p>You bet: 1</strong></font> &nbsp; &nbsp; &nbsp; &nbsp; &nbsp; &nbsp;<font class='negOutcome'>You receive: <strong>0</strong></font></div>","null","10","Banana Bonanza","Fruit/bananas.png","Lost","0.8,0.35","11","0.8","161","29","",""
"","","","decision","63d9f41910c61f3eb102079f","bdp_rwlrn","Wed Mar 15 2023 14:30:07 GMT-0500 (Central Daylight Time)","600368","Trustworthy,Untrustworthy","html-keyboard-response","98","269312","0.0-11.0-1.29","","757","","<div class='trialDiv'><img src='Fruit/plums1.png'><br><font class='baseline'><strong>Plum Powerball</strong><p>Choose number of points to bet.</font><div class='respPicDiv'><img src='img/responseButtonOffersNo0L.png' class='respPic'></div></div>","2","10","Plum Powerball","Fruit/plums1.png","Lost","0.35,0.8","12","0.35","166","30","",""
"","","","decisionFB","63d9f41910c61f3eb102079f","bdp_rwlrn","Wed Mar 15 2023 14:30:07 GMT-0500 (Central Daylight Time)","600368","Trustworthy,Untrustworthy","html-keyboard-response","99","269569","0.0-11.0-2.29","","null","","<div class='trialDiv'><img src='Fruit/plums1.png'><br><font class='baseline'><strong>Plum Powerball</strong><p>Choose number of points to bet.</font><div class='respPicDiv'><img src='img/responseButtonOffersNo0L2.png' class='respPic'></div></div>","null","10","Plum Powerball","Fruit/plums1.png","Lost","0.35,0.8","12","0.35","164","30","",""
"","","","feedback","63d9f41910c61f3eb102079f","bdp_rwlrn","Wed Mar 15 2023 14:30:07 GMT-0500 (Central Daylight Time)","600368","Trustworthy,Untrustworthy","html-keyboard-response","100","270582","0.0-11.0-3.29","","null","","<div class='respPicDiv'><img src='img/responseButtonOffersNo0_wht.png' class='respPic'></div><div class='trialDiv'><img src='Fruit/plums1.png'><br><font class='baseline'><strong>Plum Powerball</strong><p><strong><font class='negOutcome'>You LOST</font><p>You bet: 2</strong></font> &nbsp; &nbsp; &nbsp; &nbsp; &nbsp; &nbsp;<font class='negOutcome'>You receive: <strong>0</strong></font></div>","null","10","Plum Powerball","Fruit/plums1.png","Lost","0.35,0.8","12","0.35","164","30","",""
"","","","decision","63d9f41910c61f3eb102079f","bdp_rwlrn","Wed Mar 15 2023 14:30:07 GMT-0500 (Central Daylight Time)","600368","Trustworthy,Untrustworthy","html-keyboard-response","101","271089","0.0-11.0-1.30","","506","","<div class='trialDiv'><img src='Fruit/bananas.png'><br><font class='baseline'><strong>Banana Bonanza</strong><p>Choose number of points to bet.</font><div class='respPicDiv'><img src='img/responseButtonOffersNo0L.png' class='respPic'></div></div>","5","11","Banana Bonanza","Fruit/bananas.png","Lost","0.8,0.35","11","0.8","169","31","",""
"","","","decisionFB","63d9f41910c61f3eb102079f","bdp_rwlrn","Wed Mar 15 2023 14:30:07 GMT-0500 (Central Daylight Time)","600368","Trustworthy,Untrustworthy","html-keyboard-response","102","271349","0.0-11.0-2.30","","null","","<div class='trialDiv'><img src='Fruit/bananas.png'><br><font class='baseline'><strong>Banana Bonanza</strong><p>Choose number of points to bet.</font><div class='respPicDiv'><img src='img/responseButtonOffersNo0L5.png' class='respPic'></div></div>","null","11","Banana Bonanza","Fruit/bananas.png","Lost","0.8,0.35","11","0.8","164","31","",""
"","","","feedback","63d9f41910c61f3eb102079f","bdp_rwlrn","Wed Mar 15 2023 14:30:07 GMT-0500 (Central Daylight Time)","600368","Trustworthy,Untrustworthy","html-keyboard-response","103","272364","0.0-11.0-3.30","","null","","<div class='respPicDiv'><img src='img/responseButtonOffersNo0_wht.png' class='respPic'></div><div class='trialDiv'><img src='Fruit/bananas.png'><br><font class='baseline'><strong>Banana Bonanza</strong><p><strong><font class='negOutcome'>You LOST</font><p>You bet: 5</strong></font> &nbsp; &nbsp; &nbsp; &nbsp; &nbsp; &nbsp;<font class='negOutcome'>You receive: <strong>0</strong></font></div>","null","11","Banana Bonanza","Fruit/bananas.png","Lost","0.8,0.35","11","0.8","164","31","",""
"","","","decision","63d9f41910c61f3eb102079f","bdp_rwlrn","Wed Mar 15 2023 14:30:07 GMT-0500 (Central Daylight Time)","600368","Trustworthy,Untrustworthy","html-keyboard-response","104","272818","0.0-11.0-1.31","","454","","<div class='trialDiv'><img src='Fruit/watermelon.png'><br><font class='baseline'><strong>Watermelon Win$</strong><p>Choose number of points to bet.</font><div class='respPicDiv'><img src='img/responseButtonOffersNo0L.png' class='respPic'></div></div>","5","11","Watermelon Win$","Fruit/watermelon.png","Won","0.65,0.35","12","0.65","169","32","",""
"","","","decisionFB","63d9f41910c61f3eb102079f","bdp_rwlrn","Wed Mar 15 2023 14:30:07 GMT-0500 (Central Daylight Time)","600368","Trustworthy,Untrustworthy","html-keyboard-response","105","273068","0.0-11.0-2.31","","null","","<div class='trialDiv'><img src='Fruit/watermelon.png'><br><font class='baseline'><strong>Watermelon Win$</strong><p>Choose number of points to bet.</font><div class='respPicDiv'><img src='img/responseButtonOffersNo0L5.png' class='respPic'></div></div>","null","11","Watermelon Win$","Fruit/watermelon.png","Won","0.65,0.35","12","0.65","164","32","",""
"","","","feedback","63d9f41910c61f3eb102079f","bdp_rwlrn","Wed Mar 15 2023 14:30:07 GMT-0500 (Central Daylight Time)","600368","Trustworthy,Untrustworthy","html-keyboard-response","106","274082","0.0-11.0-3.31","","null","","<div class='respPicDiv'><img src='img/responseButtonOffersNo0_wht.png' class='respPic'></div><div class='trialDiv'><img src='Fruit/watermelon.png'><br><font class='baseline'><strong>Watermelon Win$</strong><p><strong><font class='posOutcome'>You WON</font><p>You bet: 5</strong></font> &nbsp; &nbsp; &nbsp; &nbsp; &nbsp; &nbsp;<font class='posOutcome'>you receive: <strong>10</strong></font></div>","null","11","Watermelon Win$","Fruit/watermelon.png","Won","0.65,0.35","12","0.65","174","32","",""
"","","","decision","63d9f41910c61f3eb102079f","bdp_rwlrn","Wed Mar 15 2023 14:30:07 GMT-0500 (Central Daylight Time)","600368","Trustworthy,Untrustworthy","html-keyboard-response","107","275364","0.0-11.0-1.32","","1281","","<div class='trialDiv'><img src='Fruit/plums1.png'><br><font class='baseline'><strong>Plum Powerball</strong><p>Choose number of points to bet.</font><div class='respPicDiv'><img src='img/responseButtonOffersNo0L.png' class='respPic'></div></div>","3","11","Plum Powerball","Fruit/plums1.png","Won","0.35,0.8","12","0.35","179","33","",""
"","","","decisionFB","63d9f41910c61f3eb102079f","bdp_rwlrn","Wed Mar 15 2023 14:30:07 GMT-0500 (Central Daylight Time)","600368","Trustworthy,Untrustworthy","html-keyboard-response","108","275617","0.0-11.0-2.32","","null","","<div class='trialDiv'><img src='Fruit/plums1.png'><br><font class='baseline'><strong>Plum Powerball</strong><p>Choose number of points to bet.</font><div class='respPicDiv'><img src='img/responseButtonOffersNo0L3.png' class='respPic'></div></div>","null","11","Plum Powerball","Fruit/plums1.png","Won","0.35,0.8","12","0.35","176","33","",""
"","","","feedback","63d9f41910c61f3eb102079f","bdp_rwlrn","Wed Mar 15 2023 14:30:07 GMT-0500 (Central Daylight Time)","600368","Trustworthy,Untrustworthy","html-keyboard-response","109","276630","0.0-11.0-3.32","","null","","<div class='respPicDiv'><img src='img/responseButtonOffersNo0_wht.png' class='respPic'></div><div class='trialDiv'><img src='Fruit/plums1.png'><br><font class='baseline'><strong>Plum Powerball</strong><p><strong><font class='posOutcome'>You WON</font><p>You bet: 3</strong></font> &nbsp; &nbsp; &nbsp; &nbsp; &nbsp; &nbsp;<font class='posOutcome'>you receive: <strong>6</strong></font></div>","null","11","Plum Powerball","Fruit/plums1.png","Won","0.35,0.8","12","0.35","182","33","",""
"","","","decision","63d9f41910c61f3eb102079f","bdp_rwlrn","Wed Mar 15 2023 14:30:07 GMT-0500 (Central Daylight Time)","600368","Trustworthy,Untrustworthy","html-keyboard-response","110","277728","0.0-11.0-1.33","","1098","","<div class='trialDiv'><img src='Fruit/watermelon.png'><br><font class='baseline'><strong>Watermelon Win$</strong><p>Choose number of points to bet.</font><div class='respPicDiv'><img src='img/responseButtonOffersNo0L.png' class='respPic'></div></div>","1","12","Watermelon Win$","Fruit/watermelon.png","Won","0.65,0.35","12","0.65","187","34","",""
"","","","decisionFB","63d9f41910c61f3eb102079f","bdp_rwlrn","Wed Mar 15 2023 14:30:07 GMT-0500 (Central Daylight Time)","600368","Trustworthy,Untrustworthy","html-keyboard-response","111","277988","0.0-11.0-2.33","","null","","<div class='trialDiv'><img src='Fruit/watermelon.png'><br><font class='baseline'><strong>Watermelon Win$</strong><p>Choose number of points to bet.</font><div class='respPicDiv'><img src='img/responseButtonOffersNo0L1.png' class='respPic'></div></div>","null","12","Watermelon Win$","Fruit/watermelon.png","Won","0.65,0.35","12","0.65","186","34","",""
"","","","feedback","63d9f41910c61f3eb102079f","bdp_rwlrn","Wed Mar 15 2023 14:30:07 GMT-0500 (Central Daylight Time)","600368","Trustworthy,Untrustworthy","html-keyboard-response","112","278989","0.0-11.0-3.33","","null","","<div class='respPicDiv'><img src='img/responseButtonOffersNo0_wht.png' class='respPic'></div><div class='trialDiv'><img src='Fruit/watermelon.png'><br><font class='baseline'><strong>Watermelon Win$</strong><p><strong><font class='posOutcome'>You WON</font><p>You bet: 1</strong></font> &nbsp; &nbsp; &nbsp; &nbsp; &nbsp; &nbsp;<font class='posOutcome'>you receive: <strong>2</strong></font></div>","null","12","Watermelon Win$","Fruit/watermelon.png","Won","0.65,0.35","12","0.65","188","34","",""
"","","","decision","63d9f41910c61f3eb102079f","bdp_rwlrn","Wed Mar 15 2023 14:30:07 GMT-0500 (Central Daylight Time)","600368","Trustworthy,Untrustworthy","html-keyboard-response","113","279633","0.0-11.0-1.34","","643","","<div class='trialDiv'><img src='Fruit/plums1.png'><br><font class='baseline'><strong>Plum Powerball</strong><p>Choose number of points to bet.</font><div class='respPicDiv'><img src='img/responseButtonOffersNo0L.png' class='respPic'></div></div>","2","12","Plum Powerball","Fruit/plums1.png","Won","0.35,0.8","12","0.35","193","35","",""
"","","","decisionFB","63d9f41910c61f3eb102079f","bdp_rwlrn","Wed Mar 15 2023 14:30:07 GMT-0500 (Central Daylight Time)","600368","Trustworthy,Untrustworthy","html-keyboard-response","114","279895","0.0-11.0-2.34","","null","","<div class='trialDiv'><img src='Fruit/plums1.png'><br><font class='baseline'><strong>Plum Powerball</strong><p>Choose number of points to bet.</font><div class='respPicDiv'><img src='img/responseButtonOffersNo0L2.png' class='respPic'></div></div>","null","12","Plum Powerball","Fruit/plums1.png","Won","0.35,0.8","12","0.35","191","35","",""
"","","","feedback","63d9f41910c61f3eb102079f","bdp_rwlrn","Wed Mar 15 2023 14:30:07 GMT-0500 (Central Daylight Time)","600368","Trustworthy,Untrustworthy","html-keyboard-response","115","280902","0.0-11.0-3.34","","null","","<div class='respPicDiv'><img src='img/responseButtonOffersNo0_wht.png' class='respPic'></div><div class='trialDiv'><img src='Fruit/plums1.png'><br><font class='baseline'><strong>Plum Powerball</strong><p><strong><font class='posOutcome'>You WON</font><p>You bet: 2</strong></font> &nbsp; &nbsp; &nbsp; &nbsp; &nbsp; &nbsp;<font class='posOutcome'>you receive: <strong>4</strong></font></div>","null","12","Plum Powerball","Fruit/plums1.png","Won","0.35,0.8","12","0.35","195","35","",""
"","","","decision","63d9f41910c61f3eb102079f","bdp_rwlrn","Wed Mar 15 2023 14:30:07 GMT-0500 (Central Daylight Time)","600368","Trustworthy,Untrustworthy","html-keyboard-response","116","281495","0.0-11.0-1.35","","592","","<div class='trialDiv'><img src='Fruit/bananas.png'><br><font class='baseline'><strong>Banana Bonanza</strong><p>Choose number of points to bet.</font><div class='respPicDiv'><img src='img/responseButtonOffersNo0L.png' class='respPic'></div></div>","1","12","Banana Bonanza","Fruit/bananas.png","Won","0.8,0.35","11","0.8","200","36","",""
"","","","decisionFB","63d9f41910c61f3eb102079f","bdp_rwlrn","Wed Mar 15 2023 14:30:07 GMT-0500 (Central Daylight Time)","600368","Trustworthy,Untrustworthy","html-keyboard-response","117","281756","0.0-11.0-2.35","","null","","<div class='trialDiv'><img src='Fruit/bananas.png'><br><font class='baseline'><strong>Banana Bonanza</strong><p>Choose number of points to bet.</font><div class='respPicDiv'><img src='img/responseButtonOffersNo0L1.png' class='respPic'></div></div>","null","12","Banana Bonanza","Fruit/bananas.png","Won","0.8,0.35","11","0.8","199","36","",""
"","","","feedback","63d9f41910c61f3eb102079f","bdp_rwlrn","Wed Mar 15 2023 14:30:07 GMT-0500 (Central Daylight Time)","600368","Trustworthy,Untrustworthy","html-keyboard-response","118","282770","0.0-11.0-3.35","","null","","<div class='respPicDiv'><img src='img/responseButtonOffersNo0_wht.png' class='respPic'></div><div class='trialDiv'><img src='Fruit/bananas.png'><br><font class='baseline'><strong>Banana Bonanza</strong><p><strong><font class='posOutcome'>You WON</font><p>You bet: 1</strong></font> &nbsp; &nbsp; &nbsp; &nbsp; &nbsp; &nbsp;<font class='posOutcome'>you receive: <strong>2</strong></font></div>","null","12","Banana Bonanza","Fruit/bananas.png","Won","0.8,0.35","11","0.8","201","36","",""
"","","","decision","63d9f41910c61f3eb102079f","bdp_rwlrn","Wed Mar 15 2023 14:30:07 GMT-0500 (Central Daylight Time)","600368","Trustworthy,Untrustworthy","html-keyboard-response","119","283879","0.0-11.0-1.36","","1108","","<div class='trialDiv'><img src='Fruit/plums1.png'><br><font class='baseline'><strong>Plum Powerball</strong><p>Choose number of points to bet.</font><div class='respPicDiv'><img src='img/responseButtonOffersNo0L.png' class='respPic'></div></div>","2","13","Plum Powerball","Fruit/plums1.png","Won","0.35,0.8","12","0.35","206","37","",""
"","","","decisionFB","63d9f41910c61f3eb102079f","bdp_rwlrn","Wed Mar 15 2023 14:30:07 GMT-0500 (Central Daylight Time)","600368","Trustworthy,Untrustworthy","html-keyboard-response","120","284144","0.0-11.0-2.36","","null","","<div class='trialDiv'><img src='Fruit/plums1.png'><br><font class='baseline'><strong>Plum Powerball</strong><p>Choose number of points to bet.</font><div class='respPicDiv'><img src='img/responseButtonOffersNo0L2.png' class='respPic'></div></div>","null","13","Plum Powerball","Fruit/plums1.png","Won","0.35,0.8","12","0.35","204","37","",""
"","","","feedback","63d9f41910c61f3eb102079f","bdp_rwlrn","Wed Mar 15 2023 14:30:07 GMT-0500 (Central Daylight Time)","600368","Trustworthy,Untrustworthy","html-keyboard-response","121","285160","0.0-11.0-3.36","","null","","<div class='respPicDiv'><img src='img/responseButtonOffersNo0_wht.png' class='respPic'></div><div class='trialDiv'><img src='Fruit/plums1.png'><br><font class='baseline'><strong>Plum Powerball</strong><p><strong><font class='posOutcome'>You WON</font><p>You bet: 2</strong></font> &nbsp; &nbsp; &nbsp; &nbsp; &nbsp; &nbsp;<font class='posOutcome'>you receive: <strong>4</strong></font></div>","null","13","Plum Powerball","Fruit/plums1.png","Won","0.35,0.8","12","0.35","208","37","",""
"","","","decision","63d9f41910c61f3eb102079f","bdp_rwlrn","Wed Mar 15 2023 14:30:07 GMT-0500 (Central Daylight Time)","600368","Trustworthy,Untrustworthy","html-keyboard-response","122","286631","0.0-11.0-1.37","","1471","","<div class='trialDiv'><img src='Fruit/bananas.png'><br><font class='baseline'><strong>Banana Bonanza</strong><p>Choose number of points to bet.</font><div class='respPicDiv'><img src='img/responseButtonOffersNo0L.png' class='respPic'></div></div>","1","13","Banana Bonanza","Fruit/bananas.png","Won","0.8,0.35","11","0.8","213","38","",""
"","","","decisionFB","63d9f41910c61f3eb102079f","bdp_rwlrn","Wed Mar 15 2023 14:30:07 GMT-0500 (Central Daylight Time)","600368","Trustworthy,Untrustworthy","html-keyboard-response","123","286890","0.0-11.0-2.37","","null","","<div class='trialDiv'><img src='Fruit/bananas.png'><br><font class='baseline'><strong>Banana Bonanza</strong><p>Choose number of points to bet.</font><div class='respPicDiv'><img src='img/responseButtonOffersNo0L1.png' class='respPic'></div></div>","null","13","Banana Bonanza","Fruit/bananas.png","Won","0.8,0.35","11","0.8","212","38","",""
"","","","feedback","63d9f41910c61f3eb102079f","bdp_rwlrn","Wed Mar 15 2023 14:30:07 GMT-0500 (Central Daylight Time)","600368","Trustworthy,Untrustworthy","html-keyboard-response","124","287896","0.0-11.0-3.37","","null","","<div class='respPicDiv'><img src='img/responseButtonOffersNo0_wht.png' class='respPic'></div><div class='trialDiv'><img src='Fruit/bananas.png'><br><font class='baseline'><strong>Banana Bonanza</strong><p><strong><font class='posOutcome'>You WON</font><p>You bet: 1</strong></font> &nbsp; &nbsp; &nbsp; &nbsp; &nbsp; &nbsp;<font class='posOutcome'>you receive: <strong>2</strong></font></div>","null","13","Banana Bonanza","Fruit/bananas.png","Won","0.8,0.35","11","0.8","214","38","",""
"","","","decision","63d9f41910c61f3eb102079f","bdp_rwlrn","Wed Mar 15 2023 14:30:07 GMT-0500 (Central Daylight Time)","600368","Trustworthy,Untrustworthy","html-keyboard-response","125","289283","0.0-11.0-1.38","","1386","","<div class='trialDiv'><img src='Fruit/watermelon.png'><br><font class='baseline'><strong>Watermelon Win$</strong><p>Choose number of points to bet.</font><div class='respPicDiv'><img src='img/responseButtonOffersNo0L.png' class='respPic'></div></div>","2","13","Watermelon Win$","Fruit/watermelon.png","Won","0.65,0.35","12","0.65","219","39","",""
"","","","decisionFB","63d9f41910c61f3eb102079f","bdp_rwlrn","Wed Mar 15 2023 14:30:07 GMT-0500 (Central Daylight Time)","600368","Trustworthy,Untrustworthy","html-keyboard-response","126","289538","0.0-11.0-2.38","","null","","<div class='trialDiv'><img src='Fruit/watermelon.png'><br><font class='baseline'><strong>Watermelon Win$</strong><p>Choose number of points to bet.</font><div class='respPicDiv'><img src='img/responseButtonOffersNo0L2.png' class='respPic'></div></div>","null","13","Watermelon Win$","Fruit/watermelon.png","Won","0.65,0.35","12","0.65","217","39","",""
"","","","feedback","63d9f41910c61f3eb102079f","bdp_rwlrn","Wed Mar 15 2023 14:30:07 GMT-0500 (Central Daylight Time)","600368","Trustworthy,Untrustworthy","html-keyboard-response","127","290549","0.0-11.0-3.38","","null","","<div class='respPicDiv'><img src='img/responseButtonOffersNo0_wht.png' class='respPic'></div><div class='trialDiv'><img src='Fruit/watermelon.png'><br><font class='baseline'><strong>Watermelon Win$</strong><p><strong><font class='posOutcome'>You WON</font><p>You bet: 2</strong></font> &nbsp; &nbsp; &nbsp; &nbsp; &nbsp; &nbsp;<font class='posOutcome'>you receive: <strong>4</strong></font></div>","null","13","Watermelon Win$","Fruit/watermelon.png","Won","0.65,0.35","12","0.65","221","39","",""
"","","","decision","63d9f41910c61f3eb102079f","bdp_rwlrn","Wed Mar 15 2023 14:30:07 GMT-0500 (Central Daylight Time)","600368","Trustworthy,Untrustworthy","html-keyboard-response","128","291258","0.0-11.0-1.39","","709","","<div class='trialDiv'><img src='Fruit/plums1.png'><br><font class='baseline'><strong>Plum Powerball</strong><p>Choose number of points to bet.</font><div class='respPicDiv'><img src='img/responseButtonOffersNo0L.png' class='respPic'></div></div>","1","14","Plum Powerball","Fruit/plums1.png","Won","0.35,0.8","12","0.35","226","40","",""
"","","","decisionFB","63d9f41910c61f3eb102079f","bdp_rwlrn","Wed Mar 15 2023 14:30:07 GMT-0500 (Central Daylight Time)","600368","Trustworthy,Untrustworthy","html-keyboard-response","129","291522","0.0-11.0-2.39","","null","","<div class='trialDiv'><img src='Fruit/plums1.png'><br><font class='baseline'><strong>Plum Powerball</strong><p>Choose number of points to bet.</font><div class='respPicDiv'><img src='img/responseButtonOffersNo0L1.png' class='respPic'></div></div>","null","14","Plum Powerball","Fruit/plums1.png","Won","0.35,0.8","12","0.35","225","40","",""
"","","","feedback","63d9f41910c61f3eb102079f","bdp_rwlrn","Wed Mar 15 2023 14:30:07 GMT-0500 (Central Daylight Time)","600368","Trustworthy,Untrustworthy","html-keyboard-response","130","292538","0.0-11.0-3.39","","null","","<div class='respPicDiv'><img src='img/responseButtonOffersNo0_wht.png' class='respPic'></div><div class='trialDiv'><img src='Fruit/plums1.png'><br><font class='baseline'><strong>Plum Powerball</strong><p><strong><font class='posOutcome'>You WON</font><p>You bet: 1</strong></font> &nbsp; &nbsp; &nbsp; &nbsp; &nbsp; &nbsp;<font class='posOutcome'>you receive: <strong>2</strong></font></div>","null","14","Plum Powerball","Fruit/plums1.png","Won","0.35,0.8","12","0.35","227","40","",""
"","","","decision","63d9f41910c61f3eb102079f","bdp_rwlrn","Wed Mar 15 2023 14:30:07 GMT-0500 (Central Daylight Time)","600368","Trustworthy,Untrustworthy","html-keyboard-response","131","293370","0.0-11.0-1.40","","832","","<div class='trialDiv'><img src='Fruit/bananas.png'><br><font class='baseline'><strong>Banana Bonanza</strong><p>Choose number of points to bet.</font><div class='respPicDiv'><img src='img/responseButtonOffersNo0L.png' class='respPic'></div></div>","2","14","Banana Bonanza","Fruit/bananas.png","Lost","0.8,0.35","11","0.8","232","41","",""
"","","","decisionFB","63d9f41910c61f3eb102079f","bdp_rwlrn","Wed Mar 15 2023 14:30:07 GMT-0500 (Central Daylight Time)","600368","Trustworthy,Untrustworthy","html-keyboard-response","132","293628","0.0-11.0-2.40","","null","","<div class='trialDiv'><img src='Fruit/bananas.png'><br><font class='baseline'><strong>Banana Bonanza</strong><p>Choose number of points to bet.</font><div class='respPicDiv'><img src='img/responseButtonOffersNo0L2.png' class='respPic'></div></div>","null","14","Banana Bonanza","Fruit/bananas.png","Lost","0.8,0.35","11","0.8","230","41","",""
"","","","feedback","63d9f41910c61f3eb102079f","bdp_rwlrn","Wed Mar 15 2023 14:30:07 GMT-0500 (Central Daylight Time)","600368","Trustworthy,Untrustworthy","html-keyboard-response","133","294636","0.0-11.0-3.40","","null","","<div class='respPicDiv'><img src='img/responseButtonOffersNo0_wht.png' class='respPic'></div><div class='trialDiv'><img src='Fruit/bananas.png'><br><font class='baseline'><strong>Banana Bonanza</strong><p><strong><font class='negOutcome'>You LOST</font><p>You bet: 2</strong></font> &nbsp; &nbsp; &nbsp; &nbsp; &nbsp; &nbsp;<font class='negOutcome'>You receive: <strong>0</strong></font></div>","null","14","Banana Bonanza","Fruit/bananas.png","Lost","0.8,0.35","11","0.8","230","41","",""
"","","","decision","63d9f41910c61f3eb102079f","bdp_rwlrn","Wed Mar 15 2023 14:30:07 GMT-0500 (Central Daylight Time)","600368","Trustworthy,Untrustworthy","html-keyboard-response","134","295609","0.0-11.0-1.41","","972","","<div class='trialDiv'><img src='Fruit/watermelon.png'><br><font class='baseline'><strong>Watermelon Win$</strong><p>Choose number of points to bet.</font><div class='respPicDiv'><img src='img/responseButtonOffersNo0L.png' class='respPic'></div></div>","1","14","Watermelon Win$","Fruit/watermelon.png","Lost","0.65,0.35","12","0.65","235","42","",""
"","","","decisionFB","63d9f41910c61f3eb102079f","bdp_rwlrn","Wed Mar 15 2023 14:30:07 GMT-0500 (Central Daylight Time)","600368","Trustworthy,Untrustworthy","html-keyboard-response","135","295864","0.0-11.0-2.41","","null","","<div class='trialDiv'><img src='Fruit/watermelon.png'><br><font class='baseline'><strong>Watermelon Win$</strong><p>Choose number of points to bet.</font><div class='respPicDiv'><img src='img/responseButtonOffersNo0L1.png' class='respPic'></div></div>","null","14","Watermelon Win$","Fruit/watermelon.png","Lost","0.65,0.35","12","0.65","234","42","",""
"","","","feedback","63d9f41910c61f3eb102079f","bdp_rwlrn","Wed Mar 15 2023 14:30:07 GMT-0500 (Central Daylight Time)","600368","Trustworthy,Untrustworthy","html-keyboard-response","136","296879","0.0-11.0-3.41","","null","","<div class='respPicDiv'><img src='img/responseButtonOffersNo0_wht.png' class='respPic'></div><div class='trialDiv'><img src='Fruit/watermelon.png'><br><font class='baseline'><strong>Watermelon Win$</strong><p><strong><font class='negOutcome'>You LOST</font><p>You bet: 1</strong></font> &nbsp; &nbsp; &nbsp; &nbsp; &nbsp; &nbsp;<font class='negOutcome'>You receive: <strong>0</strong></font></div>","null","14","Watermelon Win$","Fruit/watermelon.png","Lost","0.65,0.35","12","0.65","234","42","",""
"","","","decision","63d9f41910c61f3eb102079f","bdp_rwlrn","Wed Mar 15 2023 14:30:07 GMT-0500 (Central Daylight Time)","600368","Trustworthy,Untrustworthy","html-keyboard-response","137","297448","0.0-11.0-1.42","","569","","<div class='trialDiv'><img src='Fruit/plums1.png'><br><font class='baseline'><strong>Plum Powerball</strong><p>Choose number of points to bet.</font><div class='respPicDiv'><img src='img/responseButtonOffersNo0L.png' class='respPic'></div></div>","1","15","Plum Powerball","Fruit/plums1.png","Won","0.35,0.8","12","0.35","239","43","",""
"","","","decisionFB","63d9f41910c61f3eb102079f","bdp_rwlrn","Wed Mar 15 2023 14:30:07 GMT-0500 (Central Daylight Time)","600368","Trustworthy,Untrustworthy","html-keyboard-response","138","297713","0.0-11.0-2.42","","null","","<div class='trialDiv'><img src='Fruit/plums1.png'><br><font class='baseline'><strong>Plum Powerball</strong><p>Choose number of points to bet.</font><div class='respPicDiv'><img src='img/responseButtonOffersNo0L1.png' class='respPic'></div></div>","null","15","Plum Powerball","Fruit/plums1.png","Won","0.35,0.8","12","0.35","238","43","",""
"","","","feedback","63d9f41910c61f3eb102079f","bdp_rwlrn","Wed Mar 15 2023 14:30:07 GMT-0500 (Central Daylight Time)","600368","Trustworthy,Untrustworthy","html-keyboard-response","139","298727","0.0-11.0-3.42","","null","","<div class='respPicDiv'><img src='img/responseButtonOffersNo0_wht.png' class='respPic'></div><div class='trialDiv'><img src='Fruit/plums1.png'><br><font class='baseline'><strong>Plum Powerball</strong><p><strong><font class='posOutcome'>You WON</font><p>You bet: 1</strong></font> &nbsp; &nbsp; &nbsp; &nbsp; &nbsp; &nbsp;<font class='posOutcome'>you receive: <strong>2</strong></font></div>","null","15","Plum Powerball","Fruit/plums1.png","Won","0.35,0.8","12","0.35","240","43","",""
"","","","decision","63d9f41910c61f3eb102079f","bdp_rwlrn","Wed Mar 15 2023 14:30:07 GMT-0500 (Central Daylight Time)","600368","Trustworthy,Untrustworthy","html-keyboard-response","140","299191","0.0-11.0-1.43","","462","","<div class='trialDiv'><img src='Fruit/watermelon.png'><br><font class='baseline'><strong>Watermelon Win$</strong><p>Choose number of points to bet.</font><div class='respPicDiv'><img src='img/responseButtonOffersNo0L.png' class='respPic'></div></div>","5","15","Watermelon Win$","Fruit/watermelon.png","Won","0.65,0.35","12","0.65","245","44","",""
"","","","decisionFB","63d9f41910c61f3eb102079f","bdp_rwlrn","Wed Mar 15 2023 14:30:07 GMT-0500 (Central Daylight Time)","600368","Trustworthy,Untrustworthy","html-keyboard-response","141","299442","0.0-11.0-2.43","","null","","<div class='trialDiv'><img src='Fruit/watermelon.png'><br><font class='baseline'><strong>Watermelon Win$</strong><p>Choose number of points to bet.</font><div class='respPicDiv'><img src='img/responseButtonOffersNo0L5.png' class='respPic'></div></div>","null","15","Watermelon Win$","Fruit/watermelon.png","Won","0.65,0.35","12","0.65","240","44","",""
"","","","feedback","63d9f41910c61f3eb102079f","bdp_rwlrn","Wed Mar 15 2023 14:30:07 GMT-0500 (Central Daylight Time)","600368","Trustworthy,Untrustworthy","html-keyboard-response","142","300444","0.0-11.0-3.43","","null","","<div class='respPicDiv'><img src='img/responseButtonOffersNo0_wht.png' class='respPic'></div><div class='trialDiv'><img src='Fruit/watermelon.png'><br><font class='baseline'><strong>Watermelon Win$</strong><p><strong><font class='posOutcome'>You WON</font><p>You bet: 5</strong></font> &nbsp; &nbsp; &nbsp; &nbsp; &nbsp; &nbsp;<font class='posOutcome'>you receive: <strong>10</strong></font></div>","null","15","Watermelon Win$","Fruit/watermelon.png","Won","0.65,0.35","12","0.65","250","44","",""
"","","","decision","63d9f41910c61f3eb102079f","bdp_rwlrn","Wed Mar 15 2023 14:30:07 GMT-0500 (Central Daylight Time)","600368","Trustworthy,Untrustworthy","html-keyboard-response","143","301898","0.0-11.0-1.44","","1453","","<div class='trialDiv'><img src='Fruit/bananas.png'><br><font class='baseline'><strong>Banana Bonanza</strong><p>Choose number of points to bet.</font><div class='respPicDiv'><img src='img/responseButtonOffersNo0L.png' class='respPic'></div></div>","2","15","Banana Bonanza","Fruit/bananas.png","Won","0.8,0.35","11","0.8","255","45","",""
"","","","decisionFB","63d9f41910c61f3eb102079f","bdp_rwlrn","Wed Mar 15 2023 14:30:07 GMT-0500 (Central Daylight Time)","600368","Trustworthy,Untrustworthy","html-keyboard-response","144","302162","0.0-11.0-2.44","","null","","<div class='trialDiv'><img src='Fruit/bananas.png'><br><font class='baseline'><strong>Banana Bonanza</strong><p>Choose number of points to bet.</font><div class='respPicDiv'><img src='img/responseButtonOffersNo0L2.png' class='respPic'></div></div>","null","15","Banana Bonanza","Fruit/bananas.png","Won","0.8,0.35","11","0.8","253","45","",""
"","","","feedback","63d9f41910c61f3eb102079f","bdp_rwlrn","Wed Mar 15 2023 14:30:07 GMT-0500 (Central Daylight Time)","600368","Trustworthy,Untrustworthy","html-keyboard-response","145","303161","0.0-11.0-3.44","","null","","<div class='respPicDiv'><img src='img/responseButtonOffersNo0_wht.png' class='respPic'></div><div class='trialDiv'><img src='Fruit/bananas.png'><br><font class='baseline'><strong>Banana Bonanza</strong><p><strong><font class='posOutcome'>You WON</font><p>You bet: 2</strong></font> &nbsp; &nbsp; &nbsp; &nbsp; &nbsp; &nbsp;<font class='posOutcome'>you receive: <strong>4</strong></font></div>","null","15","Banana Bonanza","Fruit/bananas.png","Won","0.8,0.35","11","0.8","257","45","",""
"","","","decision","63d9f41910c61f3eb102079f","bdp_rwlrn","Wed Mar 15 2023 14:30:07 GMT-0500 (Central Daylight Time)","600368","Trustworthy,Untrustworthy","html-keyboard-response","146","305442","0.0-11.0-1.45","","2279","","<div class='trialDiv'><img src='Fruit/watermelon.png'><br><font class='baseline'><strong>Watermelon Win$</strong><p>Choose number of points to bet.</font><div class='respPicDiv'><img src='img/responseButtonOffersNo0L.png' class='respPic'></div></div>","2","16","Watermelon Win$","Fruit/watermelon.png","Lost","0.65,0.35","12","0.65","262","46","",""
"","","","decisionFB","63d9f41910c61f3eb102079f","bdp_rwlrn","Wed Mar 15 2023 14:30:07 GMT-0500 (Central Daylight Time)","600368","Trustworthy,Untrustworthy","html-keyboard-response","147","305707","0.0-11.0-2.45","","null","","<div class='trialDiv'><img src='Fruit/watermelon.png'><br><font class='baseline'><strong>Watermelon Win$</strong><p>Choose number of points to bet.</font><div class='respPicDiv'><img src='img/responseButtonOffersNo0L2.png' class='respPic'></div></div>","null","16","Watermelon Win$","Fruit/watermelon.png","Lost","0.65,0.35","12","0.65","260","46","",""
"","","","feedback","63d9f41910c61f3eb102079f","bdp_rwlrn","Wed Mar 15 2023 14:30:07 GMT-0500 (Central Daylight Time)","600368","Trustworthy,Untrustworthy","html-keyboard-response","148","306708","0.0-11.0-3.45","","null","","<div class='respPicDiv'><img src='img/responseButtonOffersNo0_wht.png' class='respPic'></div><div class='trialDiv'><img src='Fruit/watermelon.png'><br><font class='baseline'><strong>Watermelon Win$</strong><p><strong><font class='negOutcome'>You LOST</font><p>You bet: 2</strong></font> &nbsp; &nbsp; &nbsp; &nbsp; &nbsp; &nbsp;<font class='negOutcome'>You receive: <strong>0</strong></font></div>","null","16","Watermelon Win$","Fruit/watermelon.png","Lost","0.65,0.35","12","0.65","260","46","",""
"","","","decision","63d9f41910c61f3eb102079f","bdp_rwlrn","Wed Mar 15 2023 14:30:07 GMT-0500 (Central Daylight Time)","600368","Trustworthy,Untrustworthy","html-keyboard-response","149","307756","0.0-11.0-1.46","","1048","","<div class='trialDiv'><img src='Fruit/plums1.png'><br><font class='baseline'><strong>Plum Powerball</strong><p>Choose number of points to bet.</font><div class='respPicDiv'><img src='img/responseButtonOffersNo0L.png' class='respPic'></div></div>","3","16","Plum Powerball","Fruit/plums1.png","Won","0.35,0.8","12","0.35","265","47","",""
"","","","decisionFB","63d9f41910c61f3eb102079f","bdp_rwlrn","Wed Mar 15 2023 14:30:07 GMT-0500 (Central Daylight Time)","600368","Trustworthy,Untrustworthy","html-keyboard-response","150","308020","0.0-11.0-2.46","","null","","<div class='trialDiv'><img src='Fruit/plums1.png'><br><font class='baseline'><strong>Plum Powerball</strong><p>Choose number of points to bet.</font><div class='respPicDiv'><img src='img/responseButtonOffersNo0L3.png' class='respPic'></div></div>","null","16","Plum Powerball","Fruit/plums1.png","Won","0.35,0.8","12","0.35","262","47","",""
"","","","feedback","63d9f41910c61f3eb102079f","bdp_rwlrn","Wed Mar 15 2023 14:30:07 GMT-0500 (Central Daylight Time)","600368","Trustworthy,Untrustworthy","html-keyboard-response","151","309025","0.0-11.0-3.46","","null","","<div class='respPicDiv'><img src='img/responseButtonOffersNo0_wht.png' class='respPic'></div><div class='trialDiv'><img src='Fruit/plums1.png'><br><font class='baseline'><strong>Plum Powerball</strong><p><strong><font class='posOutcome'>You WON</font><p>You bet: 3</strong></font> &nbsp; &nbsp; &nbsp; &nbsp; &nbsp; &nbsp;<font class='posOutcome'>you receive: <strong>6</strong></font></div>","null","16","Plum Powerball","Fruit/plums1.png","Won","0.35,0.8","12","0.35","268","47","",""
"","","","decision","63d9f41910c61f3eb102079f","bdp_rwlrn","Wed Mar 15 2023 14:30:07 GMT-0500 (Central Daylight Time)","600368","Trustworthy,Untrustworthy","html-keyboard-response","152","310201","0.0-11.0-1.47","","1176","","<div class='trialDiv'><img src='Fruit/bananas.png'><br><font class='baseline'><strong>Banana Bonanza</strong><p>Choose number of points to bet.</font><div class='respPicDiv'><img src='img/responseButtonOffersNo0L.png' class='respPic'></div></div>","5","16","Banana Bonanza","Fruit/bananas.png","Won","0.8,0.35","11","0.8","273","48","",""
"","","","decisionFB","63d9f41910c61f3eb102079f","bdp_rwlrn","Wed Mar 15 2023 14:30:07 GMT-0500 (Central Daylight Time)","600368","Trustworthy,Untrustworthy","html-keyboard-response","153","310458","0.0-11.0-2.47","","null","","<div class='trialDiv'><img src='Fruit/bananas.png'><br><font class='baseline'><strong>Banana Bonanza</strong><p>Choose number of points to bet.</font><div class='respPicDiv'><img src='img/responseButtonOffersNo0L5.png' class='respPic'></div></div>","null","16","Banana Bonanza","Fruit/bananas.png","Won","0.8,0.35","11","0.8","268","48","",""
"","","","feedback","63d9f41910c61f3eb102079f","bdp_rwlrn","Wed Mar 15 2023 14:30:07 GMT-0500 (Central Daylight Time)","600368","Trustworthy,Untrustworthy","html-keyboard-response","154","311474","0.0-11.0-3.47","","null","","<div class='respPicDiv'><img src='img/responseButtonOffersNo0_wht.png' class='respPic'></div><div class='trialDiv'><img src='Fruit/bananas.png'><br><font class='baseline'><strong>Banana Bonanza</strong><p><strong><font class='posOutcome'>You WON</font><p>You bet: 5</strong></font> &nbsp; &nbsp; &nbsp; &nbsp; &nbsp; &nbsp;<font class='posOutcome'>you receive: <strong>10</strong></font></div>","null","16","Banana Bonanza","Fruit/bananas.png","Won","0.8,0.35","11","0.8","278","48","",""
"","","","decision","63d9f41910c61f3eb102079f","bdp_rwlrn","Wed Mar 15 2023 14:30:07 GMT-0500 (Central Daylight Time)","600368","Trustworthy,Untrustworthy","html-keyboard-response","155","312538","0.0-11.0-1.48","","1064","","<div class='trialDiv'><img src='Fruit/watermelon.png'><br><font class='baseline'><strong>Watermelon Win$</strong><p>Choose number of points to bet.</font><div class='respPicDiv'><img src='img/responseButtonOffersNo0L.png' class='respPic'></div></div>","1","17","Watermelon Win$","Fruit/watermelon.png","Lost","0.65,0.35","12","0.65","283","49","",""
"","","","decisionFB","63d9f41910c61f3eb102079f","bdp_rwlrn","Wed Mar 15 2023 14:30:07 GMT-0500 (Central Daylight Time)","600368","Trustworthy,Untrustworthy","html-keyboard-response","156","312803","0.0-11.0-2.48","","null","","<div class='trialDiv'><img src='Fruit/watermelon.png'><br><font class='baseline'><strong>Watermelon Win$</strong><p>Choose number of points to bet.</font><div class='respPicDiv'><img src='img/responseButtonOffersNo0L1.png' class='respPic'></div></div>","null","17","Watermelon Win$","Fruit/watermelon.png","Lost","0.65,0.35","12","0.65","282","49","",""
"","","","feedback","63d9f41910c61f3eb102079f","bdp_rwlrn","Wed Mar 15 2023 14:30:07 GMT-0500 (Central Daylight Time)","600368","Trustworthy,Untrustworthy","html-keyboard-response","157","313818","0.0-11.0-3.48","","null","","<div class='respPicDiv'><img src='img/responseButtonOffersNo0_wht.png' class='respPic'></div><div class='trialDiv'><img src='Fruit/watermelon.png'><br><font class='baseline'><strong>Watermelon Win$</strong><p><strong><font class='negOutcome'>You LOST</font><p>You bet: 1</strong></font> &nbsp; &nbsp; &nbsp; &nbsp; &nbsp; &nbsp;<font class='negOutcome'>You receive: <strong>0</strong></font></div>","null","17","Watermelon Win$","Fruit/watermelon.png","Lost","0.65,0.35","12","0.65","282","49","",""
"","","","decision","63d9f41910c61f3eb102079f","bdp_rwlrn","Wed Mar 15 2023 14:30:07 GMT-0500 (Central Daylight Time)","600368","Trustworthy,Untrustworthy","html-keyboard-response","158","315031","0.0-11.0-1.49","","1213","","<div class='trialDiv'><img src='Fruit/bananas.png'><br><font class='baseline'><strong>Banana Bonanza</strong><p>Choose number of points to bet.</font><div class='respPicDiv'><img src='img/responseButtonOffersNo0L.png' class='respPic'></div></div>","1","17","Banana Bonanza","Fruit/bananas.png","Lost","0.8,0.35","11","0.8","287","50","",""
"","","","decisionFB","63d9f41910c61f3eb102079f","bdp_rwlrn","Wed Mar 15 2023 14:30:07 GMT-0500 (Central Daylight Time)","600368","Trustworthy,Untrustworthy","html-keyboard-response","159","315286","0.0-11.0-2.49","","null","","<div class='trialDiv'><img src='Fruit/bananas.png'><br><font class='baseline'><strong>Banana Bonanza</strong><p>Choose number of points to bet.</font><div class='respPicDiv'><img src='img/responseButtonOffersNo0L1.png' class='respPic'></div></div>","null","17","Banana Bonanza","Fruit/bananas.png","Lost","0.8,0.35","11","0.8","286","50","",""
"","","","feedback","63d9f41910c61f3eb102079f","bdp_rwlrn","Wed Mar 15 2023 14:30:07 GMT-0500 (Central Daylight Time)","600368","Trustworthy,Untrustworthy","html-keyboard-response","160","316288","0.0-11.0-3.49","","null","","<div class='respPicDiv'><img src='img/responseButtonOffersNo0_wht.png' class='respPic'></div><div class='trialDiv'><img src='Fruit/bananas.png'><br><font class='baseline'><strong>Banana Bonanza</strong><p><strong><font class='negOutcome'>You LOST</font><p>You bet: 1</strong></font> &nbsp; &nbsp; &nbsp; &nbsp; &nbsp; &nbsp;<font class='negOutcome'>You receive: <strong>0</strong></font></div>","null","17","Banana Bonanza","Fruit/bananas.png","Lost","0.8,0.35","11","0.8","286","50","",""
"","","","decision","63d9f41910c61f3eb102079f","bdp_rwlrn","Wed Mar 15 2023 14:30:07 GMT-0500 (Central Daylight Time)","600368","Trustworthy,Untrustworthy","html-keyboard-response","161","317206","0.0-11.0-1.50","","917","","<div class='trialDiv'><img src='Fruit/plums1.png'><br><font class='baseline'><strong>Plum Powerball</strong><p>Choose number of points to bet.</font><div class='respPicDiv'><img src='img/responseButtonOffersNo0L.png' class='respPic'></div></div>","5","17","Plum Powerball","Fruit/plums1.png","Won","0.35,0.8","12","0.35","291","51","",""
