"trial_type","trial_index","time_elapsed","internal_node_id","subject_id","task","startTime","totalTime","labels","view_history","rt","event","trial","time","trialtype","success","stimulus","key_press","ltround","name","fileID","outcome","lottotype","lottoswpt","lottocurrpshare","point_total","round","faceID","face"
"pavlovia","0","5","0.0-0.0","610745dee13497549c9d6fba","bdp_rwlrn","Tue Mar 14 2023 19:37:55 GMT-0400 (Eastern Daylight Time)","516205","Untrustworthy,Trustworthy","","","","","","","","","","","","","","","","","","","",""
"instructions","1","4587","0.0-1.0","610745dee13497549c9d6fba","bdp_rwlrn","Tue Mar 14 2023 19:37:55 GMT-0400 (Eastern Daylight Time)","516205","Untrustworthy,Trustworthy","[{""page_index"":0,""viewing_time"":4582}]","4582","","","","","","","","","","","","","","","","","",""
"","","","","610745dee13497549c9d6fba","bdp_rwlrn","Tue Mar 14 2023 19:37:55 GMT-0400 (Eastern Daylight Time)","516205","Untrustworthy,Trustworthy","","","fullscreenenter","2","6737","fullscreenenter","","","","","","","","","","","","","",""
"fullscreen","2","7733","0.0-2.0","610745dee13497549c9d6fba","bdp_rwlrn","Tue Mar 14 2023 19:37:55 GMT-0400 (Eastern Daylight Time)","516205","Untrustworthy,Trustworthy","","","","","","","true","","","","","","","","","","","","",""
"instructions","3","88981","0.0-4.0","610745dee13497549c9d6fba","bdp_rwlrn","Tue Mar 14 2023 19:37:55 GMT-0400 (Eastern Daylight Time)","516205","Untrustworthy,Trustworthy","[{""page_index"":0,""viewing_time"":12587},{""page_index"":1,""viewing_time"":24384},{""page_index"":2,""viewing_time"":8812},{""page_index"":3,""viewing_time"":2744},{""page_index"":4,""viewing_time"":29804},{""page_index"":5,""viewing_time"":2914}]","81246","","","","","","","","","","","","","","","","","",""
"html-keyboard-response","4","95059","0.0-5.0","610745dee13497549c9d6fba","bdp_rwlrn","Tue Mar 14 2023 19:37:55 GMT-0400 (Eastern Daylight Time)","516205","Untrustworthy,Trustworthy","","6077","","","","","","<div class='header' style='text-align:left; position: absolute; top: 5%; left: 5%;'><small>Task 3 of 5</small></div><div class='instruxDiv'><p><strong>1) What is the maximum number of points you can choose to bet on a lottery?</strong></p><p>a) 0</p><p>b) 1</p><p>c) 5</p>","B","","","","","","","","","","",""
"html-keyboard-response","5","98857","0.0-6.0","610745dee13497549c9d6fba","bdp_rwlrn","Tue Mar 14 2023 19:37:55 GMT-0400 (Eastern Daylight Time)","516205","Untrustworthy,Trustworthy","","3693","","","","","","<div class='header' style='text-align:left; position: absolute; top: 5%; left: 5%;'><small>Task 3 of 5</small></div><div class='instruxDiv'><p><strong>1) What is the maximum number of points you can choose to bet on a lottery?</strong></p><p>a) 0</p><p style='color:#FF0000'>b) 1</p><p>c) 5</p><h3 style='color:#FF0000'>Incorrect!</h3><h3 class='center-content'>The correct response is c).</h3><h3 class='center-content'>The maximum number of points you can choose to bet on a lottery is 5 points.</h3><p><em>Press SPACEBAR to continue</em></p></div>"," ","","","","","","","","","","",""
"html-keyboard-response","6","107912","0.0-7.0","610745dee13497549c9d6fba","bdp_rwlrn","Tue Mar 14 2023 19:37:55 GMT-0400 (Eastern Daylight Time)","516205","Untrustworthy,Trustworthy","","8947","","","","","","<div class='header' style='text-align:left; position: absolute; top: 5%; left: 5%;'><small>Task 3 of 5</small></div><div class='instruxDiv'><p><strong>2) How many points can you win each round?</strong></p><p>a) 10 points</p><p>b) Double what you bet</p><p>c) Quadruple what you bet</p>","B","","","","","","","","","","",""
"html-keyboard-response","7","109953","0.0-8.0","610745dee13497549c9d6fba","bdp_rwlrn","Tue Mar 14 2023 19:37:55 GMT-0400 (Eastern Daylight Time)","516205","Untrustworthy,Trustworthy","","1932","","","","","","<div class='header' style='text-align:left; position: absolute; top: 5%; left: 5%;'><small>Task 3 of 5</small></div><div class='instruxDiv'><p><strong>2) How many points can you win each round?</strong></p><p>a) 10 points</p><p style='color:#00FF00'>b) Double what you bet</p><p>c) Quadruple what you bet</p><h3 style='color:#00FF00'>Correct!</h3><h3 class='center-content'>The correct response is b).</h3><h3 class='center-content'>You can win double the amount of points you bet.</h3><p><em>Press SPACEBAR to continue</em></p></div>"," ","","","","","","","","","","",""
"html-keyboard-response","8","115068","0.0-9.0","610745dee13497549c9d6fba","bdp_rwlrn","Tue Mar 14 2023 19:37:55 GMT-0400 (Eastern Daylight Time)","516205","Untrustworthy,Trustworthy","","null","","","","","","<div class='header' style='text-align:left; position: absolute; top: 5%; left: 5%;'><small>Task 3 of 5</small></div><div class='instruxDiv'><p>Thank you for completing the quiz<p>These are the actual lotteries you will be playing in the next block:<p><div class='tc' align='center'><img class='introPic' src='Fruit/melon.png'><br><strong>Melon Millions</strong></div><div class='bl' align='center'><img class='introPic' src='Fruit/apple.png'><br><strong>Awesome Apples</strong></div><div class='br' align='center'><img class='introPic' src='Fruit/mango.png'><br><strong>Mega Mangos</strong></div></div><p>Across <strong>66 rounds</strong> you will play each lottery <strong>22 times</strong> (in random order).<p style='align:center; color:white'><font <em>Press SPACEBAR to continue</em></p>","null","","","","","","","","","","",""
"instructions","9","120439","0.0-10.0","610745dee13497549c9d6fba","bdp_rwlrn","Tue Mar 14 2023 19:37:55 GMT-0400 (Eastern Daylight Time)","516205","Untrustworthy,Trustworthy","[{""page_index"":0,""viewing_time"":3342},{""page_index"":1,""viewing_time"":2029}]","5371","","","","","","","","","","","","","","","","","",""
"html-keyboard-response","10","122295","0.0-11.0-1.0","610745dee13497549c9d6fba","bdp_rwlrn","Tue Mar 14 2023 19:37:55 GMT-0400 (Eastern Daylight Time)","516205","Untrustworthy,Trustworthy","","1746","","","","decision","","<div class='trialDiv'><img src='Fruit/melon.png'><br><font class='baseline'><strong>Melon Millions</strong><p>Choose number of points to bet.</font><div class='respPicDiv'><img src='img/responseButtonOffersNo0L.png' class='respPic'></div></div>","2","1","Melon Millions","Fruit/melon.png","Won","0.65,0.35","14","0.65","5","1","",""
"html-keyboard-response","11","122556","0.0-11.0-2.0","610745dee13497549c9d6fba","bdp_rwlrn","Tue Mar 14 2023 19:37:55 GMT-0400 (Eastern Daylight Time)","516205","Untrustworthy,Trustworthy","","null","","","","decisionFB","","<div class='trialDiv'><img src='Fruit/melon.png'><br><font class='baseline'><strong>Melon Millions</strong><p>Choose number of points to bet.</font><div class='respPicDiv'><img src='img/responseButtonOffersNo0L2.png' class='respPic'></div></div>","null","1","Melon Millions","Fruit/melon.png","Won","0.65,0.35","14","0.65","3","1","",""
"html-keyboard-response","12","123560","0.0-11.0-3.0","610745dee13497549c9d6fba","bdp_rwlrn","Tue Mar 14 2023 19:37:55 GMT-0400 (Eastern Daylight Time)","516205","Untrustworthy,Trustworthy","","null","","","","feedback","","<div class='respPicDiv'><img src='img/responseButtonOffersNo0_wht.png' class='respPic'></div><div class='trialDiv'><img src='Fruit/melon.png'><br><font class='baseline'><strong>Melon Millions</strong><p><strong><font class='posOutcome'>You WON</font><p>You bet: 2</strong></font> &nbsp; &nbsp; &nbsp; &nbsp; &nbsp; &nbsp;<font class='posOutcome'>you receive: <strong>4</strong></font></div>","null","1","Melon Millions","Fruit/melon.png","Won","0.65,0.35","14","0.65","7","1","",""
"html-keyboard-response","13","124299","0.0-11.0-1.1","610745dee13497549c9d6fba","bdp_rwlrn","Tue Mar 14 2023 19:37:55 GMT-0400 (Eastern Daylight Time)","516205","Untrustworthy,Trustworthy","","737","","","","decision","","<div class='trialDiv'><img src='Fruit/mango.png'><br><font class='baseline'><strong>Mega Mangos</strong><p>Choose number of points to bet.</font><div class='respPicDiv'><img src='img/responseButtonOffersNo0L.png' class='respPic'></div></div>","3","1","Mega Mangos","Fruit/mango.png","Won","0.2,0.65","9","0.2","12","2","",""
"html-keyboard-response","14","124552","0.0-11.0-2.1","610745dee13497549c9d6fba","bdp_rwlrn","Tue Mar 14 2023 19:37:55 GMT-0400 (Eastern Daylight Time)","516205","Untrustworthy,Trustworthy","","null","","","","decisionFB","","<div class='trialDiv'><img src='Fruit/mango.png'><br><font class='baseline'><strong>Mega Mangos</strong><p>Choose number of points to bet.</font><div class='respPicDiv'><img src='img/responseButtonOffersNo0L3.png' class='respPic'></div></div>","null","1","Mega Mangos","Fruit/mango.png","Won","0.2,0.65","9","0.2","9","2","",""
"html-keyboard-response","15","125563","0.0-11.0-3.1","610745dee13497549c9d6fba","bdp_rwlrn","Tue Mar 14 2023 19:37:55 GMT-0400 (Eastern Daylight Time)","516205","Untrustworthy,Trustworthy","","null","","","","feedback","","<div class='respPicDiv'><img src='img/responseButtonOffersNo0_wht.png' class='respPic'></div><div class='trialDiv'><img src='Fruit/mango.png'><br><font class='baseline'><strong>Mega Mangos</strong><p><strong><font class='posOutcome'>You WON</font><p>You bet: 3</strong></font> &nbsp; &nbsp; &nbsp; &nbsp; &nbsp; &nbsp;<font class='posOutcome'>you receive: <strong>6</strong></font></div>","null","1","Mega Mangos","Fruit/mango.png","Won","0.2,0.65","9","0.2","15","2","",""
"html-keyboard-response","16","126359","0.0-11.0-1.2","610745dee13497549c9d6fba","bdp_rwlrn","Tue Mar 14 2023 19:37:55 GMT-0400 (Eastern Daylight Time)","516205","Untrustworthy,Trustworthy","","795","","","","decision","","<div class='trialDiv'><img src='Fruit/apple.png'><br><font class='baseline'><strong>Awesome Apples</strong><p>Choose number of points to bet.</font><div class='respPicDiv'><img src='img/responseButtonOffersNo0L.png' class='respPic'></div></div>","1","1","Awesome Apples","Fruit/apple.png","Lost","0.65,0.2","14","0.65","20","3","",""
"html-keyboard-response","17","126619","0.0-11.0-2.2","610745dee13497549c9d6fba","bdp_rwlrn","Tue Mar 14 2023 19:37:55 GMT-0400 (Eastern Daylight Time)","516205","Untrustworthy,Trustworthy","","null","","","","decisionFB","","<div class='trialDiv'><img src='Fruit/apple.png'><br><font class='baseline'><strong>Awesome Apples</strong><p>Choose number of points to bet.</font><div class='respPicDiv'><img src='img/responseButtonOffersNo0L1.png' class='respPic'></div></div>","null","1","Awesome Apples","Fruit/apple.png","Lost","0.65,0.2","14","0.65","19","3","",""
"html-keyboard-response","18","127626","0.0-11.0-3.2","610745dee13497549c9d6fba","bdp_rwlrn","Tue Mar 14 2023 19:37:55 GMT-0400 (Eastern Daylight Time)","516205","Untrustworthy,Trustworthy","","null","","","","feedback","","<div class='respPicDiv'><img src='img/responseButtonOffersNo0_wht.png' class='respPic'></div><div class='trialDiv'><img src='Fruit/apple.png'><br><font class='baseline'><strong>Awesome Apples</strong><p><strong><font class='negOutcome'>You LOST</font><p>You bet: 1</strong></font> &nbsp; &nbsp; &nbsp; &nbsp; &nbsp; &nbsp;<font class='negOutcome'>You receive: <strong>0</strong></font></div>","null","1","Awesome Apples","Fruit/apple.png","Lost","0.65,0.2","14","0.65","19","3","",""
"html-keyboard-response","19","128583","0.0-11.0-1.3","610745dee13497549c9d6fba","bdp_rwlrn","Tue Mar 14 2023 19:37:55 GMT-0400 (Eastern Daylight Time)","516205","Untrustworthy,Trustworthy","","954","","","","decision","","<div class='trialDiv'><img src='Fruit/melon.png'><br><font class='baseline'><strong>Melon Millions</strong><p>Choose number of points to bet.</font><div class='respPicDiv'><img src='img/responseButtonOffersNo0L.png' class='respPic'></div></div>","2","2","Melon Millions","Fruit/melon.png","Won","0.65,0.35","14","0.65","24","4","",""
"html-keyboard-response","20","128843","0.0-11.0-2.3","610745dee13497549c9d6fba","bdp_rwlrn","Tue Mar 14 2023 19:37:55 GMT-0400 (Eastern Daylight Time)","516205","Untrustworthy,Trustworthy","","null","","","","decisionFB","","<div class='trialDiv'><img src='Fruit/melon.png'><br><font class='baseline'><strong>Melon Millions</strong><p>Choose number of points to bet.</font><div class='respPicDiv'><img src='img/responseButtonOffersNo0L2.png' class='respPic'></div></div>","null","2","Melon Millions","Fruit/melon.png","Won","0.65,0.35","14","0.65","22","4","",""
"html-keyboard-response","21","129852","0.0-11.0-3.3","610745dee13497549c9d6fba","bdp_rwlrn","Tue Mar 14 2023 19:37:55 GMT-0400 (Eastern Daylight Time)","516205","Untrustworthy,Trustworthy","","null","","","","feedback","","<div class='respPicDiv'><img src='img/responseButtonOffersNo0_wht.png' class='respPic'></div><div class='trialDiv'><img src='Fruit/melon.png'><br><font class='baseline'><strong>Melon Millions</strong><p><strong><font class='posOutcome'>You WON</font><p>You bet: 2</strong></font> &nbsp; &nbsp; &nbsp; &nbsp; &nbsp; &nbsp;<font class='posOutcome'>you receive: <strong>4</strong></font></div>","null","2","Melon Millions","Fruit/melon.png","Won","0.65,0.35","14","0.65","26","4","",""
"html-keyboard-response","22","130587","0.0-11.0-1.4","610745dee13497549c9d6fba","bdp_rwlrn","Tue Mar 14 2023 19:37:55 GMT-0400 (Eastern Daylight Time)","516205","Untrustworthy,Trustworthy","","734","","","","decision","","<div class='trialDiv'><img src='Fruit/apple.png'><br><font class='baseline'><strong>Awesome Apples</strong><p>Choose number of points to bet.</font><div class='respPicDiv'><img src='img/responseButtonOffersNo0L.png' class='respPic'></div></div>","3","2","Awesome Apples","Fruit/apple.png","Lost","0.65,0.2","14","0.65","31","5","",""
"html-keyboard-response","23","130839","0.0-11.0-2.4","610745dee13497549c9d6fba","bdp_rwlrn","Tue Mar 14 2023 19:37:55 GMT-0400 (Eastern Daylight Time)","516205","Untrustworthy,Trustworthy","","null","","","","decisionFB","","<div class='trialDiv'><img src='Fruit/apple.png'><br><font class='baseline'><strong>Awesome Apples</strong><p>Choose number of points to bet.</font><div class='respPicDiv'><img src='img/responseButtonOffersNo0L3.png' class='respPic'></div></div>","null","2","Awesome Apples","Fruit/apple.png","Lost","0.65,0.2","14","0.65","28","5","",""
"html-keyboard-response","24","131850","0.0-11.0-3.4","610745dee13497549c9d6fba","bdp_rwlrn","Tue Mar 14 2023 19:37:55 GMT-0400 (Eastern Daylight Time)","516205","Untrustworthy,Trustworthy","","null","","","","feedback","","<div class='respPicDiv'><img src='img/responseButtonOffersNo0_wht.png' class='respPic'></div><div class='trialDiv'><img src='Fruit/apple.png'><br><font class='baseline'><strong>Awesome Apples</strong><p><strong><font class='negOutcome'>You LOST</font><p>You bet: 3</strong></font> &nbsp; &nbsp; &nbsp; &nbsp; &nbsp; &nbsp;<font class='negOutcome'>You receive: <strong>0</strong></font></div>","null","2","Awesome Apples","Fruit/apple.png","Lost","0.65,0.2","14","0.65","28","5","",""
"html-keyboard-response","25","132642","0.0-11.0-1.5","610745dee13497549c9d6fba","bdp_rwlrn","Tue Mar 14 2023 19:37:55 GMT-0400 (Eastern Daylight Time)","516205","Untrustworthy,Trustworthy","","790","","","","decision","","<div class='trialDiv'><img src='Fruit/mango.png'><br><font class='baseline'><strong>Mega Mangos</strong><p>Choose number of points to bet.</font><div class='respPicDiv'><img src='img/responseButtonOffersNo0L.png' class='respPic'></div></div>","1","2","Mega Mangos","Fruit/mango.png","Won","0.2,0.65","9","0.2","33","6","",""
"html-keyboard-response","26","132900","0.0-11.0-2.5","610745dee13497549c9d6fba","bdp_rwlrn","Tue Mar 14 2023 19:37:55 GMT-0400 (Eastern Daylight Time)","516205","Untrustworthy,Trustworthy","","null","","","","decisionFB","","<div class='trialDiv'><img src='Fruit/mango.png'><br><font class='baseline'><strong>Mega Mangos</strong><p>Choose number of points to bet.</font><div class='respPicDiv'><img src='img/responseButtonOffersNo0L1.png' class='respPic'></div></div>","null","2","Mega Mangos","Fruit/mango.png","Won","0.2,0.65","9","0.2","32","6","",""
"html-keyboard-response","27","133904","0.0-11.0-3.5","610745dee13497549c9d6fba","bdp_rwlrn","Tue Mar 14 2023 19:37:55 GMT-0400 (Eastern Daylight Time)","516205","Untrustworthy,Trustworthy","","null","","","","feedback","","<div class='respPicDiv'><img src='img/responseButtonOffersNo0_wht.png' class='respPic'></div><div class='trialDiv'><img src='Fruit/mango.png'><br><font class='baseline'><strong>Mega Mangos</strong><p><strong><font class='posOutcome'>You WON</font><p>You bet: 1</strong></font> &nbsp; &nbsp; &nbsp; &nbsp; &nbsp; &nbsp;<font class='posOutcome'>you receive: <strong>2</strong></font></div>","null","2","Mega Mangos","Fruit/mango.png","Won","0.2,0.65","9","0.2","34","6","",""
"html-keyboard-response","28","134498","0.0-11.0-1.6","610745dee13497549c9d6fba","bdp_rwlrn","Tue Mar 14 2023 19:37:55 GMT-0400 (Eastern Daylight Time)","516205","Untrustworthy,Trustworthy","","593","","","","decision","","<div class='trialDiv'><img src='Fruit/melon.png'><br><font class='baseline'><strong>Melon Millions</strong><p>Choose number of points to bet.</font><div class='respPicDiv'><img src='img/responseButtonOffersNo0L.png' class='respPic'></div></div>","2","3","Melon Millions","Fruit/melon.png","Lost","0.65,0.35","14","0.65","39","7","",""
"html-keyboard-response","29","134752","0.0-11.0-2.6","610745dee13497549c9d6fba","bdp_rwlrn","Tue Mar 14 2023 19:37:55 GMT-0400 (Eastern Daylight Time)","516205","Untrustworthy,Trustworthy","","null","","","","decisionFB","","<div class='trialDiv'><img src='Fruit/melon.png'><br><font class='baseline'><strong>Melon Millions</strong><p>Choose number of points to bet.</font><div class='respPicDiv'><img src='img/responseButtonOffersNo0L2.png' class='respPic'></div></div>","null","3","Melon Millions","Fruit/melon.png","Lost","0.65,0.35","14","0.65","37","7","",""
"html-keyboard-response","30","135762","0.0-11.0-3.6","610745dee13497549c9d6fba","bdp_rwlrn","Tue Mar 14 2023 19:37:55 GMT-0400 (Eastern Daylight Time)","516205","Untrustworthy,Trustworthy","","null","","","","feedback","","<div class='respPicDiv'><img src='img/responseButtonOffersNo0_wht.png' class='respPic'></div><div class='trialDiv'><img src='Fruit/melon.png'><br><font class='baseline'><strong>Melon Millions</strong><p><strong><font class='negOutcome'>You LOST</font><p>You bet: 2</strong></font> &nbsp; &nbsp; &nbsp; &nbsp; &nbsp; &nbsp;<font class='negOutcome'>You receive: <strong>0</strong></font></div>","null","3","Melon Millions","Fruit/melon.png","Lost","0.65,0.35","14","0.65","37","7","",""
"html-keyboard-response","31","136462","0.0-11.0-1.7","610745dee13497549c9d6fba","bdp_rwlrn","Tue Mar 14 2023 19:37:55 GMT-0400 (Eastern Daylight Time)","516205","Untrustworthy,Trustworthy","","699","","","","decision","","<div class='trialDiv'><img src='Fruit/mango.png'><br><font class='baseline'><strong>Mega Mangos</strong><p>Choose number of points to bet.</font><div class='respPicDiv'><img src='img/responseButtonOffersNo0L.png' class='respPic'></div></div>","1","3","Mega Mangos","Fruit/mango.png","Lost","0.2,0.65","9","0.2","42","8","",""
"html-keyboard-response","32","136724","0.0-11.0-2.7","610745dee13497549c9d6fba","bdp_rwlrn","Tue Mar 14 2023 19:37:55 GMT-0400 (Eastern Daylight Time)","516205","Untrustworthy,Trustworthy","","null","","","","decisionFB","","<div class='trialDiv'><img src='Fruit/mango.png'><br><font class='baseline'><strong>Mega Mangos</strong><p>Choose number of points to bet.</font><div class='respPicDiv'><img src='img/responseButtonOffersNo0L1.png' class='respPic'></div></div>","null","3","Mega Mangos","Fruit/mango.png","Lost","0.2,0.65","9","0.2","41","8","",""
"html-keyboard-response","33","137730","0.0-11.0-3.7","610745dee13497549c9d6fba","bdp_rwlrn","Tue Mar 14 2023 19:37:55 GMT-0400 (Eastern Daylight Time)","516205","Untrustworthy,Trustworthy","","null","","","","feedback","","<div class='respPicDiv'><img src='img/responseButtonOffersNo0_wht.png' class='respPic'></div><div class='trialDiv'><img src='Fruit/mango.png'><br><font class='baseline'><strong>Mega Mangos</strong><p><strong><font class='negOutcome'>You LOST</font><p>You bet: 1</strong></font> &nbsp; &nbsp; &nbsp; &nbsp; &nbsp; &nbsp;<font class='negOutcome'>You receive: <strong>0</strong></font></div>","null","3","Mega Mangos","Fruit/mango.png","Lost","0.2,0.65","9","0.2","41","8","",""
"html-keyboard-response","34","139235","0.0-11.0-1.8","610745dee13497549c9d6fba","bdp_rwlrn","Tue Mar 14 2023 19:37:55 GMT-0400 (Eastern Daylight Time)","516205","Untrustworthy,Trustworthy","","1503","","","","decision","","<div class='trialDiv'><img src='Fruit/apple.png'><br><font class='baseline'><strong>Awesome Apples</strong><p>Choose number of points to bet.</font><div class='respPicDiv'><img src='img/responseButtonOffersNo0L.png' class='respPic'></div></div>","2","3","Awesome Apples","Fruit/apple.png","Won","0.65,0.2","14","0.65","46","9","",""
"html-keyboard-response","35","139489","0.0-11.0-2.8","610745dee13497549c9d6fba","bdp_rwlrn","Tue Mar 14 2023 19:37:55 GMT-0400 (Eastern Daylight Time)","516205","Untrustworthy,Trustworthy","","null","","","","decisionFB","","<div class='trialDiv'><img src='Fruit/apple.png'><br><font class='baseline'><strong>Awesome Apples</strong><p>Choose number of points to bet.</font><div class='respPicDiv'><img src='img/responseButtonOffersNo0L2.png' class='respPic'></div></div>","null","3","Awesome Apples","Fruit/apple.png","Won","0.65,0.2","14","0.65","44","9","",""
"html-keyboard-response","36","140499","0.0-11.0-3.8","610745dee13497549c9d6fba","bdp_rwlrn","Tue Mar 14 2023 19:37:55 GMT-0400 (Eastern Daylight Time)","516205","Untrustworthy,Trustworthy","","null","","","","feedback","","<div class='respPicDiv'><img src='img/responseButtonOffersNo0_wht.png' class='respPic'></div><div class='trialDiv'><img src='Fruit/apple.png'><br><font class='baseline'><strong>Awesome Apples</strong><p><strong><font class='posOutcome'>You WON</font><p>You bet: 2</strong></font> &nbsp; &nbsp; &nbsp; &nbsp; &nbsp; &nbsp;<font class='posOutcome'>you receive: <strong>4</strong></font></div>","null","3","Awesome Apples","Fruit/apple.png","Won","0.65,0.2","14","0.65","48","9","",""
"html-keyboard-response","37","141433","0.0-11.0-1.9","610745dee13497549c9d6fba","bdp_rwlrn","Tue Mar 14 2023 19:37:55 GMT-0400 (Eastern Daylight Time)","516205","Untrustworthy,Trustworthy","","933","","","","decision","","<div class='trialDiv'><img src='Fruit/melon.png'><br><font class='baseline'><strong>Melon Millions</strong><p>Choose number of points to bet.</font><div class='respPicDiv'><img src='img/responseButtonOffersNo0L.png' class='respPic'></div></div>","3","4","Melon Millions","Fruit/melon.png","Won","0.65,0.35","14","0.65","53","10","",""
"html-keyboard-response","38","141688","0.0-11.0-2.9","610745dee13497549c9d6fba","bdp_rwlrn","Tue Mar 14 2023 19:37:55 GMT-0400 (Eastern Daylight Time)","516205","Untrustworthy,Trustworthy","","null","","","","decisionFB","","<div class='trialDiv'><img src='Fruit/melon.png'><br><font class='baseline'><strong>Melon Millions</strong><p>Choose number of points to bet.</font><div class='respPicDiv'><img src='img/responseButtonOffersNo0L3.png' class='respPic'></div></div>","null","4","Melon Millions","Fruit/melon.png","Won","0.65,0.35","14","0.65","50","10","",""
"html-keyboard-response","39","142699","0.0-11.0-3.9","610745dee13497549c9d6fba","bdp_rwlrn","Tue Mar 14 2023 19:37:55 GMT-0400 (Eastern Daylight Time)","516205","Untrustworthy,Trustworthy","","null","","","","feedback","","<div class='respPicDiv'><img src='img/responseButtonOffersNo0_wht.png' class='respPic'></div><div class='trialDiv'><img src='Fruit/melon.png'><br><font class='baseline'><strong>Melon Millions</strong><p><strong><font class='posOutcome'>You WON</font><p>You bet: 3</strong></font> &nbsp; &nbsp; &nbsp; &nbsp; &nbsp; &nbsp;<font class='posOutcome'>you receive: <strong>6</strong></font></div>","null","4","Melon Millions","Fruit/melon.png","Won","0.65,0.35","14","0.65","56","10","",""
"html-keyboard-response","40","143495","0.0-11.0-1.10","610745dee13497549c9d6fba","bdp_rwlrn","Tue Mar 14 2023 19:37:55 GMT-0400 (Eastern Daylight Time)","516205","Untrustworthy,Trustworthy","","794","","","","decision","","<div class='trialDiv'><img src='Fruit/mango.png'><br><font class='baseline'><strong>Mega Mangos</strong><p>Choose number of points to bet.</font><div class='respPicDiv'><img src='img/responseButtonOffersNo0L.png' class='respPic'></div></div>","2","4","Mega Mangos","Fruit/mango.png","Lost","0.2,0.65","9","0.2","61","11","",""
"html-keyboard-response","41","143756","0.0-11.0-2.10","610745dee13497549c9d6fba","bdp_rwlrn","Tue Mar 14 2023 19:37:55 GMT-0400 (Eastern Daylight Time)","516205","Untrustworthy,Trustworthy","","null","","","","decisionFB","","<div class='trialDiv'><img src='Fruit/mango.png'><br><font class='baseline'><strong>Mega Mangos</strong><p>Choose number of points to bet.</font><div class='respPicDiv'><img src='img/responseButtonOffersNo0L2.png' class='respPic'></div></div>","null","4","Mega Mangos","Fruit/mango.png","Lost","0.2,0.65","9","0.2","59","11","",""
"html-keyboard-response","42","144760","0.0-11.0-3.10","610745dee13497549c9d6fba","bdp_rwlrn","Tue Mar 14 2023 19:37:55 GMT-0400 (Eastern Daylight Time)","516205","Untrustworthy,Trustworthy","","null","","","","feedback","","<div class='respPicDiv'><img src='img/responseButtonOffersNo0_wht.png' class='respPic'></div><div class='trialDiv'><img src='Fruit/mango.png'><br><font class='baseline'><strong>Mega Mangos</strong><p><strong><font class='negOutcome'>You LOST</font><p>You bet: 2</strong></font> &nbsp; &nbsp; &nbsp; &nbsp; &nbsp; &nbsp;<font class='negOutcome'>You receive: <strong>0</strong></font></div>","null","4","Mega Mangos","Fruit/mango.png","Lost","0.2,0.65","9","0.2","59","11","",""
"html-keyboard-response","43","145344","0.0-11.0-1.11","610745dee13497549c9d6fba","bdp_rwlrn","Tue Mar 14 2023 19:37:55 GMT-0400 (Eastern Daylight Time)","516205","Untrustworthy,Trustworthy","","582","","","","decision","","<div class='trialDiv'><img src='Fruit/apple.png'><br><font class='baseline'><strong>Awesome Apples</strong><p>Choose number of points to bet.</font><div class='respPicDiv'><img src='img/responseButtonOffersNo0L.png' class='respPic'></div></div>","2","4","Awesome Apples","Fruit/apple.png","Won","0.65,0.2","14","0.65","64","12","",""
"html-keyboard-response","44","145602","0.0-11.0-2.11","610745dee13497549c9d6fba","bdp_rwlrn","Tue Mar 14 2023 19:37:55 GMT-0400 (Eastern Daylight Time)","516205","Untrustworthy,Trustworthy","","null","","","","decisionFB","","<div class='trialDiv'><img src='Fruit/apple.png'><br><font class='baseline'><strong>Awesome Apples</strong><p>Choose number of points to bet.</font><div class='respPicDiv'><img src='img/responseButtonOffersNo0L2.png' class='respPic'></div></div>","null","4","Awesome Apples","Fruit/apple.png","Won","0.65,0.2","14","0.65","62","12","",""
"html-keyboard-response","45","146612","0.0-11.0-3.11","610745dee13497549c9d6fba","bdp_rwlrn","Tue Mar 14 2023 19:37:55 GMT-0400 (Eastern Daylight Time)","516205","Untrustworthy,Trustworthy","","null","","","","feedback","","<div class='respPicDiv'><img src='img/responseButtonOffersNo0_wht.png' class='respPic'></div><div class='trialDiv'><img src='Fruit/apple.png'><br><font class='baseline'><strong>Awesome Apples</strong><p><strong><font class='posOutcome'>You WON</font><p>You bet: 2</strong></font> &nbsp; &nbsp; &nbsp; &nbsp; &nbsp; &nbsp;<font class='posOutcome'>you receive: <strong>4</strong></font></div>","null","4","Awesome Apples","Fruit/apple.png","Won","0.65,0.2","14","0.65","66","12","",""
"html-keyboard-response","46","147246","0.0-11.0-1.12","610745dee13497549c9d6fba","bdp_rwlrn","Tue Mar 14 2023 19:37:55 GMT-0400 (Eastern Daylight Time)","516205","Untrustworthy,Trustworthy","","633","","","","decision","","<div class='trialDiv'><img src='Fruit/mango.png'><br><font class='baseline'><strong>Mega Mangos</strong><p>Choose number of points to bet.</font><div class='respPicDiv'><img src='img/responseButtonOffersNo0L.png' class='respPic'></div></div>","3","5","Mega Mangos","Fruit/mango.png","Lost","0.2,0.65","9","0.2","71","13","",""
"html-keyboard-response","47","147505","0.0-11.0-2.12","610745dee13497549c9d6fba","bdp_rwlrn","Tue Mar 14 2023 19:37:55 GMT-0400 (Eastern Daylight Time)","516205","Untrustworthy,Trustworthy","","null","","","","decisionFB","","<div class='trialDiv'><img src='Fruit/mango.png'><br><font class='baseline'><strong>Mega Mangos</strong><p>Choose number of points to bet.</font><div class='respPicDiv'><img src='img/responseButtonOffersNo0L3.png' class='respPic'></div></div>","null","5","Mega Mangos","Fruit/mango.png","Lost","0.2,0.65","9","0.2","68","13","",""
"html-keyboard-response","48","148515","0.0-11.0-3.12","610745dee13497549c9d6fba","bdp_rwlrn","Tue Mar 14 2023 19:37:55 GMT-0400 (Eastern Daylight Time)","516205","Untrustworthy,Trustworthy","","null","","","","feedback","","<div class='respPicDiv'><img src='img/responseButtonOffersNo0_wht.png' class='respPic'></div><div class='trialDiv'><img src='Fruit/mango.png'><br><font class='baseline'><strong>Mega Mangos</strong><p><strong><font class='negOutcome'>You LOST</font><p>You bet: 3</strong></font> &nbsp; &nbsp; &nbsp; &nbsp; &nbsp; &nbsp;<font class='negOutcome'>You receive: <strong>0</strong></font></div>","null","5","Mega Mangos","Fruit/mango.png","Lost","0.2,0.65","9","0.2","68","13","",""
"html-keyboard-response","49","149507","0.0-11.0-1.13","610745dee13497549c9d6fba","bdp_rwlrn","Tue Mar 14 2023 19:37:55 GMT-0400 (Eastern Daylight Time)","516205","Untrustworthy,Trustworthy","","991","","","","decision","","<div class='trialDiv'><img src='Fruit/apple.png'><br><font class='baseline'><strong>Awesome Apples</strong><p>Choose number of points to bet.</font><div class='respPicDiv'><img src='img/responseButtonOffersNo0L.png' class='respPic'></div></div>","2","5","Awesome Apples","Fruit/apple.png","Won","0.65,0.2","14","0.65","73","14","",""
"html-keyboard-response","50","149760","0.0-11.0-2.13","610745dee13497549c9d6fba","bdp_rwlrn","Tue Mar 14 2023 19:37:55 GMT-0400 (Eastern Daylight Time)","516205","Untrustworthy,Trustworthy","","null","","","","decisionFB","","<div class='trialDiv'><img src='Fruit/apple.png'><br><font class='baseline'><strong>Awesome Apples</strong><p>Choose number of points to bet.</font><div class='respPicDiv'><img src='img/responseButtonOffersNo0L2.png' class='respPic'></div></div>","null","5","Awesome Apples","Fruit/apple.png","Won","0.65,0.2","14","0.65","71","14","",""
"html-keyboard-response","51","150762","0.0-11.0-3.13","610745dee13497549c9d6fba","bdp_rwlrn","Tue Mar 14 2023 19:37:55 GMT-0400 (Eastern Daylight Time)","516205","Untrustworthy,Trustworthy","","null","","","","feedback","","<div class='respPicDiv'><img src='img/responseButtonOffersNo0_wht.png' class='respPic'></div><div class='trialDiv'><img src='Fruit/apple.png'><br><font class='baseline'><strong>Awesome Apples</strong><p><strong><font class='posOutcome'>You WON</font><p>You bet: 2</strong></font> &nbsp; &nbsp; &nbsp; &nbsp; &nbsp; &nbsp;<font class='posOutcome'>you receive: <strong>4</strong></font></div>","null","5","Awesome Apples","Fruit/apple.png","Won","0.65,0.2","14","0.65","75","14","",""
"html-keyboard-response","52","151807","0.0-11.0-1.14","610745dee13497549c9d6fba","bdp_rwlrn","Tue Mar 14 2023 19:37:55 GMT-0400 (Eastern Daylight Time)","516205","Untrustworthy,Trustworthy","","1043","","","","decision","","<div class='trialDiv'><img src='Fruit/melon.png'><br><font class='baseline'><strong>Melon Millions</strong><p>Choose number of points to bet.</font><div class='respPicDiv'><img src='img/responseButtonOffersNo0L.png' class='respPic'></div></div>","4","5","Melon Millions","Fruit/melon.png","Won","0.65,0.35","14","0.65","80","15","",""
"html-keyboard-response","53","152068","0.0-11.0-2.14","610745dee13497549c9d6fba","bdp_rwlrn","Tue Mar 14 2023 19:37:55 GMT-0400 (Eastern Daylight Time)","516205","Untrustworthy,Trustworthy","","null","","","","decisionFB","","<div class='trialDiv'><img src='Fruit/melon.png'><br><font class='baseline'><strong>Melon Millions</strong><p>Choose number of points to bet.</font><div class='respPicDiv'><img src='img/responseButtonOffersNo0L4.png' class='respPic'></div></div>","null","5","Melon Millions","Fruit/melon.png","Won","0.65,0.35","14","0.65","76","15","",""
"html-keyboard-response","54","153073","0.0-11.0-3.14","610745dee13497549c9d6fba","bdp_rwlrn","Tue Mar 14 2023 19:37:55 GMT-0400 (Eastern Daylight Time)","516205","Untrustworthy,Trustworthy","","null","","","","feedback","","<div class='respPicDiv'><img src='img/responseButtonOffersNo0_wht.png' class='respPic'></div><div class='trialDiv'><img src='Fruit/melon.png'><br><font class='baseline'><strong>Melon Millions</strong><p><strong><font class='posOutcome'>You WON</font><p>You bet: 4</strong></font> &nbsp; &nbsp; &nbsp; &nbsp; &nbsp; &nbsp;<font class='posOutcome'>you receive: <strong>8</strong></font></div>","null","5","Melon Millions","Fruit/melon.png","Won","0.65,0.35","14","0.65","84","15","",""
"html-keyboard-response","55","154078","0.0-11.0-1.15","610745dee13497549c9d6fba","bdp_rwlrn","Tue Mar 14 2023 19:37:55 GMT-0400 (Eastern Daylight Time)","516205","Untrustworthy,Trustworthy","","1004","","","","decision","","<div class='trialDiv'><img src='Fruit/mango.png'><br><font class='baseline'><strong>Mega Mangos</strong><p>Choose number of points to bet.</font><div class='respPicDiv'><img src='img/responseButtonOffersNo0L.png' class='respPic'></div></div>","1","6","Mega Mangos","Fruit/mango.png","Lost","0.2,0.65","9","0.2","89","16","",""
"html-keyboard-response","56","154338","0.0-11.0-2.15","610745dee13497549c9d6fba","bdp_rwlrn","Tue Mar 14 2023 19:37:55 GMT-0400 (Eastern Daylight Time)","516205","Untrustworthy,Trustworthy","","null","","","","decisionFB","","<div class='trialDiv'><img src='Fruit/mango.png'><br><font class='baseline'><strong>Mega Mangos</strong><p>Choose number of points to bet.</font><div class='respPicDiv'><img src='img/responseButtonOffersNo0L1.png' class='respPic'></div></div>","null","6","Mega Mangos","Fruit/mango.png","Lost","0.2,0.65","9","0.2","88","16","",""
"html-keyboard-response","57","155348","0.0-11.0-3.15","610745dee13497549c9d6fba","bdp_rwlrn","Tue Mar 14 2023 19:37:55 GMT-0400 (Eastern Daylight Time)","516205","Untrustworthy,Trustworthy","","null","","","","feedback","","<div class='respPicDiv'><img src='img/responseButtonOffersNo0_wht.png' class='respPic'></div><div class='trialDiv'><img src='Fruit/mango.png'><br><font class='baseline'><strong>Mega Mangos</strong><p><strong><font class='negOutcome'>You LOST</font><p>You bet: 1</strong></font> &nbsp; &nbsp; &nbsp; &nbsp; &nbsp; &nbsp;<font class='negOutcome'>You receive: <strong>0</strong></font></div>","null","6","Mega Mangos","Fruit/mango.png","Lost","0.2,0.65","9","0.2","88","16","",""
"html-keyboard-response","58","158044","0.0-11.0-1.16","610745dee13497549c9d6fba","bdp_rwlrn","Tue Mar 14 2023 19:37:55 GMT-0400 (Eastern Daylight Time)","516205","Untrustworthy,Trustworthy","","2695","","","","decision","","<div class='trialDiv'><img src='Fruit/melon.png'><br><font class='baseline'><strong>Melon Millions</strong><p>Choose number of points to bet.</font><div class='respPicDiv'><img src='img/responseButtonOffersNo0L.png' class='respPic'></div></div>","5","6","Melon Millions","Fruit/melon.png","Won","0.65,0.35","14","0.65","93","17","",""
"html-keyboard-response","59","158297","0.0-11.0-2.16","610745dee13497549c9d6fba","bdp_rwlrn","Tue Mar 14 2023 19:37:55 GMT-0400 (Eastern Daylight Time)","516205","Untrustworthy,Trustworthy","","null","","","","decisionFB","","<div class='trialDiv'><img src='Fruit/melon.png'><br><font class='baseline'><strong>Melon Millions</strong><p>Choose number of points to bet.</font><div class='respPicDiv'><img src='img/responseButtonOffersNo0L5.png' class='respPic'></div></div>","null","6","Melon Millions","Fruit/melon.png","Won","0.65,0.35","14","0.65","88","17","",""
"html-keyboard-response","60","159307","0.0-11.0-3.16","610745dee13497549c9d6fba","bdp_rwlrn","Tue Mar 14 2023 19:37:55 GMT-0400 (Eastern Daylight Time)","516205","Untrustworthy,Trustworthy","","null","","","","feedback","","<div class='respPicDiv'><img src='img/responseButtonOffersNo0_wht.png' class='respPic'></div><div class='trialDiv'><img src='Fruit/melon.png'><br><font class='baseline'><strong>Melon Millions</strong><p><strong><font class='posOutcome'>You WON</font><p>You bet: 5</strong></font> &nbsp; &nbsp; &nbsp; &nbsp; &nbsp; &nbsp;<font class='posOutcome'>you receive: <strong>10</strong></font></div>","null","6","Melon Millions","Fruit/melon.png","Won","0.65,0.35","14","0.65","98","17","",""
"html-keyboard-response","61","160776","0.0-11.0-1.17","610745dee13497549c9d6fba","bdp_rwlrn","Tue Mar 14 2023 19:37:55 GMT-0400 (Eastern Daylight Time)","516205","Untrustworthy,Trustworthy","","1468","","","","decision","","<div class='trialDiv'><img src='Fruit/apple.png'><br><font class='baseline'><strong>Awesome Apples</strong><p>Choose number of points to bet.</font><div class='respPicDiv'><img src='img/responseButtonOffersNo0L.png' class='respPic'></div></div>","2","6","Awesome Apples","Fruit/apple.png","Lost","0.65,0.2","14","0.65","103","18","",""
"html-keyboard-response","62","161037","0.0-11.0-2.17","610745dee13497549c9d6fba","bdp_rwlrn","Tue Mar 14 2023 19:37:55 GMT-0400 (Eastern Daylight Time)","516205","Untrustworthy,Trustworthy","","null","","","","decisionFB","","<div class='trialDiv'><img src='Fruit/apple.png'><br><font class='baseline'><strong>Awesome Apples</strong><p>Choose number of points to bet.</font><div class='respPicDiv'><img src='img/responseButtonOffersNo0L2.png' class='respPic'></div></div>","null","6","Awesome Apples","Fruit/apple.png","Lost","0.65,0.2","14","0.65","101","18","",""
"html-keyboard-response","63","162041","0.0-11.0-3.17","610745dee13497549c9d6fba","bdp_rwlrn","Tue Mar 14 2023 19:37:55 GMT-0400 (Eastern Daylight Time)","516205","Untrustworthy,Trustworthy","","null","","","","feedback","","<div class='respPicDiv'><img src='img/responseButtonOffersNo0_wht.png' class='respPic'></div><div class='trialDiv'><img src='Fruit/apple.png'><br><font class='baseline'><strong>Awesome Apples</strong><p><strong><font class='negOutcome'>You LOST</font><p>You bet: 2</strong></font> &nbsp; &nbsp; &nbsp; &nbsp; &nbsp; &nbsp;<font class='negOutcome'>You receive: <strong>0</strong></font></div>","null","6","Awesome Apples","Fruit/apple.png","Lost","0.65,0.2","14","0.65","101","18","",""
"html-keyboard-response","64","164113","0.0-11.0-1.18","610745dee13497549c9d6fba","bdp_rwlrn","Tue Mar 14 2023 19:37:55 GMT-0400 (Eastern Daylight Time)","516205","Untrustworthy,Trustworthy","","2071","","","","decision","","<div class='trialDiv'><img src='Fruit/melon.png'><br><font class='baseline'><strong>Melon Millions</strong><p>Choose number of points to bet.</font><div class='respPicDiv'><img src='img/responseButtonOffersNo0L.png' class='respPic'></div></div>","5","7","Melon Millions","Fruit/melon.png","Won","0.65,0.35","14","0.65","106","19","",""
"html-keyboard-response","65","164369","0.0-11.0-2.18","610745dee13497549c9d6fba","bdp_rwlrn","Tue Mar 14 2023 19:37:55 GMT-0400 (Eastern Daylight Time)","516205","Untrustworthy,Trustworthy","","null","","","","decisionFB","","<div class='trialDiv'><img src='Fruit/melon.png'><br><font class='baseline'><strong>Melon Millions</strong><p>Choose number of points to bet.</font><div class='respPicDiv'><img src='img/responseButtonOffersNo0L5.png' class='respPic'></div></div>","null","7","Melon Millions","Fruit/melon.png","Won","0.65,0.35","14","0.65","101","19","",""
"html-keyboard-response","66","165380","0.0-11.0-3.18","610745dee13497549c9d6fba","bdp_rwlrn","Tue Mar 14 2023 19:37:55 GMT-0400 (Eastern Daylight Time)","516205","Untrustworthy,Trustworthy","","null","","","","feedback","","<div class='respPicDiv'><img src='img/responseButtonOffersNo0_wht.png' class='respPic'></div><div class='trialDiv'><img src='Fruit/melon.png'><br><font class='baseline'><strong>Melon Millions</strong><p><strong><font class='posOutcome'>You WON</font><p>You bet: 5</strong></font> &nbsp; &nbsp; &nbsp; &nbsp; &nbsp; &nbsp;<font class='posOutcome'>you receive: <strong>10</strong></font></div>","null","7","Melon Millions","Fruit/melon.png","Won","0.65,0.35","14","0.65","111","19","",""
"html-keyboard-response","67","167535","0.0-11.0-1.19","610745dee13497549c9d6fba","bdp_rwlrn","Tue Mar 14 2023 19:37:55 GMT-0400 (Eastern Daylight Time)","516205","Untrustworthy,Trustworthy","","2154","","","","decision","","<div class='trialDiv'><img src='Fruit/apple.png'><br><font class='baseline'><strong>Awesome Apples</strong><p>Choose number of points to bet.</font><div class='respPicDiv'><img src='img/responseButtonOffersNo0L.png' class='respPic'></div></div>","3","7","Awesome Apples","Fruit/apple.png","Lost","0.65,0.2","14","0.65","116","20","",""
"html-keyboard-response","68","167794","0.0-11.0-2.19","610745dee13497549c9d6fba","bdp_rwlrn","Tue Mar 14 2023 19:37:55 GMT-0400 (Eastern Daylight Time)","516205","Untrustworthy,Trustworthy","","null","","","","decisionFB","","<div class='trialDiv'><img src='Fruit/apple.png'><br><font class='baseline'><strong>Awesome Apples</strong><p>Choose number of points to bet.</font><div class='respPicDiv'><img src='img/responseButtonOffersNo0L3.png' class='respPic'></div></div>","null","7","Awesome Apples","Fruit/apple.png","Lost","0.65,0.2","14","0.65","113","20","",""
"html-keyboard-response","69","168804","0.0-11.0-3.19","610745dee13497549c9d6fba","bdp_rwlrn","Tue Mar 14 2023 19:37:55 GMT-0400 (Eastern Daylight Time)","516205","Untrustworthy,Trustworthy","","null","","","","feedback","","<div class='respPicDiv'><img src='img/responseButtonOffersNo0_wht.png' class='respPic'></div><div class='trialDiv'><img src='Fruit/apple.png'><br><font class='baseline'><strong>Awesome Apples</strong><p><strong><font class='negOutcome'>You LOST</font><p>You bet: 3</strong></font> &nbsp; &nbsp; &nbsp; &nbsp; &nbsp; &nbsp;<font class='negOutcome'>You receive: <strong>0</strong></font></div>","null","7","Awesome Apples","Fruit/apple.png","Lost","0.65,0.2","14","0.65","113","20","",""
"html-keyboard-response","70","169225","0.0-11.0-1.20","610745dee13497549c9d6fba","bdp_rwlrn","Tue Mar 14 2023 19:37:55 GMT-0400 (Eastern Daylight Time)","516205","Untrustworthy,Trustworthy","","420","","","","decision","","<div class='trialDiv'><img src='Fruit/mango.png'><br><font class='baseline'><strong>Mega Mangos</strong><p>Choose number of points to bet.</font><div class='respPicDiv'><img src='img/responseButtonOffersNo0L.png' class='respPic'></div></div>","1","7","Mega Mangos","Fruit/mango.png","Lost","0.2,0.65","9","0.2","118","21","",""
"html-keyboard-response","71","169483","0.0-11.0-2.20","610745dee13497549c9d6fba","bdp_rwlrn","Tue Mar 14 2023 19:37:55 GMT-0400 (Eastern Daylight Time)","516205","Untrustworthy,Trustworthy","","null","","","","decisionFB","","<div class='trialDiv'><img src='Fruit/mango.png'><br><font class='baseline'><strong>Mega Mangos</strong><p>Choose number of points to bet.</font><div class='respPicDiv'><img src='img/responseButtonOffersNo0L1.png' class='respPic'></div></div>","null","7","Mega Mangos","Fruit/mango.png","Lost","0.2,0.65","9","0.2","117","21","",""
"html-keyboard-response","72","170488","0.0-11.0-3.20","610745dee13497549c9d6fba","bdp_rwlrn","Tue Mar 14 2023 19:37:55 GMT-0400 (Eastern Daylight Time)","516205","Untrustworthy,Trustworthy","","null","","","","feedback","","<div class='respPicDiv'><img src='img/responseButtonOffersNo0_wht.png' class='respPic'></div><div class='trialDiv'><img src='Fruit/mango.png'><br><font class='baseline'><strong>Mega Mangos</strong><p><strong><font class='negOutcome'>You LOST</font><p>You bet: 1</strong></font> &nbsp; &nbsp; &nbsp; &nbsp; &nbsp; &nbsp;<font class='negOutcome'>You receive: <strong>0</strong></font></div>","null","7","Mega Mangos","Fruit/mango.png","Lost","0.2,0.65","9","0.2","117","21","",""
"html-keyboard-response","73","172312","0.0-11.0-1.21","610745dee13497549c9d6fba","bdp_rwlrn","Tue Mar 14 2023 19:37:55 GMT-0400 (Eastern Daylight Time)","516205","Untrustworthy,Trustworthy","","1823","","","","decision","","<div class='trialDiv'><img src='Fruit/apple.png'><br><font class='baseline'><strong>Awesome Apples</strong><p>Choose number of points to bet.</font><div class='respPicDiv'><img src='img/responseButtonOffersNo0L.png' class='respPic'></div></div>","2","8","Awesome Apples","Fruit/apple.png","Lost","0.65,0.2","14","0.65","122","22","",""
"html-keyboard-response","74","172572","0.0-11.0-2.21","610745dee13497549c9d6fba","bdp_rwlrn","Tue Mar 14 2023 19:37:55 GMT-0400 (Eastern Daylight Time)","516205","Untrustworthy,Trustworthy","","null","","","","decisionFB","","<div class='trialDiv'><img src='Fruit/apple.png'><br><font class='baseline'><strong>Awesome Apples</strong><p>Choose number of points to bet.</font><div class='respPicDiv'><img src='img/responseButtonOffersNo0L2.png' class='respPic'></div></div>","null","8","Awesome Apples","Fruit/apple.png","Lost","0.65,0.2","14","0.65","120","22","",""
"html-keyboard-response","75","173579","0.0-11.0-3.21","610745dee13497549c9d6fba","bdp_rwlrn","Tue Mar 14 2023 19:37:55 GMT-0400 (Eastern Daylight Time)","516205","Untrustworthy,Trustworthy","","null","","","","feedback","","<div class='respPicDiv'><img src='img/responseButtonOffersNo0_wht.png' class='respPic'></div><div class='trialDiv'><img src='Fruit/apple.png'><br><font class='baseline'><strong>Awesome Apples</strong><p><strong><font class='negOutcome'>You LOST</font><p>You bet: 2</strong></font> &nbsp; &nbsp; &nbsp; &nbsp; &nbsp; &nbsp;<font class='negOutcome'>You receive: <strong>0</strong></font></div>","null","8","Awesome Apples","Fruit/apple.png","Lost","0.65,0.2","14","0.65","120","22","",""
"html-keyboard-response","76","174396","0.0-11.0-1.22","610745dee13497549c9d6fba","bdp_rwlrn","Tue Mar 14 2023 19:37:55 GMT-0400 (Eastern Daylight Time)","516205","Untrustworthy,Trustworthy","","816","","","","decision","","<div class='trialDiv'><img src='Fruit/mango.png'><br><font class='baseline'><strong>Mega Mangos</strong><p>Choose number of points to bet.</font><div class='respPicDiv'><img src='img/responseButtonOffersNo0L.png' class='respPic'></div></div>","1","8","Mega Mangos","Fruit/mango.png","Lost","0.2,0.65","9","0.2","125","23","",""
"html-keyboard-response","77","174659","0.0-11.0-2.22","610745dee13497549c9d6fba","bdp_rwlrn","Tue Mar 14 2023 19:37:55 GMT-0400 (Eastern Daylight Time)","516205","Untrustworthy,Trustworthy","","null","","","","decisionFB","","<div class='trialDiv'><img src='Fruit/mango.png'><br><font class='baseline'><strong>Mega Mangos</strong><p>Choose number of points to bet.</font><div class='respPicDiv'><img src='img/responseButtonOffersNo0L1.png' class='respPic'></div></div>","null","8","Mega Mangos","Fruit/mango.png","Lost","0.2,0.65","9","0.2","124","23","",""
"html-keyboard-response","78","175665","0.0-11.0-3.22","610745dee13497549c9d6fba","bdp_rwlrn","Tue Mar 14 2023 19:37:55 GMT-0400 (Eastern Daylight Time)","516205","Untrustworthy,Trustworthy","","null","","","","feedback","","<div class='respPicDiv'><img src='img/responseButtonOffersNo0_wht.png' class='respPic'></div><div class='trialDiv'><img src='Fruit/mango.png'><br><font class='baseline'><strong>Mega Mangos</strong><p><strong><font class='negOutcome'>You LOST</font><p>You bet: 1</strong></font> &nbsp; &nbsp; &nbsp; &nbsp; &nbsp; &nbsp;<font class='negOutcome'>You receive: <strong>0</strong></font></div>","null","8","Mega Mangos","Fruit/mango.png","Lost","0.2,0.65","9","0.2","124","23","",""
"html-keyboard-response","79","176544","0.0-11.0-1.23","610745dee13497549c9d6fba","bdp_rwlrn","Tue Mar 14 2023 19:37:55 GMT-0400 (Eastern Daylight Time)","516205","Untrustworthy,Trustworthy","","878","","","","decision","","<div class='trialDiv'><img src='Fruit/melon.png'><br><font class='baseline'><strong>Melon Millions</strong><p>Choose number of points to bet.</font><div class='respPicDiv'><img src='img/responseButtonOffersNo0L.png' class='respPic'></div></div>","4","8","Melon Millions","Fruit/melon.png","Won","0.65,0.35","14","0.65","129","24","",""
"html-keyboard-response","80","176800","0.0-11.0-2.23","610745dee13497549c9d6fba","bdp_rwlrn","Tue Mar 14 2023 19:37:55 GMT-0400 (Eastern Daylight Time)","516205","Untrustworthy,Trustworthy","","null","","","","decisionFB","","<div class='trialDiv'><img src='Fruit/melon.png'><br><font class='baseline'><strong>Melon Millions</strong><p>Choose number of points to bet.</font><div class='respPicDiv'><img src='img/responseButtonOffersNo0L4.png' class='respPic'></div></div>","null","8","Melon Millions","Fruit/melon.png","Won","0.65,0.35","14","0.65","125","24","",""
"html-keyboard-response","81","177810","0.0-11.0-3.23","610745dee13497549c9d6fba","bdp_rwlrn","Tue Mar 14 2023 19:37:55 GMT-0400 (Eastern Daylight Time)","516205","Untrustworthy,Trustworthy","","null","","","","feedback","","<div class='respPicDiv'><img src='img/responseButtonOffersNo0_wht.png' class='respPic'></div><div class='trialDiv'><img src='Fruit/melon.png'><br><font class='baseline'><strong>Melon Millions</strong><p><strong><font class='posOutcome'>You WON</font><p>You bet: 4</strong></font> &nbsp; &nbsp; &nbsp; &nbsp; &nbsp; &nbsp;<font class='posOutcome'>you receive: <strong>8</strong></font></div>","null","8","Melon Millions","Fruit/melon.png","Won","0.65,0.35","14","0.65","133","24","",""
"html-keyboard-response","82","178791","0.0-11.0-1.24","610745dee13497549c9d6fba","bdp_rwlrn","Tue Mar 14 2023 19:37:55 GMT-0400 (Eastern Daylight Time)","516205","Untrustworthy,Trustworthy","","980","","","","decision","","<div class='trialDiv'><img src='Fruit/mango.png'><br><font class='baseline'><strong>Mega Mangos</strong><p>Choose number of points to bet.</font><div class='respPicDiv'><img src='img/responseButtonOffersNo0L.png' class='respPic'></div></div>","1","9","Mega Mangos","Fruit/mango.png","Won","0.2,0.65","9","0.2","138","25","",""
"html-keyboard-response","83","179050","0.0-11.0-2.24","610745dee13497549c9d6fba","bdp_rwlrn","Tue Mar 14 2023 19:37:55 GMT-0400 (Eastern Daylight Time)","516205","Untrustworthy,Trustworthy","","null","","","","decisionFB","","<div class='trialDiv'><img src='Fruit/mango.png'><br><font class='baseline'><strong>Mega Mangos</strong><p>Choose number of points to bet.</font><div class='respPicDiv'><img src='img/responseButtonOffersNo0L1.png' class='respPic'></div></div>","null","9","Mega Mangos","Fruit/mango.png","Won","0.2,0.65","9","0.2","137","25","",""
"html-keyboard-response","84","180060","0.0-11.0-3.24","610745dee13497549c9d6fba","bdp_rwlrn","Tue Mar 14 2023 19:37:55 GMT-0400 (Eastern Daylight Time)","516205","Untrustworthy,Trustworthy","","null","","","","feedback","","<div class='respPicDiv'><img src='img/responseButtonOffersNo0_wht.png' class='respPic'></div><div class='trialDiv'><img src='Fruit/mango.png'><br><font class='baseline'><strong>Mega Mangos</strong><p><strong><font class='posOutcome'>You WON</font><p>You bet: 1</strong></font> &nbsp; &nbsp; &nbsp; &nbsp; &nbsp; &nbsp;<font class='posOutcome'>you receive: <strong>2</strong></font></div>","null","9","Mega Mangos","Fruit/mango.png","Won","0.2,0.65","9","0.2","139","25","",""
"html-keyboard-response","85","181461","0.0-11.0-1.25","610745dee13497549c9d6fba","bdp_rwlrn","Tue Mar 14 2023 19:37:55 GMT-0400 (Eastern Daylight Time)","516205","Untrustworthy,Trustworthy","","1400","","","","decision","","<div class='trialDiv'><img src='Fruit/melon.png'><br><font class='baseline'><strong>Melon Millions</strong><p>Choose number of points to bet.</font><div class='respPicDiv'><img src='img/responseButtonOffersNo0L.png' class='respPic'></div></div>","5","9","Melon Millions","Fruit/melon.png","Lost","0.65,0.35","14","0.65","144","26","",""
"html-keyboard-response","86","181720","0.0-11.0-2.25","610745dee13497549c9d6fba","bdp_rwlrn","Tue Mar 14 2023 19:37:55 GMT-0400 (Eastern Daylight Time)","516205","Untrustworthy,Trustworthy","","null","","","","decisionFB","","<div class='trialDiv'><img src='Fruit/melon.png'><br><font class='baseline'><strong>Melon Millions</strong><p>Choose number of points to bet.</font><div class='respPicDiv'><img src='img/responseButtonOffersNo0L5.png' class='respPic'></div></div>","null","9","Melon Millions","Fruit/melon.png","Lost","0.65,0.35","14","0.65","139","26","",""
"html-keyboard-response","87","182732","0.0-11.0-3.25","610745dee13497549c9d6fba","bdp_rwlrn","Tue Mar 14 2023 19:37:55 GMT-0400 (Eastern Daylight Time)","516205","Untrustworthy,Trustworthy","","null","","","","feedback","","<div class='respPicDiv'><img src='img/responseButtonOffersNo0_wht.png' class='respPic'></div><div class='trialDiv'><img src='Fruit/melon.png'><br><font class='baseline'><strong>Melon Millions</strong><p><strong><font class='negOutcome'>You LOST</font><p>You bet: 5</strong></font> &nbsp; &nbsp; &nbsp; &nbsp; &nbsp; &nbsp;<font class='negOutcome'>You receive: <strong>0</strong></font></div>","null","9","Melon Millions","Fruit/melon.png","Lost","0.65,0.35","14","0.65","139","26","",""
"html-keyboard-response","88","186537","0.0-11.0-1.26","610745dee13497549c9d6fba","bdp_rwlrn","Tue Mar 14 2023 19:37:55 GMT-0400 (Eastern Daylight Time)","516205","Untrustworthy,Trustworthy","","3803","","","","decision","","<div class='trialDiv'><img src='Fruit/apple.png'><br><font class='baseline'><strong>Awesome Apples</strong><p>Choose number of points to bet.</font><div class='respPicDiv'><img src='img/responseButtonOffersNo0L.png' class='respPic'></div></div>","3","9","Awesome Apples","Fruit/apple.png","Lost","0.65,0.2","14","0.65","144","27","",""
"html-keyboard-response","89","186793","0.0-11.0-2.26","610745dee13497549c9d6fba","bdp_rwlrn","Tue Mar 14 2023 19:37:55 GMT-0400 (Eastern Daylight Time)","516205","Untrustworthy,Trustworthy","","null","","","","decisionFB","","<div class='trialDiv'><img src='Fruit/apple.png'><br><font class='baseline'><strong>Awesome Apples</strong><p>Choose number of points to bet.</font><div class='respPicDiv'><img src='img/responseButtonOffersNo0L3.png' class='respPic'></div></div>","null","9","Awesome Apples","Fruit/apple.png","Lost","0.65,0.2","14","0.65","141","27","",""
"html-keyboard-response","90","187804","0.0-11.0-3.26","610745dee13497549c9d6fba","bdp_rwlrn","Tue Mar 14 2023 19:37:55 GMT-0400 (Eastern Daylight Time)","516205","Untrustworthy,Trustworthy","","null","","","","feedback","","<div class='respPicDiv'><img src='img/responseButtonOffersNo0_wht.png' class='respPic'></div><div class='trialDiv'><img src='Fruit/apple.png'><br><font class='baseline'><strong>Awesome Apples</strong><p><strong><font class='negOutcome'>You LOST</font><p>You bet: 3</strong></font> &nbsp; &nbsp; &nbsp; &nbsp; &nbsp; &nbsp;<font class='negOutcome'>You receive: <strong>0</strong></font></div>","null","9","Awesome Apples","Fruit/apple.png","Lost","0.65,0.2","14","0.65","141","27","",""
"html-keyboard-response","91","189103","0.0-11.0-1.27","610745dee13497549c9d6fba","bdp_rwlrn","Tue Mar 14 2023 19:37:55 GMT-0400 (Eastern Daylight Time)","516205","Untrustworthy,Trustworthy","","1298","","","","decision","","<div class='trialDiv'><img src='Fruit/melon.png'><br><font class='baseline'><strong>Melon Millions</strong><p>Choose number of points to bet.</font><div class='respPicDiv'><img src='img/responseButtonOffersNo0L.png' class='respPic'></div></div>","3","10","Melon Millions","Fruit/melon.png","Won","0.65,0.35","14","0.65","146","28","",""
"html-keyboard-response","92","189360","0.0-11.0-2.27","610745dee13497549c9d6fba","bdp_rwlrn","Tue Mar 14 2023 19:37:55 GMT-0400 (Eastern Daylight Time)","516205","Untrustworthy,Trustworthy","","null","","","","decisionFB","","<div class='trialDiv'><img src='Fruit/melon.png'><br><font class='baseline'><strong>Melon Millions</strong><p>Choose number of points to bet.</font><div class='respPicDiv'><img src='img/responseButtonOffersNo0L3.png' class='respPic'></div></div>","null","10","Melon Millions","Fruit/melon.png","Won","0.65,0.35","14","0.65","143","28","",""
"html-keyboard-response","93","190370","0.0-11.0-3.27","610745dee13497549c9d6fba","bdp_rwlrn","Tue Mar 14 2023 19:37:55 GMT-0400 (Eastern Daylight Time)","516205","Untrustworthy,Trustworthy","","null","","","","feedback","","<div class='respPicDiv'><img src='img/responseButtonOffersNo0_wht.png' class='respPic'></div><div class='trialDiv'><img src='Fruit/melon.png'><br><font class='baseline'><strong>Melon Millions</strong><p><strong><font class='posOutcome'>You WON</font><p>You bet: 3</strong></font> &nbsp; &nbsp; &nbsp; &nbsp; &nbsp; &nbsp;<font class='posOutcome'>you receive: <strong>6</strong></font></div>","null","10","Melon Millions","Fruit/melon.png","Won","0.65,0.35","14","0.65","149","28","",""
"html-keyboard-response","94","191426","0.0-11.0-1.28","610745dee13497549c9d6fba","bdp_rwlrn","Tue Mar 14 2023 19:37:55 GMT-0400 (Eastern Daylight Time)","516205","Untrustworthy,Trustworthy","","1055","","","","decision","","<div class='trialDiv'><img src='Fruit/apple.png'><br><font class='baseline'><strong>Awesome Apples</strong><p>Choose number of points to bet.</font><div class='respPicDiv'><img src='img/responseButtonOffersNo0L.png' class='respPic'></div></div>","2","10","Awesome Apples","Fruit/apple.png","Lost","0.65,0.2","14","0.65","154","29","",""
"html-keyboard-response","95","191682","0.0-11.0-2.28","610745dee13497549c9d6fba","bdp_rwlrn","Tue Mar 14 2023 19:37:55 GMT-0400 (Eastern Daylight Time)","516205","Untrustworthy,Trustworthy","","null","","","","decisionFB","","<div class='trialDiv'><img src='Fruit/apple.png'><br><font class='baseline'><strong>Awesome Apples</strong><p>Choose number of points to bet.</font><div class='respPicDiv'><img src='img/responseButtonOffersNo0L2.png' class='respPic'></div></div>","null","10","Awesome Apples","Fruit/apple.png","Lost","0.65,0.2","14","0.65","152","29","",""
"html-keyboard-response","96","192691","0.0-11.0-3.28","610745dee13497549c9d6fba","bdp_rwlrn","Tue Mar 14 2023 19:37:55 GMT-0400 (Eastern Daylight Time)","516205","Untrustworthy,Trustworthy","","null","","","","feedback","","<div class='respPicDiv'><img src='img/responseButtonOffersNo0_wht.png' class='respPic'></div><div class='trialDiv'><img src='Fruit/apple.png'><br><font class='baseline'><strong>Awesome Apples</strong><p><strong><font class='negOutcome'>You LOST</font><p>You bet: 2</strong></font> &nbsp; &nbsp; &nbsp; &nbsp; &nbsp; &nbsp;<font class='negOutcome'>You receive: <strong>0</strong></font></div>","null","10","Awesome Apples","Fruit/apple.png","Lost","0.65,0.2","14","0.65","152","29","",""
"html-keyboard-response","97","193202","0.0-11.0-1.29","610745dee13497549c9d6fba","bdp_rwlrn","Tue Mar 14 2023 19:37:55 GMT-0400 (Eastern Daylight Time)","516205","Untrustworthy,Trustworthy","","510","","","","decision","","<div class='trialDiv'><img src='Fruit/mango.png'><br><font class='baseline'><strong>Mega Mangos</strong><p>Choose number of points to bet.</font><div class='respPicDiv'><img src='img/responseButtonOffersNo0L.png' class='respPic'></div></div>","1","10","Mega Mangos","Fruit/mango.png","Won","0.2,0.65","9","0.2","157","30","",""
"html-keyboard-response","98","193458","0.0-11.0-2.29","610745dee13497549c9d6fba","bdp_rwlrn","Tue Mar 14 2023 19:37:55 GMT-0400 (Eastern Daylight Time)","516205","Untrustworthy,Trustworthy","","null","","","","decisionFB","","<div class='trialDiv'><img src='Fruit/mango.png'><br><font class='baseline'><strong>Mega Mangos</strong><p>Choose number of points to bet.</font><div class='respPicDiv'><img src='img/responseButtonOffersNo0L1.png' class='respPic'></div></div>","null","10","Mega Mangos","Fruit/mango.png","Won","0.2,0.65","9","0.2","156","30","",""
"html-keyboard-response","99","194468","0.0-11.0-3.29","610745dee13497549c9d6fba","bdp_rwlrn","Tue Mar 14 2023 19:37:55 GMT-0400 (Eastern Daylight Time)","516205","Untrustworthy,Trustworthy","","null","","","","feedback","","<div class='respPicDiv'><img src='img/responseButtonOffersNo0_wht.png' class='respPic'></div><div class='trialDiv'><img src='Fruit/mango.png'><br><font class='baseline'><strong>Mega Mangos</strong><p><strong><font class='posOutcome'>You WON</font><p>You bet: 1</strong></font> &nbsp; &nbsp; &nbsp; &nbsp; &nbsp; &nbsp;<font class='posOutcome'>you receive: <strong>2</strong></font></div>","null","10","Mega Mangos","Fruit/mango.png","Won","0.2,0.65","9","0.2","158","30","",""
"html-keyboard-response","100","195428","0.0-11.0-1.30","610745dee13497549c9d6fba","bdp_rwlrn","Tue Mar 14 2023 19:37:55 GMT-0400 (Eastern Daylight Time)","516205","Untrustworthy,Trustworthy","","959","","","","decision","","<div class='trialDiv'><img src='Fruit/melon.png'><br><font class='baseline'><strong>Melon Millions</strong><p>Choose number of points to bet.</font><div class='respPicDiv'><img src='img/responseButtonOffersNo0L.png' class='respPic'></div></div>","2","11","Melon Millions","Fruit/melon.png","Won","0.65,0.35","14","0.65","163","31","",""
"html-keyboard-response","101","195681","0.0-11.0-2.30","610745dee13497549c9d6fba","bdp_rwlrn","Tue Mar 14 2023 19:37:55 GMT-0400 (Eastern Daylight Time)","516205","Untrustworthy,Trustworthy","","null","","","","decisionFB","","<div class='trialDiv'><img src='Fruit/melon.png'><br><font class='baseline'><strong>Melon Millions</strong><p>Choose number of points to bet.</font><div class='respPicDiv'><img src='img/responseButtonOffersNo0L2.png' class='respPic'></div></div>","null","11","Melon Millions","Fruit/melon.png","Won","0.65,0.35","14","0.65","161","31","",""
"html-keyboard-response","102","196691","0.0-11.0-3.30","610745dee13497549c9d6fba","bdp_rwlrn","Tue Mar 14 2023 19:37:55 GMT-0400 (Eastern Daylight Time)","516205","Untrustworthy,Trustworthy","","null","","","","feedback","","<div class='respPicDiv'><img src='img/responseButtonOffersNo0_wht.png' class='respPic'></div><div class='trialDiv'><img src='Fruit/melon.png'><br><font class='baseline'><strong>Melon Millions</strong><p><strong><font class='posOutcome'>You WON</font><p>You bet: 2</strong></font> &nbsp; &nbsp; &nbsp; &nbsp; &nbsp; &nbsp;<font class='posOutcome'>you receive: <strong>4</strong></font></div>","null","11","Melon Millions","Fruit/melon.png","Won","0.65,0.35","14","0.65","165","31","",""
"html-keyboard-response","103","197645","0.0-11.0-1.31","610745dee13497549c9d6fba","bdp_rwlrn","Tue Mar 14 2023 19:37:55 GMT-0400 (Eastern Daylight Time)","516205","Untrustworthy,Trustworthy","","953","","","","decision","","<div class='trialDiv'><img src='Fruit/apple.png'><br><font class='baseline'><strong>Awesome Apples</strong><p>Choose number of points to bet.</font><div class='respPicDiv'><img src='img/responseButtonOffersNo0L.png' class='respPic'></div></div>","1","11","Awesome Apples","Fruit/apple.png","Won","0.65,0.2","14","0.65","170","32","",""
"html-keyboard-response","104","197904","0.0-11.0-2.31","610745dee13497549c9d6fba","bdp_rwlrn","Tue Mar 14 2023 19:37:55 GMT-0400 (Eastern Daylight Time)","516205","Untrustworthy,Trustworthy","","null","","","","decisionFB","","<div class='trialDiv'><img src='Fruit/apple.png'><br><font class='baseline'><strong>Awesome Apples</strong><p>Choose number of points to bet.</font><div class='respPicDiv'><img src='img/responseButtonOffersNo0L1.png' class='respPic'></div></div>","null","11","Awesome Apples","Fruit/apple.png","Won","0.65,0.2","14","0.65","169","32","",""
"html-keyboard-response","105","198915","0.0-11.0-3.31","610745dee13497549c9d6fba","bdp_rwlrn","Tue Mar 14 2023 19:37:55 GMT-0400 (Eastern Daylight Time)","516205","Untrustworthy,Trustworthy","","null","","","","feedback","","<div class='respPicDiv'><img src='img/responseButtonOffersNo0_wht.png' class='respPic'></div><div class='trialDiv'><img src='Fruit/apple.png'><br><font class='baseline'><strong>Awesome Apples</strong><p><strong><font class='posOutcome'>You WON</font><p>You bet: 1</strong></font> &nbsp; &nbsp; &nbsp; &nbsp; &nbsp; &nbsp;<font class='posOutcome'>you receive: <strong>2</strong></font></div>","null","11","Awesome Apples","Fruit/apple.png","Won","0.65,0.2","14","0.65","171","32","",""
"html-keyboard-response","106","199398","0.0-11.0-1.32","610745dee13497549c9d6fba","bdp_rwlrn","Tue Mar 14 2023 19:37:55 GMT-0400 (Eastern Daylight Time)","516205","Untrustworthy,Trustworthy","","482","","","","decision","","<div class='trialDiv'><img src='Fruit/mango.png'><br><font class='baseline'><strong>Mega Mangos</strong><p>Choose number of points to bet.</font><div class='respPicDiv'><img src='img/responseButtonOffersNo0L.png' class='respPic'></div></div>","1","11","Mega Mangos","Fruit/mango.png","Won","0.2,0.65","9","0.2","176","33","",""
"html-keyboard-response","107","199658","0.0-11.0-2.32","610745dee13497549c9d6fba","bdp_rwlrn","Tue Mar 14 2023 19:37:55 GMT-0400 (Eastern Daylight Time)","516205","Untrustworthy,Trustworthy","","null","","","","decisionFB","","<div class='trialDiv'><img src='Fruit/mango.png'><br><font class='baseline'><strong>Mega Mangos</strong><p>Choose number of points to bet.</font><div class='respPicDiv'><img src='img/responseButtonOffersNo0L1.png' class='respPic'></div></div>","null","11","Mega Mangos","Fruit/mango.png","Won","0.2,0.65","9","0.2","175","33","",""
"html-keyboard-response","108","200665","0.0-11.0-3.32","610745dee13497549c9d6fba","bdp_rwlrn","Tue Mar 14 2023 19:37:55 GMT-0400 (Eastern Daylight Time)","516205","Untrustworthy,Trustworthy","","null","","","","feedback","","<div class='respPicDiv'><img src='img/responseButtonOffersNo0_wht.png' class='respPic'></div><div class='trialDiv'><img src='Fruit/mango.png'><br><font class='baseline'><strong>Mega Mangos</strong><p><strong><font class='posOutcome'>You WON</font><p>You bet: 1</strong></font> &nbsp; &nbsp; &nbsp; &nbsp; &nbsp; &nbsp;<font class='posOutcome'>you receive: <strong>2</strong></font></div>","null","11","Mega Mangos","Fruit/mango.png","Won","0.2,0.65","9","0.2","177","33","",""
"html-keyboard-response","109","202329","0.0-11.0-1.33","610745dee13497549c9d6fba","bdp_rwlrn","Tue Mar 14 2023 19:37:55 GMT-0400 (Eastern Daylight Time)","516205","Untrustworthy,Trustworthy","","1663","","","","decision","","<div class='trialDiv'><img src='Fruit/melon.png'><br><font class='baseline'><strong>Melon Millions</strong><p>Choose number of points to bet.</font><div class='respPicDiv'><img src='img/responseButtonOffersNo0L.png' class='respPic'></div></div>","4","12","Melon Millions","Fruit/melon.png","Lost","0.65,0.35","14","0.65","182","34","",""
"html-keyboard-response","110","202584","0.0-11.0-2.33","610745dee13497549c9d6fba","bdp_rwlrn","Tue Mar 14 2023 19:37:55 GMT-0400 (Eastern Daylight Time)","516205","Untrustworthy,Trustworthy","","null","","","","decisionFB","","<div class='trialDiv'><img src='Fruit/melon.png'><br><font class='baseline'><strong>Melon Millions</strong><p>Choose number of points to bet.</font><div class='respPicDiv'><img src='img/responseButtonOffersNo0L4.png' class='respPic'></div></div>","null","12","Melon Millions","Fruit/melon.png","Lost","0.65,0.35","14","0.65","178","34","",""
"html-keyboard-response","111","203593","0.0-11.0-3.33","610745dee13497549c9d6fba","bdp_rwlrn","Tue Mar 14 2023 19:37:55 GMT-0400 (Eastern Daylight Time)","516205","Untrustworthy,Trustworthy","","null","","","","feedback","","<div class='respPicDiv'><img src='img/responseButtonOffersNo0_wht.png' class='respPic'></div><div class='trialDiv'><img src='Fruit/melon.png'><br><font class='baseline'><strong>Melon Millions</strong><p><strong><font class='negOutcome'>You LOST</font><p>You bet: 4</strong></font> &nbsp; &nbsp; &nbsp; &nbsp; &nbsp; &nbsp;<font class='negOutcome'>You receive: <strong>0</strong></font></div>","null","12","Melon Millions","Fruit/melon.png","Lost","0.65,0.35","14","0.65","178","34","",""
"html-keyboard-response","112","204465","0.0-11.0-1.34","610745dee13497549c9d6fba","bdp_rwlrn","Tue Mar 14 2023 19:37:55 GMT-0400 (Eastern Daylight Time)","516205","Untrustworthy,Trustworthy","","871","","","","decision","","<div class='trialDiv'><img src='Fruit/apple.png'><br><font class='baseline'><strong>Awesome Apples</strong><p>Choose number of points to bet.</font><div class='respPicDiv'><img src='img/responseButtonOffersNo0L.png' class='respPic'></div></div>","1","12","Awesome Apples","Fruit/apple.png","Lost","0.65,0.2","14","0.65","183","35","",""
"html-keyboard-response","113","204720","0.0-11.0-2.34","610745dee13497549c9d6fba","bdp_rwlrn","Tue Mar 14 2023 19:37:55 GMT-0400 (Eastern Daylight Time)","516205","Untrustworthy,Trustworthy","","null","","","","decisionFB","","<div class='trialDiv'><img src='Fruit/apple.png'><br><font class='baseline'><strong>Awesome Apples</strong><p>Choose number of points to bet.</font><div class='respPicDiv'><img src='img/responseButtonOffersNo0L1.png' class='respPic'></div></div>","null","12","Awesome Apples","Fruit/apple.png","Lost","0.65,0.2","14","0.65","182","35","",""
"html-keyboard-response","114","205729","0.0-11.0-3.34","610745dee13497549c9d6fba","bdp_rwlrn","Tue Mar 14 2023 19:37:55 GMT-0400 (Eastern Daylight Time)","516205","Untrustworthy,Trustworthy","","null","","","","feedback","","<div class='respPicDiv'><img src='img/responseButtonOffersNo0_wht.png' class='respPic'></div><div class='trialDiv'><img src='Fruit/apple.png'><br><font class='baseline'><strong>Awesome Apples</strong><p><strong><font class='negOutcome'>You LOST</font><p>You bet: 1</strong></font> &nbsp; &nbsp; &nbsp; &nbsp; &nbsp; &nbsp;<font class='negOutcome'>You receive: <strong>0</strong></font></div>","null","12","Awesome Apples","Fruit/apple.png","Lost","0.65,0.2","14","0.65","182","35","",""
"html-keyboard-response","115","206329","0.0-11.0-1.35","610745dee13497549c9d6fba","bdp_rwlrn","Tue Mar 14 2023 19:37:55 GMT-0400 (Eastern Daylight Time)","516205","Untrustworthy,Trustworthy","","598","","","","decision","","<div class='trialDiv'><img src='Fruit/mango.png'><br><font class='baseline'><strong>Mega Mangos</strong><p>Choose number of points to bet.</font><div class='respPicDiv'><img src='img/responseButtonOffersNo0L.png' class='respPic'></div></div>","1","12","Mega Mangos","Fruit/mango.png","Lost","0.2,0.65","9","0.2","187","36","",""
"html-keyboard-response","116","206585","0.0-11.0-2.35","610745dee13497549c9d6fba","bdp_rwlrn","Tue Mar 14 2023 19:37:55 GMT-0400 (Eastern Daylight Time)","516205","Untrustworthy,Trustworthy","","null","","","","decisionFB","","<div class='trialDiv'><img src='Fruit/mango.png'><br><font class='baseline'><strong>Mega Mangos</strong><p>Choose number of points to bet.</font><div class='respPicDiv'><img src='img/responseButtonOffersNo0L1.png' class='respPic'></div></div>","null","12","Mega Mangos","Fruit/mango.png","Lost","0.2,0.65","9","0.2","186","36","",""
"html-keyboard-response","117","207594","0.0-11.0-3.35","610745dee13497549c9d6fba","bdp_rwlrn","Tue Mar 14 2023 19:37:55 GMT-0400 (Eastern Daylight Time)","516205","Untrustworthy,Trustworthy","","null","","","","feedback","","<div class='respPicDiv'><img src='img/responseButtonOffersNo0_wht.png' class='respPic'></div><div class='trialDiv'><img src='Fruit/mango.png'><br><font class='baseline'><strong>Mega Mangos</strong><p><strong><font class='negOutcome'>You LOST</font><p>You bet: 1</strong></font> &nbsp; &nbsp; &nbsp; &nbsp; &nbsp; &nbsp;<font class='negOutcome'>You receive: <strong>0</strong></font></div>","null","12","Mega Mangos","Fruit/mango.png","Lost","0.2,0.65","9","0.2","186","36","",""
"html-keyboard-response","118","208811","0.0-11.0-1.36","610745dee13497549c9d6fba","bdp_rwlrn","Tue Mar 14 2023 19:37:55 GMT-0400 (Eastern Daylight Time)","516205","Untrustworthy,Trustworthy","","1216","","","","decision","","<div class='trialDiv'><img src='Fruit/melon.png'><br><font class='baseline'><strong>Melon Millions</strong><p>Choose number of points to bet.</font><div class='respPicDiv'><img src='img/responseButtonOffersNo0L.png' class='respPic'></div></div>","3","13","Melon Millions","Fruit/melon.png","Lost","0.65,0.35","14","0.65","191","37","",""
"html-keyboard-response","119","209067","0.0-11.0-2.36","610745dee13497549c9d6fba","bdp_rwlrn","Tue Mar 14 2023 19:37:55 GMT-0400 (Eastern Daylight Time)","516205","Untrustworthy,Trustworthy","","null","","","","decisionFB","","<div class='trialDiv'><img src='Fruit/melon.png'><br><font class='baseline'><strong>Melon Millions</strong><p>Choose number of points to bet.</font><div class='respPicDiv'><img src='img/responseButtonOffersNo0L3.png' class='respPic'></div></div>","null","13","Melon Millions","Fruit/melon.png","Lost","0.65,0.35","14","0.65","188","37","",""
"html-keyboard-response","120","210072","0.0-11.0-3.36","610745dee13497549c9d6fba","bdp_rwlrn","Tue Mar 14 2023 19:37:55 GMT-0400 (Eastern Daylight Time)","516205","Untrustworthy,Trustworthy","","null","","","","feedback","","<div class='respPicDiv'><img src='img/responseButtonOffersNo0_wht.png' class='respPic'></div><div class='trialDiv'><img src='Fruit/melon.png'><br><font class='baseline'><strong>Melon Millions</strong><p><strong><font class='negOutcome'>You LOST</font><p>You bet: 3</strong></font> &nbsp; &nbsp; &nbsp; &nbsp; &nbsp; &nbsp;<font class='negOutcome'>You receive: <strong>0</strong></font></div>","null","13","Melon Millions","Fruit/melon.png","Lost","0.65,0.35","14","0.65","188","37","",""
"html-keyboard-response","121","214152","0.0-11.0-1.37","610745dee13497549c9d6fba","bdp_rwlrn","Tue Mar 14 2023 19:37:55 GMT-0400 (Eastern Daylight Time)","516205","Untrustworthy,Trustworthy","","4079","","","","decision","","<div class='trialDiv'><img src='Fruit/apple.png'><br><font class='baseline'><strong>Awesome Apples</strong><p>Choose number of points to bet.</font><div class='respPicDiv'><img src='img/responseButtonOffersNo0L.png' class='respPic'></div></div>","1","13","Awesome Apples","Fruit/apple.png","Won","0.65,0.2","14","0.65","193","38","",""
"html-keyboard-response","122","214408","0.0-11.0-2.37","610745dee13497549c9d6fba","bdp_rwlrn","Tue Mar 14 2023 19:37:55 GMT-0400 (Eastern Daylight Time)","516205","Untrustworthy,Trustworthy","","null","","","","decisionFB","","<div class='trialDiv'><img src='Fruit/apple.png'><br><font class='baseline'><strong>Awesome Apples</strong><p>Choose number of points to bet.</font><div class='respPicDiv'><img src='img/responseButtonOffersNo0L1.png' class='respPic'></div></div>","null","13","Awesome Apples","Fruit/apple.png","Won","0.65,0.2","14","0.65","192","38","",""
"html-keyboard-response","123","215418","0.0-11.0-3.37","610745dee13497549c9d6fba","bdp_rwlrn","Tue Mar 14 2023 19:37:55 GMT-0400 (Eastern Daylight Time)","516205","Untrustworthy,Trustworthy","","null","","","","feedback","","<div class='respPicDiv'><img src='img/responseButtonOffersNo0_wht.png' class='respPic'></div><div class='trialDiv'><img src='Fruit/apple.png'><br><font class='baseline'><strong>Awesome Apples</strong><p><strong><font class='posOutcome'>You WON</font><p>You bet: 1</strong></font> &nbsp; &nbsp; &nbsp; &nbsp; &nbsp; &nbsp;<font class='posOutcome'>you receive: <strong>2</strong></font></div>","null","13","Awesome Apples","Fruit/apple.png","Won","0.65,0.2","14","0.65","194","38","",""
"html-keyboard-response","124","217592","0.0-11.0-1.38","610745dee13497549c9d6fba","bdp_rwlrn","Tue Mar 14 2023 19:37:55 GMT-0400 (Eastern Daylight Time)","516205","Untrustworthy,Trustworthy","","2173","","","","decision","","<div class='trialDiv'><img src='Fruit/mango.png'><br><font class='baseline'><strong>Mega Mangos</strong><p>Choose number of points to bet.</font><div class='respPicDiv'><img src='img/responseButtonOffersNo0L.png' class='respPic'></div></div>","1","13","Mega Mangos","Fruit/mango.png","Lost","0.2,0.65","9","0.2","199","39","",""
"html-keyboard-response","125","217851","0.0-11.0-2.38","610745dee13497549c9d6fba","bdp_rwlrn","Tue Mar 14 2023 19:37:55 GMT-0400 (Eastern Daylight Time)","516205","Untrustworthy,Trustworthy","","null","","","","decisionFB","","<div class='trialDiv'><img src='Fruit/mango.png'><br><font class='baseline'><strong>Mega Mangos</strong><p>Choose number of points to bet.</font><div class='respPicDiv'><img src='img/responseButtonOffersNo0L1.png' class='respPic'></div></div>","null","13","Mega Mangos","Fruit/mango.png","Lost","0.2,0.65","9","0.2","198","39","",""
"html-keyboard-response","126","218861","0.0-11.0-3.38","610745dee13497549c9d6fba","bdp_rwlrn","Tue Mar 14 2023 19:37:55 GMT-0400 (Eastern Daylight Time)","516205","Untrustworthy,Trustworthy","","null","","","","feedback","","<div class='respPicDiv'><img src='img/responseButtonOffersNo0_wht.png' class='respPic'></div><div class='trialDiv'><img src='Fruit/mango.png'><br><font class='baseline'><strong>Mega Mangos</strong><p><strong><font class='negOutcome'>You LOST</font><p>You bet: 1</strong></font> &nbsp; &nbsp; &nbsp; &nbsp; &nbsp; &nbsp;<font class='negOutcome'>You receive: <strong>0</strong></font></div>","null","13","Mega Mangos","Fruit/mango.png","Lost","0.2,0.65","9","0.2","198","39","",""
"html-keyboard-response","127","220922","0.0-11.0-1.39","610745dee13497549c9d6fba","bdp_rwlrn","Tue Mar 14 2023 19:37:55 GMT-0400 (Eastern Daylight Time)","516205","Untrustworthy,Trustworthy","","2060","","","","decision","","<div class='trialDiv'><img src='Fruit/melon.png'><br><font class='baseline'><strong>Melon Millions</strong><p>Choose number of points to bet.</font><div class='respPicDiv'><img src='img/responseButtonOffersNo0L.png' class='respPic'></div></div>","2","14","Melon Millions","Fruit/melon.png","Lost","0.65,0.35","14","0.65","203","40","",""
"html-keyboard-response","128","221177","0.0-11.0-2.39","610745dee13497549c9d6fba","bdp_rwlrn","Tue Mar 14 2023 19:37:55 GMT-0400 (Eastern Daylight Time)","516205","Untrustworthy,Trustworthy","","null","","","","decisionFB","","<div class='trialDiv'><img src='Fruit/melon.png'><br><font class='baseline'><strong>Melon Millions</strong><p>Choose number of points to bet.</font><div class='respPicDiv'><img src='img/responseButtonOffersNo0L2.png' class='respPic'></div></div>","null","14","Melon Millions","Fruit/melon.png","Lost","0.65,0.35","14","0.65","201","40","",""
"html-keyboard-response","129","222187","0.0-11.0-3.39","610745dee13497549c9d6fba","bdp_rwlrn","Tue Mar 14 2023 19:37:55 GMT-0400 (Eastern Daylight Time)","516205","Untrustworthy,Trustworthy","","null","","","","feedback","","<div class='respPicDiv'><img src='img/responseButtonOffersNo0_wht.png' class='respPic'></div><div class='trialDiv'><img src='Fruit/melon.png'><br><font class='baseline'><strong>Melon Millions</strong><p><strong><font class='negOutcome'>You LOST</font><p>You bet: 2</strong></font> &nbsp; &nbsp; &nbsp; &nbsp; &nbsp; &nbsp;<font class='negOutcome'>You receive: <strong>0</strong></font></div>","null","14","Melon Millions","Fruit/melon.png","Lost","0.65,0.35","14","0.65","201","40","",""
"html-keyboard-response","130","223127","0.0-11.0-1.40","610745dee13497549c9d6fba","bdp_rwlrn","Tue Mar 14 2023 19:37:55 GMT-0400 (Eastern Daylight Time)","516205","Untrustworthy,Trustworthy","","939","","","","decision","","<div class='trialDiv'><img src='Fruit/mango.png'><br><font class='baseline'><strong>Mega Mangos</strong><p>Choose number of points to bet.</font><div class='respPicDiv'><img src='img/responseButtonOffersNo0L.png' class='respPic'></div></div>","2","14","Mega Mangos","Fruit/mango.png","Lost","0.2,0.65","9","0.2","206","41","",""
"html-keyboard-response","131","223388","0.0-11.0-2.40","610745dee13497549c9d6fba","bdp_rwlrn","Tue Mar 14 2023 19:37:55 GMT-0400 (Eastern Daylight Time)","516205","Untrustworthy,Trustworthy","","null","","","","decisionFB","","<div class='trialDiv'><img src='Fruit/mango.png'><br><font class='baseline'><strong>Mega Mangos</strong><p>Choose number of points to bet.</font><div class='respPicDiv'><img src='img/responseButtonOffersNo0L2.png' class='respPic'></div></div>","null","14","Mega Mangos","Fruit/mango.png","Lost","0.2,0.65","9","0.2","204","41","",""
"html-keyboard-response","132","224392","0.0-11.0-3.40","610745dee13497549c9d6fba","bdp_rwlrn","Tue Mar 14 2023 19:37:55 GMT-0400 (Eastern Daylight Time)","516205","Untrustworthy,Trustworthy","","null","","","","feedback","","<div class='respPicDiv'><img src='img/responseButtonOffersNo0_wht.png' class='respPic'></div><div class='trialDiv'><img src='Fruit/mango.png'><br><font class='baseline'><strong>Mega Mangos</strong><p><strong><font class='negOutcome'>You LOST</font><p>You bet: 2</strong></font> &nbsp; &nbsp; &nbsp; &nbsp; &nbsp; &nbsp;<font class='negOutcome'>You receive: <strong>0</strong></font></div>","null","14","Mega Mangos","Fruit/mango.png","Lost","0.2,0.65","9","0.2","204","41","",""
"html-keyboard-response","133","224930","0.0-11.0-1.41","610745dee13497549c9d6fba","bdp_rwlrn","Tue Mar 14 2023 19:37:55 GMT-0400 (Eastern Daylight Time)","516205","Untrustworthy,Trustworthy","","536","","","","decision","","<div class='trialDiv'><img src='Fruit/apple.png'><br><font class='baseline'><strong>Awesome Apples</strong><p>Choose number of points to bet.</font><div class='respPicDiv'><img src='img/responseButtonOffersNo0L.png' class='respPic'></div></div>","1","14","Awesome Apples","Fruit/apple.png","Lost","0.65,0.2","14","0.65","209","42","",""
"html-keyboard-response","134","225188","0.0-11.0-2.41","610745dee13497549c9d6fba","bdp_rwlrn","Tue Mar 14 2023 19:37:55 GMT-0400 (Eastern Daylight Time)","516205","Untrustworthy,Trustworthy","","null","","","","decisionFB","","<div class='trialDiv'><img src='Fruit/apple.png'><br><font class='baseline'><strong>Awesome Apples</strong><p>Choose number of points to bet.</font><div class='respPicDiv'><img src='img/responseButtonOffersNo0L1.png' class='respPic'></div></div>","null","14","Awesome Apples","Fruit/apple.png","Lost","0.65,0.2","14","0.65","208","42","",""
"html-keyboard-response","135","226192","0.0-11.0-3.41","610745dee13497549c9d6fba","bdp_rwlrn","Tue Mar 14 2023 19:37:55 GMT-0400 (Eastern Daylight Time)","516205","Untrustworthy,Trustworthy","","null","","","","feedback","","<div class='respPicDiv'><img src='img/responseButtonOffersNo0_wht.png' class='respPic'></div><div class='trialDiv'><img src='Fruit/apple.png'><br><font class='baseline'><strong>Awesome Apples</strong><p><strong><font class='negOutcome'>You LOST</font><p>You bet: 1</strong></font> &nbsp; &nbsp; &nbsp; &nbsp; &nbsp; &nbsp;<font class='negOutcome'>You receive: <strong>0</strong></font></div>","null","14","Awesome Apples","Fruit/apple.png","Lost","0.65,0.2","14","0.65","208","42","",""
"html-keyboard-response","136","227199","0.0-11.0-1.42","610745dee13497549c9d6fba","bdp_rwlrn","Tue Mar 14 2023 19:37:55 GMT-0400 (Eastern Daylight Time)","516205","Untrustworthy,Trustworthy","","1004","","","","decision","","<div class='trialDiv'><img src='Fruit/melon.png'><br><font class='baseline'><strong>Melon Millions</strong><p>Choose number of points to bet.</font><div class='respPicDiv'><img src='img/responseButtonOffersNo0L.png' class='respPic'></div></div>","2","15","Melon Millions","Fruit/melon.png","Lost","0.65,0.35","14","0.65","213","43","",""
"html-keyboard-response","137","227458","0.0-11.0-2.42","610745dee13497549c9d6fba","bdp_rwlrn","Tue Mar 14 2023 19:37:55 GMT-0400 (Eastern Daylight Time)","516205","Untrustworthy,Trustworthy","","null","","","","decisionFB","","<div class='trialDiv'><img src='Fruit/melon.png'><br><font class='baseline'><strong>Melon Millions</strong><p>Choose number of points to bet.</font><div class='respPicDiv'><img src='img/responseButtonOffersNo0L2.png' class='respPic'></div></div>","null","15","Melon Millions","Fruit/melon.png","Lost","0.65,0.35","14","0.65","211","43","",""
"html-keyboard-response","138","228468","0.0-11.0-3.42","610745dee13497549c9d6fba","bdp_rwlrn","Tue Mar 14 2023 19:37:55 GMT-0400 (Eastern Daylight Time)","516205","Untrustworthy,Trustworthy","","null","","","","feedback","","<div class='respPicDiv'><img src='img/responseButtonOffersNo0_wht.png' class='respPic'></div><div class='trialDiv'><img src='Fruit/melon.png'><br><font class='baseline'><strong>Melon Millions</strong><p><strong><font class='negOutcome'>You LOST</font><p>You bet: 2</strong></font> &nbsp; &nbsp; &nbsp; &nbsp; &nbsp; &nbsp;<font class='negOutcome'>You receive: <strong>0</strong></font></div>","null","15","Melon Millions","Fruit/melon.png","Lost","0.65,0.35","14","0.65","211","43","",""
"html-keyboard-response","139","229088","0.0-11.0-1.43","610745dee13497549c9d6fba","bdp_rwlrn","Tue Mar 14 2023 19:37:55 GMT-0400 (Eastern Daylight Time)","516205","Untrustworthy,Trustworthy","","618","","","","decision","","<div class='trialDiv'><img src='Fruit/apple.png'><br><font class='baseline'><strong>Awesome Apples</strong><p>Choose number of points to bet.</font><div class='respPicDiv'><img src='img/responseButtonOffersNo0L.png' class='respPic'></div></div>","1","15","Awesome Apples","Fruit/apple.png","Lost","0.65,0.2","14","0.65","216","44","",""
"html-keyboard-response","140","229344","0.0-11.0-2.43","610745dee13497549c9d6fba","bdp_rwlrn","Tue Mar 14 2023 19:37:55 GMT-0400 (Eastern Daylight Time)","516205","Untrustworthy,Trustworthy","","null","","","","decisionFB","","<div class='trialDiv'><img src='Fruit/apple.png'><br><font class='baseline'><strong>Awesome Apples</strong><p>Choose number of points to bet.</font><div class='respPicDiv'><img src='img/responseButtonOffersNo0L1.png' class='respPic'></div></div>","null","15","Awesome Apples","Fruit/apple.png","Lost","0.65,0.2","14","0.65","215","44","",""
"html-keyboard-response","141","230354","0.0-11.0-3.43","610745dee13497549c9d6fba","bdp_rwlrn","Tue Mar 14 2023 19:37:55 GMT-0400 (Eastern Daylight Time)","516205","Untrustworthy,Trustworthy","","null","","","","feedback","","<div class='respPicDiv'><img src='img/responseButtonOffersNo0_wht.png' class='respPic'></div><div class='trialDiv'><img src='Fruit/apple.png'><br><font class='baseline'><strong>Awesome Apples</strong><p><strong><font class='negOutcome'>You LOST</font><p>You bet: 1</strong></font> &nbsp; &nbsp; &nbsp; &nbsp; &nbsp; &nbsp;<font class='negOutcome'>You receive: <strong>0</strong></font></div>","null","15","Awesome Apples","Fruit/apple.png","Lost","0.65,0.2","14","0.65","215","44","",""
"html-keyboard-response","142","230932","0.0-11.0-1.44","610745dee13497549c9d6fba","bdp_rwlrn","Tue Mar 14 2023 19:37:55 GMT-0400 (Eastern Daylight Time)","516205","Untrustworthy,Trustworthy","","577","","","","decision","","<div class='trialDiv'><img src='Fruit/mango.png'><br><font class='baseline'><strong>Mega Mangos</strong><p>Choose number of points to bet.</font><div class='respPicDiv'><img src='img/responseButtonOffersNo0L.png' class='respPic'></div></div>","1","15","Mega Mangos","Fruit/mango.png","Won","0.2,0.65","9","0.2","220","45","",""
"html-keyboard-response","143","231185","0.0-11.0-2.44","610745dee13497549c9d6fba","bdp_rwlrn","Tue Mar 14 2023 19:37:55 GMT-0400 (Eastern Daylight Time)","516205","Untrustworthy,Trustworthy","","null","","","","decisionFB","","<div class='trialDiv'><img src='Fruit/mango.png'><br><font class='baseline'><strong>Mega Mangos</strong><p>Choose number of points to bet.</font><div class='respPicDiv'><img src='img/responseButtonOffersNo0L1.png' class='respPic'></div></div>","null","15","Mega Mangos","Fruit/mango.png","Won","0.2,0.65","9","0.2","219","45","",""
"html-keyboard-response","144","232194","0.0-11.0-3.44","610745dee13497549c9d6fba","bdp_rwlrn","Tue Mar 14 2023 19:37:55 GMT-0400 (Eastern Daylight Time)","516205","Untrustworthy,Trustworthy","","null","","","","feedback","","<div class='respPicDiv'><img src='img/responseButtonOffersNo0_wht.png' class='respPic'></div><div class='trialDiv'><img src='Fruit/mango.png'><br><font class='baseline'><strong>Mega Mangos</strong><p><strong><font class='posOutcome'>You WON</font><p>You bet: 1</strong></font> &nbsp; &nbsp; &nbsp; &nbsp; &nbsp; &nbsp;<font class='posOutcome'>you receive: <strong>2</strong></font></div>","null","15","Mega Mangos","Fruit/mango.png","Won","0.2,0.65","9","0.2","221","45","",""
"html-keyboard-response","145","232657","0.0-11.0-1.45","610745dee13497549c9d6fba","bdp_rwlrn","Tue Mar 14 2023 19:37:55 GMT-0400 (Eastern Daylight Time)","516205","Untrustworthy,Trustworthy","","460","","","","decision","","<div class='trialDiv'><img src='Fruit/melon.png'><br><font class='baseline'><strong>Melon Millions</strong><p>Choose number of points to bet.</font><div class='respPicDiv'><img src='img/responseButtonOffersNo0L.png' class='respPic'></div></div>","1","16","Melon Millions","Fruit/melon.png","Lost","0.65,0.35","14","0.65","226","46","",""
"html-keyboard-response","146","232914","0.0-11.0-2.45","610745dee13497549c9d6fba","bdp_rwlrn","Tue Mar 14 2023 19:37:55 GMT-0400 (Eastern Daylight Time)","516205","Untrustworthy,Trustworthy","","null","","","","decisionFB","","<div class='trialDiv'><img src='Fruit/melon.png'><br><font class='baseline'><strong>Melon Millions</strong><p>Choose number of points to bet.</font><div class='respPicDiv'><img src='img/responseButtonOffersNo0L1.png' class='respPic'></div></div>","null","16","Melon Millions","Fruit/melon.png","Lost","0.65,0.35","14","0.65","225","46","",""
"html-keyboard-response","147","233921","0.0-11.0-3.45","610745dee13497549c9d6fba","bdp_rwlrn","Tue Mar 14 2023 19:37:55 GMT-0400 (Eastern Daylight Time)","516205","Untrustworthy,Trustworthy","","null","","","","feedback","","<div class='respPicDiv'><img src='img/responseButtonOffersNo0_wht.png' class='respPic'></div><div class='trialDiv'><img src='Fruit/melon.png'><br><font class='baseline'><strong>Melon Millions</strong><p><strong><font class='negOutcome'>You LOST</font><p>You bet: 1</strong></font> &nbsp; &nbsp; &nbsp; &nbsp; &nbsp; &nbsp;<font class='negOutcome'>You receive: <strong>0</strong></font></div>","null","16","Melon Millions","Fruit/melon.png","Lost","0.65,0.35","14","0.65","225","46","",""
"html-keyboard-response","148","234577","0.0-11.0-1.46","610745dee13497549c9d6fba","bdp_rwlrn","Tue Mar 14 2023 19:37:55 GMT-0400 (Eastern Daylight Time)","516205","Untrustworthy,Trustworthy","","655","","","","decision","","<div class='trialDiv'><img src='Fruit/apple.png'><br><font class='baseline'><strong>Awesome Apples</strong><p>Choose number of points to bet.</font><div class='respPicDiv'><img src='img/responseButtonOffersNo0L.png' class='respPic'></div></div>","1","16","Awesome Apples","Fruit/apple.png","Lost","0.65,0.2","14","0.65","230","47","",""
"html-keyboard-response","149","234836","0.0-11.0-2.46","610745dee13497549c9d6fba","bdp_rwlrn","Tue Mar 14 2023 19:37:55 GMT-0400 (Eastern Daylight Time)","516205","Untrustworthy,Trustworthy","","null","","","","decisionFB","","<div class='trialDiv'><img src='Fruit/apple.png'><br><font class='baseline'><strong>Awesome Apples</strong><p>Choose number of points to bet.</font><div class='respPicDiv'><img src='img/responseButtonOffersNo0L1.png' class='respPic'></div></div>","null","16","Awesome Apples","Fruit/apple.png","Lost","0.65,0.2","14","0.65","229","47","",""
"html-keyboard-response","150","235840","0.0-11.0-3.46","610745dee13497549c9d6fba","bdp_rwlrn","Tue Mar 14 2023 19:37:55 GMT-0400 (Eastern Daylight Time)","516205","Untrustworthy,Trustworthy","","null","","","","feedback","","<div class='respPicDiv'><img src='img/responseButtonOffersNo0_wht.png' class='respPic'></div><div class='trialDiv'><img src='Fruit/apple.png'><br><font class='baseline'><strong>Awesome Apples</strong><p><strong><font class='negOutcome'>You LOST</font><p>You bet: 1</strong></font> &nbsp; &nbsp; &nbsp; &nbsp; &nbsp; &nbsp;<font class='negOutcome'>You receive: <strong>0</strong></font></div>","null","16","Awesome Apples","Fruit/apple.png","Lost","0.65,0.2","14","0.65","229","47","",""
"html-keyboard-response","151","236397","0.0-11.0-1.47","610745dee13497549c9d6fba","bdp_rwlrn","Tue Mar 14 2023 19:37:55 GMT-0400 (Eastern Daylight Time)","516205","Untrustworthy,Trustworthy","","556","","","","decision","","<div class='trialDiv'><img src='Fruit/mango.png'><br><font class='baseline'><strong>Mega Mangos</strong><p>Choose number of points to bet.</font><div class='respPicDiv'><img src='img/responseButtonOffersNo0L.png' class='respPic'></div></div>","2","16","Mega Mangos","Fruit/mango.png","Lost","0.2,0.65","9","0.2","234","48","",""
"html-keyboard-response","152","236659","0.0-11.0-2.47","610745dee13497549c9d6fba","bdp_rwlrn","Tue Mar 14 2023 19:37:55 GMT-0400 (Eastern Daylight Time)","516205","Untrustworthy,Trustworthy","","null","","","","decisionFB","","<div class='trialDiv'><img src='Fruit/mango.png'><br><font class='baseline'><strong>Mega Mangos</strong><p>Choose number of points to bet.</font><div class='respPicDiv'><img src='img/responseButtonOffersNo0L2.png' class='respPic'></div></div>","null","16","Mega Mangos","Fruit/mango.png","Lost","0.2,0.65","9","0.2","232","48","",""
"html-keyboard-response","153","237667","0.0-11.0-3.47","610745dee13497549c9d6fba","bdp_rwlrn","Tue Mar 14 2023 19:37:55 GMT-0400 (Eastern Daylight Time)","516205","Untrustworthy,Trustworthy","","null","","","","feedback","","<div class='respPicDiv'><img src='img/responseButtonOffersNo0_wht.png' class='respPic'></div><div class='trialDiv'><img src='Fruit/mango.png'><br><font class='baseline'><strong>Mega Mangos</strong><p><strong><font class='negOutcome'>You LOST</font><p>You bet: 2</strong></font> &nbsp; &nbsp; &nbsp; &nbsp; &nbsp; &nbsp;<font class='negOutcome'>You receive: <strong>0</strong></font></div>","null","16","Mega Mangos","Fruit/mango.png","Lost","0.2,0.65","9","0.2","232","48","",""
"html-keyboard-response","154","238111","0.0-11.0-1.48","610745dee13497549c9d6fba","bdp_rwlrn","Tue Mar 14 2023 19:37:55 GMT-0400 (Eastern Daylight Time)","516205","Untrustworthy,Trustworthy","","443","","","","decision","","<div class='trialDiv'><img src='Fruit/apple.png'><br><font class='baseline'><strong>Awesome Apples</strong><p>Choose number of points to bet.</font><div class='respPicDiv'><img src='img/responseButtonOffersNo0L.png' class='respPic'></div></div>","1","17","Awesome Apples","Fruit/apple.png","Lost","0.65,0.2","14","0.65","237","49","",""
"html-keyboard-response","155","238371","0.0-11.0-2.48","610745dee13497549c9d6fba","bdp_rwlrn","Tue Mar 14 2023 19:37:55 GMT-0400 (Eastern Daylight Time)","516205","Untrustworthy,Trustworthy","","null","","","","decisionFB","","<div class='trialDiv'><img src='Fruit/apple.png'><br><font class='baseline'><strong>Awesome Apples</strong><p>Choose number of points to bet.</font><div class='respPicDiv'><img src='img/responseButtonOffersNo0L1.png' class='respPic'></div></div>","null","17","Awesome Apples","Fruit/apple.png","Lost","0.65,0.2","14","0.65","236","49","",""
"html-keyboard-response","156","239376","0.0-11.0-3.48","610745dee13497549c9d6fba","bdp_rwlrn","Tue Mar 14 2023 19:37:55 GMT-0400 (Eastern Daylight Time)","516205","Untrustworthy,Trustworthy","","null","","","","feedback","","<div class='respPicDiv'><img src='img/responseButtonOffersNo0_wht.png' class='respPic'></div><div class='trialDiv'><img src='Fruit/apple.png'><br><font class='baseline'><strong>Awesome Apples</strong><p><strong><font class='negOutcome'>You LOST</font><p>You bet: 1</strong></font> &nbsp; &nbsp; &nbsp; &nbsp; &nbsp; &nbsp;<font class='negOutcome'>You receive: <strong>0</strong></font></div>","null","17","Awesome Apples","Fruit/apple.png","Lost","0.65,0.2","14","0.65","236","49","",""
"html-keyboard-response","157","239851","0.0-11.0-1.49","610745dee13497549c9d6fba","bdp_rwlrn","Tue Mar 14 2023 19:37:55 GMT-0400 (Eastern Daylight Time)","516205","Untrustworthy,Trustworthy","","474","","","","decision","","<div class='trialDiv'><img src='Fruit/mango.png'><br><font class='baseline'><strong>Mega Mangos</strong><p>Choose number of points to bet.</font><div class='respPicDiv'><img src='img/responseButtonOffersNo0L.png' class='respPic'></div></div>","1","17","Mega Mangos","Fruit/mango.png","Won","0.2,0.65","9","0.2","241","50","",""
"html-keyboard-response","158","240107","0.0-11.0-2.49","610745dee13497549c9d6fba","bdp_rwlrn","Tue Mar 14 2023 19:37:55 GMT-0400 (Eastern Daylight Time)","516205","Untrustworthy,Trustworthy","","null","","","","decisionFB","","<div class='trialDiv'><img src='Fruit/mango.png'><br><font class='baseline'><strong>Mega Mangos</strong><p>Choose number of points to bet.</font><div class='respPicDiv'><img src='img/responseButtonOffersNo0L1.png' class='respPic'></div></div>","null","17","Mega Mangos","Fruit/mango.png","Won","0.2,0.65","9","0.2","240","50","",""
"html-keyboard-response","159","241114","0.0-11.0-3.49","610745dee13497549c9d6fba","bdp_rwlrn","Tue Mar 14 2023 19:37:55 GMT-0400 (Eastern Daylight Time)","516205","Untrustworthy,Trustworthy","","null","","","","feedback","","<div class='respPicDiv'><img src='img/responseButtonOffersNo0_wht.png' class='respPic'></div><div class='trialDiv'><img src='Fruit/mango.png'><br><font class='baseline'><strong>Mega Mangos</strong><p><strong><font class='posOutcome'>You WON</font><p>You bet: 1</strong></font> &nbsp; &nbsp; &nbsp; &nbsp; &nbsp; &nbsp;<font class='posOutcome'>you receive: <strong>2</strong></font></div>","null","17","Mega Mangos","Fruit/mango.png","Won","0.2,0.65","9","0.2","242","50","",""
"html-keyboard-response","160","242001","0.0-11.0-1.50","610745dee13497549c9d6fba","bdp_rwlrn","Tue Mar 14 2023 19:37:55 GMT-0400 (Eastern Daylight Time)","516205","Untrustworthy,Trustworthy","","886","","","","decision","","<div class='trialDiv'><img src='Fruit/melon.png'><br><font class='baseline'><strong>Melon Millions</strong><p>Choose number of points to bet.</font><div class='respPicDiv'><img src='img/responseButtonOffersNo0L.png' class='respPic'></div></div>","1","17","Melon Millions","Fruit/melon.png","Lost","0.65,0.35","14","0.65","247","51","",""
"html-keyboard-response","161","242261","0.0-11.0-2.50","610745dee13497549c9d6fba","bdp_rwlrn","Tue Mar 14 2023 19:37:55 GMT-0400 (Eastern Daylight Time)","516205","Untrustworthy,Trustworthy","","null","","","","decisionFB","","<div class='trialDiv'><img src='Fruit/melon.png'><br><font class='baseline'><strong>Melon Millions</strong><p>Choose number of points to bet.</font><div class='respPicDiv'><img src='img/responseButtonOffersNo0L1.png' class='respPic'></div></div>","null","17","Melon Millions","Fruit/melon.png","Lost","0.65,0.35","14","0.65","246","51","",""
"html-keyboard-response","162","243265","0.0-11.0-3.50","610745dee13497549c9d6fba","bdp_rwlrn","Tue Mar 14 2023 19:37:55 GMT-0400 (Eastern Daylight Time)","516205","Untrustworthy,Trustworthy","","null","","","","feedback","","<div class='respPicDiv'><img src='img/responseButtonOffersNo0_wht.png' class='respPic'></div><div class='trialDiv'><img src='Fruit/melon.png'><br><font class='baseline'><strong>Melon Millions</strong><p><strong><font class='negOutcome'>You LOST</font><p>You bet: 1</strong></font> &nbsp; &nbsp; &nbsp; &nbsp; &nbsp; &nbsp;<font class='negOutcome'>You receive: <strong>0</strong></font></div>","null","17","Melon Millions","Fruit/melon.png","Lost","0.65,0.35","14","0.65","246","51","",""
"html-keyboard-response","163","243833","0.0-11.0-1.51","610745dee13497549c9d6fba","bdp_rwlrn","Tue Mar 14 2023 19:37:55 GMT-0400 (Eastern Daylight Time)","516205","Untrustworthy,Trustworthy","","567","","","","decision","","<div class='trialDiv'><img src='Fruit/apple.png'><br><font class='baseline'><strong>Awesome Apples</strong><p>Choose number of points to bet.</font><div class='respPicDiv'><img src='img/responseButtonOffersNo0L.png' class='respPic'></div></div>","1","18","Awesome Apples","Fruit/apple.png","Won","0.65,0.2","14","0.65","251","52","",""
