"event","trial","time","trialtype","subject_id","task","startTime","totalTime","labels","trial_type","trial_index","time_elapsed","internal_node_id","view_history","rt","success","stimulus","key_press","ltround","name","fileID","outcome","lottotype","lottoswpt","lottocurrpshare","point_total","round","faceID","face"
"focus","0","0","focusevent","63f3a7e45f338798fd025d99","bdp_rwlrn","Wed Mar 15 2023 14:30:37 GMT-0500 (Central Daylight Time)","382881","Untrustworthy,Trustworthy","","","","","","","","","","","","","","","","","","","",""
"","","","","63f3a7e45f338798fd025d99","bdp_rwlrn","Wed Mar 15 2023 14:30:37 GMT-0500 (Central Daylight Time)","382881","Untrustworthy,Trustworthy","pavlovia","0","1","0.0-0.0","","","","","","","","","","","","","","","",""
"","","","","63f3a7e45f338798fd025d99","bdp_rwlrn","Wed Mar 15 2023 14:30:37 GMT-0500 (Central Daylight Time)","382881","Untrustworthy,Trustworthy","instructions","1","7439","0.0-1.0","[{""page_index"":0,""viewing_time"":7437}]","7437","","","","","","","","","","","","","",""
"fullscreenexit","2","15884","fullscreenexit","63f3a7e45f338798fd025d99","bdp_rwlrn","Wed Mar 15 2023 14:30:37 GMT-0500 (Central Daylight Time)","382881","Untrustworthy,Trustworthy","","","","","","","","","","","","","","","","","","","",""
"","","","","63f3a7e45f338798fd025d99","bdp_rwlrn","Wed Mar 15 2023 14:30:37 GMT-0500 (Central Daylight Time)","382881","Untrustworthy,Trustworthy","fullscreen","2","16688","0.0-2.0","","","true","","","","","","","","","","","","",""
"","","","fullscreenfail","63f3a7e45f338798fd025d99","bdp_rwlrn","Wed Mar 15 2023 14:30:37 GMT-0500 (Central Daylight Time)","382881","Untrustworthy,Trustworthy","image-keyboard-response","3","22303","0.0-3.0-0.0","","5612","","","32","","","","","","","","","","",""
"","","","","63f3a7e45f338798fd025d99","bdp_rwlrn","Wed Mar 15 2023 14:30:37 GMT-0500 (Central Daylight Time)","382881","Untrustworthy,Trustworthy","instructions","4","78925","0.0-4.0","[{""page_index"":0,""viewing_time"":6252},{""page_index"":1,""viewing_time"":11229},{""page_index"":2,""viewing_time"":1352},{""page_index"":3,""viewing_time"":5035},{""page_index"":4,""viewing_time"":19388},{""page_index"":5,""viewing_time"":13115}]","56371","","","","","","","","","","","","","",""
"","","","","63f3a7e45f338798fd025d99","bdp_rwlrn","Wed Mar 15 2023 14:30:37 GMT-0500 (Central Daylight Time)","382881","Untrustworthy,Trustworthy","html-keyboard-response","5","86013","0.0-5.0","","7087","","<div class='header' style='text-align:left; position: absolute; top: 5%; left: 5%;'><small>Task 3 of 5</small></div><div class='instruxDiv'><p><strong>1) What is the maximum number of points you can choose to bet on a lottery?</strong></p><p>a) 0</p><p>b) 1</p><p>c) 5</p>","C","","","","","","","","","","",""
"","","","","63f3a7e45f338798fd025d99","bdp_rwlrn","Wed Mar 15 2023 14:30:37 GMT-0500 (Central Daylight Time)","382881","Untrustworthy,Trustworthy","html-keyboard-response","6","88137","0.0-6.0","","2019","","<div class='header' style='text-align:left; position: absolute; top: 5%; left: 5%;'><small>Task 3 of 5</small></div><div class='instruxDiv'><p><strong>1) What is the maximum number of points you can choose to bet on a lottery?</strong></p><p>a) 1</p><p>b) 1</p><p style='color:#00FF00'>c) 5</p><h3 style='color:#00FF00'>Correct!</h3><h3 class='center-content'>The correct response is c).</h3><h3 class='center-content'>The maximum number of points you can choose to bet on a lottery is 5 points.</h3><p><em>Press SPACEBAR to continue</em></p></div>"," ","","","","","","","","","","",""
"","","","","63f3a7e45f338798fd025d99","bdp_rwlrn","Wed Mar 15 2023 14:30:37 GMT-0500 (Central Daylight Time)","382881","Untrustworthy,Trustworthy","html-keyboard-response","7","91247","0.0-7.0","","3006","","<div class='header' style='text-align:left; position: absolute; top: 5%; left: 5%;'><small>Task 3 of 5</small></div><div class='instruxDiv'><p><strong>2) How many points can you win each round?</strong></p><p>a) 10 points</p><p>b) Double what you bet</p><p>c) Quadruple what you bet</p>","C","","","","","","","","","","",""
"","","","","63f3a7e45f338798fd025d99","bdp_rwlrn","Wed Mar 15 2023 14:30:37 GMT-0500 (Central Daylight Time)","382881","Untrustworthy,Trustworthy","html-keyboard-response","8","93870","0.0-8.0","","2511","","<div class='header' style='text-align:left; position: absolute; top: 5%; left: 5%;'><small>Task 3 of 5</small></div><div class='instruxDiv'><p><strong>2) How many points can you win each round?</strong></p><p>a) 10 points</p><p>b) Double what you bet</p><p style='color:#FF0000'>c) Quadruple what you bet</p><h3 style='color:#FF0000'>Incorrect!</h3><h3 class='center-content'>The correct response is b).</h3><h3 class='center-content'>You can win double the amount of points you bet.</h3><p><em>Press SPACEBAR to continue</em></p></div>"," ","","","","","","","","","","",""
"","","","","63f3a7e45f338798fd025d99","bdp_rwlrn","Wed Mar 15 2023 14:30:37 GMT-0500 (Central Daylight Time)","382881","Untrustworthy,Trustworthy","html-keyboard-response","9","98990","0.0-9.0","","null","","<div class='header' style='text-align:left; position: absolute; top: 5%; left: 5%;'><small>Task 3 of 5</small></div><div class='instruxDiv'><p>Thank you for completing the quiz<p>These are the actual lotteries you will be playing in the next block:<p><div class='tc' align='center'><img class='introPic' src='Fruit/papayas.png'><br><strong>Papaya Payday</strong></div><div class='bl' align='center'><img class='introPic' src='Fruit/apple.png'><br><strong>Awesome Apples</strong></div><div class='br' align='center'><img class='introPic' src='Fruit/pears.png'><br><strong>Pears Aplenty</strong></div></div><p>Across <strong>66 rounds</strong> you will play each lottery <strong>22 times</strong> (in random order).<p style='align:center; color:white'><font <em>Press SPACEBAR to continue</em></p>","null","","","","","","","","","","",""
"","","","","63f3a7e45f338798fd025d99","bdp_rwlrn","Wed Mar 15 2023 14:30:37 GMT-0500 (Central Daylight Time)","382881","Untrustworthy,Trustworthy","instructions","10","102151","0.0-10.0","[{""page_index"":0,""viewing_time"":2349},{""page_index"":1,""viewing_time"":811}]","3160","","","","","","","","","","","","","",""
"","","","decision","63f3a7e45f338798fd025d99","bdp_rwlrn","Wed Mar 15 2023 14:30:37 GMT-0500 (Central Daylight Time)","382881","Untrustworthy,Trustworthy","html-keyboard-response","11","108251","0.0-11.0-1.0","","5991","","<div class='trialDiv'><img src='Fruit/papayas.png'><br><font class='baseline'><strong>Papaya Payday</strong><p>Choose number of points to bet.</font><div class='respPicDiv'><img src='img/responseButtonOffersNo0L.png' class='respPic'></div></div>","5","1","Papaya Payday","Fruit/papayas.png","Lost","0.35,0.8","12","0.35","5","1","",""
"","","","decisionFB","63f3a7e45f338798fd025d99","bdp_rwlrn","Wed Mar 15 2023 14:30:37 GMT-0500 (Central Daylight Time)","382881","Untrustworthy,Trustworthy","html-keyboard-response","12","108513","0.0-11.0-2.0","","null","","<div class='trialDiv'><img src='Fruit/papayas.png'><br><font class='baseline'><strong>Papaya Payday</strong><p>Choose number of points to bet.</font><div class='respPicDiv'><img src='img/responseButtonOffersNo0L5.png' class='respPic'></div></div>","null","1","Papaya Payday","Fruit/papayas.png","Lost","0.35,0.8","12","0.35","0","1","",""
"","","","feedback","63f3a7e45f338798fd025d99","bdp_rwlrn","Wed Mar 15 2023 14:30:37 GMT-0500 (Central Daylight Time)","382881","Untrustworthy,Trustworthy","html-keyboard-response","13","109516","0.0-11.0-3.0","","null","","<div class='respPicDiv'><img src='img/responseButtonOffersNo0_wht.png' class='respPic'></div><div class='trialDiv'><img src='Fruit/papayas.png'><br><font class='baseline'><strong>Papaya Payday</strong><p><strong><font class='negOutcome'>You LOST</font><p>You bet: 5</strong></font> &nbsp; &nbsp; &nbsp; &nbsp; &nbsp; &nbsp;<font class='negOutcome'>You receive: <strong>0</strong></font></div>","null","1","Papaya Payday","Fruit/papayas.png","Lost","0.35,0.8","12","0.35","0","1","",""
"","","","decision","63f3a7e45f338798fd025d99","bdp_rwlrn","Wed Mar 15 2023 14:30:37 GMT-0500 (Central Daylight Time)","382881","Untrustworthy,Trustworthy","html-keyboard-response","14","111342","0.0-11.0-1.1","","1825","","<div class='trialDiv'><img src='Fruit/pears.png'><br><font class='baseline'><strong>Pears Aplenty</strong><p>Choose number of points to bet.</font><div class='respPicDiv'><img src='img/responseButtonOffersNo0L.png' class='respPic'></div></div>","5","1","Pears Aplenty","Fruit/pears.png","Won","0.8,0.35","12","0.8","5","2","",""
"","","","decisionFB","63f3a7e45f338798fd025d99","bdp_rwlrn","Wed Mar 15 2023 14:30:37 GMT-0500 (Central Daylight Time)","382881","Untrustworthy,Trustworthy","html-keyboard-response","15","111605","0.0-11.0-2.1","","null","","<div class='trialDiv'><img src='Fruit/pears.png'><br><font class='baseline'><strong>Pears Aplenty</strong><p>Choose number of points to bet.</font><div class='respPicDiv'><img src='img/responseButtonOffersNo0L5.png' class='respPic'></div></div>","null","1","Pears Aplenty","Fruit/pears.png","Won","0.8,0.35","12","0.8","0","2","",""
"","","","feedback","63f3a7e45f338798fd025d99","bdp_rwlrn","Wed Mar 15 2023 14:30:37 GMT-0500 (Central Daylight Time)","382881","Untrustworthy,Trustworthy","html-keyboard-response","16","112618","0.0-11.0-3.1","","null","","<div class='respPicDiv'><img src='img/responseButtonOffersNo0_wht.png' class='respPic'></div><div class='trialDiv'><img src='Fruit/pears.png'><br><font class='baseline'><strong>Pears Aplenty</strong><p><strong><font class='posOutcome'>You WON</font><p>You bet: 5</strong></font> &nbsp; &nbsp; &nbsp; &nbsp; &nbsp; &nbsp;<font class='posOutcome'>you receive: <strong>10</strong></font></div>","null","1","Pears Aplenty","Fruit/pears.png","Won","0.8,0.35","12","0.8","10","2","",""
"","","","decision","63f3a7e45f338798fd025d99","bdp_rwlrn","Wed Mar 15 2023 14:30:37 GMT-0500 (Central Daylight Time)","382881","Untrustworthy,Trustworthy","html-keyboard-response","17","113373","0.0-11.0-1.2","","752","","<div class='trialDiv'><img src='Fruit/apple.png'><br><font class='baseline'><strong>Awesome Apples</strong><p>Choose number of points to bet.</font><div class='respPicDiv'><img src='img/responseButtonOffersNo0L.png' class='respPic'></div></div>","5","1","Awesome Apples","Fruit/apple.png","Lost","0.2,0.8","11","0.2","15","3","",""
"","","","decisionFB","63f3a7e45f338798fd025d99","bdp_rwlrn","Wed Mar 15 2023 14:30:37 GMT-0500 (Central Daylight Time)","382881","Untrustworthy,Trustworthy","html-keyboard-response","18","113638","0.0-11.0-2.2","","null","","<div class='trialDiv'><img src='Fruit/apple.png'><br><font class='baseline'><strong>Awesome Apples</strong><p>Choose number of points to bet.</font><div class='respPicDiv'><img src='img/responseButtonOffersNo0L5.png' class='respPic'></div></div>","null","1","Awesome Apples","Fruit/apple.png","Lost","0.2,0.8","11","0.2","10","3","",""
"","","","feedback","63f3a7e45f338798fd025d99","bdp_rwlrn","Wed Mar 15 2023 14:30:37 GMT-0500 (Central Daylight Time)","382881","Untrustworthy,Trustworthy","html-keyboard-response","19","114646","0.0-11.0-3.2","","null","","<div class='respPicDiv'><img src='img/responseButtonOffersNo0_wht.png' class='respPic'></div><div class='trialDiv'><img src='Fruit/apple.png'><br><font class='baseline'><strong>Awesome Apples</strong><p><strong><font class='negOutcome'>You LOST</font><p>You bet: 5</strong></font> &nbsp; &nbsp; &nbsp; &nbsp; &nbsp; &nbsp;<font class='negOutcome'>You receive: <strong>0</strong></font></div>","null","1","Awesome Apples","Fruit/apple.png","Lost","0.2,0.8","11","0.2","10","3","",""
"","","","decision","63f3a7e45f338798fd025d99","bdp_rwlrn","Wed Mar 15 2023 14:30:37 GMT-0500 (Central Daylight Time)","382881","Untrustworthy,Trustworthy","html-keyboard-response","20","116499","0.0-11.0-1.3","","1852","","<div class='trialDiv'><img src='Fruit/pears.png'><br><font class='baseline'><strong>Pears Aplenty</strong><p>Choose number of points to bet.</font><div class='respPicDiv'><img src='img/responseButtonOffersNo0L.png' class='respPic'></div></div>","3","2","Pears Aplenty","Fruit/pears.png","Won","0.8,0.35","12","0.8","15","4","",""
"","","","decisionFB","63f3a7e45f338798fd025d99","bdp_rwlrn","Wed Mar 15 2023 14:30:37 GMT-0500 (Central Daylight Time)","382881","Untrustworthy,Trustworthy","html-keyboard-response","21","116750","0.0-11.0-2.3","","null","","<div class='trialDiv'><img src='Fruit/pears.png'><br><font class='baseline'><strong>Pears Aplenty</strong><p>Choose number of points to bet.</font><div class='respPicDiv'><img src='img/responseButtonOffersNo0L3.png' class='respPic'></div></div>","null","2","Pears Aplenty","Fruit/pears.png","Won","0.8,0.35","12","0.8","12","4","",""
"","","","feedback","63f3a7e45f338798fd025d99","bdp_rwlrn","Wed Mar 15 2023 14:30:37 GMT-0500 (Central Daylight Time)","382881","Untrustworthy,Trustworthy","html-keyboard-response","22","117759","0.0-11.0-3.3","","null","","<div class='respPicDiv'><img src='img/responseButtonOffersNo0_wht.png' class='respPic'></div><div class='trialDiv'><img src='Fruit/pears.png'><br><font class='baseline'><strong>Pears Aplenty</strong><p><strong><font class='posOutcome'>You WON</font><p>You bet: 3</strong></font> &nbsp; &nbsp; &nbsp; &nbsp; &nbsp; &nbsp;<font class='posOutcome'>you receive: <strong>6</strong></font></div>","null","2","Pears Aplenty","Fruit/pears.png","Won","0.8,0.35","12","0.8","18","4","",""
"","","","decision","63f3a7e45f338798fd025d99","bdp_rwlrn","Wed Mar 15 2023 14:30:37 GMT-0500 (Central Daylight Time)","382881","Untrustworthy,Trustworthy","html-keyboard-response","23","118835","0.0-11.0-1.4","","1076","","<div class='trialDiv'><img src='Fruit/papayas.png'><br><font class='baseline'><strong>Papaya Payday</strong><p>Choose number of points to bet.</font><div class='respPicDiv'><img src='img/responseButtonOffersNo0L.png' class='respPic'></div></div>","4","2","Papaya Payday","Fruit/papayas.png","Won","0.35,0.8","12","0.35","23","5","",""
"","","","decisionFB","63f3a7e45f338798fd025d99","bdp_rwlrn","Wed Mar 15 2023 14:30:37 GMT-0500 (Central Daylight Time)","382881","Untrustworthy,Trustworthy","html-keyboard-response","24","119095","0.0-11.0-2.4","","null","","<div class='trialDiv'><img src='Fruit/papayas.png'><br><font class='baseline'><strong>Papaya Payday</strong><p>Choose number of points to bet.</font><div class='respPicDiv'><img src='img/responseButtonOffersNo0L4.png' class='respPic'></div></div>","null","2","Papaya Payday","Fruit/papayas.png","Won","0.35,0.8","12","0.35","19","5","",""
"","","","feedback","63f3a7e45f338798fd025d99","bdp_rwlrn","Wed Mar 15 2023 14:30:37 GMT-0500 (Central Daylight Time)","382881","Untrustworthy,Trustworthy","html-keyboard-response","25","120099","0.0-11.0-3.4","","null","","<div class='respPicDiv'><img src='img/responseButtonOffersNo0_wht.png' class='respPic'></div><div class='trialDiv'><img src='Fruit/papayas.png'><br><font class='baseline'><strong>Papaya Payday</strong><p><strong><font class='posOutcome'>You WON</font><p>You bet: 4</strong></font> &nbsp; &nbsp; &nbsp; &nbsp; &nbsp; &nbsp;<font class='posOutcome'>you receive: <strong>8</strong></font></div>","null","2","Papaya Payday","Fruit/papayas.png","Won","0.35,0.8","12","0.35","27","5","",""
"","","","decision","63f3a7e45f338798fd025d99","bdp_rwlrn","Wed Mar 15 2023 14:30:37 GMT-0500 (Central Daylight Time)","382881","Untrustworthy,Trustworthy","html-keyboard-response","26","121369","0.0-11.0-1.5","","1269","","<div class='trialDiv'><img src='Fruit/apple.png'><br><font class='baseline'><strong>Awesome Apples</strong><p>Choose number of points to bet.</font><div class='respPicDiv'><img src='img/responseButtonOffersNo0L.png' class='respPic'></div></div>","4","2","Awesome Apples","Fruit/apple.png","Lost","0.2,0.8","11","0.2","32","6","",""
"","","","decisionFB","63f3a7e45f338798fd025d99","bdp_rwlrn","Wed Mar 15 2023 14:30:37 GMT-0500 (Central Daylight Time)","382881","Untrustworthy,Trustworthy","html-keyboard-response","27","121636","0.0-11.0-2.5","","null","","<div class='trialDiv'><img src='Fruit/apple.png'><br><font class='baseline'><strong>Awesome Apples</strong><p>Choose number of points to bet.</font><div class='respPicDiv'><img src='img/responseButtonOffersNo0L4.png' class='respPic'></div></div>","null","2","Awesome Apples","Fruit/apple.png","Lost","0.2,0.8","11","0.2","28","6","",""
"","","","feedback","63f3a7e45f338798fd025d99","bdp_rwlrn","Wed Mar 15 2023 14:30:37 GMT-0500 (Central Daylight Time)","382881","Untrustworthy,Trustworthy","html-keyboard-response","28","122640","0.0-11.0-3.5","","null","","<div class='respPicDiv'><img src='img/responseButtonOffersNo0_wht.png' class='respPic'></div><div class='trialDiv'><img src='Fruit/apple.png'><br><font class='baseline'><strong>Awesome Apples</strong><p><strong><font class='negOutcome'>You LOST</font><p>You bet: 4</strong></font> &nbsp; &nbsp; &nbsp; &nbsp; &nbsp; &nbsp;<font class='negOutcome'>You receive: <strong>0</strong></font></div>","null","2","Awesome Apples","Fruit/apple.png","Lost","0.2,0.8","11","0.2","28","6","",""
"","","","decision","63f3a7e45f338798fd025d99","bdp_rwlrn","Wed Mar 15 2023 14:30:37 GMT-0500 (Central Daylight Time)","382881","Untrustworthy,Trustworthy","html-keyboard-response","29","123142","0.0-11.0-1.6","","501","","<div class='trialDiv'><img src='Fruit/papayas.png'><br><font class='baseline'><strong>Papaya Payday</strong><p>Choose number of points to bet.</font><div class='respPicDiv'><img src='img/responseButtonOffersNo0L.png' class='respPic'></div></div>","3","3","Papaya Payday","Fruit/papayas.png","Lost","0.35,0.8","12","0.35","33","7","",""
"","","","decisionFB","63f3a7e45f338798fd025d99","bdp_rwlrn","Wed Mar 15 2023 14:30:37 GMT-0500 (Central Daylight Time)","382881","Untrustworthy,Trustworthy","html-keyboard-response","30","123404","0.0-11.0-2.6","","null","","<div class='trialDiv'><img src='Fruit/papayas.png'><br><font class='baseline'><strong>Papaya Payday</strong><p>Choose number of points to bet.</font><div class='respPicDiv'><img src='img/responseButtonOffersNo0L3.png' class='respPic'></div></div>","null","3","Papaya Payday","Fruit/papayas.png","Lost","0.35,0.8","12","0.35","30","7","",""
"","","","feedback","63f3a7e45f338798fd025d99","bdp_rwlrn","Wed Mar 15 2023 14:30:37 GMT-0500 (Central Daylight Time)","382881","Untrustworthy,Trustworthy","html-keyboard-response","31","124412","0.0-11.0-3.6","","null","","<div class='respPicDiv'><img src='img/responseButtonOffersNo0_wht.png' class='respPic'></div><div class='trialDiv'><img src='Fruit/papayas.png'><br><font class='baseline'><strong>Papaya Payday</strong><p><strong><font class='negOutcome'>You LOST</font><p>You bet: 3</strong></font> &nbsp; &nbsp; &nbsp; &nbsp; &nbsp; &nbsp;<font class='negOutcome'>You receive: <strong>0</strong></font></div>","null","3","Papaya Payday","Fruit/papayas.png","Lost","0.35,0.8","12","0.35","30","7","",""
"","","","decision","63f3a7e45f338798fd025d99","bdp_rwlrn","Wed Mar 15 2023 14:30:37 GMT-0500 (Central Daylight Time)","382881","Untrustworthy,Trustworthy","html-keyboard-response","32","127584","0.0-11.0-1.7","","3171","","<div class='trialDiv'><img src='Fruit/apple.png'><br><font class='baseline'><strong>Awesome Apples</strong><p>Choose number of points to bet.</font><div class='respPicDiv'><img src='img/responseButtonOffersNo0L.png' class='respPic'></div></div>","5","3","Awesome Apples","Fruit/apple.png","Lost","0.2,0.8","11","0.2","35","8","",""
"","","","decisionFB","63f3a7e45f338798fd025d99","bdp_rwlrn","Wed Mar 15 2023 14:30:37 GMT-0500 (Central Daylight Time)","382881","Untrustworthy,Trustworthy","html-keyboard-response","33","127843","0.0-11.0-2.7","","null","","<div class='trialDiv'><img src='Fruit/apple.png'><br><font class='baseline'><strong>Awesome Apples</strong><p>Choose number of points to bet.</font><div class='respPicDiv'><img src='img/responseButtonOffersNo0L5.png' class='respPic'></div></div>","null","3","Awesome Apples","Fruit/apple.png","Lost","0.2,0.8","11","0.2","30","8","",""
"","","","feedback","63f3a7e45f338798fd025d99","bdp_rwlrn","Wed Mar 15 2023 14:30:37 GMT-0500 (Central Daylight Time)","382881","Untrustworthy,Trustworthy","html-keyboard-response","34","128851","0.0-11.0-3.7","","null","","<div class='respPicDiv'><img src='img/responseButtonOffersNo0_wht.png' class='respPic'></div><div class='trialDiv'><img src='Fruit/apple.png'><br><font class='baseline'><strong>Awesome Apples</strong><p><strong><font class='negOutcome'>You LOST</font><p>You bet: 5</strong></font> &nbsp; &nbsp; &nbsp; &nbsp; &nbsp; &nbsp;<font class='negOutcome'>You receive: <strong>0</strong></font></div>","null","3","Awesome Apples","Fruit/apple.png","Lost","0.2,0.8","11","0.2","30","8","",""
"","","","decision","63f3a7e45f338798fd025d99","bdp_rwlrn","Wed Mar 15 2023 14:30:37 GMT-0500 (Central Daylight Time)","382881","Untrustworthy,Trustworthy","html-keyboard-response","35","129182","0.0-11.0-1.8","","329","","<div class='trialDiv'><img src='Fruit/pears.png'><br><font class='baseline'><strong>Pears Aplenty</strong><p>Choose number of points to bet.</font><div class='respPicDiv'><img src='img/responseButtonOffersNo0L.png' class='respPic'></div></div>","2","3","Pears Aplenty","Fruit/pears.png","Won","0.8,0.35","12","0.8","35","9","",""
"","","","decisionFB","63f3a7e45f338798fd025d99","bdp_rwlrn","Wed Mar 15 2023 14:30:37 GMT-0500 (Central Daylight Time)","382881","Untrustworthy,Trustworthy","html-keyboard-response","36","129443","0.0-11.0-2.8","","null","","<div class='trialDiv'><img src='Fruit/pears.png'><br><font class='baseline'><strong>Pears Aplenty</strong><p>Choose number of points to bet.</font><div class='respPicDiv'><img src='img/responseButtonOffersNo0L2.png' class='respPic'></div></div>","null","3","Pears Aplenty","Fruit/pears.png","Won","0.8,0.35","12","0.8","33","9","",""
"","","","feedback","63f3a7e45f338798fd025d99","bdp_rwlrn","Wed Mar 15 2023 14:30:37 GMT-0500 (Central Daylight Time)","382881","Untrustworthy,Trustworthy","html-keyboard-response","37","130451","0.0-11.0-3.8","","null","","<div class='respPicDiv'><img src='img/responseButtonOffersNo0_wht.png' class='respPic'></div><div class='trialDiv'><img src='Fruit/pears.png'><br><font class='baseline'><strong>Pears Aplenty</strong><p><strong><font class='posOutcome'>You WON</font><p>You bet: 2</strong></font> &nbsp; &nbsp; &nbsp; &nbsp; &nbsp; &nbsp;<font class='posOutcome'>you receive: <strong>4</strong></font></div>","null","3","Pears Aplenty","Fruit/pears.png","Won","0.8,0.35","12","0.8","37","9","",""
"","","","decision","63f3a7e45f338798fd025d99","bdp_rwlrn","Wed Mar 15 2023 14:30:37 GMT-0500 (Central Daylight Time)","382881","Untrustworthy,Trustworthy","html-keyboard-response","38","131114","0.0-11.0-1.9","","663","","<div class='trialDiv'><img src='Fruit/apple.png'><br><font class='baseline'><strong>Awesome Apples</strong><p>Choose number of points to bet.</font><div class='respPicDiv'><img src='img/responseButtonOffersNo0L.png' class='respPic'></div></div>","1","4","Awesome Apples","Fruit/apple.png","Won","0.2,0.8","11","0.2","42","10","",""
"","","","decisionFB","63f3a7e45f338798fd025d99","bdp_rwlrn","Wed Mar 15 2023 14:30:37 GMT-0500 (Central Daylight Time)","382881","Untrustworthy,Trustworthy","html-keyboard-response","39","131377","0.0-11.0-2.9","","null","","<div class='trialDiv'><img src='Fruit/apple.png'><br><font class='baseline'><strong>Awesome Apples</strong><p>Choose number of points to bet.</font><div class='respPicDiv'><img src='img/responseButtonOffersNo0L1.png' class='respPic'></div></div>","null","4","Awesome Apples","Fruit/apple.png","Won","0.2,0.8","11","0.2","41","10","",""
"","","","feedback","63f3a7e45f338798fd025d99","bdp_rwlrn","Wed Mar 15 2023 14:30:37 GMT-0500 (Central Daylight Time)","382881","Untrustworthy,Trustworthy","html-keyboard-response","40","132384","0.0-11.0-3.9","","null","","<div class='respPicDiv'><img src='img/responseButtonOffersNo0_wht.png' class='respPic'></div><div class='trialDiv'><img src='Fruit/apple.png'><br><font class='baseline'><strong>Awesome Apples</strong><p><strong><font class='posOutcome'>You WON</font><p>You bet: 1</strong></font> &nbsp; &nbsp; &nbsp; &nbsp; &nbsp; &nbsp;<font class='posOutcome'>you receive: <strong>2</strong></font></div>","null","4","Awesome Apples","Fruit/apple.png","Won","0.2,0.8","11","0.2","43","10","",""
"","","","decision","63f3a7e45f338798fd025d99","bdp_rwlrn","Wed Mar 15 2023 14:30:37 GMT-0500 (Central Daylight Time)","382881","Untrustworthy,Trustworthy","html-keyboard-response","41","133193","0.0-11.0-1.10","","808","","<div class='trialDiv'><img src='Fruit/pears.png'><br><font class='baseline'><strong>Pears Aplenty</strong><p>Choose number of points to bet.</font><div class='respPicDiv'><img src='img/responseButtonOffersNo0L.png' class='respPic'></div></div>","2","4","Pears Aplenty","Fruit/pears.png","Won","0.8,0.35","12","0.8","48","11","",""
"","","","decisionFB","63f3a7e45f338798fd025d99","bdp_rwlrn","Wed Mar 15 2023 14:30:37 GMT-0500 (Central Daylight Time)","382881","Untrustworthy,Trustworthy","html-keyboard-response","42","133457","0.0-11.0-2.10","","null","","<div class='trialDiv'><img src='Fruit/pears.png'><br><font class='baseline'><strong>Pears Aplenty</strong><p>Choose number of points to bet.</font><div class='respPicDiv'><img src='img/responseButtonOffersNo0L2.png' class='respPic'></div></div>","null","4","Pears Aplenty","Fruit/pears.png","Won","0.8,0.35","12","0.8","46","11","",""
"","","","feedback","63f3a7e45f338798fd025d99","bdp_rwlrn","Wed Mar 15 2023 14:30:37 GMT-0500 (Central Daylight Time)","382881","Untrustworthy,Trustworthy","html-keyboard-response","43","134465","0.0-11.0-3.10","","null","","<div class='respPicDiv'><img src='img/responseButtonOffersNo0_wht.png' class='respPic'></div><div class='trialDiv'><img src='Fruit/pears.png'><br><font class='baseline'><strong>Pears Aplenty</strong><p><strong><font class='posOutcome'>You WON</font><p>You bet: 2</strong></font> &nbsp; &nbsp; &nbsp; &nbsp; &nbsp; &nbsp;<font class='posOutcome'>you receive: <strong>4</strong></font></div>","null","4","Pears Aplenty","Fruit/pears.png","Won","0.8,0.35","12","0.8","50","11","",""
"","","","decision","63f3a7e45f338798fd025d99","bdp_rwlrn","Wed Mar 15 2023 14:30:37 GMT-0500 (Central Daylight Time)","382881","Untrustworthy,Trustworthy","html-keyboard-response","44","136077","0.0-11.0-1.11","","1611","","<div class='trialDiv'><img src='Fruit/papayas.png'><br><font class='baseline'><strong>Papaya Payday</strong><p>Choose number of points to bet.</font><div class='respPicDiv'><img src='img/responseButtonOffersNo0L.png' class='respPic'></div></div>","4","4","Papaya Payday","Fruit/papayas.png","Lost","0.35,0.8","12","0.35","55","12","",""
"","","","decisionFB","63f3a7e45f338798fd025d99","bdp_rwlrn","Wed Mar 15 2023 14:30:37 GMT-0500 (Central Daylight Time)","382881","Untrustworthy,Trustworthy","html-keyboard-response","45","136335","0.0-11.0-2.11","","null","","<div class='trialDiv'><img src='Fruit/papayas.png'><br><font class='baseline'><strong>Papaya Payday</strong><p>Choose number of points to bet.</font><div class='respPicDiv'><img src='img/responseButtonOffersNo0L4.png' class='respPic'></div></div>","null","4","Papaya Payday","Fruit/papayas.png","Lost","0.35,0.8","12","0.35","51","12","",""
"","","","feedback","63f3a7e45f338798fd025d99","bdp_rwlrn","Wed Mar 15 2023 14:30:37 GMT-0500 (Central Daylight Time)","382881","Untrustworthy,Trustworthy","html-keyboard-response","46","137344","0.0-11.0-3.11","","null","","<div class='respPicDiv'><img src='img/responseButtonOffersNo0_wht.png' class='respPic'></div><div class='trialDiv'><img src='Fruit/papayas.png'><br><font class='baseline'><strong>Papaya Payday</strong><p><strong><font class='negOutcome'>You LOST</font><p>You bet: 4</strong></font> &nbsp; &nbsp; &nbsp; &nbsp; &nbsp; &nbsp;<font class='negOutcome'>You receive: <strong>0</strong></font></div>","null","4","Papaya Payday","Fruit/papayas.png","Lost","0.35,0.8","12","0.35","51","12","",""
"","","","decision","63f3a7e45f338798fd025d99","bdp_rwlrn","Wed Mar 15 2023 14:30:37 GMT-0500 (Central Daylight Time)","382881","Untrustworthy,Trustworthy","html-keyboard-response","47","137977","0.0-11.0-1.12","","633","","<div class='trialDiv'><img src='Fruit/apple.png'><br><font class='baseline'><strong>Awesome Apples</strong><p>Choose number of points to bet.</font><div class='respPicDiv'><img src='img/responseButtonOffersNo0L.png' class='respPic'></div></div>","5","5","Awesome Apples","Fruit/apple.png","Lost","0.2,0.8","11","0.2","56","13","",""
"","","","decisionFB","63f3a7e45f338798fd025d99","bdp_rwlrn","Wed Mar 15 2023 14:30:37 GMT-0500 (Central Daylight Time)","382881","Untrustworthy,Trustworthy","html-keyboard-response","48","138240","0.0-11.0-2.12","","null","","<div class='trialDiv'><img src='Fruit/apple.png'><br><font class='baseline'><strong>Awesome Apples</strong><p>Choose number of points to bet.</font><div class='respPicDiv'><img src='img/responseButtonOffersNo0L5.png' class='respPic'></div></div>","null","5","Awesome Apples","Fruit/apple.png","Lost","0.2,0.8","11","0.2","51","13","",""
"","","","feedback","63f3a7e45f338798fd025d99","bdp_rwlrn","Wed Mar 15 2023 14:30:37 GMT-0500 (Central Daylight Time)","382881","Untrustworthy,Trustworthy","html-keyboard-response","49","139247","0.0-11.0-3.12","","null","","<div class='respPicDiv'><img src='img/responseButtonOffersNo0_wht.png' class='respPic'></div><div class='trialDiv'><img src='Fruit/apple.png'><br><font class='baseline'><strong>Awesome Apples</strong><p><strong><font class='negOutcome'>You LOST</font><p>You bet: 5</strong></font> &nbsp; &nbsp; &nbsp; &nbsp; &nbsp; &nbsp;<font class='negOutcome'>You receive: <strong>0</strong></font></div>","null","5","Awesome Apples","Fruit/apple.png","Lost","0.2,0.8","11","0.2","51","13","",""
"","","","decision","63f3a7e45f338798fd025d99","bdp_rwlrn","Wed Mar 15 2023 14:30:37 GMT-0500 (Central Daylight Time)","382881","Untrustworthy,Trustworthy","html-keyboard-response","50","139524","0.0-11.0-1.13","","275","","<div class='trialDiv'><img src='Fruit/pears.png'><br><font class='baseline'><strong>Pears Aplenty</strong><p>Choose number of points to bet.</font><div class='respPicDiv'><img src='img/responseButtonOffersNo0L.png' class='respPic'></div></div>","5","5","Pears Aplenty","Fruit/pears.png","Won","0.8,0.35","12","0.8","56","14","",""
"","","","decisionFB","63f3a7e45f338798fd025d99","bdp_rwlrn","Wed Mar 15 2023 14:30:37 GMT-0500 (Central Daylight Time)","382881","Untrustworthy,Trustworthy","html-keyboard-response","51","139775","0.0-11.0-2.13","","null","","<div class='trialDiv'><img src='Fruit/pears.png'><br><font class='baseline'><strong>Pears Aplenty</strong><p>Choose number of points to bet.</font><div class='respPicDiv'><img src='img/responseButtonOffersNo0L5.png' class='respPic'></div></div>","null","5","Pears Aplenty","Fruit/pears.png","Won","0.8,0.35","12","0.8","51","14","",""
"","","","feedback","63f3a7e45f338798fd025d99","bdp_rwlrn","Wed Mar 15 2023 14:30:37 GMT-0500 (Central Daylight Time)","382881","Untrustworthy,Trustworthy","html-keyboard-response","52","140783","0.0-11.0-3.13","","null","","<div class='respPicDiv'><img src='img/responseButtonOffersNo0_wht.png' class='respPic'></div><div class='trialDiv'><img src='Fruit/pears.png'><br><font class='baseline'><strong>Pears Aplenty</strong><p><strong><font class='posOutcome'>You WON</font><p>You bet: 5</strong></font> &nbsp; &nbsp; &nbsp; &nbsp; &nbsp; &nbsp;<font class='posOutcome'>you receive: <strong>10</strong></font></div>","null","5","Pears Aplenty","Fruit/pears.png","Won","0.8,0.35","12","0.8","61","14","",""
"","","","decision","63f3a7e45f338798fd025d99","bdp_rwlrn","Wed Mar 15 2023 14:30:37 GMT-0500 (Central Daylight Time)","382881","Untrustworthy,Trustworthy","html-keyboard-response","53","141260","0.0-11.0-1.14","","477","","<div class='trialDiv'><img src='Fruit/papayas.png'><br><font class='baseline'><strong>Papaya Payday</strong><p>Choose number of points to bet.</font><div class='respPicDiv'><img src='img/responseButtonOffersNo0L.png' class='respPic'></div></div>","5","5","Papaya Payday","Fruit/papayas.png","Won","0.35,0.8","12","0.35","66","15","",""
"","","","decisionFB","63f3a7e45f338798fd025d99","bdp_rwlrn","Wed Mar 15 2023 14:30:37 GMT-0500 (Central Daylight Time)","382881","Untrustworthy,Trustworthy","html-keyboard-response","54","141523","0.0-11.0-2.14","","null","","<div class='trialDiv'><img src='Fruit/papayas.png'><br><font class='baseline'><strong>Papaya Payday</strong><p>Choose number of points to bet.</font><div class='respPicDiv'><img src='img/responseButtonOffersNo0L5.png' class='respPic'></div></div>","null","5","Papaya Payday","Fruit/papayas.png","Won","0.35,0.8","12","0.35","61","15","",""
"","","","feedback","63f3a7e45f338798fd025d99","bdp_rwlrn","Wed Mar 15 2023 14:30:37 GMT-0500 (Central Daylight Time)","382881","Untrustworthy,Trustworthy","html-keyboard-response","55","142535","0.0-11.0-3.14","","null","","<div class='respPicDiv'><img src='img/responseButtonOffersNo0_wht.png' class='respPic'></div><div class='trialDiv'><img src='Fruit/papayas.png'><br><font class='baseline'><strong>Papaya Payday</strong><p><strong><font class='posOutcome'>You WON</font><p>You bet: 5</strong></font> &nbsp; &nbsp; &nbsp; &nbsp; &nbsp; &nbsp;<font class='posOutcome'>you receive: <strong>10</strong></font></div>","null","5","Papaya Payday","Fruit/papayas.png","Won","0.35,0.8","12","0.35","71","15","",""
"","","","decision","63f3a7e45f338798fd025d99","bdp_rwlrn","Wed Mar 15 2023 14:30:37 GMT-0500 (Central Daylight Time)","382881","Untrustworthy,Trustworthy","html-keyboard-response","56","142793","0.0-11.0-1.15","","256","","<div class='trialDiv'><img src='Fruit/pears.png'><br><font class='baseline'><strong>Pears Aplenty</strong><p>Choose number of points to bet.</font><div class='respPicDiv'><img src='img/responseButtonOffersNo0L.png' class='respPic'></div></div>","5","6","Pears Aplenty","Fruit/pears.png","Won","0.8,0.35","12","0.8","76","16","",""
"","","","decisionFB","63f3a7e45f338798fd025d99","bdp_rwlrn","Wed Mar 15 2023 14:30:37 GMT-0500 (Central Daylight Time)","382881","Untrustworthy,Trustworthy","html-keyboard-response","57","143056","0.0-11.0-2.15","","null","","<div class='trialDiv'><img src='Fruit/pears.png'><br><font class='baseline'><strong>Pears Aplenty</strong><p>Choose number of points to bet.</font><div class='respPicDiv'><img src='img/responseButtonOffersNo0L5.png' class='respPic'></div></div>","null","6","Pears Aplenty","Fruit/pears.png","Won","0.8,0.35","12","0.8","71","16","",""
"","","","feedback","63f3a7e45f338798fd025d99","bdp_rwlrn","Wed Mar 15 2023 14:30:37 GMT-0500 (Central Daylight Time)","382881","Untrustworthy,Trustworthy","html-keyboard-response","58","144072","0.0-11.0-3.15","","null","","<div class='respPicDiv'><img src='img/responseButtonOffersNo0_wht.png' class='respPic'></div><div class='trialDiv'><img src='Fruit/pears.png'><br><font class='baseline'><strong>Pears Aplenty</strong><p><strong><font class='posOutcome'>You WON</font><p>You bet: 5</strong></font> &nbsp; &nbsp; &nbsp; &nbsp; &nbsp; &nbsp;<font class='posOutcome'>you receive: <strong>10</strong></font></div>","null","6","Pears Aplenty","Fruit/pears.png","Won","0.8,0.35","12","0.8","81","16","",""
"","","","decision","63f3a7e45f338798fd025d99","bdp_rwlrn","Wed Mar 15 2023 14:30:37 GMT-0500 (Central Daylight Time)","382881","Untrustworthy,Trustworthy","html-keyboard-response","59","144508","0.0-11.0-1.16","","436","","<div class='trialDiv'><img src='Fruit/apple.png'><br><font class='baseline'><strong>Awesome Apples</strong><p>Choose number of points to bet.</font><div class='respPicDiv'><img src='img/responseButtonOffersNo0L.png' class='respPic'></div></div>","5","6","Awesome Apples","Fruit/apple.png","Lost","0.2,0.8","11","0.2","86","17","",""
"","","","decisionFB","63f3a7e45f338798fd025d99","bdp_rwlrn","Wed Mar 15 2023 14:30:37 GMT-0500 (Central Daylight Time)","382881","Untrustworthy,Trustworthy","html-keyboard-response","60","144760","0.0-11.0-2.16","","null","","<div class='trialDiv'><img src='Fruit/apple.png'><br><font class='baseline'><strong>Awesome Apples</strong><p>Choose number of points to bet.</font><div class='respPicDiv'><img src='img/responseButtonOffersNo0L5.png' class='respPic'></div></div>","null","6","Awesome Apples","Fruit/apple.png","Lost","0.2,0.8","11","0.2","81","17","",""
"","","","feedback","63f3a7e45f338798fd025d99","bdp_rwlrn","Wed Mar 15 2023 14:30:37 GMT-0500 (Central Daylight Time)","382881","Untrustworthy,Trustworthy","html-keyboard-response","61","145768","0.0-11.0-3.16","","null","","<div class='respPicDiv'><img src='img/responseButtonOffersNo0_wht.png' class='respPic'></div><div class='trialDiv'><img src='Fruit/apple.png'><br><font class='baseline'><strong>Awesome Apples</strong><p><strong><font class='negOutcome'>You LOST</font><p>You bet: 5</strong></font> &nbsp; &nbsp; &nbsp; &nbsp; &nbsp; &nbsp;<font class='negOutcome'>You receive: <strong>0</strong></font></div>","null","6","Awesome Apples","Fruit/apple.png","Lost","0.2,0.8","11","0.2","81","17","",""
"","","","decision","63f3a7e45f338798fd025d99","bdp_rwlrn","Wed Mar 15 2023 14:30:37 GMT-0500 (Central Daylight Time)","382881","Untrustworthy,Trustworthy","html-keyboard-response","62","146683","0.0-11.0-1.17","","914","","<div class='trialDiv'><img src='Fruit/papayas.png'><br><font class='baseline'><strong>Papaya Payday</strong><p>Choose number of points to bet.</font><div class='respPicDiv'><img src='img/responseButtonOffersNo0L.png' class='respPic'></div></div>","1","6","Papaya Payday","Fruit/papayas.png","Won","0.35,0.8","12","0.35","86","18","",""
"","","","decisionFB","63f3a7e45f338798fd025d99","bdp_rwlrn","Wed Mar 15 2023 14:30:37 GMT-0500 (Central Daylight Time)","382881","Untrustworthy,Trustworthy","html-keyboard-response","63","146949","0.0-11.0-2.17","","null","","<div class='trialDiv'><img src='Fruit/papayas.png'><br><font class='baseline'><strong>Papaya Payday</strong><p>Choose number of points to bet.</font><div class='respPicDiv'><img src='img/responseButtonOffersNo0L1.png' class='respPic'></div></div>","null","6","Papaya Payday","Fruit/papayas.png","Won","0.35,0.8","12","0.35","85","18","",""
"","","","feedback","63f3a7e45f338798fd025d99","bdp_rwlrn","Wed Mar 15 2023 14:30:37 GMT-0500 (Central Daylight Time)","382881","Untrustworthy,Trustworthy","html-keyboard-response","64","147957","0.0-11.0-3.17","","null","","<div class='respPicDiv'><img src='img/responseButtonOffersNo0_wht.png' class='respPic'></div><div class='trialDiv'><img src='Fruit/papayas.png'><br><font class='baseline'><strong>Papaya Payday</strong><p><strong><font class='posOutcome'>You WON</font><p>You bet: 1</strong></font> &nbsp; &nbsp; &nbsp; &nbsp; &nbsp; &nbsp;<font class='posOutcome'>you receive: <strong>2</strong></font></div>","null","6","Papaya Payday","Fruit/papayas.png","Won","0.35,0.8","12","0.35","87","18","",""
"","","","decision","63f3a7e45f338798fd025d99","bdp_rwlrn","Wed Mar 15 2023 14:30:37 GMT-0500 (Central Daylight Time)","382881","Untrustworthy,Trustworthy","html-keyboard-response","65","148534","0.0-11.0-1.18","","575","","<div class='trialDiv'><img src='Fruit/pears.png'><br><font class='baseline'><strong>Pears Aplenty</strong><p>Choose number of points to bet.</font><div class='respPicDiv'><img src='img/responseButtonOffersNo0L.png' class='respPic'></div></div>","2","7","Pears Aplenty","Fruit/pears.png","Won","0.8,0.35","12","0.8","92","19","",""
"","","","decisionFB","63f3a7e45f338798fd025d99","bdp_rwlrn","Wed Mar 15 2023 14:30:37 GMT-0500 (Central Daylight Time)","382881","Untrustworthy,Trustworthy","html-keyboard-response","66","148785","0.0-11.0-2.18","","null","","<div class='trialDiv'><img src='Fruit/pears.png'><br><font class='baseline'><strong>Pears Aplenty</strong><p>Choose number of points to bet.</font><div class='respPicDiv'><img src='img/responseButtonOffersNo0L2.png' class='respPic'></div></div>","null","7","Pears Aplenty","Fruit/pears.png","Won","0.8,0.35","12","0.8","90","19","",""
"","","","feedback","63f3a7e45f338798fd025d99","bdp_rwlrn","Wed Mar 15 2023 14:30:37 GMT-0500 (Central Daylight Time)","382881","Untrustworthy,Trustworthy","html-keyboard-response","67","149797","0.0-11.0-3.18","","null","","<div class='respPicDiv'><img src='img/responseButtonOffersNo0_wht.png' class='respPic'></div><div class='trialDiv'><img src='Fruit/pears.png'><br><font class='baseline'><strong>Pears Aplenty</strong><p><strong><font class='posOutcome'>You WON</font><p>You bet: 2</strong></font> &nbsp; &nbsp; &nbsp; &nbsp; &nbsp; &nbsp;<font class='posOutcome'>you receive: <strong>4</strong></font></div>","null","7","Pears Aplenty","Fruit/pears.png","Won","0.8,0.35","12","0.8","94","19","",""
"","","","decision","63f3a7e45f338798fd025d99","bdp_rwlrn","Wed Mar 15 2023 14:30:37 GMT-0500 (Central Daylight Time)","382881","Untrustworthy,Trustworthy","html-keyboard-response","68","150924","0.0-11.0-1.19","","1126","","<div class='trialDiv'><img src='Fruit/papayas.png'><br><font class='baseline'><strong>Papaya Payday</strong><p>Choose number of points to bet.</font><div class='respPicDiv'><img src='img/responseButtonOffersNo0L.png' class='respPic'></div></div>","1","7","Papaya Payday","Fruit/papayas.png","Won","0.35,0.8","12","0.35","99","20","",""
"","","","decisionFB","63f3a7e45f338798fd025d99","bdp_rwlrn","Wed Mar 15 2023 14:30:37 GMT-0500 (Central Daylight Time)","382881","Untrustworthy,Trustworthy","html-keyboard-response","69","151186","0.0-11.0-2.19","","null","","<div class='trialDiv'><img src='Fruit/papayas.png'><br><font class='baseline'><strong>Papaya Payday</strong><p>Choose number of points to bet.</font><div class='respPicDiv'><img src='img/responseButtonOffersNo0L1.png' class='respPic'></div></div>","null","7","Papaya Payday","Fruit/papayas.png","Won","0.35,0.8","12","0.35","98","20","",""
"","","","feedback","63f3a7e45f338798fd025d99","bdp_rwlrn","Wed Mar 15 2023 14:30:37 GMT-0500 (Central Daylight Time)","382881","Untrustworthy,Trustworthy","html-keyboard-response","70","152202","0.0-11.0-3.19","","null","","<div class='respPicDiv'><img src='img/responseButtonOffersNo0_wht.png' class='respPic'></div><div class='trialDiv'><img src='Fruit/papayas.png'><br><font class='baseline'><strong>Papaya Payday</strong><p><strong><font class='posOutcome'>You WON</font><p>You bet: 1</strong></font> &nbsp; &nbsp; &nbsp; &nbsp; &nbsp; &nbsp;<font class='posOutcome'>you receive: <strong>2</strong></font></div>","null","7","Papaya Payday","Fruit/papayas.png","Won","0.35,0.8","12","0.35","100","20","",""
"","","","decision","63f3a7e45f338798fd025d99","bdp_rwlrn","Wed Mar 15 2023 14:30:37 GMT-0500 (Central Daylight Time)","382881","Untrustworthy,Trustworthy","html-keyboard-response","71","152673","0.0-11.0-1.20","","469","","<div class='trialDiv'><img src='Fruit/apple.png'><br><font class='baseline'><strong>Awesome Apples</strong><p>Choose number of points to bet.</font><div class='respPicDiv'><img src='img/responseButtonOffersNo0L.png' class='respPic'></div></div>","1","7","Awesome Apples","Fruit/apple.png","Won","0.2,0.8","11","0.2","105","21","",""
"","","","decisionFB","63f3a7e45f338798fd025d99","bdp_rwlrn","Wed Mar 15 2023 14:30:37 GMT-0500 (Central Daylight Time)","382881","Untrustworthy,Trustworthy","html-keyboard-response","72","152939","0.0-11.0-2.20","","null","","<div class='trialDiv'><img src='Fruit/apple.png'><br><font class='baseline'><strong>Awesome Apples</strong><p>Choose number of points to bet.</font><div class='respPicDiv'><img src='img/responseButtonOffersNo0L1.png' class='respPic'></div></div>","null","7","Awesome Apples","Fruit/apple.png","Won","0.2,0.8","11","0.2","104","21","",""
"","","","feedback","63f3a7e45f338798fd025d99","bdp_rwlrn","Wed Mar 15 2023 14:30:37 GMT-0500 (Central Daylight Time)","382881","Untrustworthy,Trustworthy","html-keyboard-response","73","153954","0.0-11.0-3.20","","null","","<div class='respPicDiv'><img src='img/responseButtonOffersNo0_wht.png' class='respPic'></div><div class='trialDiv'><img src='Fruit/apple.png'><br><font class='baseline'><strong>Awesome Apples</strong><p><strong><font class='posOutcome'>You WON</font><p>You bet: 1</strong></font> &nbsp; &nbsp; &nbsp; &nbsp; &nbsp; &nbsp;<font class='posOutcome'>you receive: <strong>2</strong></font></div>","null","7","Awesome Apples","Fruit/apple.png","Won","0.2,0.8","11","0.2","106","21","",""
"","","","decision","63f3a7e45f338798fd025d99","bdp_rwlrn","Wed Mar 15 2023 14:30:37 GMT-0500 (Central Daylight Time)","382881","Untrustworthy,Trustworthy","html-keyboard-response","74","154591","0.0-11.0-1.21","","636","","<div class='trialDiv'><img src='Fruit/pears.png'><br><font class='baseline'><strong>Pears Aplenty</strong><p>Choose number of points to bet.</font><div class='respPicDiv'><img src='img/responseButtonOffersNo0L.png' class='respPic'></div></div>","1","8","Pears Aplenty","Fruit/pears.png","Lost","0.8,0.35","12","0.8","111","22","",""
"","","","decisionFB","63f3a7e45f338798fd025d99","bdp_rwlrn","Wed Mar 15 2023 14:30:37 GMT-0500 (Central Daylight Time)","382881","Untrustworthy,Trustworthy","html-keyboard-response","75","154847","0.0-11.0-2.21","","null","","<div class='trialDiv'><img src='Fruit/pears.png'><br><font class='baseline'><strong>Pears Aplenty</strong><p>Choose number of points to bet.</font><div class='respPicDiv'><img src='img/responseButtonOffersNo0L1.png' class='respPic'></div></div>","null","8","Pears Aplenty","Fruit/pears.png","Lost","0.8,0.35","12","0.8","110","22","",""
"","","","feedback","63f3a7e45f338798fd025d99","bdp_rwlrn","Wed Mar 15 2023 14:30:37 GMT-0500 (Central Daylight Time)","382881","Untrustworthy,Trustworthy","html-keyboard-response","76","155863","0.0-11.0-3.21","","null","","<div class='respPicDiv'><img src='img/responseButtonOffersNo0_wht.png' class='respPic'></div><div class='trialDiv'><img src='Fruit/pears.png'><br><font class='baseline'><strong>Pears Aplenty</strong><p><strong><font class='negOutcome'>You LOST</font><p>You bet: 1</strong></font> &nbsp; &nbsp; &nbsp; &nbsp; &nbsp; &nbsp;<font class='negOutcome'>You receive: <strong>0</strong></font></div>","null","8","Pears Aplenty","Fruit/pears.png","Lost","0.8,0.35","12","0.8","110","22","",""
"","","","decision","63f3a7e45f338798fd025d99","bdp_rwlrn","Wed Mar 15 2023 14:30:37 GMT-0500 (Central Daylight Time)","382881","Untrustworthy,Trustworthy","html-keyboard-response","77","156403","0.0-11.0-1.22","","540","","<div class='trialDiv'><img src='Fruit/apple.png'><br><font class='baseline'><strong>Awesome Apples</strong><p>Choose number of points to bet.</font><div class='respPicDiv'><img src='img/responseButtonOffersNo0L.png' class='respPic'></div></div>","1","8","Awesome Apples","Fruit/apple.png","Lost","0.2,0.8","11","0.2","115","23","",""
"","","","decisionFB","63f3a7e45f338798fd025d99","bdp_rwlrn","Wed Mar 15 2023 14:30:37 GMT-0500 (Central Daylight Time)","382881","Untrustworthy,Trustworthy","html-keyboard-response","78","156659","0.0-11.0-2.22","","null","","<div class='trialDiv'><img src='Fruit/apple.png'><br><font class='baseline'><strong>Awesome Apples</strong><p>Choose number of points to bet.</font><div class='respPicDiv'><img src='img/responseButtonOffersNo0L1.png' class='respPic'></div></div>","null","8","Awesome Apples","Fruit/apple.png","Lost","0.2,0.8","11","0.2","114","23","",""
"","","","feedback","63f3a7e45f338798fd025d99","bdp_rwlrn","Wed Mar 15 2023 14:30:37 GMT-0500 (Central Daylight Time)","382881","Untrustworthy,Trustworthy","html-keyboard-response","79","157663","0.0-11.0-3.22","","null","","<div class='respPicDiv'><img src='img/responseButtonOffersNo0_wht.png' class='respPic'></div><div class='trialDiv'><img src='Fruit/apple.png'><br><font class='baseline'><strong>Awesome Apples</strong><p><strong><font class='negOutcome'>You LOST</font><p>You bet: 1</strong></font> &nbsp; &nbsp; &nbsp; &nbsp; &nbsp; &nbsp;<font class='negOutcome'>You receive: <strong>0</strong></font></div>","null","8","Awesome Apples","Fruit/apple.png","Lost","0.2,0.8","11","0.2","114","23","",""
"","","","decision","63f3a7e45f338798fd025d99","bdp_rwlrn","Wed Mar 15 2023 14:30:37 GMT-0500 (Central Daylight Time)","382881","Untrustworthy,Trustworthy","html-keyboard-response","80","157985","0.0-11.0-1.23","","320","","<div class='trialDiv'><img src='Fruit/papayas.png'><br><font class='baseline'><strong>Papaya Payday</strong><p>Choose number of points to bet.</font><div class='respPicDiv'><img src='img/responseButtonOffersNo0L.png' class='respPic'></div></div>","1","8","Papaya Payday","Fruit/papayas.png","Lost","0.35,0.8","12","0.35","119","24","",""
"","","","decisionFB","63f3a7e45f338798fd025d99","bdp_rwlrn","Wed Mar 15 2023 14:30:37 GMT-0500 (Central Daylight Time)","382881","Untrustworthy,Trustworthy","html-keyboard-response","81","158248","0.0-11.0-2.23","","null","","<div class='trialDiv'><img src='Fruit/papayas.png'><br><font class='baseline'><strong>Papaya Payday</strong><p>Choose number of points to bet.</font><div class='respPicDiv'><img src='img/responseButtonOffersNo0L1.png' class='respPic'></div></div>","null","8","Papaya Payday","Fruit/papayas.png","Lost","0.35,0.8","12","0.35","118","24","",""
"","","","feedback","63f3a7e45f338798fd025d99","bdp_rwlrn","Wed Mar 15 2023 14:30:37 GMT-0500 (Central Daylight Time)","382881","Untrustworthy,Trustworthy","html-keyboard-response","82","159252","0.0-11.0-3.23","","null","","<div class='respPicDiv'><img src='img/responseButtonOffersNo0_wht.png' class='respPic'></div><div class='trialDiv'><img src='Fruit/papayas.png'><br><font class='baseline'><strong>Papaya Payday</strong><p><strong><font class='negOutcome'>You LOST</font><p>You bet: 1</strong></font> &nbsp; &nbsp; &nbsp; &nbsp; &nbsp; &nbsp;<font class='negOutcome'>You receive: <strong>0</strong></font></div>","null","8","Papaya Payday","Fruit/papayas.png","Lost","0.35,0.8","12","0.35","118","24","",""
"","","","decision","63f3a7e45f338798fd025d99","bdp_rwlrn","Wed Mar 15 2023 14:30:37 GMT-0500 (Central Daylight Time)","382881","Untrustworthy,Trustworthy","html-keyboard-response","83","159725","0.0-11.0-1.24","","473","","<div class='trialDiv'><img src='Fruit/apple.png'><br><font class='baseline'><strong>Awesome Apples</strong><p>Choose number of points to bet.</font><div class='respPicDiv'><img src='img/responseButtonOffersNo0L.png' class='respPic'></div></div>","1","9","Awesome Apples","Fruit/apple.png","Lost","0.2,0.8","11","0.2","123","25","",""
"","","","decisionFB","63f3a7e45f338798fd025d99","bdp_rwlrn","Wed Mar 15 2023 14:30:37 GMT-0500 (Central Daylight Time)","382881","Untrustworthy,Trustworthy","html-keyboard-response","84","159984","0.0-11.0-2.24","","null","","<div class='trialDiv'><img src='Fruit/apple.png'><br><font class='baseline'><strong>Awesome Apples</strong><p>Choose number of points to bet.</font><div class='respPicDiv'><img src='img/responseButtonOffersNo0L1.png' class='respPic'></div></div>","null","9","Awesome Apples","Fruit/apple.png","Lost","0.2,0.8","11","0.2","122","25","",""
"","","","feedback","63f3a7e45f338798fd025d99","bdp_rwlrn","Wed Mar 15 2023 14:30:37 GMT-0500 (Central Daylight Time)","382881","Untrustworthy,Trustworthy","html-keyboard-response","85","161001","0.0-11.0-3.24","","null","","<div class='respPicDiv'><img src='img/responseButtonOffersNo0_wht.png' class='respPic'></div><div class='trialDiv'><img src='Fruit/apple.png'><br><font class='baseline'><strong>Awesome Apples</strong><p><strong><font class='negOutcome'>You LOST</font><p>You bet: 1</strong></font> &nbsp; &nbsp; &nbsp; &nbsp; &nbsp; &nbsp;<font class='negOutcome'>You receive: <strong>0</strong></font></div>","null","9","Awesome Apples","Fruit/apple.png","Lost","0.2,0.8","11","0.2","122","25","",""
"","","","decision","63f3a7e45f338798fd025d99","bdp_rwlrn","Wed Mar 15 2023 14:30:37 GMT-0500 (Central Daylight Time)","382881","Untrustworthy,Trustworthy","html-keyboard-response","86","163608","0.0-11.0-1.25","","2606","","<div class='trialDiv'><img src='Fruit/papayas.png'><br><font class='baseline'><strong>Papaya Payday</strong><p>Choose number of points to bet.</font><div class='respPicDiv'><img src='img/responseButtonOffersNo0L.png' class='respPic'></div></div>","2","9","Papaya Payday","Fruit/papayas.png","Lost","0.35,0.8","12","0.35","127","26","",""
"","","","decisionFB","63f3a7e45f338798fd025d99","bdp_rwlrn","Wed Mar 15 2023 14:30:37 GMT-0500 (Central Daylight Time)","382881","Untrustworthy,Trustworthy","html-keyboard-response","87","163869","0.0-11.0-2.25","","null","","<div class='trialDiv'><img src='Fruit/papayas.png'><br><font class='baseline'><strong>Papaya Payday</strong><p>Choose number of points to bet.</font><div class='respPicDiv'><img src='img/responseButtonOffersNo0L2.png' class='respPic'></div></div>","null","9","Papaya Payday","Fruit/papayas.png","Lost","0.35,0.8","12","0.35","125","26","",""
"","","","feedback","63f3a7e45f338798fd025d99","bdp_rwlrn","Wed Mar 15 2023 14:30:37 GMT-0500 (Central Daylight Time)","382881","Untrustworthy,Trustworthy","html-keyboard-response","88","164877","0.0-11.0-3.25","","null","","<div class='respPicDiv'><img src='img/responseButtonOffersNo0_wht.png' class='respPic'></div><div class='trialDiv'><img src='Fruit/papayas.png'><br><font class='baseline'><strong>Papaya Payday</strong><p><strong><font class='negOutcome'>You LOST</font><p>You bet: 2</strong></font> &nbsp; &nbsp; &nbsp; &nbsp; &nbsp; &nbsp;<font class='negOutcome'>You receive: <strong>0</strong></font></div>","null","9","Papaya Payday","Fruit/papayas.png","Lost","0.35,0.8","12","0.35","125","26","",""
"","","","decision","63f3a7e45f338798fd025d99","bdp_rwlrn","Wed Mar 15 2023 14:30:37 GMT-0500 (Central Daylight Time)","382881","Untrustworthy,Trustworthy","html-keyboard-response","89","165636","0.0-11.0-1.26","","757","","<div class='trialDiv'><img src='Fruit/pears.png'><br><font class='baseline'><strong>Pears Aplenty</strong><p>Choose number of points to bet.</font><div class='respPicDiv'><img src='img/responseButtonOffersNo0L.png' class='respPic'></div></div>","1","9","Pears Aplenty","Fruit/pears.png","Lost","0.8,0.35","12","0.8","130","27","",""
"","","","decisionFB","63f3a7e45f338798fd025d99","bdp_rwlrn","Wed Mar 15 2023 14:30:37 GMT-0500 (Central Daylight Time)","382881","Untrustworthy,Trustworthy","html-keyboard-response","90","165894","0.0-11.0-2.26","","null","","<div class='trialDiv'><img src='Fruit/pears.png'><br><font class='baseline'><strong>Pears Aplenty</strong><p>Choose number of points to bet.</font><div class='respPicDiv'><img src='img/responseButtonOffersNo0L1.png' class='respPic'></div></div>","null","9","Pears Aplenty","Fruit/pears.png","Lost","0.8,0.35","12","0.8","129","27","",""
"","","","feedback","63f3a7e45f338798fd025d99","bdp_rwlrn","Wed Mar 15 2023 14:30:37 GMT-0500 (Central Daylight Time)","382881","Untrustworthy,Trustworthy","html-keyboard-response","91","166902","0.0-11.0-3.26","","null","","<div class='respPicDiv'><img src='img/responseButtonOffersNo0_wht.png' class='respPic'></div><div class='trialDiv'><img src='Fruit/pears.png'><br><font class='baseline'><strong>Pears Aplenty</strong><p><strong><font class='negOutcome'>You LOST</font><p>You bet: 1</strong></font> &nbsp; &nbsp; &nbsp; &nbsp; &nbsp; &nbsp;<font class='negOutcome'>You receive: <strong>0</strong></font></div>","null","9","Pears Aplenty","Fruit/pears.png","Lost","0.8,0.35","12","0.8","129","27","",""
"","","","decision","63f3a7e45f338798fd025d99","bdp_rwlrn","Wed Mar 15 2023 14:30:37 GMT-0500 (Central Daylight Time)","382881","Untrustworthy,Trustworthy","html-keyboard-response","92","167205","0.0-11.0-1.27","","301","","<div class='trialDiv'><img src='Fruit/apple.png'><br><font class='baseline'><strong>Awesome Apples</strong><p>Choose number of points to bet.</font><div class='respPicDiv'><img src='img/responseButtonOffersNo0L.png' class='respPic'></div></div>","1","10","Awesome Apples","Fruit/apple.png","Lost","0.2,0.8","11","0.2","134","28","",""
"","","","decisionFB","63f3a7e45f338798fd025d99","bdp_rwlrn","Wed Mar 15 2023 14:30:37 GMT-0500 (Central Daylight Time)","382881","Untrustworthy,Trustworthy","html-keyboard-response","93","167462","0.0-11.0-2.27","","null","","<div class='trialDiv'><img src='Fruit/apple.png'><br><font class='baseline'><strong>Awesome Apples</strong><p>Choose number of points to bet.</font><div class='respPicDiv'><img src='img/responseButtonOffersNo0L1.png' class='respPic'></div></div>","null","10","Awesome Apples","Fruit/apple.png","Lost","0.2,0.8","11","0.2","133","28","",""
"","","","feedback","63f3a7e45f338798fd025d99","bdp_rwlrn","Wed Mar 15 2023 14:30:37 GMT-0500 (Central Daylight Time)","382881","Untrustworthy,Trustworthy","html-keyboard-response","94","168466","0.0-11.0-3.27","","null","","<div class='respPicDiv'><img src='img/responseButtonOffersNo0_wht.png' class='respPic'></div><div class='trialDiv'><img src='Fruit/apple.png'><br><font class='baseline'><strong>Awesome Apples</strong><p><strong><font class='negOutcome'>You LOST</font><p>You bet: 1</strong></font> &nbsp; &nbsp; &nbsp; &nbsp; &nbsp; &nbsp;<font class='negOutcome'>You receive: <strong>0</strong></font></div>","null","10","Awesome Apples","Fruit/apple.png","Lost","0.2,0.8","11","0.2","133","28","",""
"","","","decision","63f3a7e45f338798fd025d99","bdp_rwlrn","Wed Mar 15 2023 14:30:37 GMT-0500 (Central Daylight Time)","382881","Untrustworthy,Trustworthy","html-keyboard-response","95","168725","0.0-11.0-1.28","","257","","<div class='trialDiv'><img src='Fruit/pears.png'><br><font class='baseline'><strong>Pears Aplenty</strong><p>Choose number of points to bet.</font><div class='respPicDiv'><img src='img/responseButtonOffersNo0L.png' class='respPic'></div></div>","1","10","Pears Aplenty","Fruit/pears.png","Lost","0.8,0.35","12","0.8","138","29","",""
"","","","decisionFB","63f3a7e45f338798fd025d99","bdp_rwlrn","Wed Mar 15 2023 14:30:37 GMT-0500 (Central Daylight Time)","382881","Untrustworthy,Trustworthy","html-keyboard-response","96","168991","0.0-11.0-2.28","","null","","<div class='trialDiv'><img src='Fruit/pears.png'><br><font class='baseline'><strong>Pears Aplenty</strong><p>Choose number of points to bet.</font><div class='respPicDiv'><img src='img/responseButtonOffersNo0L1.png' class='respPic'></div></div>","null","10","Pears Aplenty","Fruit/pears.png","Lost","0.8,0.35","12","0.8","137","29","",""
"","","","feedback","63f3a7e45f338798fd025d99","bdp_rwlrn","Wed Mar 15 2023 14:30:37 GMT-0500 (Central Daylight Time)","382881","Untrustworthy,Trustworthy","html-keyboard-response","97","170003","0.0-11.0-3.28","","null","","<div class='respPicDiv'><img src='img/responseButtonOffersNo0_wht.png' class='respPic'></div><div class='trialDiv'><img src='Fruit/pears.png'><br><font class='baseline'><strong>Pears Aplenty</strong><p><strong><font class='negOutcome'>You LOST</font><p>You bet: 1</strong></font> &nbsp; &nbsp; &nbsp; &nbsp; &nbsp; &nbsp;<font class='negOutcome'>You receive: <strong>0</strong></font></div>","null","10","Pears Aplenty","Fruit/pears.png","Lost","0.8,0.35","12","0.8","137","29","",""
"","","","decision","63f3a7e45f338798fd025d99","bdp_rwlrn","Wed Mar 15 2023 14:30:37 GMT-0500 (Central Daylight Time)","382881","Untrustworthy,Trustworthy","html-keyboard-response","98","170768","0.0-11.0-1.29","","764","","<div class='trialDiv'><img src='Fruit/papayas.png'><br><font class='baseline'><strong>Papaya Payday</strong><p>Choose number of points to bet.</font><div class='respPicDiv'><img src='img/responseButtonOffersNo0L.png' class='respPic'></div></div>","5","10","Papaya Payday","Fruit/papayas.png","Won","0.35,0.8","12","0.35","142","30","",""
"","","","decisionFB","63f3a7e45f338798fd025d99","bdp_rwlrn","Wed Mar 15 2023 14:30:37 GMT-0500 (Central Daylight Time)","382881","Untrustworthy,Trustworthy","html-keyboard-response","99","171019","0.0-11.0-2.29","","null","","<div class='trialDiv'><img src='Fruit/papayas.png'><br><font class='baseline'><strong>Papaya Payday</strong><p>Choose number of points to bet.</font><div class='respPicDiv'><img src='img/responseButtonOffersNo0L5.png' class='respPic'></div></div>","null","10","Papaya Payday","Fruit/papayas.png","Won","0.35,0.8","12","0.35","137","30","",""
"","","","feedback","63f3a7e45f338798fd025d99","bdp_rwlrn","Wed Mar 15 2023 14:30:37 GMT-0500 (Central Daylight Time)","382881","Untrustworthy,Trustworthy","html-keyboard-response","100","172033","0.0-11.0-3.29","","null","","<div class='respPicDiv'><img src='img/responseButtonOffersNo0_wht.png' class='respPic'></div><div class='trialDiv'><img src='Fruit/papayas.png'><br><font class='baseline'><strong>Papaya Payday</strong><p><strong><font class='posOutcome'>You WON</font><p>You bet: 5</strong></font> &nbsp; &nbsp; &nbsp; &nbsp; &nbsp; &nbsp;<font class='posOutcome'>you receive: <strong>10</strong></font></div>","null","10","Papaya Payday","Fruit/papayas.png","Won","0.35,0.8","12","0.35","147","30","",""
"","","","decision","63f3a7e45f338798fd025d99","bdp_rwlrn","Wed Mar 15 2023 14:30:37 GMT-0500 (Central Daylight Time)","382881","Untrustworthy,Trustworthy","html-keyboard-response","101","172386","0.0-11.0-1.30","","353","","<div class='trialDiv'><img src='Fruit/pears.png'><br><font class='baseline'><strong>Pears Aplenty</strong><p>Choose number of points to bet.</font><div class='respPicDiv'><img src='img/responseButtonOffersNo0L.png' class='respPic'></div></div>","5","11","Pears Aplenty","Fruit/pears.png","Won","0.8,0.35","12","0.8","152","31","",""
"","","","decisionFB","63f3a7e45f338798fd025d99","bdp_rwlrn","Wed Mar 15 2023 14:30:37 GMT-0500 (Central Daylight Time)","382881","Untrustworthy,Trustworthy","html-keyboard-response","102","172638","0.0-11.0-2.30","","null","","<div class='trialDiv'><img src='Fruit/pears.png'><br><font class='baseline'><strong>Pears Aplenty</strong><p>Choose number of points to bet.</font><div class='respPicDiv'><img src='img/responseButtonOffersNo0L5.png' class='respPic'></div></div>","null","11","Pears Aplenty","Fruit/pears.png","Won","0.8,0.35","12","0.8","147","31","",""
"","","","feedback","63f3a7e45f338798fd025d99","bdp_rwlrn","Wed Mar 15 2023 14:30:37 GMT-0500 (Central Daylight Time)","382881","Untrustworthy,Trustworthy","html-keyboard-response","103","173641","0.0-11.0-3.30","","null","","<div class='respPicDiv'><img src='img/responseButtonOffersNo0_wht.png' class='respPic'></div><div class='trialDiv'><img src='Fruit/pears.png'><br><font class='baseline'><strong>Pears Aplenty</strong><p><strong><font class='posOutcome'>You WON</font><p>You bet: 5</strong></font> &nbsp; &nbsp; &nbsp; &nbsp; &nbsp; &nbsp;<font class='posOutcome'>you receive: <strong>10</strong></font></div>","null","11","Pears Aplenty","Fruit/pears.png","Won","0.8,0.35","12","0.8","157","31","",""
"","","","decision","63f3a7e45f338798fd025d99","bdp_rwlrn","Wed Mar 15 2023 14:30:37 GMT-0500 (Central Daylight Time)","382881","Untrustworthy,Trustworthy","html-keyboard-response","104","173933","0.0-11.0-1.31","","291","","<div class='trialDiv'><img src='Fruit/papayas.png'><br><font class='baseline'><strong>Papaya Payday</strong><p>Choose number of points to bet.</font><div class='respPicDiv'><img src='img/responseButtonOffersNo0L.png' class='respPic'></div></div>","5","11","Papaya Payday","Fruit/papayas.png","Lost","0.35,0.8","12","0.35","162","32","",""
"","","","decisionFB","63f3a7e45f338798fd025d99","bdp_rwlrn","Wed Mar 15 2023 14:30:37 GMT-0500 (Central Daylight Time)","382881","Untrustworthy,Trustworthy","html-keyboard-response","105","174186","0.0-11.0-2.31","","null","","<div class='trialDiv'><img src='Fruit/papayas.png'><br><font class='baseline'><strong>Papaya Payday</strong><p>Choose number of points to bet.</font><div class='respPicDiv'><img src='img/responseButtonOffersNo0L5.png' class='respPic'></div></div>","null","11","Papaya Payday","Fruit/papayas.png","Lost","0.35,0.8","12","0.35","157","32","",""
"","","","feedback","63f3a7e45f338798fd025d99","bdp_rwlrn","Wed Mar 15 2023 14:30:37 GMT-0500 (Central Daylight Time)","382881","Untrustworthy,Trustworthy","html-keyboard-response","106","175202","0.0-11.0-3.31","","null","","<div class='respPicDiv'><img src='img/responseButtonOffersNo0_wht.png' class='respPic'></div><div class='trialDiv'><img src='Fruit/papayas.png'><br><font class='baseline'><strong>Papaya Payday</strong><p><strong><font class='negOutcome'>You LOST</font><p>You bet: 5</strong></font> &nbsp; &nbsp; &nbsp; &nbsp; &nbsp; &nbsp;<font class='negOutcome'>You receive: <strong>0</strong></font></div>","null","11","Papaya Payday","Fruit/papayas.png","Lost","0.35,0.8","12","0.35","157","32","",""
"","","","decision","63f3a7e45f338798fd025d99","bdp_rwlrn","Wed Mar 15 2023 14:30:37 GMT-0500 (Central Daylight Time)","382881","Untrustworthy,Trustworthy","html-keyboard-response","107","175545","0.0-11.0-1.32","","342","","<div class='trialDiv'><img src='Fruit/apple.png'><br><font class='baseline'><strong>Awesome Apples</strong><p>Choose number of points to bet.</font><div class='respPicDiv'><img src='img/responseButtonOffersNo0L.png' class='respPic'></div></div>","5","11","Awesome Apples","Fruit/apple.png","Won","0.2,0.8","11","0.2","162","33","",""
"","","","decisionFB","63f3a7e45f338798fd025d99","bdp_rwlrn","Wed Mar 15 2023 14:30:37 GMT-0500 (Central Daylight Time)","382881","Untrustworthy,Trustworthy","html-keyboard-response","108","175806","0.0-11.0-2.32","","null","","<div class='trialDiv'><img src='Fruit/apple.png'><br><font class='baseline'><strong>Awesome Apples</strong><p>Choose number of points to bet.</font><div class='respPicDiv'><img src='img/responseButtonOffersNo0L5.png' class='respPic'></div></div>","null","11","Awesome Apples","Fruit/apple.png","Won","0.2,0.8","11","0.2","157","33","",""
"","","","feedback","63f3a7e45f338798fd025d99","bdp_rwlrn","Wed Mar 15 2023 14:30:37 GMT-0500 (Central Daylight Time)","382881","Untrustworthy,Trustworthy","html-keyboard-response","109","176823","0.0-11.0-3.32","","null","","<div class='respPicDiv'><img src='img/responseButtonOffersNo0_wht.png' class='respPic'></div><div class='trialDiv'><img src='Fruit/apple.png'><br><font class='baseline'><strong>Awesome Apples</strong><p><strong><font class='posOutcome'>You WON</font><p>You bet: 5</strong></font> &nbsp; &nbsp; &nbsp; &nbsp; &nbsp; &nbsp;<font class='posOutcome'>you receive: <strong>10</strong></font></div>","null","11","Awesome Apples","Fruit/apple.png","Won","0.2,0.8","11","0.2","167","33","",""
"","","","decision","63f3a7e45f338798fd025d99","bdp_rwlrn","Wed Mar 15 2023 14:30:37 GMT-0500 (Central Daylight Time)","382881","Untrustworthy,Trustworthy","html-keyboard-response","110","177095","0.0-11.0-1.33","","272","","<div class='trialDiv'><img src='Fruit/pears.png'><br><font class='baseline'><strong>Pears Aplenty</strong><p>Choose number of points to bet.</font><div class='respPicDiv'><img src='img/responseButtonOffersNo0L.png' class='respPic'></div></div>","5","12","Pears Aplenty","Fruit/pears.png","Won","0.8,0.35","12","0.8","172","34","",""
"","","","decisionFB","63f3a7e45f338798fd025d99","bdp_rwlrn","Wed Mar 15 2023 14:30:37 GMT-0500 (Central Daylight Time)","382881","Untrustworthy,Trustworthy","html-keyboard-response","111","177358","0.0-11.0-2.33","","null","","<div class='trialDiv'><img src='Fruit/pears.png'><br><font class='baseline'><strong>Pears Aplenty</strong><p>Choose number of points to bet.</font><div class='respPicDiv'><img src='img/responseButtonOffersNo0L5.png' class='respPic'></div></div>","null","12","Pears Aplenty","Fruit/pears.png","Won","0.8,0.35","12","0.8","167","34","",""
"","","","feedback","63f3a7e45f338798fd025d99","bdp_rwlrn","Wed Mar 15 2023 14:30:37 GMT-0500 (Central Daylight Time)","382881","Untrustworthy,Trustworthy","html-keyboard-response","112","178367","0.0-11.0-3.33","","null","","<div class='respPicDiv'><img src='img/responseButtonOffersNo0_wht.png' class='respPic'></div><div class='trialDiv'><img src='Fruit/pears.png'><br><font class='baseline'><strong>Pears Aplenty</strong><p><strong><font class='posOutcome'>You WON</font><p>You bet: 5</strong></font> &nbsp; &nbsp; &nbsp; &nbsp; &nbsp; &nbsp;<font class='posOutcome'>you receive: <strong>10</strong></font></div>","null","12","Pears Aplenty","Fruit/pears.png","Won","0.8,0.35","12","0.8","177","34","",""
"","","","decision","63f3a7e45f338798fd025d99","bdp_rwlrn","Wed Mar 15 2023 14:30:37 GMT-0500 (Central Daylight Time)","382881","Untrustworthy,Trustworthy","html-keyboard-response","113","178648","0.0-11.0-1.34","","281","","<div class='trialDiv'><img src='Fruit/papayas.png'><br><font class='baseline'><strong>Papaya Payday</strong><p>Choose number of points to bet.</font><div class='respPicDiv'><img src='img/responseButtonOffersNo0L.png' class='respPic'></div></div>","5","12","Papaya Payday","Fruit/papayas.png","Lost","0.35,0.8","12","0.35","182","35","",""
"","","","decisionFB","63f3a7e45f338798fd025d99","bdp_rwlrn","Wed Mar 15 2023 14:30:37 GMT-0500 (Central Daylight Time)","382881","Untrustworthy,Trustworthy","html-keyboard-response","114","178903","0.0-11.0-2.34","","null","","<div class='trialDiv'><img src='Fruit/papayas.png'><br><font class='baseline'><strong>Papaya Payday</strong><p>Choose number of points to bet.</font><div class='respPicDiv'><img src='img/responseButtonOffersNo0L5.png' class='respPic'></div></div>","null","12","Papaya Payday","Fruit/papayas.png","Lost","0.35,0.8","12","0.35","177","35","",""
"","","","feedback","63f3a7e45f338798fd025d99","bdp_rwlrn","Wed Mar 15 2023 14:30:37 GMT-0500 (Central Daylight Time)","382881","Untrustworthy,Trustworthy","html-keyboard-response","115","179911","0.0-11.0-3.34","","null","","<div class='respPicDiv'><img src='img/responseButtonOffersNo0_wht.png' class='respPic'></div><div class='trialDiv'><img src='Fruit/papayas.png'><br><font class='baseline'><strong>Papaya Payday</strong><p><strong><font class='negOutcome'>You LOST</font><p>You bet: 5</strong></font> &nbsp; &nbsp; &nbsp; &nbsp; &nbsp; &nbsp;<font class='negOutcome'>You receive: <strong>0</strong></font></div>","null","12","Papaya Payday","Fruit/papayas.png","Lost","0.35,0.8","12","0.35","177","35","",""
"","","","decision","63f3a7e45f338798fd025d99","bdp_rwlrn","Wed Mar 15 2023 14:30:37 GMT-0500 (Central Daylight Time)","382881","Untrustworthy,Trustworthy","html-keyboard-response","116","180169","0.0-11.0-1.35","","258","","<div class='trialDiv'><img src='Fruit/apple.png'><br><font class='baseline'><strong>Awesome Apples</strong><p>Choose number of points to bet.</font><div class='respPicDiv'><img src='img/responseButtonOffersNo0L.png' class='respPic'></div></div>","5","12","Awesome Apples","Fruit/apple.png","Won","0.2,0.8","11","0.2","182","36","",""
"","","","decisionFB","63f3a7e45f338798fd025d99","bdp_rwlrn","Wed Mar 15 2023 14:30:37 GMT-0500 (Central Daylight Time)","382881","Untrustworthy,Trustworthy","html-keyboard-response","117","180435","0.0-11.0-2.35","","null","","<div class='trialDiv'><img src='Fruit/apple.png'><br><font class='baseline'><strong>Awesome Apples</strong><p>Choose number of points to bet.</font><div class='respPicDiv'><img src='img/responseButtonOffersNo0L5.png' class='respPic'></div></div>","null","12","Awesome Apples","Fruit/apple.png","Won","0.2,0.8","11","0.2","177","36","",""
"","","","feedback","63f3a7e45f338798fd025d99","bdp_rwlrn","Wed Mar 15 2023 14:30:37 GMT-0500 (Central Daylight Time)","382881","Untrustworthy,Trustworthy","html-keyboard-response","118","181448","0.0-11.0-3.35","","null","","<div class='respPicDiv'><img src='img/responseButtonOffersNo0_wht.png' class='respPic'></div><div class='trialDiv'><img src='Fruit/apple.png'><br><font class='baseline'><strong>Awesome Apples</strong><p><strong><font class='posOutcome'>You WON</font><p>You bet: 5</strong></font> &nbsp; &nbsp; &nbsp; &nbsp; &nbsp; &nbsp;<font class='posOutcome'>you receive: <strong>10</strong></font></div>","null","12","Awesome Apples","Fruit/apple.png","Won","0.2,0.8","11","0.2","187","36","",""
"","","","decision","63f3a7e45f338798fd025d99","bdp_rwlrn","Wed Mar 15 2023 14:30:37 GMT-0500 (Central Daylight Time)","382881","Untrustworthy,Trustworthy","html-keyboard-response","119","181739","0.0-11.0-1.36","","290","","<div class='trialDiv'><img src='Fruit/papayas.png'><br><font class='baseline'><strong>Papaya Payday</strong><p>Choose number of points to bet.</font><div class='respPicDiv'><img src='img/responseButtonOffersNo0L.png' class='respPic'></div></div>","5","13","Papaya Payday","Fruit/papayas.png","Won","0.35,0.8","12","0.35","192","37","",""
"","","","decisionFB","63f3a7e45f338798fd025d99","bdp_rwlrn","Wed Mar 15 2023 14:30:37 GMT-0500 (Central Daylight Time)","382881","Untrustworthy,Trustworthy","html-keyboard-response","120","182004","0.0-11.0-2.36","","null","","<div class='trialDiv'><img src='Fruit/papayas.png'><br><font class='baseline'><strong>Papaya Payday</strong><p>Choose number of points to bet.</font><div class='respPicDiv'><img src='img/responseButtonOffersNo0L5.png' class='respPic'></div></div>","null","13","Papaya Payday","Fruit/papayas.png","Won","0.35,0.8","12","0.35","187","37","",""
"","","","feedback","63f3a7e45f338798fd025d99","bdp_rwlrn","Wed Mar 15 2023 14:30:37 GMT-0500 (Central Daylight Time)","382881","Untrustworthy,Trustworthy","html-keyboard-response","121","183008","0.0-11.0-3.36","","null","","<div class='respPicDiv'><img src='img/responseButtonOffersNo0_wht.png' class='respPic'></div><div class='trialDiv'><img src='Fruit/papayas.png'><br><font class='baseline'><strong>Papaya Payday</strong><p><strong><font class='posOutcome'>You WON</font><p>You bet: 5</strong></font> &nbsp; &nbsp; &nbsp; &nbsp; &nbsp; &nbsp;<font class='posOutcome'>you receive: <strong>10</strong></font></div>","null","13","Papaya Payday","Fruit/papayas.png","Won","0.35,0.8","12","0.35","197","37","",""
"","","","decision","63f3a7e45f338798fd025d99","bdp_rwlrn","Wed Mar 15 2023 14:30:37 GMT-0500 (Central Daylight Time)","382881","Untrustworthy,Trustworthy","html-keyboard-response","122","183249","0.0-11.0-1.37","","240","","<div class='trialDiv'><img src='Fruit/apple.png'><br><font class='baseline'><strong>Awesome Apples</strong><p>Choose number of points to bet.</font><div class='respPicDiv'><img src='img/responseButtonOffersNo0L.png' class='respPic'></div></div>","5","13","Awesome Apples","Fruit/apple.png","Lost","0.2,0.8","11","0.2","202","38","",""
"","","","decisionFB","63f3a7e45f338798fd025d99","bdp_rwlrn","Wed Mar 15 2023 14:30:37 GMT-0500 (Central Daylight Time)","382881","Untrustworthy,Trustworthy","html-keyboard-response","123","183504","0.0-11.0-2.37","","null","","<div class='trialDiv'><img src='Fruit/apple.png'><br><font class='baseline'><strong>Awesome Apples</strong><p>Choose number of points to bet.</font><div class='respPicDiv'><img src='img/responseButtonOffersNo0L5.png' class='respPic'></div></div>","null","13","Awesome Apples","Fruit/apple.png","Lost","0.2,0.8","11","0.2","197","38","",""
"","","","feedback","63f3a7e45f338798fd025d99","bdp_rwlrn","Wed Mar 15 2023 14:30:37 GMT-0500 (Central Daylight Time)","382881","Untrustworthy,Trustworthy","html-keyboard-response","124","184513","0.0-11.0-3.37","","null","","<div class='respPicDiv'><img src='img/responseButtonOffersNo0_wht.png' class='respPic'></div><div class='trialDiv'><img src='Fruit/apple.png'><br><font class='baseline'><strong>Awesome Apples</strong><p><strong><font class='negOutcome'>You LOST</font><p>You bet: 5</strong></font> &nbsp; &nbsp; &nbsp; &nbsp; &nbsp; &nbsp;<font class='negOutcome'>You receive: <strong>0</strong></font></div>","null","13","Awesome Apples","Fruit/apple.png","Lost","0.2,0.8","11","0.2","197","38","",""
"","","","decision","63f3a7e45f338798fd025d99","bdp_rwlrn","Wed Mar 15 2023 14:30:37 GMT-0500 (Central Daylight Time)","382881","Untrustworthy,Trustworthy","html-keyboard-response","125","185343","0.0-11.0-1.38","","829","","<div class='trialDiv'><img src='Fruit/pears.png'><br><font class='baseline'><strong>Pears Aplenty</strong><p>Choose number of points to bet.</font><div class='respPicDiv'><img src='img/responseButtonOffersNo0L.png' class='respPic'></div></div>","5","13","Pears Aplenty","Fruit/pears.png","Won","0.8,0.35","12","0.8","202","39","",""
"","","","decisionFB","63f3a7e45f338798fd025d99","bdp_rwlrn","Wed Mar 15 2023 14:30:37 GMT-0500 (Central Daylight Time)","382881","Untrustworthy,Trustworthy","html-keyboard-response","126","185593","0.0-11.0-2.38","","null","","<div class='trialDiv'><img src='Fruit/pears.png'><br><font class='baseline'><strong>Pears Aplenty</strong><p>Choose number of points to bet.</font><div class='respPicDiv'><img src='img/responseButtonOffersNo0L5.png' class='respPic'></div></div>","null","13","Pears Aplenty","Fruit/pears.png","Won","0.8,0.35","12","0.8","197","39","",""
"","","","feedback","63f3a7e45f338798fd025d99","bdp_rwlrn","Wed Mar 15 2023 14:30:37 GMT-0500 (Central Daylight Time)","382881","Untrustworthy,Trustworthy","html-keyboard-response","127","186609","0.0-11.0-3.38","","null","","<div class='respPicDiv'><img src='img/responseButtonOffersNo0_wht.png' class='respPic'></div><div class='trialDiv'><img src='Fruit/pears.png'><br><font class='baseline'><strong>Pears Aplenty</strong><p><strong><font class='posOutcome'>You WON</font><p>You bet: 5</strong></font> &nbsp; &nbsp; &nbsp; &nbsp; &nbsp; &nbsp;<font class='posOutcome'>you receive: <strong>10</strong></font></div>","null","13","Pears Aplenty","Fruit/pears.png","Won","0.8,0.35","12","0.8","207","39","",""
"","","","decision","63f3a7e45f338798fd025d99","bdp_rwlrn","Wed Mar 15 2023 14:30:37 GMT-0500 (Central Daylight Time)","382881","Untrustworthy,Trustworthy","html-keyboard-response","128","186952","0.0-11.0-1.39","","343","","<div class='trialDiv'><img src='Fruit/apple.png'><br><font class='baseline'><strong>Awesome Apples</strong><p>Choose number of points to bet.</font><div class='respPicDiv'><img src='img/responseButtonOffersNo0L.png' class='respPic'></div></div>","5","14","Awesome Apples","Fruit/apple.png","Won","0.2,0.8","11","0.2","212","40","",""
"","","","decisionFB","63f3a7e45f338798fd025d99","bdp_rwlrn","Wed Mar 15 2023 14:30:37 GMT-0500 (Central Daylight Time)","382881","Untrustworthy,Trustworthy","html-keyboard-response","129","187217","0.0-11.0-2.39","","null","","<div class='trialDiv'><img src='Fruit/apple.png'><br><font class='baseline'><strong>Awesome Apples</strong><p>Choose number of points to bet.</font><div class='respPicDiv'><img src='img/responseButtonOffersNo0L5.png' class='respPic'></div></div>","null","14","Awesome Apples","Fruit/apple.png","Won","0.2,0.8","11","0.2","207","40","",""
"","","","feedback","63f3a7e45f338798fd025d99","bdp_rwlrn","Wed Mar 15 2023 14:30:37 GMT-0500 (Central Daylight Time)","382881","Untrustworthy,Trustworthy","html-keyboard-response","130","188221","0.0-11.0-3.39","","null","","<div class='respPicDiv'><img src='img/responseButtonOffersNo0_wht.png' class='respPic'></div><div class='trialDiv'><img src='Fruit/apple.png'><br><font class='baseline'><strong>Awesome Apples</strong><p><strong><font class='posOutcome'>You WON</font><p>You bet: 5</strong></font> &nbsp; &nbsp; &nbsp; &nbsp; &nbsp; &nbsp;<font class='posOutcome'>you receive: <strong>10</strong></font></div>","null","14","Awesome Apples","Fruit/apple.png","Won","0.2,0.8","11","0.2","217","40","",""
"","","","decision","63f3a7e45f338798fd025d99","bdp_rwlrn","Wed Mar 15 2023 14:30:37 GMT-0500 (Central Daylight Time)","382881","Untrustworthy,Trustworthy","html-keyboard-response","131","189244","0.0-11.0-1.40","","1022","","<div class='trialDiv'><img src='Fruit/pears.png'><br><font class='baseline'><strong>Pears Aplenty</strong><p>Choose number of points to bet.</font><div class='respPicDiv'><img src='img/responseButtonOffersNo0L.png' class='respPic'></div></div>","4","14","Pears Aplenty","Fruit/pears.png","Lost","0.8,0.35","12","0.8","222","41","",""
"","","","decisionFB","63f3a7e45f338798fd025d99","bdp_rwlrn","Wed Mar 15 2023 14:30:37 GMT-0500 (Central Daylight Time)","382881","Untrustworthy,Trustworthy","html-keyboard-response","132","189498","0.0-11.0-2.40","","null","","<div class='trialDiv'><img src='Fruit/pears.png'><br><font class='baseline'><strong>Pears Aplenty</strong><p>Choose number of points to bet.</font><div class='respPicDiv'><img src='img/responseButtonOffersNo0L4.png' class='respPic'></div></div>","null","14","Pears Aplenty","Fruit/pears.png","Lost","0.8,0.35","12","0.8","218","41","",""
"","","","feedback","63f3a7e45f338798fd025d99","bdp_rwlrn","Wed Mar 15 2023 14:30:37 GMT-0500 (Central Daylight Time)","382881","Untrustworthy,Trustworthy","html-keyboard-response","133","190506","0.0-11.0-3.40","","null","","<div class='respPicDiv'><img src='img/responseButtonOffersNo0_wht.png' class='respPic'></div><div class='trialDiv'><img src='Fruit/pears.png'><br><font class='baseline'><strong>Pears Aplenty</strong><p><strong><font class='negOutcome'>You LOST</font><p>You bet: 4</strong></font> &nbsp; &nbsp; &nbsp; &nbsp; &nbsp; &nbsp;<font class='negOutcome'>You receive: <strong>0</strong></font></div>","null","14","Pears Aplenty","Fruit/pears.png","Lost","0.8,0.35","12","0.8","218","41","",""
"","","","decision","63f3a7e45f338798fd025d99","bdp_rwlrn","Wed Mar 15 2023 14:30:37 GMT-0500 (Central Daylight Time)","382881","Untrustworthy,Trustworthy","html-keyboard-response","134","191231","0.0-11.0-1.41","","724","","<div class='trialDiv'><img src='Fruit/papayas.png'><br><font class='baseline'><strong>Papaya Payday</strong><p>Choose number of points to bet.</font><div class='respPicDiv'><img src='img/responseButtonOffersNo0L.png' class='respPic'></div></div>","1","14","Papaya Payday","Fruit/papayas.png","Lost","0.35,0.8","12","0.35","223","42","",""
"","","","decisionFB","63f3a7e45f338798fd025d99","bdp_rwlrn","Wed Mar 15 2023 14:30:37 GMT-0500 (Central Daylight Time)","382881","Untrustworthy,Trustworthy","html-keyboard-response","135","191482","0.0-11.0-2.41","","null","","<div class='trialDiv'><img src='Fruit/papayas.png'><br><font class='baseline'><strong>Papaya Payday</strong><p>Choose number of points to bet.</font><div class='respPicDiv'><img src='img/responseButtonOffersNo0L1.png' class='respPic'></div></div>","null","14","Papaya Payday","Fruit/papayas.png","Lost","0.35,0.8","12","0.35","222","42","",""
"","","","feedback","63f3a7e45f338798fd025d99","bdp_rwlrn","Wed Mar 15 2023 14:30:37 GMT-0500 (Central Daylight Time)","382881","Untrustworthy,Trustworthy","html-keyboard-response","136","192490","0.0-11.0-3.41","","null","","<div class='respPicDiv'><img src='img/responseButtonOffersNo0_wht.png' class='respPic'></div><div class='trialDiv'><img src='Fruit/papayas.png'><br><font class='baseline'><strong>Papaya Payday</strong><p><strong><font class='negOutcome'>You LOST</font><p>You bet: 1</strong></font> &nbsp; &nbsp; &nbsp; &nbsp; &nbsp; &nbsp;<font class='negOutcome'>You receive: <strong>0</strong></font></div>","null","14","Papaya Payday","Fruit/papayas.png","Lost","0.35,0.8","12","0.35","222","42","",""
"","","","decision","63f3a7e45f338798fd025d99","bdp_rwlrn","Wed Mar 15 2023 14:30:37 GMT-0500 (Central Daylight Time)","382881","Untrustworthy,Trustworthy","html-keyboard-response","137","192802","0.0-11.0-1.42","","311","","<div class='trialDiv'><img src='Fruit/apple.png'><br><font class='baseline'><strong>Awesome Apples</strong><p>Choose number of points to bet.</font><div class='respPicDiv'><img src='img/responseButtonOffersNo0L.png' class='respPic'></div></div>","1","15","Awesome Apples","Fruit/apple.png","Lost","0.2,0.8","11","0.2","227","43","",""
"","","","decisionFB","63f3a7e45f338798fd025d99","bdp_rwlrn","Wed Mar 15 2023 14:30:37 GMT-0500 (Central Daylight Time)","382881","Untrustworthy,Trustworthy","html-keyboard-response","138","193066","0.0-11.0-2.42","","null","","<div class='trialDiv'><img src='Fruit/apple.png'><br><font class='baseline'><strong>Awesome Apples</strong><p>Choose number of points to bet.</font><div class='respPicDiv'><img src='img/responseButtonOffersNo0L1.png' class='respPic'></div></div>","null","15","Awesome Apples","Fruit/apple.png","Lost","0.2,0.8","11","0.2","226","43","",""
"","","","feedback","63f3a7e45f338798fd025d99","bdp_rwlrn","Wed Mar 15 2023 14:30:37 GMT-0500 (Central Daylight Time)","382881","Untrustworthy,Trustworthy","html-keyboard-response","139","194071","0.0-11.0-3.42","","null","","<div class='respPicDiv'><img src='img/responseButtonOffersNo0_wht.png' class='respPic'></div><div class='trialDiv'><img src='Fruit/apple.png'><br><font class='baseline'><strong>Awesome Apples</strong><p><strong><font class='negOutcome'>You LOST</font><p>You bet: 1</strong></font> &nbsp; &nbsp; &nbsp; &nbsp; &nbsp; &nbsp;<font class='negOutcome'>You receive: <strong>0</strong></font></div>","null","15","Awesome Apples","Fruit/apple.png","Lost","0.2,0.8","11","0.2","226","43","",""
"","","","decision","63f3a7e45f338798fd025d99","bdp_rwlrn","Wed Mar 15 2023 14:30:37 GMT-0500 (Central Daylight Time)","382881","Untrustworthy,Trustworthy","html-keyboard-response","140","194368","0.0-11.0-1.43","","296","","<div class='trialDiv'><img src='Fruit/pears.png'><br><font class='baseline'><strong>Pears Aplenty</strong><p>Choose number of points to bet.</font><div class='respPicDiv'><img src='img/responseButtonOffersNo0L.png' class='respPic'></div></div>","1","15","Pears Aplenty","Fruit/pears.png","Won","0.8,0.35","12","0.8","231","44","",""
"","","","decisionFB","63f3a7e45f338798fd025d99","bdp_rwlrn","Wed Mar 15 2023 14:30:37 GMT-0500 (Central Daylight Time)","382881","Untrustworthy,Trustworthy","html-keyboard-response","141","194631","0.0-11.0-2.43","","null","","<div class='trialDiv'><img src='Fruit/pears.png'><br><font class='baseline'><strong>Pears Aplenty</strong><p>Choose number of points to bet.</font><div class='respPicDiv'><img src='img/responseButtonOffersNo0L1.png' class='respPic'></div></div>","null","15","Pears Aplenty","Fruit/pears.png","Won","0.8,0.35","12","0.8","230","44","",""
"","","","feedback","63f3a7e45f338798fd025d99","bdp_rwlrn","Wed Mar 15 2023 14:30:37 GMT-0500 (Central Daylight Time)","382881","Untrustworthy,Trustworthy","html-keyboard-response","142","195635","0.0-11.0-3.43","","null","","<div class='respPicDiv'><img src='img/responseButtonOffersNo0_wht.png' class='respPic'></div><div class='trialDiv'><img src='Fruit/pears.png'><br><font class='baseline'><strong>Pears Aplenty</strong><p><strong><font class='posOutcome'>You WON</font><p>You bet: 1</strong></font> &nbsp; &nbsp; &nbsp; &nbsp; &nbsp; &nbsp;<font class='posOutcome'>you receive: <strong>2</strong></font></div>","null","15","Pears Aplenty","Fruit/pears.png","Won","0.8,0.35","12","0.8","232","44","",""
"","","","decision","63f3a7e45f338798fd025d99","bdp_rwlrn","Wed Mar 15 2023 14:30:37 GMT-0500 (Central Daylight Time)","382881","Untrustworthy,Trustworthy","html-keyboard-response","143","196862","0.0-11.0-1.44","","1226","","<div class='trialDiv'><img src='Fruit/papayas.png'><br><font class='baseline'><strong>Papaya Payday</strong><p>Choose number of points to bet.</font><div class='respPicDiv'><img src='img/responseButtonOffersNo0L.png' class='respPic'></div></div>","1","15","Papaya Payday","Fruit/papayas.png","Won","0.35,0.8","12","0.35","237","45","",""
"","","","decisionFB","63f3a7e45f338798fd025d99","bdp_rwlrn","Wed Mar 15 2023 14:30:37 GMT-0500 (Central Daylight Time)","382881","Untrustworthy,Trustworthy","html-keyboard-response","144","197128","0.0-11.0-2.44","","null","","<div class='trialDiv'><img src='Fruit/papayas.png'><br><font class='baseline'><strong>Papaya Payday</strong><p>Choose number of points to bet.</font><div class='respPicDiv'><img src='img/responseButtonOffersNo0L1.png' class='respPic'></div></div>","null","15","Papaya Payday","Fruit/papayas.png","Won","0.35,0.8","12","0.35","236","45","",""
"","","","feedback","63f3a7e45f338798fd025d99","bdp_rwlrn","Wed Mar 15 2023 14:30:37 GMT-0500 (Central Daylight Time)","382881","Untrustworthy,Trustworthy","html-keyboard-response","145","198140","0.0-11.0-3.44","","null","","<div class='respPicDiv'><img src='img/responseButtonOffersNo0_wht.png' class='respPic'></div><div class='trialDiv'><img src='Fruit/papayas.png'><br><font class='baseline'><strong>Papaya Payday</strong><p><strong><font class='posOutcome'>You WON</font><p>You bet: 1</strong></font> &nbsp; &nbsp; &nbsp; &nbsp; &nbsp; &nbsp;<font class='posOutcome'>you receive: <strong>2</strong></font></div>","null","15","Papaya Payday","Fruit/papayas.png","Won","0.35,0.8","12","0.35","238","45","",""
"","","","decision","63f3a7e45f338798fd025d99","bdp_rwlrn","Wed Mar 15 2023 14:30:37 GMT-0500 (Central Daylight Time)","382881","Untrustworthy,Trustworthy","html-keyboard-response","146","199296","0.0-11.0-1.45","","1155","","<div class='trialDiv'><img src='Fruit/pears.png'><br><font class='baseline'><strong>Pears Aplenty</strong><p>Choose number of points to bet.</font><div class='respPicDiv'><img src='img/responseButtonOffersNo0L.png' class='respPic'></div></div>","2","16","Pears Aplenty","Fruit/pears.png","Lost","0.8,0.35","12","0.8","243","46","",""
"","","","decisionFB","63f3a7e45f338798fd025d99","bdp_rwlrn","Wed Mar 15 2023 14:30:37 GMT-0500 (Central Daylight Time)","382881","Untrustworthy,Trustworthy","html-keyboard-response","147","199548","0.0-11.0-2.45","","null","","<div class='trialDiv'><img src='Fruit/pears.png'><br><font class='baseline'><strong>Pears Aplenty</strong><p>Choose number of points to bet.</font><div class='respPicDiv'><img src='img/responseButtonOffersNo0L2.png' class='respPic'></div></div>","null","16","Pears Aplenty","Fruit/pears.png","Lost","0.8,0.35","12","0.8","241","46","",""
"","","","feedback","63f3a7e45f338798fd025d99","bdp_rwlrn","Wed Mar 15 2023 14:30:37 GMT-0500 (Central Daylight Time)","382881","Untrustworthy,Trustworthy","html-keyboard-response","148","200556","0.0-11.0-3.45","","null","","<div class='respPicDiv'><img src='img/responseButtonOffersNo0_wht.png' class='respPic'></div><div class='trialDiv'><img src='Fruit/pears.png'><br><font class='baseline'><strong>Pears Aplenty</strong><p><strong><font class='negOutcome'>You LOST</font><p>You bet: 2</strong></font> &nbsp; &nbsp; &nbsp; &nbsp; &nbsp; &nbsp;<font class='negOutcome'>You receive: <strong>0</strong></font></div>","null","16","Pears Aplenty","Fruit/pears.png","Lost","0.8,0.35","12","0.8","241","46","",""
"","","","decision","63f3a7e45f338798fd025d99","bdp_rwlrn","Wed Mar 15 2023 14:30:37 GMT-0500 (Central Daylight Time)","382881","Untrustworthy,Trustworthy","html-keyboard-response","149","201207","0.0-11.0-1.46","","650","","<div class='trialDiv'><img src='Fruit/apple.png'><br><font class='baseline'><strong>Awesome Apples</strong><p>Choose number of points to bet.</font><div class='respPicDiv'><img src='img/responseButtonOffersNo0L.png' class='respPic'></div></div>","1","16","Awesome Apples","Fruit/apple.png","Won","0.2,0.8","11","0.2","246","47","",""
"","","","decisionFB","63f3a7e45f338798fd025d99","bdp_rwlrn","Wed Mar 15 2023 14:30:37 GMT-0500 (Central Daylight Time)","382881","Untrustworthy,Trustworthy","html-keyboard-response","150","201469","0.0-11.0-2.46","","null","","<div class='trialDiv'><img src='Fruit/apple.png'><br><font class='baseline'><strong>Awesome Apples</strong><p>Choose number of points to bet.</font><div class='respPicDiv'><img src='img/responseButtonOffersNo0L1.png' class='respPic'></div></div>","null","16","Awesome Apples","Fruit/apple.png","Won","0.2,0.8","11","0.2","245","47","",""
"","","","feedback","63f3a7e45f338798fd025d99","bdp_rwlrn","Wed Mar 15 2023 14:30:37 GMT-0500 (Central Daylight Time)","382881","Untrustworthy,Trustworthy","html-keyboard-response","151","202477","0.0-11.0-3.46","","null","","<div class='respPicDiv'><img src='img/responseButtonOffersNo0_wht.png' class='respPic'></div><div class='trialDiv'><img src='Fruit/apple.png'><br><font class='baseline'><strong>Awesome Apples</strong><p><strong><font class='posOutcome'>You WON</font><p>You bet: 1</strong></font> &nbsp; &nbsp; &nbsp; &nbsp; &nbsp; &nbsp;<font class='posOutcome'>you receive: <strong>2</strong></font></div>","null","16","Awesome Apples","Fruit/apple.png","Won","0.2,0.8","11","0.2","247","47","",""
"","","","decision","63f3a7e45f338798fd025d99","bdp_rwlrn","Wed Mar 15 2023 14:30:37 GMT-0500 (Central Daylight Time)","382881","Untrustworthy,Trustworthy","html-keyboard-response","152","202662","0.0-11.0-1.47","","183","","<div class='trialDiv'><img src='Fruit/papayas.png'><br><font class='baseline'><strong>Papaya Payday</strong><p>Choose number of points to bet.</font><div class='respPicDiv'><img src='img/responseButtonOffersNo0L.png' class='respPic'></div></div>","3","16","Papaya Payday","Fruit/papayas.png","Won","0.35,0.8","12","0.35","252","48","",""
"","","","decisionFB","63f3a7e45f338798fd025d99","bdp_rwlrn","Wed Mar 15 2023 14:30:37 GMT-0500 (Central Daylight Time)","382881","Untrustworthy,Trustworthy","html-keyboard-response","153","202921","0.0-11.0-2.47","","null","","<div class='trialDiv'><img src='Fruit/papayas.png'><br><font class='baseline'><strong>Papaya Payday</strong><p>Choose number of points to bet.</font><div class='respPicDiv'><img src='img/responseButtonOffersNo0L3.png' class='respPic'></div></div>","null","16","Papaya Payday","Fruit/papayas.png","Won","0.35,0.8","12","0.35","249","48","",""
"","","","feedback","63f3a7e45f338798fd025d99","bdp_rwlrn","Wed Mar 15 2023 14:30:37 GMT-0500 (Central Daylight Time)","382881","Untrustworthy,Trustworthy","html-keyboard-response","154","203929","0.0-11.0-3.47","","null","","<div class='respPicDiv'><img src='img/responseButtonOffersNo0_wht.png' class='respPic'></div><div class='trialDiv'><img src='Fruit/papayas.png'><br><font class='baseline'><strong>Papaya Payday</strong><p><strong><font class='posOutcome'>You WON</font><p>You bet: 3</strong></font> &nbsp; &nbsp; &nbsp; &nbsp; &nbsp; &nbsp;<font class='posOutcome'>you receive: <strong>6</strong></font></div>","null","16","Papaya Payday","Fruit/papayas.png","Won","0.35,0.8","12","0.35","255","48","",""
"","","","decision","63f3a7e45f338798fd025d99","bdp_rwlrn","Wed Mar 15 2023 14:30:37 GMT-0500 (Central Daylight Time)","382881","Untrustworthy,Trustworthy","html-keyboard-response","155","204360","0.0-11.0-1.48","","430","","<div class='trialDiv'><img src='Fruit/apple.png'><br><font class='baseline'><strong>Awesome Apples</strong><p>Choose number of points to bet.</font><div class='respPicDiv'><img src='img/responseButtonOffersNo0L.png' class='respPic'></div></div>","3","17","Awesome Apples","Fruit/apple.png","Lost","0.2,0.8","11","0.2","260","49","",""
"","","","decisionFB","63f3a7e45f338798fd025d99","bdp_rwlrn","Wed Mar 15 2023 14:30:37 GMT-0500 (Central Daylight Time)","382881","Untrustworthy,Trustworthy","html-keyboard-response","156","204617","0.0-11.0-2.48","","null","","<div class='trialDiv'><img src='Fruit/apple.png'><br><font class='baseline'><strong>Awesome Apples</strong><p>Choose number of points to bet.</font><div class='respPicDiv'><img src='img/responseButtonOffersNo0L3.png' class='respPic'></div></div>","null","17","Awesome Apples","Fruit/apple.png","Lost","0.2,0.8","11","0.2","257","49","",""
"","","","feedback","63f3a7e45f338798fd025d99","bdp_rwlrn","Wed Mar 15 2023 14:30:37 GMT-0500 (Central Daylight Time)","382881","Untrustworthy,Trustworthy","html-keyboard-response","157","205634","0.0-11.0-3.48","","null","","<div class='respPicDiv'><img src='img/responseButtonOffersNo0_wht.png' class='respPic'></div><div class='trialDiv'><img src='Fruit/apple.png'><br><font class='baseline'><strong>Awesome Apples</strong><p><strong><font class='negOutcome'>You LOST</font><p>You bet: 3</strong></font> &nbsp; &nbsp; &nbsp; &nbsp; &nbsp; &nbsp;<font class='negOutcome'>You receive: <strong>0</strong></font></div>","null","17","Awesome Apples","Fruit/apple.png","Lost","0.2,0.8","11","0.2","257","49","",""
"","","","decision","63f3a7e45f338798fd025d99","bdp_rwlrn","Wed Mar 15 2023 14:30:37 GMT-0500 (Central Daylight Time)","382881","Untrustworthy,Trustworthy","html-keyboard-response","158","206111","0.0-11.0-1.49","","476","","<div class='trialDiv'><img src='Fruit/pears.png'><br><font class='baseline'><strong>Pears Aplenty</strong><p>Choose number of points to bet.</font><div class='respPicDiv'><img src='img/responseButtonOffersNo0L.png' class='respPic'></div></div>","5","17","Pears Aplenty","Fruit/pears.png","Lost","0.8,0.35","12","0.8","262","50","",""
"","","","decisionFB","63f3a7e45f338798fd025d99","bdp_rwlrn","Wed Mar 15 2023 14:30:37 GMT-0500 (Central Daylight Time)","382881","Untrustworthy,Trustworthy","html-keyboard-response","159","206362","0.0-11.0-2.49","","null","","<div class='trialDiv'><img src='Fruit/pears.png'><br><font class='baseline'><strong>Pears Aplenty</strong><p>Choose number of points to bet.</font><div class='respPicDiv'><img src='img/responseButtonOffersNo0L5.png' class='respPic'></div></div>","null","17","Pears Aplenty","Fruit/pears.png","Lost","0.8,0.35","12","0.8","257","50","",""
"","","","feedback","63f3a7e45f338798fd025d99","bdp_rwlrn","Wed Mar 15 2023 14:30:37 GMT-0500 (Central Daylight Time)","382881","Untrustworthy,Trustworthy","html-keyboard-response","160","207371","0.0-11.0-3.49","","null","","<div class='respPicDiv'><img src='img/responseButtonOffersNo0_wht.png' class='respPic'></div><div class='trialDiv'><img src='Fruit/pears.png'><br><font class='baseline'><strong>Pears Aplenty</strong><p><strong><font class='negOutcome'>You LOST</font><p>You bet: 5</strong></font> &nbsp; &nbsp; &nbsp; &nbsp; &nbsp; &nbsp;<font class='negOutcome'>You receive: <strong>0</strong></font></div>","null","17","Pears Aplenty","Fruit/pears.png","Lost","0.8,0.35","12","0.8","257","50","",""
"","","","decision","63f3a7e45f338798fd025d99","bdp_rwlrn","Wed Mar 15 2023 14:30:37 GMT-0500 (Central Daylight Time)","382881","Untrustworthy,Trustworthy","html-keyboard-response","161","207449","0.0-11.0-1.50","","78","","<div class='trialDiv'><img src='Fruit/papayas.png'><br><font class='baseline'><strong>Papaya Payday</strong><p>Choose number of points to bet.</font><div class='respPicDiv'><img src='img/responseButtonOffersNo0L.png' class='respPic'></div></div>","5","17","Papaya Payday","Fruit/papayas.png","Lost","0.35,0.8","12","0.35","262","51","",""
"","","","decisionFB","63f3a7e45f338798fd025d99","bdp_rwlrn","Wed Mar 15 2023 14:30:37 GMT-0500 (Central Daylight Time)","382881","Untrustworthy,Trustworthy","html-keyboard-response","162","207711","0.0-11.0-2.50","","null","","<div class='trialDiv'><img src='Fruit/papayas.png'><br><font class='baseline'><strong>Papaya Payday</strong><p>Choose number of points to bet.</font><div class='respPicDiv'><img src='img/responseButtonOffersNo0L5.png' class='respPic'></div></div>","null","17","Papaya Payday","Fruit/papayas.png","Lost","0.35,0.8","12","0.35","257","51","",""
"","","","feedback","63f3a7e45f338798fd025d99","bdp_rwlrn","Wed Mar 15 2023 14:30:37 GMT-0500 (Central Daylight Time)","382881","Untrustworthy,Trustworthy","html-keyboard-response","163","208715","0.0-11.0-3.50","","null","","<div class='respPicDiv'><img src='img/responseButtonOffersNo0_wht.png' class='respPic'></div><div class='trialDiv'><img src='Fruit/papayas.png'><br><font class='baseline'><strong>Papaya Payday</strong><p><strong><font class='negOutcome'>You LOST</font><p>You bet: 5</strong></font> &nbsp; &nbsp; &nbsp; &nbsp; &nbsp; &nbsp;<font class='negOutcome'>You receive: <strong>0</strong></font></div>","null","17","Papaya Payday","Fruit/papayas.png","Lost","0.35,0.8","12","0.35","257","51","",""
