"event","trial","time","trialtype","subject_id","task","startTime","totalTime","labels","trial_type","trial_index","time_elapsed","internal_node_id","view_history","rt","success","stimulus","key_press","ltround","name","fileID","outcome","lottotype","lottoswpt","lottocurrpshare","point_total","round","faceID","face"
"focus","0","0","focusevent","6092dea4efd6d61350f0fdbf","bdp_rwlrn","Wed Mar 15 2023 14:45:17 GMT-0500 (Central Daylight Time)","382153","Untrustworthy,Trustworthy","","","","","","","","","","","","","","","","","","","",""
"","","","","6092dea4efd6d61350f0fdbf","bdp_rwlrn","Wed Mar 15 2023 14:45:17 GMT-0500 (Central Daylight Time)","382153","Untrustworthy,Trustworthy","pavlovia","0","2","0.0-0.0","","","","","","","","","","","","","","","",""
"","","","","6092dea4efd6d61350f0fdbf","bdp_rwlrn","Wed Mar 15 2023 14:45:17 GMT-0500 (Central Daylight Time)","382153","Untrustworthy,Trustworthy","instructions","1","2405","0.0-1.0","[{""page_index"":0,""viewing_time"":2402}]","2402","","","","","","","","","","","","","",""
"fullscreenexit","2","6640","fullscreenexit","6092dea4efd6d61350f0fdbf","bdp_rwlrn","Wed Mar 15 2023 14:45:17 GMT-0500 (Central Daylight Time)","382153","Untrustworthy,Trustworthy","","","","","","","","","","","","","","","","","","","",""
"","","","","6092dea4efd6d61350f0fdbf","bdp_rwlrn","Wed Mar 15 2023 14:45:17 GMT-0500 (Central Daylight Time)","382153","Untrustworthy,Trustworthy","fullscreen","2","7420","0.0-2.0","","","true","","","","","","","","","","","","",""
"","","","fullscreenfail","6092dea4efd6d61350f0fdbf","bdp_rwlrn","Wed Mar 15 2023 14:45:17 GMT-0500 (Central Daylight Time)","382153","Untrustworthy,Trustworthy","image-keyboard-response","3","12470","0.0-3.0-0.0","","5048","","","32","","","","","","","","","","",""
"","","","","6092dea4efd6d61350f0fdbf","bdp_rwlrn","Wed Mar 15 2023 14:45:17 GMT-0500 (Central Daylight Time)","382153","Untrustworthy,Trustworthy","instructions","4","80412","0.0-4.0","[{""page_index"":0,""viewing_time"":7378},{""page_index"":1,""viewing_time"":6660},{""page_index"":2,""viewing_time"":2404},{""page_index"":3,""viewing_time"":785},{""page_index"":4,""viewing_time"":45923},{""page_index"":5,""viewing_time"":4537}]","67687","","","","","","","","","","","","","",""
"","","","","6092dea4efd6d61350f0fdbf","bdp_rwlrn","Wed Mar 15 2023 14:45:17 GMT-0500 (Central Daylight Time)","382153","Untrustworthy,Trustworthy","html-keyboard-response","5","83095","0.0-5.0","","2680","","<div class='header' style='text-align:left; position: absolute; top: 5%; left: 5%;'><small>Task 3 of 5</small></div><div class='instruxDiv'><p><strong>1) What is the maximum number of points you can choose to bet on a lottery?</strong></p><p>a) 0</p><p>b) 1</p><p>c) 5</p>","C","","","","","","","","","","",""
"","","","","6092dea4efd6d61350f0fdbf","bdp_rwlrn","Wed Mar 15 2023 14:45:17 GMT-0500 (Central Daylight Time)","382153","Untrustworthy,Trustworthy","html-keyboard-response","6","84308","0.0-6.0","","1109","","<div class='header' style='text-align:left; position: absolute; top: 5%; left: 5%;'><small>Task 3 of 5</small></div><div class='instruxDiv'><p><strong>1) What is the maximum number of points you can choose to bet on a lottery?</strong></p><p>a) 1</p><p>b) 1</p><p style='color:#00FF00'>c) 5</p><h3 style='color:#00FF00'>Correct!</h3><h3 class='center-content'>The correct response is c).</h3><h3 class='center-content'>The maximum number of points you can choose to bet on a lottery is 5 points.</h3><p><em>Press SPACEBAR to continue</em></p></div>"," ","","","","","","","","","","",""
"","","","","6092dea4efd6d61350f0fdbf","bdp_rwlrn","Wed Mar 15 2023 14:45:17 GMT-0500 (Central Daylight Time)","382153","Untrustworthy,Trustworthy","html-keyboard-response","7","86196","0.0-7.0","","1783","","<div class='header' style='text-align:left; position: absolute; top: 5%; left: 5%;'><small>Task 3 of 5</small></div><div class='instruxDiv'><p><strong>2) How many points can you win each round?</strong></p><p>a) 10 points</p><p>b) Double what you bet</p><p>c) Quadruple what you bet</p>","C","","","","","","","","","","",""
"","","","","6092dea4efd6d61350f0fdbf","bdp_rwlrn","Wed Mar 15 2023 14:45:17 GMT-0500 (Central Daylight Time)","382153","Untrustworthy,Trustworthy","html-keyboard-response","8","88342","0.0-8.0","","2041","","<div class='header' style='text-align:left; position: absolute; top: 5%; left: 5%;'><small>Task 3 of 5</small></div><div class='instruxDiv'><p><strong>2) How many points can you win each round?</strong></p><p>a) 10 points</p><p>b) Double what you bet</p><p style='color:#FF0000'>c) Quadruple what you bet</p><h3 style='color:#FF0000'>Incorrect!</h3><h3 class='center-content'>The correct response is b).</h3><h3 class='center-content'>You can win double the amount of points you bet.</h3><p><em>Press SPACEBAR to continue</em></p></div>"," ","","","","","","","","","","",""
"","","","","6092dea4efd6d61350f0fdbf","bdp_rwlrn","Wed Mar 15 2023 14:45:17 GMT-0500 (Central Daylight Time)","382153","Untrustworthy,Trustworthy","html-keyboard-response","9","93462","0.0-9.0","","null","","<div class='header' style='text-align:left; position: absolute; top: 5%; left: 5%;'><small>Task 3 of 5</small></div><div class='instruxDiv'><p>Thank you for completing the quiz<p>These are the actual lotteries you will be playing in the next block:<p><div class='tc' align='center'><img class='introPic' src='Fruit/lemon.png'><br><strong>Lucky Lemons</strong></div><div class='bl' align='center'><img class='introPic' src='Fruit/melon.png'><br><strong>Melon Millions</strong></div><div class='br' align='center'><img class='introPic' src='Fruit/pineapple.png'><br><strong>Primo Pineapple</strong></div></div><p>Across <strong>66 rounds</strong> you will play each lottery <strong>22 times</strong> (in random order).<p style='align:center; color:white'><font <em>Press SPACEBAR to continue</em></p>","null","","","","","","","","","","",""
"","","","","6092dea4efd6d61350f0fdbf","bdp_rwlrn","Wed Mar 15 2023 14:45:17 GMT-0500 (Central Daylight Time)","382153","Untrustworthy,Trustworthy","instructions","10","96256","0.0-10.0","[{""page_index"":0,""viewing_time"":794},{""page_index"":1,""viewing_time"":2000}]","2794","","","","","","","","","","","","","",""
"","","","decision","6092dea4efd6d61350f0fdbf","bdp_rwlrn","Wed Mar 15 2023 14:45:17 GMT-0500 (Central Daylight Time)","382153","Untrustworthy,Trustworthy","html-keyboard-response","11","100478","0.0-11.0-1.0","","4104","","<div class='trialDiv'><img src='Fruit/melon.png'><br><font class='baseline'><strong>Melon Millions</strong><p>Choose number of points to bet.</font><div class='respPicDiv'><img src='img/responseButtonOffersNo0L.png' class='respPic'></div></div>","1","1","Melon Millions","Fruit/melon.png","Lost","0.65,0.2","11","0.65","5","1","",""
"","","","decisionFB","6092dea4efd6d61350f0fdbf","bdp_rwlrn","Wed Mar 15 2023 14:45:17 GMT-0500 (Central Daylight Time)","382153","Untrustworthy,Trustworthy","html-keyboard-response","12","100740","0.0-11.0-2.0","","null","","<div class='trialDiv'><img src='Fruit/melon.png'><br><font class='baseline'><strong>Melon Millions</strong><p>Choose number of points to bet.</font><div class='respPicDiv'><img src='img/responseButtonOffersNo0L1.png' class='respPic'></div></div>","null","1","Melon Millions","Fruit/melon.png","Lost","0.65,0.2","11","0.65","4","1","",""
"","","","feedback","6092dea4efd6d61350f0fdbf","bdp_rwlrn","Wed Mar 15 2023 14:45:17 GMT-0500 (Central Daylight Time)","382153","Untrustworthy,Trustworthy","html-keyboard-response","13","101753","0.0-11.0-3.0","","null","","<div class='respPicDiv'><img src='img/responseButtonOffersNo0_wht.png' class='respPic'></div><div class='trialDiv'><img src='Fruit/melon.png'><br><font class='baseline'><strong>Melon Millions</strong><p><strong><font class='negOutcome'>You LOST</font><p>You bet: 1</strong></font> &nbsp; &nbsp; &nbsp; &nbsp; &nbsp; &nbsp;<font class='negOutcome'>You receive: <strong>0</strong></font></div>","null","1","Melon Millions","Fruit/melon.png","Lost","0.65,0.2","11","0.65","4","1","",""
"","","","decision","6092dea4efd6d61350f0fdbf","bdp_rwlrn","Wed Mar 15 2023 14:45:17 GMT-0500 (Central Daylight Time)","382153","Untrustworthy,Trustworthy","html-keyboard-response","14","102631","0.0-11.0-1.1","","876","","<div class='trialDiv'><img src='Fruit/lemon.png'><br><font class='baseline'><strong>Lucky Lemons</strong><p>Choose number of points to bet.</font><div class='respPicDiv'><img src='img/responseButtonOffersNo0L.png' class='respPic'></div></div>","1","1","Lucky Lemons","Fruit/lemon.png","Won","0.8,0.2","12","0.8","9","2","",""
"","","","decisionFB","6092dea4efd6d61350f0fdbf","bdp_rwlrn","Wed Mar 15 2023 14:45:17 GMT-0500 (Central Daylight Time)","382153","Untrustworthy,Trustworthy","html-keyboard-response","15","102890","0.0-11.0-2.1","","null","","<div class='trialDiv'><img src='Fruit/lemon.png'><br><font class='baseline'><strong>Lucky Lemons</strong><p>Choose number of points to bet.</font><div class='respPicDiv'><img src='img/responseButtonOffersNo0L1.png' class='respPic'></div></div>","null","1","Lucky Lemons","Fruit/lemon.png","Won","0.8,0.2","12","0.8","8","2","",""
"","","","feedback","6092dea4efd6d61350f0fdbf","bdp_rwlrn","Wed Mar 15 2023 14:45:17 GMT-0500 (Central Daylight Time)","382153","Untrustworthy,Trustworthy","html-keyboard-response","16","103892","0.0-11.0-3.1","","null","","<div class='respPicDiv'><img src='img/responseButtonOffersNo0_wht.png' class='respPic'></div><div class='trialDiv'><img src='Fruit/lemon.png'><br><font class='baseline'><strong>Lucky Lemons</strong><p><strong><font class='posOutcome'>You WON</font><p>You bet: 1</strong></font> &nbsp; &nbsp; &nbsp; &nbsp; &nbsp; &nbsp;<font class='posOutcome'>you receive: <strong>2</strong></font></div>","null","1","Lucky Lemons","Fruit/lemon.png","Won","0.8,0.2","12","0.8","10","2","",""
"","","","decision","6092dea4efd6d61350f0fdbf","bdp_rwlrn","Wed Mar 15 2023 14:45:17 GMT-0500 (Central Daylight Time)","382153","Untrustworthy,Trustworthy","html-keyboard-response","17","104542","0.0-11.0-1.2","","649","","<div class='trialDiv'><img src='Fruit/pineapple.png'><br><font class='baseline'><strong>Primo Pineapple</strong><p>Choose number of points to bet.</font><div class='respPicDiv'><img src='img/responseButtonOffersNo0L.png' class='respPic'></div></div>","1","1","Primo Pineapple","Fruit/pineapple.png","Lost","0.35,0.8","9","0.35","15","3","",""
"","","","decisionFB","6092dea4efd6d61350f0fdbf","bdp_rwlrn","Wed Mar 15 2023 14:45:17 GMT-0500 (Central Daylight Time)","382153","Untrustworthy,Trustworthy","html-keyboard-response","18","104793","0.0-11.0-2.2","","null","","<div class='trialDiv'><img src='Fruit/pineapple.png'><br><font class='baseline'><strong>Primo Pineapple</strong><p>Choose number of points to bet.</font><div class='respPicDiv'><img src='img/responseButtonOffersNo0L1.png' class='respPic'></div></div>","null","1","Primo Pineapple","Fruit/pineapple.png","Lost","0.35,0.8","9","0.35","14","3","",""
"","","","feedback","6092dea4efd6d61350f0fdbf","bdp_rwlrn","Wed Mar 15 2023 14:45:17 GMT-0500 (Central Daylight Time)","382153","Untrustworthy,Trustworthy","html-keyboard-response","19","105809","0.0-11.0-3.2","","null","","<div class='respPicDiv'><img src='img/responseButtonOffersNo0_wht.png' class='respPic'></div><div class='trialDiv'><img src='Fruit/pineapple.png'><br><font class='baseline'><strong>Primo Pineapple</strong><p><strong><font class='negOutcome'>You LOST</font><p>You bet: 1</strong></font> &nbsp; &nbsp; &nbsp; &nbsp; &nbsp; &nbsp;<font class='negOutcome'>You receive: <strong>0</strong></font></div>","null","1","Primo Pineapple","Fruit/pineapple.png","Lost","0.35,0.8","9","0.35","14","3","",""
"","","","decision","6092dea4efd6d61350f0fdbf","bdp_rwlrn","Wed Mar 15 2023 14:45:17 GMT-0500 (Central Daylight Time)","382153","Untrustworthy,Trustworthy","html-keyboard-response","20","106524","0.0-11.0-1.3","","714","","<div class='trialDiv'><img src='Fruit/lemon.png'><br><font class='baseline'><strong>Lucky Lemons</strong><p>Choose number of points to bet.</font><div class='respPicDiv'><img src='img/responseButtonOffersNo0L.png' class='respPic'></div></div>","2","2","Lucky Lemons","Fruit/lemon.png","Won","0.8,0.2","12","0.8","19","4","",""
"","","","decisionFB","6092dea4efd6d61350f0fdbf","bdp_rwlrn","Wed Mar 15 2023 14:45:17 GMT-0500 (Central Daylight Time)","382153","Untrustworthy,Trustworthy","html-keyboard-response","21","106775","0.0-11.0-2.3","","null","","<div class='trialDiv'><img src='Fruit/lemon.png'><br><font class='baseline'><strong>Lucky Lemons</strong><p>Choose number of points to bet.</font><div class='respPicDiv'><img src='img/responseButtonOffersNo0L2.png' class='respPic'></div></div>","null","2","Lucky Lemons","Fruit/lemon.png","Won","0.8,0.2","12","0.8","17","4","",""
"","","","feedback","6092dea4efd6d61350f0fdbf","bdp_rwlrn","Wed Mar 15 2023 14:45:17 GMT-0500 (Central Daylight Time)","382153","Untrustworthy,Trustworthy","html-keyboard-response","22","107789","0.0-11.0-3.3","","null","","<div class='respPicDiv'><img src='img/responseButtonOffersNo0_wht.png' class='respPic'></div><div class='trialDiv'><img src='Fruit/lemon.png'><br><font class='baseline'><strong>Lucky Lemons</strong><p><strong><font class='posOutcome'>You WON</font><p>You bet: 2</strong></font> &nbsp; &nbsp; &nbsp; &nbsp; &nbsp; &nbsp;<font class='posOutcome'>you receive: <strong>4</strong></font></div>","null","2","Lucky Lemons","Fruit/lemon.png","Won","0.8,0.2","12","0.8","21","4","",""
"","","","decision","6092dea4efd6d61350f0fdbf","bdp_rwlrn","Wed Mar 15 2023 14:45:17 GMT-0500 (Central Daylight Time)","382153","Untrustworthy,Trustworthy","html-keyboard-response","23","108591","0.0-11.0-1.4","","802","","<div class='trialDiv'><img src='Fruit/melon.png'><br><font class='baseline'><strong>Melon Millions</strong><p>Choose number of points to bet.</font><div class='respPicDiv'><img src='img/responseButtonOffersNo0L.png' class='respPic'></div></div>","1","2","Melon Millions","Fruit/melon.png","Lost","0.65,0.2","11","0.65","26","5","",""
"","","","decisionFB","6092dea4efd6d61350f0fdbf","bdp_rwlrn","Wed Mar 15 2023 14:45:17 GMT-0500 (Central Daylight Time)","382153","Untrustworthy,Trustworthy","html-keyboard-response","24","108849","0.0-11.0-2.4","","null","","<div class='trialDiv'><img src='Fruit/melon.png'><br><font class='baseline'><strong>Melon Millions</strong><p>Choose number of points to bet.</font><div class='respPicDiv'><img src='img/responseButtonOffersNo0L1.png' class='respPic'></div></div>","null","2","Melon Millions","Fruit/melon.png","Lost","0.65,0.2","11","0.65","25","5","",""
"","","","feedback","6092dea4efd6d61350f0fdbf","bdp_rwlrn","Wed Mar 15 2023 14:45:17 GMT-0500 (Central Daylight Time)","382153","Untrustworthy,Trustworthy","html-keyboard-response","25","109864","0.0-11.0-3.4","","null","","<div class='respPicDiv'><img src='img/responseButtonOffersNo0_wht.png' class='respPic'></div><div class='trialDiv'><img src='Fruit/melon.png'><br><font class='baseline'><strong>Melon Millions</strong><p><strong><font class='negOutcome'>You LOST</font><p>You bet: 1</strong></font> &nbsp; &nbsp; &nbsp; &nbsp; &nbsp; &nbsp;<font class='negOutcome'>You receive: <strong>0</strong></font></div>","null","2","Melon Millions","Fruit/melon.png","Lost","0.65,0.2","11","0.65","25","5","",""
"","","","decision","6092dea4efd6d61350f0fdbf","bdp_rwlrn","Wed Mar 15 2023 14:45:17 GMT-0500 (Central Daylight Time)","382153","Untrustworthy,Trustworthy","html-keyboard-response","26","112209","0.0-11.0-1.5","","2343","","<div class='trialDiv'><img src='Fruit/pineapple.png'><br><font class='baseline'><strong>Primo Pineapple</strong><p>Choose number of points to bet.</font><div class='respPicDiv'><img src='img/responseButtonOffersNo0L.png' class='respPic'></div></div>","3","2","Primo Pineapple","Fruit/pineapple.png","Lost","0.35,0.8","9","0.35","30","6","",""
"","","","decisionFB","6092dea4efd6d61350f0fdbf","bdp_rwlrn","Wed Mar 15 2023 14:45:17 GMT-0500 (Central Daylight Time)","382153","Untrustworthy,Trustworthy","html-keyboard-response","27","112465","0.0-11.0-2.5","","null","","<div class='trialDiv'><img src='Fruit/pineapple.png'><br><font class='baseline'><strong>Primo Pineapple</strong><p>Choose number of points to bet.</font><div class='respPicDiv'><img src='img/responseButtonOffersNo0L3.png' class='respPic'></div></div>","null","2","Primo Pineapple","Fruit/pineapple.png","Lost","0.35,0.8","9","0.35","27","6","",""
"","","","feedback","6092dea4efd6d61350f0fdbf","bdp_rwlrn","Wed Mar 15 2023 14:45:17 GMT-0500 (Central Daylight Time)","382153","Untrustworthy,Trustworthy","html-keyboard-response","28","113480","0.0-11.0-3.5","","null","","<div class='respPicDiv'><img src='img/responseButtonOffersNo0_wht.png' class='respPic'></div><div class='trialDiv'><img src='Fruit/pineapple.png'><br><font class='baseline'><strong>Primo Pineapple</strong><p><strong><font class='negOutcome'>You LOST</font><p>You bet: 3</strong></font> &nbsp; &nbsp; &nbsp; &nbsp; &nbsp; &nbsp;<font class='negOutcome'>You receive: <strong>0</strong></font></div>","null","2","Primo Pineapple","Fruit/pineapple.png","Lost","0.35,0.8","9","0.35","27","6","",""
"","","","decision","6092dea4efd6d61350f0fdbf","bdp_rwlrn","Wed Mar 15 2023 14:45:17 GMT-0500 (Central Daylight Time)","382153","Untrustworthy,Trustworthy","html-keyboard-response","29","114381","0.0-11.0-1.6","","901","","<div class='trialDiv'><img src='Fruit/lemon.png'><br><font class='baseline'><strong>Lucky Lemons</strong><p>Choose number of points to bet.</font><div class='respPicDiv'><img src='img/responseButtonOffersNo0L.png' class='respPic'></div></div>","3","3","Lucky Lemons","Fruit/lemon.png","Lost","0.8,0.2","12","0.8","32","7","",""
"","","","decisionFB","6092dea4efd6d61350f0fdbf","bdp_rwlrn","Wed Mar 15 2023 14:45:17 GMT-0500 (Central Daylight Time)","382153","Untrustworthy,Trustworthy","html-keyboard-response","30","114636","0.0-11.0-2.6","","null","","<div class='trialDiv'><img src='Fruit/lemon.png'><br><font class='baseline'><strong>Lucky Lemons</strong><p>Choose number of points to bet.</font><div class='respPicDiv'><img src='img/responseButtonOffersNo0L3.png' class='respPic'></div></div>","null","3","Lucky Lemons","Fruit/lemon.png","Lost","0.8,0.2","12","0.8","29","7","",""
"","","","feedback","6092dea4efd6d61350f0fdbf","bdp_rwlrn","Wed Mar 15 2023 14:45:17 GMT-0500 (Central Daylight Time)","382153","Untrustworthy,Trustworthy","html-keyboard-response","31","115648","0.0-11.0-3.6","","null","","<div class='respPicDiv'><img src='img/responseButtonOffersNo0_wht.png' class='respPic'></div><div class='trialDiv'><img src='Fruit/lemon.png'><br><font class='baseline'><strong>Lucky Lemons</strong><p><strong><font class='negOutcome'>You LOST</font><p>You bet: 3</strong></font> &nbsp; &nbsp; &nbsp; &nbsp; &nbsp; &nbsp;<font class='negOutcome'>You receive: <strong>0</strong></font></div>","null","3","Lucky Lemons","Fruit/lemon.png","Lost","0.8,0.2","12","0.8","29","7","",""
"","","","decision","6092dea4efd6d61350f0fdbf","bdp_rwlrn","Wed Mar 15 2023 14:45:17 GMT-0500 (Central Daylight Time)","382153","Untrustworthy,Trustworthy","html-keyboard-response","32","117366","0.0-11.0-1.7","","1717","","<div class='trialDiv'><img src='Fruit/pineapple.png'><br><font class='baseline'><strong>Primo Pineapple</strong><p>Choose number of points to bet.</font><div class='respPicDiv'><img src='img/responseButtonOffersNo0L.png' class='respPic'></div></div>","1","3","Primo Pineapple","Fruit/pineapple.png","Won","0.35,0.8","9","0.35","34","8","",""
"","","","decisionFB","6092dea4efd6d61350f0fdbf","bdp_rwlrn","Wed Mar 15 2023 14:45:17 GMT-0500 (Central Daylight Time)","382153","Untrustworthy,Trustworthy","html-keyboard-response","33","117632","0.0-11.0-2.7","","null","","<div class='trialDiv'><img src='Fruit/pineapple.png'><br><font class='baseline'><strong>Primo Pineapple</strong><p>Choose number of points to bet.</font><div class='respPicDiv'><img src='img/responseButtonOffersNo0L1.png' class='respPic'></div></div>","null","3","Primo Pineapple","Fruit/pineapple.png","Won","0.35,0.8","9","0.35","33","8","",""
"","","","feedback","6092dea4efd6d61350f0fdbf","bdp_rwlrn","Wed Mar 15 2023 14:45:17 GMT-0500 (Central Daylight Time)","382153","Untrustworthy,Trustworthy","html-keyboard-response","34","118648","0.0-11.0-3.7","","null","","<div class='respPicDiv'><img src='img/responseButtonOffersNo0_wht.png' class='respPic'></div><div class='trialDiv'><img src='Fruit/pineapple.png'><br><font class='baseline'><strong>Primo Pineapple</strong><p><strong><font class='posOutcome'>You WON</font><p>You bet: 1</strong></font> &nbsp; &nbsp; &nbsp; &nbsp; &nbsp; &nbsp;<font class='posOutcome'>you receive: <strong>2</strong></font></div>","null","3","Primo Pineapple","Fruit/pineapple.png","Won","0.35,0.8","9","0.35","35","8","",""
"","","","decision","6092dea4efd6d61350f0fdbf","bdp_rwlrn","Wed Mar 15 2023 14:45:17 GMT-0500 (Central Daylight Time)","382153","Untrustworthy,Trustworthy","html-keyboard-response","35","119340","0.0-11.0-1.8","","692","","<div class='trialDiv'><img src='Fruit/melon.png'><br><font class='baseline'><strong>Melon Millions</strong><p>Choose number of points to bet.</font><div class='respPicDiv'><img src='img/responseButtonOffersNo0L.png' class='respPic'></div></div>","1","3","Melon Millions","Fruit/melon.png","Lost","0.65,0.2","11","0.65","40","9","",""
"","","","decisionFB","6092dea4efd6d61350f0fdbf","bdp_rwlrn","Wed Mar 15 2023 14:45:17 GMT-0500 (Central Daylight Time)","382153","Untrustworthy,Trustworthy","html-keyboard-response","36","119595","0.0-11.0-2.8","","null","","<div class='trialDiv'><img src='Fruit/melon.png'><br><font class='baseline'><strong>Melon Millions</strong><p>Choose number of points to bet.</font><div class='respPicDiv'><img src='img/responseButtonOffersNo0L1.png' class='respPic'></div></div>","null","3","Melon Millions","Fruit/melon.png","Lost","0.65,0.2","11","0.65","39","9","",""
"","","","feedback","6092dea4efd6d61350f0fdbf","bdp_rwlrn","Wed Mar 15 2023 14:45:17 GMT-0500 (Central Daylight Time)","382153","Untrustworthy,Trustworthy","html-keyboard-response","37","120607","0.0-11.0-3.8","","null","","<div class='respPicDiv'><img src='img/responseButtonOffersNo0_wht.png' class='respPic'></div><div class='trialDiv'><img src='Fruit/melon.png'><br><font class='baseline'><strong>Melon Millions</strong><p><strong><font class='negOutcome'>You LOST</font><p>You bet: 1</strong></font> &nbsp; &nbsp; &nbsp; &nbsp; &nbsp; &nbsp;<font class='negOutcome'>You receive: <strong>0</strong></font></div>","null","3","Melon Millions","Fruit/melon.png","Lost","0.65,0.2","11","0.65","39","9","",""
"","","","decision","6092dea4efd6d61350f0fdbf","bdp_rwlrn","Wed Mar 15 2023 14:45:17 GMT-0500 (Central Daylight Time)","382153","Untrustworthy,Trustworthy","html-keyboard-response","38","122140","0.0-11.0-1.9","","1533","","<div class='trialDiv'><img src='Fruit/pineapple.png'><br><font class='baseline'><strong>Primo Pineapple</strong><p>Choose number of points to bet.</font><div class='respPicDiv'><img src='img/responseButtonOffersNo0L.png' class='respPic'></div></div>","2","4","Primo Pineapple","Fruit/pineapple.png","Won","0.35,0.8","9","0.35","44","10","",""
"","","","decisionFB","6092dea4efd6d61350f0fdbf","bdp_rwlrn","Wed Mar 15 2023 14:45:17 GMT-0500 (Central Daylight Time)","382153","Untrustworthy,Trustworthy","html-keyboard-response","39","122400","0.0-11.0-2.9","","null","","<div class='trialDiv'><img src='Fruit/pineapple.png'><br><font class='baseline'><strong>Primo Pineapple</strong><p>Choose number of points to bet.</font><div class='respPicDiv'><img src='img/responseButtonOffersNo0L2.png' class='respPic'></div></div>","null","4","Primo Pineapple","Fruit/pineapple.png","Won","0.35,0.8","9","0.35","42","10","",""
"","","","feedback","6092dea4efd6d61350f0fdbf","bdp_rwlrn","Wed Mar 15 2023 14:45:17 GMT-0500 (Central Daylight Time)","382153","Untrustworthy,Trustworthy","html-keyboard-response","40","123414","0.0-11.0-3.9","","null","","<div class='respPicDiv'><img src='img/responseButtonOffersNo0_wht.png' class='respPic'></div><div class='trialDiv'><img src='Fruit/pineapple.png'><br><font class='baseline'><strong>Primo Pineapple</strong><p><strong><font class='posOutcome'>You WON</font><p>You bet: 2</strong></font> &nbsp; &nbsp; &nbsp; &nbsp; &nbsp; &nbsp;<font class='posOutcome'>you receive: <strong>4</strong></font></div>","null","4","Primo Pineapple","Fruit/pineapple.png","Won","0.35,0.8","9","0.35","46","10","",""
"","","","decision","6092dea4efd6d61350f0fdbf","bdp_rwlrn","Wed Mar 15 2023 14:45:17 GMT-0500 (Central Daylight Time)","382153","Untrustworthy,Trustworthy","html-keyboard-response","41","124542","0.0-11.0-1.10","","1127","","<div class='trialDiv'><img src='Fruit/lemon.png'><br><font class='baseline'><strong>Lucky Lemons</strong><p>Choose number of points to bet.</font><div class='respPicDiv'><img src='img/responseButtonOffersNo0L.png' class='respPic'></div></div>","2","4","Lucky Lemons","Fruit/lemon.png","Won","0.8,0.2","12","0.8","51","11","",""
"","","","decisionFB","6092dea4efd6d61350f0fdbf","bdp_rwlrn","Wed Mar 15 2023 14:45:17 GMT-0500 (Central Daylight Time)","382153","Untrustworthy,Trustworthy","html-keyboard-response","42","124801","0.0-11.0-2.10","","null","","<div class='trialDiv'><img src='Fruit/lemon.png'><br><font class='baseline'><strong>Lucky Lemons</strong><p>Choose number of points to bet.</font><div class='respPicDiv'><img src='img/responseButtonOffersNo0L2.png' class='respPic'></div></div>","null","4","Lucky Lemons","Fruit/lemon.png","Won","0.8,0.2","12","0.8","49","11","",""
"","","","feedback","6092dea4efd6d61350f0fdbf","bdp_rwlrn","Wed Mar 15 2023 14:45:17 GMT-0500 (Central Daylight Time)","382153","Untrustworthy,Trustworthy","html-keyboard-response","43","125814","0.0-11.0-3.10","","null","","<div class='respPicDiv'><img src='img/responseButtonOffersNo0_wht.png' class='respPic'></div><div class='trialDiv'><img src='Fruit/lemon.png'><br><font class='baseline'><strong>Lucky Lemons</strong><p><strong><font class='posOutcome'>You WON</font><p>You bet: 2</strong></font> &nbsp; &nbsp; &nbsp; &nbsp; &nbsp; &nbsp;<font class='posOutcome'>you receive: <strong>4</strong></font></div>","null","4","Lucky Lemons","Fruit/lemon.png","Won","0.8,0.2","12","0.8","53","11","",""
"","","","decision","6092dea4efd6d61350f0fdbf","bdp_rwlrn","Wed Mar 15 2023 14:45:17 GMT-0500 (Central Daylight Time)","382153","Untrustworthy,Trustworthy","html-keyboard-response","44","126683","0.0-11.0-1.11","","867","","<div class='trialDiv'><img src='Fruit/melon.png'><br><font class='baseline'><strong>Melon Millions</strong><p>Choose number of points to bet.</font><div class='respPicDiv'><img src='img/responseButtonOffersNo0L.png' class='respPic'></div></div>","1","4","Melon Millions","Fruit/melon.png","Won","0.65,0.2","11","0.65","58","12","",""
"","","","decisionFB","6092dea4efd6d61350f0fdbf","bdp_rwlrn","Wed Mar 15 2023 14:45:17 GMT-0500 (Central Daylight Time)","382153","Untrustworthy,Trustworthy","html-keyboard-response","45","126935","0.0-11.0-2.11","","null","","<div class='trialDiv'><img src='Fruit/melon.png'><br><font class='baseline'><strong>Melon Millions</strong><p>Choose number of points to bet.</font><div class='respPicDiv'><img src='img/responseButtonOffersNo0L1.png' class='respPic'></div></div>","null","4","Melon Millions","Fruit/melon.png","Won","0.65,0.2","11","0.65","57","12","",""
"","","","feedback","6092dea4efd6d61350f0fdbf","bdp_rwlrn","Wed Mar 15 2023 14:45:17 GMT-0500 (Central Daylight Time)","382153","Untrustworthy,Trustworthy","html-keyboard-response","46","127949","0.0-11.0-3.11","","null","","<div class='respPicDiv'><img src='img/responseButtonOffersNo0_wht.png' class='respPic'></div><div class='trialDiv'><img src='Fruit/melon.png'><br><font class='baseline'><strong>Melon Millions</strong><p><strong><font class='posOutcome'>You WON</font><p>You bet: 1</strong></font> &nbsp; &nbsp; &nbsp; &nbsp; &nbsp; &nbsp;<font class='posOutcome'>you receive: <strong>2</strong></font></div>","null","4","Melon Millions","Fruit/melon.png","Won","0.65,0.2","11","0.65","59","12","",""
"","","","decision","6092dea4efd6d61350f0fdbf","bdp_rwlrn","Wed Mar 15 2023 14:45:17 GMT-0500 (Central Daylight Time)","382153","Untrustworthy,Trustworthy","html-keyboard-response","47","128922","0.0-11.0-1.12","","973","","<div class='trialDiv'><img src='Fruit/pineapple.png'><br><font class='baseline'><strong>Primo Pineapple</strong><p>Choose number of points to bet.</font><div class='respPicDiv'><img src='img/responseButtonOffersNo0L.png' class='respPic'></div></div>","3","5","Primo Pineapple","Fruit/pineapple.png","Lost","0.35,0.8","9","0.35","64","13","",""
"","","","decisionFB","6092dea4efd6d61350f0fdbf","bdp_rwlrn","Wed Mar 15 2023 14:45:17 GMT-0500 (Central Daylight Time)","382153","Untrustworthy,Trustworthy","html-keyboard-response","48","129179","0.0-11.0-2.12","","null","","<div class='trialDiv'><img src='Fruit/pineapple.png'><br><font class='baseline'><strong>Primo Pineapple</strong><p>Choose number of points to bet.</font><div class='respPicDiv'><img src='img/responseButtonOffersNo0L3.png' class='respPic'></div></div>","null","5","Primo Pineapple","Fruit/pineapple.png","Lost","0.35,0.8","9","0.35","61","13","",""
"","","","feedback","6092dea4efd6d61350f0fdbf","bdp_rwlrn","Wed Mar 15 2023 14:45:17 GMT-0500 (Central Daylight Time)","382153","Untrustworthy,Trustworthy","html-keyboard-response","49","130182","0.0-11.0-3.12","","null","","<div class='respPicDiv'><img src='img/responseButtonOffersNo0_wht.png' class='respPic'></div><div class='trialDiv'><img src='Fruit/pineapple.png'><br><font class='baseline'><strong>Primo Pineapple</strong><p><strong><font class='negOutcome'>You LOST</font><p>You bet: 3</strong></font> &nbsp; &nbsp; &nbsp; &nbsp; &nbsp; &nbsp;<font class='negOutcome'>You receive: <strong>0</strong></font></div>","null","5","Primo Pineapple","Fruit/pineapple.png","Lost","0.35,0.8","9","0.35","61","13","",""
"","","","decision","6092dea4efd6d61350f0fdbf","bdp_rwlrn","Wed Mar 15 2023 14:45:17 GMT-0500 (Central Daylight Time)","382153","Untrustworthy,Trustworthy","html-keyboard-response","50","131092","0.0-11.0-1.13","","910","","<div class='trialDiv'><img src='Fruit/melon.png'><br><font class='baseline'><strong>Melon Millions</strong><p>Choose number of points to bet.</font><div class='respPicDiv'><img src='img/responseButtonOffersNo0L.png' class='respPic'></div></div>","3","5","Melon Millions","Fruit/melon.png","Won","0.65,0.2","11","0.65","66","14","",""
"","","","decisionFB","6092dea4efd6d61350f0fdbf","bdp_rwlrn","Wed Mar 15 2023 14:45:17 GMT-0500 (Central Daylight Time)","382153","Untrustworthy,Trustworthy","html-keyboard-response","51","131349","0.0-11.0-2.13","","null","","<div class='trialDiv'><img src='Fruit/melon.png'><br><font class='baseline'><strong>Melon Millions</strong><p>Choose number of points to bet.</font><div class='respPicDiv'><img src='img/responseButtonOffersNo0L3.png' class='respPic'></div></div>","null","5","Melon Millions","Fruit/melon.png","Won","0.65,0.2","11","0.65","63","14","",""
"","","","feedback","6092dea4efd6d61350f0fdbf","bdp_rwlrn","Wed Mar 15 2023 14:45:17 GMT-0500 (Central Daylight Time)","382153","Untrustworthy,Trustworthy","html-keyboard-response","52","132364","0.0-11.0-3.13","","null","","<div class='respPicDiv'><img src='img/responseButtonOffersNo0_wht.png' class='respPic'></div><div class='trialDiv'><img src='Fruit/melon.png'><br><font class='baseline'><strong>Melon Millions</strong><p><strong><font class='posOutcome'>You WON</font><p>You bet: 3</strong></font> &nbsp; &nbsp; &nbsp; &nbsp; &nbsp; &nbsp;<font class='posOutcome'>you receive: <strong>6</strong></font></div>","null","5","Melon Millions","Fruit/melon.png","Won","0.65,0.2","11","0.65","69","14","",""
"","","","decision","6092dea4efd6d61350f0fdbf","bdp_rwlrn","Wed Mar 15 2023 14:45:17 GMT-0500 (Central Daylight Time)","382153","Untrustworthy,Trustworthy","html-keyboard-response","53","133246","0.0-11.0-1.14","","881","","<div class='trialDiv'><img src='Fruit/lemon.png'><br><font class='baseline'><strong>Lucky Lemons</strong><p>Choose number of points to bet.</font><div class='respPicDiv'><img src='img/responseButtonOffersNo0L.png' class='respPic'></div></div>","3","5","Lucky Lemons","Fruit/lemon.png","Won","0.8,0.2","12","0.8","74","15","",""
"","","","decisionFB","6092dea4efd6d61350f0fdbf","bdp_rwlrn","Wed Mar 15 2023 14:45:17 GMT-0500 (Central Daylight Time)","382153","Untrustworthy,Trustworthy","html-keyboard-response","54","133506","0.0-11.0-2.14","","null","","<div class='trialDiv'><img src='Fruit/lemon.png'><br><font class='baseline'><strong>Lucky Lemons</strong><p>Choose number of points to bet.</font><div class='respPicDiv'><img src='img/responseButtonOffersNo0L3.png' class='respPic'></div></div>","null","5","Lucky Lemons","Fruit/lemon.png","Won","0.8,0.2","12","0.8","71","15","",""
"","","","feedback","6092dea4efd6d61350f0fdbf","bdp_rwlrn","Wed Mar 15 2023 14:45:17 GMT-0500 (Central Daylight Time)","382153","Untrustworthy,Trustworthy","html-keyboard-response","55","134520","0.0-11.0-3.14","","null","","<div class='respPicDiv'><img src='img/responseButtonOffersNo0_wht.png' class='respPic'></div><div class='trialDiv'><img src='Fruit/lemon.png'><br><font class='baseline'><strong>Lucky Lemons</strong><p><strong><font class='posOutcome'>You WON</font><p>You bet: 3</strong></font> &nbsp; &nbsp; &nbsp; &nbsp; &nbsp; &nbsp;<font class='posOutcome'>you receive: <strong>6</strong></font></div>","null","5","Lucky Lemons","Fruit/lemon.png","Won","0.8,0.2","12","0.8","77","15","",""
"","","","decision","6092dea4efd6d61350f0fdbf","bdp_rwlrn","Wed Mar 15 2023 14:45:17 GMT-0500 (Central Daylight Time)","382153","Untrustworthy,Trustworthy","html-keyboard-response","56","135811","0.0-11.0-1.15","","1289","","<div class='trialDiv'><img src='Fruit/pineapple.png'><br><font class='baseline'><strong>Primo Pineapple</strong><p>Choose number of points to bet.</font><div class='respPicDiv'><img src='img/responseButtonOffersNo0L.png' class='respPic'></div></div>","2","6","Primo Pineapple","Fruit/pineapple.png","Won","0.35,0.8","9","0.35","82","16","",""
"","","","decisionFB","6092dea4efd6d61350f0fdbf","bdp_rwlrn","Wed Mar 15 2023 14:45:17 GMT-0500 (Central Daylight Time)","382153","Untrustworthy,Trustworthy","html-keyboard-response","57","136063","0.0-11.0-2.15","","null","","<div class='trialDiv'><img src='Fruit/pineapple.png'><br><font class='baseline'><strong>Primo Pineapple</strong><p>Choose number of points to bet.</font><div class='respPicDiv'><img src='img/responseButtonOffersNo0L2.png' class='respPic'></div></div>","null","6","Primo Pineapple","Fruit/pineapple.png","Won","0.35,0.8","9","0.35","80","16","",""
"","","","feedback","6092dea4efd6d61350f0fdbf","bdp_rwlrn","Wed Mar 15 2023 14:45:17 GMT-0500 (Central Daylight Time)","382153","Untrustworthy,Trustworthy","html-keyboard-response","58","137077","0.0-11.0-3.15","","null","","<div class='respPicDiv'><img src='img/responseButtonOffersNo0_wht.png' class='respPic'></div><div class='trialDiv'><img src='Fruit/pineapple.png'><br><font class='baseline'><strong>Primo Pineapple</strong><p><strong><font class='posOutcome'>You WON</font><p>You bet: 2</strong></font> &nbsp; &nbsp; &nbsp; &nbsp; &nbsp; &nbsp;<font class='posOutcome'>you receive: <strong>4</strong></font></div>","null","6","Primo Pineapple","Fruit/pineapple.png","Won","0.35,0.8","9","0.35","84","16","",""
"","","","decision","6092dea4efd6d61350f0fdbf","bdp_rwlrn","Wed Mar 15 2023 14:45:17 GMT-0500 (Central Daylight Time)","382153","Untrustworthy,Trustworthy","html-keyboard-response","59","138418","0.0-11.0-1.16","","1339","","<div class='trialDiv'><img src='Fruit/lemon.png'><br><font class='baseline'><strong>Lucky Lemons</strong><p>Choose number of points to bet.</font><div class='respPicDiv'><img src='img/responseButtonOffersNo0L.png' class='respPic'></div></div>","4","6","Lucky Lemons","Fruit/lemon.png","Won","0.8,0.2","12","0.8","89","17","",""
"","","","decisionFB","6092dea4efd6d61350f0fdbf","bdp_rwlrn","Wed Mar 15 2023 14:45:17 GMT-0500 (Central Daylight Time)","382153","Untrustworthy,Trustworthy","html-keyboard-response","60","138672","0.0-11.0-2.16","","null","","<div class='trialDiv'><img src='Fruit/lemon.png'><br><font class='baseline'><strong>Lucky Lemons</strong><p>Choose number of points to bet.</font><div class='respPicDiv'><img src='img/responseButtonOffersNo0L4.png' class='respPic'></div></div>","null","6","Lucky Lemons","Fruit/lemon.png","Won","0.8,0.2","12","0.8","85","17","",""
"","","","feedback","6092dea4efd6d61350f0fdbf","bdp_rwlrn","Wed Mar 15 2023 14:45:17 GMT-0500 (Central Daylight Time)","382153","Untrustworthy,Trustworthy","html-keyboard-response","61","139680","0.0-11.0-3.16","","null","","<div class='respPicDiv'><img src='img/responseButtonOffersNo0_wht.png' class='respPic'></div><div class='trialDiv'><img src='Fruit/lemon.png'><br><font class='baseline'><strong>Lucky Lemons</strong><p><strong><font class='posOutcome'>You WON</font><p>You bet: 4</strong></font> &nbsp; &nbsp; &nbsp; &nbsp; &nbsp; &nbsp;<font class='posOutcome'>you receive: <strong>8</strong></font></div>","null","6","Lucky Lemons","Fruit/lemon.png","Won","0.8,0.2","12","0.8","93","17","",""
"","","","decision","6092dea4efd6d61350f0fdbf","bdp_rwlrn","Wed Mar 15 2023 14:45:17 GMT-0500 (Central Daylight Time)","382153","Untrustworthy,Trustworthy","html-keyboard-response","62","142534","0.0-11.0-1.17","","2854","","<div class='trialDiv'><img src='Fruit/melon.png'><br><font class='baseline'><strong>Melon Millions</strong><p>Choose number of points to bet.</font><div class='respPicDiv'><img src='img/responseButtonOffersNo0L.png' class='respPic'></div></div>","3","6","Melon Millions","Fruit/melon.png","Lost","0.65,0.2","11","0.65","98","18","",""
"","","","decisionFB","6092dea4efd6d61350f0fdbf","bdp_rwlrn","Wed Mar 15 2023 14:45:17 GMT-0500 (Central Daylight Time)","382153","Untrustworthy,Trustworthy","html-keyboard-response","63","142793","0.0-11.0-2.17","","null","","<div class='trialDiv'><img src='Fruit/melon.png'><br><font class='baseline'><strong>Melon Millions</strong><p>Choose number of points to bet.</font><div class='respPicDiv'><img src='img/responseButtonOffersNo0L3.png' class='respPic'></div></div>","null","6","Melon Millions","Fruit/melon.png","Lost","0.65,0.2","11","0.65","95","18","",""
"","","","feedback","6092dea4efd6d61350f0fdbf","bdp_rwlrn","Wed Mar 15 2023 14:45:17 GMT-0500 (Central Daylight Time)","382153","Untrustworthy,Trustworthy","html-keyboard-response","64","143808","0.0-11.0-3.17","","null","","<div class='respPicDiv'><img src='img/responseButtonOffersNo0_wht.png' class='respPic'></div><div class='trialDiv'><img src='Fruit/melon.png'><br><font class='baseline'><strong>Melon Millions</strong><p><strong><font class='negOutcome'>You LOST</font><p>You bet: 3</strong></font> &nbsp; &nbsp; &nbsp; &nbsp; &nbsp; &nbsp;<font class='negOutcome'>You receive: <strong>0</strong></font></div>","null","6","Melon Millions","Fruit/melon.png","Lost","0.65,0.2","11","0.65","95","18","",""
"","","","decision","6092dea4efd6d61350f0fdbf","bdp_rwlrn","Wed Mar 15 2023 14:45:17 GMT-0500 (Central Daylight Time)","382153","Untrustworthy,Trustworthy","html-keyboard-response","65","144778","0.0-11.0-1.18","","969","","<div class='trialDiv'><img src='Fruit/lemon.png'><br><font class='baseline'><strong>Lucky Lemons</strong><p>Choose number of points to bet.</font><div class='respPicDiv'><img src='img/responseButtonOffersNo0L.png' class='respPic'></div></div>","4","7","Lucky Lemons","Fruit/lemon.png","Lost","0.8,0.2","12","0.8","100","19","",""
"","","","decisionFB","6092dea4efd6d61350f0fdbf","bdp_rwlrn","Wed Mar 15 2023 14:45:17 GMT-0500 (Central Daylight Time)","382153","Untrustworthy,Trustworthy","html-keyboard-response","66","145031","0.0-11.0-2.18","","null","","<div class='trialDiv'><img src='Fruit/lemon.png'><br><font class='baseline'><strong>Lucky Lemons</strong><p>Choose number of points to bet.</font><div class='respPicDiv'><img src='img/responseButtonOffersNo0L4.png' class='respPic'></div></div>","null","7","Lucky Lemons","Fruit/lemon.png","Lost","0.8,0.2","12","0.8","96","19","",""
"","","","feedback","6092dea4efd6d61350f0fdbf","bdp_rwlrn","Wed Mar 15 2023 14:45:17 GMT-0500 (Central Daylight Time)","382153","Untrustworthy,Trustworthy","html-keyboard-response","67","146045","0.0-11.0-3.18","","null","","<div class='respPicDiv'><img src='img/responseButtonOffersNo0_wht.png' class='respPic'></div><div class='trialDiv'><img src='Fruit/lemon.png'><br><font class='baseline'><strong>Lucky Lemons</strong><p><strong><font class='negOutcome'>You LOST</font><p>You bet: 4</strong></font> &nbsp; &nbsp; &nbsp; &nbsp; &nbsp; &nbsp;<font class='negOutcome'>You receive: <strong>0</strong></font></div>","null","7","Lucky Lemons","Fruit/lemon.png","Lost","0.8,0.2","12","0.8","96","19","",""
"","","","decision","6092dea4efd6d61350f0fdbf","bdp_rwlrn","Wed Mar 15 2023 14:45:17 GMT-0500 (Central Daylight Time)","382153","Untrustworthy,Trustworthy","html-keyboard-response","68","147270","0.0-11.0-1.19","","1223","","<div class='trialDiv'><img src='Fruit/melon.png'><br><font class='baseline'><strong>Melon Millions</strong><p>Choose number of points to bet.</font><div class='respPicDiv'><img src='img/responseButtonOffersNo0L.png' class='respPic'></div></div>","3","7","Melon Millions","Fruit/melon.png","Won","0.65,0.2","11","0.65","101","20","",""
"","","","decisionFB","6092dea4efd6d61350f0fdbf","bdp_rwlrn","Wed Mar 15 2023 14:45:17 GMT-0500 (Central Daylight Time)","382153","Untrustworthy,Trustworthy","html-keyboard-response","69","147526","0.0-11.0-2.19","","null","","<div class='trialDiv'><img src='Fruit/melon.png'><br><font class='baseline'><strong>Melon Millions</strong><p>Choose number of points to bet.</font><div class='respPicDiv'><img src='img/responseButtonOffersNo0L3.png' class='respPic'></div></div>","null","7","Melon Millions","Fruit/melon.png","Won","0.65,0.2","11","0.65","98","20","",""
"","","","feedback","6092dea4efd6d61350f0fdbf","bdp_rwlrn","Wed Mar 15 2023 14:45:17 GMT-0500 (Central Daylight Time)","382153","Untrustworthy,Trustworthy","html-keyboard-response","70","148540","0.0-11.0-3.19","","null","","<div class='respPicDiv'><img src='img/responseButtonOffersNo0_wht.png' class='respPic'></div><div class='trialDiv'><img src='Fruit/melon.png'><br><font class='baseline'><strong>Melon Millions</strong><p><strong><font class='posOutcome'>You WON</font><p>You bet: 3</strong></font> &nbsp; &nbsp; &nbsp; &nbsp; &nbsp; &nbsp;<font class='posOutcome'>you receive: <strong>6</strong></font></div>","null","7","Melon Millions","Fruit/melon.png","Won","0.65,0.2","11","0.65","104","20","",""
"","","","decision","6092dea4efd6d61350f0fdbf","bdp_rwlrn","Wed Mar 15 2023 14:45:17 GMT-0500 (Central Daylight Time)","382153","Untrustworthy,Trustworthy","html-keyboard-response","71","149513","0.0-11.0-1.20","","972","","<div class='trialDiv'><img src='Fruit/pineapple.png'><br><font class='baseline'><strong>Primo Pineapple</strong><p>Choose number of points to bet.</font><div class='respPicDiv'><img src='img/responseButtonOffersNo0L.png' class='respPic'></div></div>","4","7","Primo Pineapple","Fruit/pineapple.png","Won","0.35,0.8","9","0.35","109","21","",""
"","","","decisionFB","6092dea4efd6d61350f0fdbf","bdp_rwlrn","Wed Mar 15 2023 14:45:17 GMT-0500 (Central Daylight Time)","382153","Untrustworthy,Trustworthy","html-keyboard-response","72","149766","0.0-11.0-2.20","","null","","<div class='trialDiv'><img src='Fruit/pineapple.png'><br><font class='baseline'><strong>Primo Pineapple</strong><p>Choose number of points to bet.</font><div class='respPicDiv'><img src='img/responseButtonOffersNo0L4.png' class='respPic'></div></div>","null","7","Primo Pineapple","Fruit/pineapple.png","Won","0.35,0.8","9","0.35","105","21","",""
"","","","feedback","6092dea4efd6d61350f0fdbf","bdp_rwlrn","Wed Mar 15 2023 14:45:17 GMT-0500 (Central Daylight Time)","382153","Untrustworthy,Trustworthy","html-keyboard-response","73","150777","0.0-11.0-3.20","","null","","<div class='respPicDiv'><img src='img/responseButtonOffersNo0_wht.png' class='respPic'></div><div class='trialDiv'><img src='Fruit/pineapple.png'><br><font class='baseline'><strong>Primo Pineapple</strong><p><strong><font class='posOutcome'>You WON</font><p>You bet: 4</strong></font> &nbsp; &nbsp; &nbsp; &nbsp; &nbsp; &nbsp;<font class='posOutcome'>you receive: <strong>8</strong></font></div>","null","7","Primo Pineapple","Fruit/pineapple.png","Won","0.35,0.8","9","0.35","113","21","",""
"","","","decision","6092dea4efd6d61350f0fdbf","bdp_rwlrn","Wed Mar 15 2023 14:45:17 GMT-0500 (Central Daylight Time)","382153","Untrustworthy,Trustworthy","html-keyboard-response","74","152060","0.0-11.0-1.21","","1282","","<div class='trialDiv'><img src='Fruit/melon.png'><br><font class='baseline'><strong>Melon Millions</strong><p>Choose number of points to bet.</font><div class='respPicDiv'><img src='img/responseButtonOffersNo0L.png' class='respPic'></div></div>","3","8","Melon Millions","Fruit/melon.png","Won","0.65,0.2","11","0.65","118","22","",""
"","","","decisionFB","6092dea4efd6d61350f0fdbf","bdp_rwlrn","Wed Mar 15 2023 14:45:17 GMT-0500 (Central Daylight Time)","382153","Untrustworthy,Trustworthy","html-keyboard-response","75","152323","0.0-11.0-2.21","","null","","<div class='trialDiv'><img src='Fruit/melon.png'><br><font class='baseline'><strong>Melon Millions</strong><p>Choose number of points to bet.</font><div class='respPicDiv'><img src='img/responseButtonOffersNo0L3.png' class='respPic'></div></div>","null","8","Melon Millions","Fruit/melon.png","Won","0.65,0.2","11","0.65","115","22","",""
"","","","feedback","6092dea4efd6d61350f0fdbf","bdp_rwlrn","Wed Mar 15 2023 14:45:17 GMT-0500 (Central Daylight Time)","382153","Untrustworthy,Trustworthy","html-keyboard-response","76","153334","0.0-11.0-3.21","","null","","<div class='respPicDiv'><img src='img/responseButtonOffersNo0_wht.png' class='respPic'></div><div class='trialDiv'><img src='Fruit/melon.png'><br><font class='baseline'><strong>Melon Millions</strong><p><strong><font class='posOutcome'>You WON</font><p>You bet: 3</strong></font> &nbsp; &nbsp; &nbsp; &nbsp; &nbsp; &nbsp;<font class='posOutcome'>you receive: <strong>6</strong></font></div>","null","8","Melon Millions","Fruit/melon.png","Won","0.65,0.2","11","0.65","121","22","",""
"","","","decision","6092dea4efd6d61350f0fdbf","bdp_rwlrn","Wed Mar 15 2023 14:45:17 GMT-0500 (Central Daylight Time)","382153","Untrustworthy,Trustworthy","html-keyboard-response","77","154522","0.0-11.0-1.22","","1187","","<div class='trialDiv'><img src='Fruit/lemon.png'><br><font class='baseline'><strong>Lucky Lemons</strong><p>Choose number of points to bet.</font><div class='respPicDiv'><img src='img/responseButtonOffersNo0L.png' class='respPic'></div></div>","2","8","Lucky Lemons","Fruit/lemon.png","Lost","0.8,0.2","12","0.8","126","23","",""
"","","","decisionFB","6092dea4efd6d61350f0fdbf","bdp_rwlrn","Wed Mar 15 2023 14:45:17 GMT-0500 (Central Daylight Time)","382153","Untrustworthy,Trustworthy","html-keyboard-response","78","154774","0.0-11.0-2.22","","null","","<div class='trialDiv'><img src='Fruit/lemon.png'><br><font class='baseline'><strong>Lucky Lemons</strong><p>Choose number of points to bet.</font><div class='respPicDiv'><img src='img/responseButtonOffersNo0L2.png' class='respPic'></div></div>","null","8","Lucky Lemons","Fruit/lemon.png","Lost","0.8,0.2","12","0.8","124","23","",""
"","","","feedback","6092dea4efd6d61350f0fdbf","bdp_rwlrn","Wed Mar 15 2023 14:45:17 GMT-0500 (Central Daylight Time)","382153","Untrustworthy,Trustworthy","html-keyboard-response","79","155786","0.0-11.0-3.22","","null","","<div class='respPicDiv'><img src='img/responseButtonOffersNo0_wht.png' class='respPic'></div><div class='trialDiv'><img src='Fruit/lemon.png'><br><font class='baseline'><strong>Lucky Lemons</strong><p><strong><font class='negOutcome'>You LOST</font><p>You bet: 2</strong></font> &nbsp; &nbsp; &nbsp; &nbsp; &nbsp; &nbsp;<font class='negOutcome'>You receive: <strong>0</strong></font></div>","null","8","Lucky Lemons","Fruit/lemon.png","Lost","0.8,0.2","12","0.8","124","23","",""
"","","","decision","6092dea4efd6d61350f0fdbf","bdp_rwlrn","Wed Mar 15 2023 14:45:17 GMT-0500 (Central Daylight Time)","382153","Untrustworthy,Trustworthy","html-keyboard-response","80","156919","0.0-11.0-1.23","","1133","","<div class='trialDiv'><img src='Fruit/pineapple.png'><br><font class='baseline'><strong>Primo Pineapple</strong><p>Choose number of points to bet.</font><div class='respPicDiv'><img src='img/responseButtonOffersNo0L.png' class='respPic'></div></div>","5","8","Primo Pineapple","Fruit/pineapple.png","Lost","0.35,0.8","9","0.35","129","24","",""
"","","","decisionFB","6092dea4efd6d61350f0fdbf","bdp_rwlrn","Wed Mar 15 2023 14:45:17 GMT-0500 (Central Daylight Time)","382153","Untrustworthy,Trustworthy","html-keyboard-response","81","157173","0.0-11.0-2.23","","null","","<div class='trialDiv'><img src='Fruit/pineapple.png'><br><font class='baseline'><strong>Primo Pineapple</strong><p>Choose number of points to bet.</font><div class='respPicDiv'><img src='img/responseButtonOffersNo0L5.png' class='respPic'></div></div>","null","8","Primo Pineapple","Fruit/pineapple.png","Lost","0.35,0.8","9","0.35","124","24","",""
"","","","feedback","6092dea4efd6d61350f0fdbf","bdp_rwlrn","Wed Mar 15 2023 14:45:17 GMT-0500 (Central Daylight Time)","382153","Untrustworthy,Trustworthy","html-keyboard-response","82","158185","0.0-11.0-3.23","","null","","<div class='respPicDiv'><img src='img/responseButtonOffersNo0_wht.png' class='respPic'></div><div class='trialDiv'><img src='Fruit/pineapple.png'><br><font class='baseline'><strong>Primo Pineapple</strong><p><strong><font class='negOutcome'>You LOST</font><p>You bet: 5</strong></font> &nbsp; &nbsp; &nbsp; &nbsp; &nbsp; &nbsp;<font class='negOutcome'>You receive: <strong>0</strong></font></div>","null","8","Primo Pineapple","Fruit/pineapple.png","Lost","0.35,0.8","9","0.35","124","24","",""
"","","","decision","6092dea4efd6d61350f0fdbf","bdp_rwlrn","Wed Mar 15 2023 14:45:17 GMT-0500 (Central Daylight Time)","382153","Untrustworthy,Trustworthy","html-keyboard-response","83","158691","0.0-11.0-1.24","","505","","<div class='trialDiv'><img src='Fruit/melon.png'><br><font class='baseline'><strong>Melon Millions</strong><p>Choose number of points to bet.</font><div class='respPicDiv'><img src='img/responseButtonOffersNo0L.png' class='respPic'></div></div>","5","9","Melon Millions","Fruit/melon.png","Lost","0.65,0.2","11","0.65","129","25","",""
"","","","decisionFB","6092dea4efd6d61350f0fdbf","bdp_rwlrn","Wed Mar 15 2023 14:45:17 GMT-0500 (Central Daylight Time)","382153","Untrustworthy,Trustworthy","html-keyboard-response","84","158948","0.0-11.0-2.24","","null","","<div class='trialDiv'><img src='Fruit/melon.png'><br><font class='baseline'><strong>Melon Millions</strong><p>Choose number of points to bet.</font><div class='respPicDiv'><img src='img/responseButtonOffersNo0L5.png' class='respPic'></div></div>","null","9","Melon Millions","Fruit/melon.png","Lost","0.65,0.2","11","0.65","124","25","",""
"","","","feedback","6092dea4efd6d61350f0fdbf","bdp_rwlrn","Wed Mar 15 2023 14:45:17 GMT-0500 (Central Daylight Time)","382153","Untrustworthy,Trustworthy","html-keyboard-response","85","159958","0.0-11.0-3.24","","null","","<div class='respPicDiv'><img src='img/responseButtonOffersNo0_wht.png' class='respPic'></div><div class='trialDiv'><img src='Fruit/melon.png'><br><font class='baseline'><strong>Melon Millions</strong><p><strong><font class='negOutcome'>You LOST</font><p>You bet: 5</strong></font> &nbsp; &nbsp; &nbsp; &nbsp; &nbsp; &nbsp;<font class='negOutcome'>You receive: <strong>0</strong></font></div>","null","9","Melon Millions","Fruit/melon.png","Lost","0.65,0.2","11","0.65","124","25","",""
"","","","decision","6092dea4efd6d61350f0fdbf","bdp_rwlrn","Wed Mar 15 2023 14:45:17 GMT-0500 (Central Daylight Time)","382153","Untrustworthy,Trustworthy","html-keyboard-response","86","160359","0.0-11.0-1.25","","400","","<div class='trialDiv'><img src='Fruit/pineapple.png'><br><font class='baseline'><strong>Primo Pineapple</strong><p>Choose number of points to bet.</font><div class='respPicDiv'><img src='img/responseButtonOffersNo0L.png' class='respPic'></div></div>","5","9","Primo Pineapple","Fruit/pineapple.png","Won","0.35,0.8","9","0.35","129","26","",""
"","","","decisionFB","6092dea4efd6d61350f0fdbf","bdp_rwlrn","Wed Mar 15 2023 14:45:17 GMT-0500 (Central Daylight Time)","382153","Untrustworthy,Trustworthy","html-keyboard-response","87","160615","0.0-11.0-2.25","","null","","<div class='trialDiv'><img src='Fruit/pineapple.png'><br><font class='baseline'><strong>Primo Pineapple</strong><p>Choose number of points to bet.</font><div class='respPicDiv'><img src='img/responseButtonOffersNo0L5.png' class='respPic'></div></div>","null","9","Primo Pineapple","Fruit/pineapple.png","Won","0.35,0.8","9","0.35","124","26","",""
"","","","feedback","6092dea4efd6d61350f0fdbf","bdp_rwlrn","Wed Mar 15 2023 14:45:17 GMT-0500 (Central Daylight Time)","382153","Untrustworthy,Trustworthy","html-keyboard-response","88","161623","0.0-11.0-3.25","","null","","<div class='respPicDiv'><img src='img/responseButtonOffersNo0_wht.png' class='respPic'></div><div class='trialDiv'><img src='Fruit/pineapple.png'><br><font class='baseline'><strong>Primo Pineapple</strong><p><strong><font class='posOutcome'>You WON</font><p>You bet: 5</strong></font> &nbsp; &nbsp; &nbsp; &nbsp; &nbsp; &nbsp;<font class='posOutcome'>you receive: <strong>10</strong></font></div>","null","9","Primo Pineapple","Fruit/pineapple.png","Won","0.35,0.8","9","0.35","134","26","",""
"","","","decision","6092dea4efd6d61350f0fdbf","bdp_rwlrn","Wed Mar 15 2023 14:45:17 GMT-0500 (Central Daylight Time)","382153","Untrustworthy,Trustworthy","html-keyboard-response","89","162350","0.0-11.0-1.26","","725","","<div class='trialDiv'><img src='Fruit/lemon.png'><br><font class='baseline'><strong>Lucky Lemons</strong><p>Choose number of points to bet.</font><div class='respPicDiv'><img src='img/responseButtonOffersNo0L.png' class='respPic'></div></div>","5","9","Lucky Lemons","Fruit/lemon.png","Won","0.8,0.2","12","0.8","139","27","",""
"","","","decisionFB","6092dea4efd6d61350f0fdbf","bdp_rwlrn","Wed Mar 15 2023 14:45:17 GMT-0500 (Central Daylight Time)","382153","Untrustworthy,Trustworthy","html-keyboard-response","90","162609","0.0-11.0-2.26","","null","","<div class='trialDiv'><img src='Fruit/lemon.png'><br><font class='baseline'><strong>Lucky Lemons</strong><p>Choose number of points to bet.</font><div class='respPicDiv'><img src='img/responseButtonOffersNo0L5.png' class='respPic'></div></div>","null","9","Lucky Lemons","Fruit/lemon.png","Won","0.8,0.2","12","0.8","134","27","",""
"","","","feedback","6092dea4efd6d61350f0fdbf","bdp_rwlrn","Wed Mar 15 2023 14:45:17 GMT-0500 (Central Daylight Time)","382153","Untrustworthy,Trustworthy","html-keyboard-response","91","163620","0.0-11.0-3.26","","null","","<div class='respPicDiv'><img src='img/responseButtonOffersNo0_wht.png' class='respPic'></div><div class='trialDiv'><img src='Fruit/lemon.png'><br><font class='baseline'><strong>Lucky Lemons</strong><p><strong><font class='posOutcome'>You WON</font><p>You bet: 5</strong></font> &nbsp; &nbsp; &nbsp; &nbsp; &nbsp; &nbsp;<font class='posOutcome'>you receive: <strong>10</strong></font></div>","null","9","Lucky Lemons","Fruit/lemon.png","Won","0.8,0.2","12","0.8","144","27","",""
"","","","decision","6092dea4efd6d61350f0fdbf","bdp_rwlrn","Wed Mar 15 2023 14:45:17 GMT-0500 (Central Daylight Time)","382153","Untrustworthy,Trustworthy","html-keyboard-response","92","164268","0.0-11.0-1.27","","647","","<div class='trialDiv'><img src='Fruit/melon.png'><br><font class='baseline'><strong>Melon Millions</strong><p>Choose number of points to bet.</font><div class='respPicDiv'><img src='img/responseButtonOffersNo0L.png' class='respPic'></div></div>","5","10","Melon Millions","Fruit/melon.png","Won","0.65,0.2","11","0.65","149","28","",""
"","","","decisionFB","6092dea4efd6d61350f0fdbf","bdp_rwlrn","Wed Mar 15 2023 14:45:17 GMT-0500 (Central Daylight Time)","382153","Untrustworthy,Trustworthy","html-keyboard-response","93","164525","0.0-11.0-2.27","","null","","<div class='trialDiv'><img src='Fruit/melon.png'><br><font class='baseline'><strong>Melon Millions</strong><p>Choose number of points to bet.</font><div class='respPicDiv'><img src='img/responseButtonOffersNo0L5.png' class='respPic'></div></div>","null","10","Melon Millions","Fruit/melon.png","Won","0.65,0.2","11","0.65","144","28","",""
"","","","feedback","6092dea4efd6d61350f0fdbf","bdp_rwlrn","Wed Mar 15 2023 14:45:17 GMT-0500 (Central Daylight Time)","382153","Untrustworthy,Trustworthy","html-keyboard-response","94","165538","0.0-11.0-3.27","","null","","<div class='respPicDiv'><img src='img/responseButtonOffersNo0_wht.png' class='respPic'></div><div class='trialDiv'><img src='Fruit/melon.png'><br><font class='baseline'><strong>Melon Millions</strong><p><strong><font class='posOutcome'>You WON</font><p>You bet: 5</strong></font> &nbsp; &nbsp; &nbsp; &nbsp; &nbsp; &nbsp;<font class='posOutcome'>you receive: <strong>10</strong></font></div>","null","10","Melon Millions","Fruit/melon.png","Won","0.65,0.2","11","0.65","154","28","",""
"","","","decision","6092dea4efd6d61350f0fdbf","bdp_rwlrn","Wed Mar 15 2023 14:45:17 GMT-0500 (Central Daylight Time)","382153","Untrustworthy,Trustworthy","html-keyboard-response","95","166464","0.0-11.0-1.28","","926","","<div class='trialDiv'><img src='Fruit/pineapple.png'><br><font class='baseline'><strong>Primo Pineapple</strong><p>Choose number of points to bet.</font><div class='respPicDiv'><img src='img/responseButtonOffersNo0L.png' class='respPic'></div></div>","5","10","Primo Pineapple","Fruit/pineapple.png","Lost","0.35,0.8","9","0.35","159","29","",""
"","","","decisionFB","6092dea4efd6d61350f0fdbf","bdp_rwlrn","Wed Mar 15 2023 14:45:17 GMT-0500 (Central Daylight Time)","382153","Untrustworthy,Trustworthy","html-keyboard-response","96","166720","0.0-11.0-2.28","","null","","<div class='trialDiv'><img src='Fruit/pineapple.png'><br><font class='baseline'><strong>Primo Pineapple</strong><p>Choose number of points to bet.</font><div class='respPicDiv'><img src='img/responseButtonOffersNo0L5.png' class='respPic'></div></div>","null","10","Primo Pineapple","Fruit/pineapple.png","Lost","0.35,0.8","9","0.35","154","29","",""
"","","","feedback","6092dea4efd6d61350f0fdbf","bdp_rwlrn","Wed Mar 15 2023 14:45:17 GMT-0500 (Central Daylight Time)","382153","Untrustworthy,Trustworthy","html-keyboard-response","97","167736","0.0-11.0-3.28","","null","","<div class='respPicDiv'><img src='img/responseButtonOffersNo0_wht.png' class='respPic'></div><div class='trialDiv'><img src='Fruit/pineapple.png'><br><font class='baseline'><strong>Primo Pineapple</strong><p><strong><font class='negOutcome'>You LOST</font><p>You bet: 5</strong></font> &nbsp; &nbsp; &nbsp; &nbsp; &nbsp; &nbsp;<font class='negOutcome'>You receive: <strong>0</strong></font></div>","null","10","Primo Pineapple","Fruit/pineapple.png","Lost","0.35,0.8","9","0.35","154","29","",""
"","","","decision","6092dea4efd6d61350f0fdbf","bdp_rwlrn","Wed Mar 15 2023 14:45:17 GMT-0500 (Central Daylight Time)","382153","Untrustworthy,Trustworthy","html-keyboard-response","98","168827","0.0-11.0-1.29","","1091","","<div class='trialDiv'><img src='Fruit/lemon.png'><br><font class='baseline'><strong>Lucky Lemons</strong><p>Choose number of points to bet.</font><div class='respPicDiv'><img src='img/responseButtonOffersNo0L.png' class='respPic'></div></div>","1","10","Lucky Lemons","Fruit/lemon.png","Won","0.8,0.2","12","0.8","159","30","",""
"","","","decisionFB","6092dea4efd6d61350f0fdbf","bdp_rwlrn","Wed Mar 15 2023 14:45:17 GMT-0500 (Central Daylight Time)","382153","Untrustworthy,Trustworthy","html-keyboard-response","99","169093","0.0-11.0-2.29","","null","","<div class='trialDiv'><img src='Fruit/lemon.png'><br><font class='baseline'><strong>Lucky Lemons</strong><p>Choose number of points to bet.</font><div class='respPicDiv'><img src='img/responseButtonOffersNo0L1.png' class='respPic'></div></div>","null","10","Lucky Lemons","Fruit/lemon.png","Won","0.8,0.2","12","0.8","158","30","",""
"","","","feedback","6092dea4efd6d61350f0fdbf","bdp_rwlrn","Wed Mar 15 2023 14:45:17 GMT-0500 (Central Daylight Time)","382153","Untrustworthy,Trustworthy","html-keyboard-response","100","170105","0.0-11.0-3.29","","null","","<div class='respPicDiv'><img src='img/responseButtonOffersNo0_wht.png' class='respPic'></div><div class='trialDiv'><img src='Fruit/lemon.png'><br><font class='baseline'><strong>Lucky Lemons</strong><p><strong><font class='posOutcome'>You WON</font><p>You bet: 1</strong></font> &nbsp; &nbsp; &nbsp; &nbsp; &nbsp; &nbsp;<font class='posOutcome'>you receive: <strong>2</strong></font></div>","null","10","Lucky Lemons","Fruit/lemon.png","Won","0.8,0.2","12","0.8","160","30","",""
"","","","decision","6092dea4efd6d61350f0fdbf","bdp_rwlrn","Wed Mar 15 2023 14:45:17 GMT-0500 (Central Daylight Time)","382153","Untrustworthy,Trustworthy","html-keyboard-response","101","170799","0.0-11.0-1.30","","692","","<div class='trialDiv'><img src='Fruit/melon.png'><br><font class='baseline'><strong>Melon Millions</strong><p>Choose number of points to bet.</font><div class='respPicDiv'><img src='img/responseButtonOffersNo0L.png' class='respPic'></div></div>","2","11","Melon Millions","Fruit/melon.png","Won","0.65,0.2","11","0.65","165","31","",""
"","","","decisionFB","6092dea4efd6d61350f0fdbf","bdp_rwlrn","Wed Mar 15 2023 14:45:17 GMT-0500 (Central Daylight Time)","382153","Untrustworthy,Trustworthy","html-keyboard-response","102","171055","0.0-11.0-2.30","","null","","<div class='trialDiv'><img src='Fruit/melon.png'><br><font class='baseline'><strong>Melon Millions</strong><p>Choose number of points to bet.</font><div class='respPicDiv'><img src='img/responseButtonOffersNo0L2.png' class='respPic'></div></div>","null","11","Melon Millions","Fruit/melon.png","Won","0.65,0.2","11","0.65","163","31","",""
"","","","feedback","6092dea4efd6d61350f0fdbf","bdp_rwlrn","Wed Mar 15 2023 14:45:17 GMT-0500 (Central Daylight Time)","382153","Untrustworthy,Trustworthy","html-keyboard-response","103","172059","0.0-11.0-3.30","","null","","<div class='respPicDiv'><img src='img/responseButtonOffersNo0_wht.png' class='respPic'></div><div class='trialDiv'><img src='Fruit/melon.png'><br><font class='baseline'><strong>Melon Millions</strong><p><strong><font class='posOutcome'>You WON</font><p>You bet: 2</strong></font> &nbsp; &nbsp; &nbsp; &nbsp; &nbsp; &nbsp;<font class='posOutcome'>you receive: <strong>4</strong></font></div>","null","11","Melon Millions","Fruit/melon.png","Won","0.65,0.2","11","0.65","167","31","",""
"","","","decision","6092dea4efd6d61350f0fdbf","bdp_rwlrn","Wed Mar 15 2023 14:45:17 GMT-0500 (Central Daylight Time)","382153","Untrustworthy,Trustworthy","html-keyboard-response","104","172558","0.0-11.0-1.31","","498","","<div class='trialDiv'><img src='Fruit/lemon.png'><br><font class='baseline'><strong>Lucky Lemons</strong><p>Choose number of points to bet.</font><div class='respPicDiv'><img src='img/responseButtonOffersNo0L.png' class='respPic'></div></div>","3","11","Lucky Lemons","Fruit/lemon.png","Won","0.8,0.2","12","0.8","172","32","",""
"","","","decisionFB","6092dea4efd6d61350f0fdbf","bdp_rwlrn","Wed Mar 15 2023 14:45:17 GMT-0500 (Central Daylight Time)","382153","Untrustworthy,Trustworthy","html-keyboard-response","105","172824","0.0-11.0-2.31","","null","","<div class='trialDiv'><img src='Fruit/lemon.png'><br><font class='baseline'><strong>Lucky Lemons</strong><p>Choose number of points to bet.</font><div class='respPicDiv'><img src='img/responseButtonOffersNo0L3.png' class='respPic'></div></div>","null","11","Lucky Lemons","Fruit/lemon.png","Won","0.8,0.2","12","0.8","169","32","",""
"","","","feedback","6092dea4efd6d61350f0fdbf","bdp_rwlrn","Wed Mar 15 2023 14:45:17 GMT-0500 (Central Daylight Time)","382153","Untrustworthy,Trustworthy","html-keyboard-response","106","173828","0.0-11.0-3.31","","null","","<div class='respPicDiv'><img src='img/responseButtonOffersNo0_wht.png' class='respPic'></div><div class='trialDiv'><img src='Fruit/lemon.png'><br><font class='baseline'><strong>Lucky Lemons</strong><p><strong><font class='posOutcome'>You WON</font><p>You bet: 3</strong></font> &nbsp; &nbsp; &nbsp; &nbsp; &nbsp; &nbsp;<font class='posOutcome'>you receive: <strong>6</strong></font></div>","null","11","Lucky Lemons","Fruit/lemon.png","Won","0.8,0.2","12","0.8","175","32","",""
"","","","decision","6092dea4efd6d61350f0fdbf","bdp_rwlrn","Wed Mar 15 2023 14:45:17 GMT-0500 (Central Daylight Time)","382153","Untrustworthy,Trustworthy","html-keyboard-response","107","174643","0.0-11.0-1.32","","814","","<div class='trialDiv'><img src='Fruit/pineapple.png'><br><font class='baseline'><strong>Primo Pineapple</strong><p>Choose number of points to bet.</font><div class='respPicDiv'><img src='img/responseButtonOffersNo0L.png' class='respPic'></div></div>","1","11","Primo Pineapple","Fruit/pineapple.png","Lost","0.35,0.8","9","0.35","180","33","",""
"","","","decisionFB","6092dea4efd6d61350f0fdbf","bdp_rwlrn","Wed Mar 15 2023 14:45:17 GMT-0500 (Central Daylight Time)","382153","Untrustworthy,Trustworthy","html-keyboard-response","108","174901","0.0-11.0-2.32","","null","","<div class='trialDiv'><img src='Fruit/pineapple.png'><br><font class='baseline'><strong>Primo Pineapple</strong><p>Choose number of points to bet.</font><div class='respPicDiv'><img src='img/responseButtonOffersNo0L1.png' class='respPic'></div></div>","null","11","Primo Pineapple","Fruit/pineapple.png","Lost","0.35,0.8","9","0.35","179","33","",""
"","","","feedback","6092dea4efd6d61350f0fdbf","bdp_rwlrn","Wed Mar 15 2023 14:45:17 GMT-0500 (Central Daylight Time)","382153","Untrustworthy,Trustworthy","html-keyboard-response","109","175903","0.0-11.0-3.32","","null","","<div class='respPicDiv'><img src='img/responseButtonOffersNo0_wht.png' class='respPic'></div><div class='trialDiv'><img src='Fruit/pineapple.png'><br><font class='baseline'><strong>Primo Pineapple</strong><p><strong><font class='negOutcome'>You LOST</font><p>You bet: 1</strong></font> &nbsp; &nbsp; &nbsp; &nbsp; &nbsp; &nbsp;<font class='negOutcome'>You receive: <strong>0</strong></font></div>","null","11","Primo Pineapple","Fruit/pineapple.png","Lost","0.35,0.8","9","0.35","179","33","",""
"","","","decision","6092dea4efd6d61350f0fdbf","bdp_rwlrn","Wed Mar 15 2023 14:45:17 GMT-0500 (Central Daylight Time)","382153","Untrustworthy,Trustworthy","html-keyboard-response","110","176625","0.0-11.0-1.33","","720","","<div class='trialDiv'><img src='Fruit/melon.png'><br><font class='baseline'><strong>Melon Millions</strong><p>Choose number of points to bet.</font><div class='respPicDiv'><img src='img/responseButtonOffersNo0L.png' class='respPic'></div></div>","1","12","Melon Millions","Fruit/melon.png","Lost","0.65,0.2","11","0.65","184","34","",""
"","","","decisionFB","6092dea4efd6d61350f0fdbf","bdp_rwlrn","Wed Mar 15 2023 14:45:17 GMT-0500 (Central Daylight Time)","382153","Untrustworthy,Trustworthy","html-keyboard-response","111","176883","0.0-11.0-2.33","","null","","<div class='trialDiv'><img src='Fruit/melon.png'><br><font class='baseline'><strong>Melon Millions</strong><p>Choose number of points to bet.</font><div class='respPicDiv'><img src='img/responseButtonOffersNo0L1.png' class='respPic'></div></div>","null","12","Melon Millions","Fruit/melon.png","Lost","0.65,0.2","11","0.65","183","34","",""
"","","","feedback","6092dea4efd6d61350f0fdbf","bdp_rwlrn","Wed Mar 15 2023 14:45:17 GMT-0500 (Central Daylight Time)","382153","Untrustworthy,Trustworthy","html-keyboard-response","112","177897","0.0-11.0-3.33","","null","","<div class='respPicDiv'><img src='img/responseButtonOffersNo0_wht.png' class='respPic'></div><div class='trialDiv'><img src='Fruit/melon.png'><br><font class='baseline'><strong>Melon Millions</strong><p><strong><font class='negOutcome'>You LOST</font><p>You bet: 1</strong></font> &nbsp; &nbsp; &nbsp; &nbsp; &nbsp; &nbsp;<font class='negOutcome'>You receive: <strong>0</strong></font></div>","null","12","Melon Millions","Fruit/melon.png","Lost","0.65,0.2","11","0.65","183","34","",""
"","","","decision","6092dea4efd6d61350f0fdbf","bdp_rwlrn","Wed Mar 15 2023 14:45:17 GMT-0500 (Central Daylight Time)","382153","Untrustworthy,Trustworthy","html-keyboard-response","113","178317","0.0-11.0-1.34","","418","","<div class='trialDiv'><img src='Fruit/lemon.png'><br><font class='baseline'><strong>Lucky Lemons</strong><p>Choose number of points to bet.</font><div class='respPicDiv'><img src='img/responseButtonOffersNo0L.png' class='respPic'></div></div>","5","12","Lucky Lemons","Fruit/lemon.png","Lost","0.8,0.2","12","0.8","188","35","",""
"","","","decisionFB","6092dea4efd6d61350f0fdbf","bdp_rwlrn","Wed Mar 15 2023 14:45:17 GMT-0500 (Central Daylight Time)","382153","Untrustworthy,Trustworthy","html-keyboard-response","114","178582","0.0-11.0-2.34","","null","","<div class='trialDiv'><img src='Fruit/lemon.png'><br><font class='baseline'><strong>Lucky Lemons</strong><p>Choose number of points to bet.</font><div class='respPicDiv'><img src='img/responseButtonOffersNo0L5.png' class='respPic'></div></div>","null","12","Lucky Lemons","Fruit/lemon.png","Lost","0.8,0.2","12","0.8","183","35","",""
"","","","feedback","6092dea4efd6d61350f0fdbf","bdp_rwlrn","Wed Mar 15 2023 14:45:17 GMT-0500 (Central Daylight Time)","382153","Untrustworthy,Trustworthy","html-keyboard-response","115","179597","0.0-11.0-3.34","","null","","<div class='respPicDiv'><img src='img/responseButtonOffersNo0_wht.png' class='respPic'></div><div class='trialDiv'><img src='Fruit/lemon.png'><br><font class='baseline'><strong>Lucky Lemons</strong><p><strong><font class='negOutcome'>You LOST</font><p>You bet: 5</strong></font> &nbsp; &nbsp; &nbsp; &nbsp; &nbsp; &nbsp;<font class='negOutcome'>You receive: <strong>0</strong></font></div>","null","12","Lucky Lemons","Fruit/lemon.png","Lost","0.8,0.2","12","0.8","183","35","",""
"","","","decision","6092dea4efd6d61350f0fdbf","bdp_rwlrn","Wed Mar 15 2023 14:45:17 GMT-0500 (Central Daylight Time)","382153","Untrustworthy,Trustworthy","html-keyboard-response","116","180046","0.0-11.0-1.35","","448","","<div class='trialDiv'><img src='Fruit/pineapple.png'><br><font class='baseline'><strong>Primo Pineapple</strong><p>Choose number of points to bet.</font><div class='respPicDiv'><img src='img/responseButtonOffersNo0L.png' class='respPic'></div></div>","5","12","Primo Pineapple","Fruit/pineapple.png","Won","0.35,0.8","9","0.35","188","36","",""
"","","","decisionFB","6092dea4efd6d61350f0fdbf","bdp_rwlrn","Wed Mar 15 2023 14:45:17 GMT-0500 (Central Daylight Time)","382153","Untrustworthy,Trustworthy","html-keyboard-response","117","180311","0.0-11.0-2.35","","null","","<div class='trialDiv'><img src='Fruit/pineapple.png'><br><font class='baseline'><strong>Primo Pineapple</strong><p>Choose number of points to bet.</font><div class='respPicDiv'><img src='img/responseButtonOffersNo0L5.png' class='respPic'></div></div>","null","12","Primo Pineapple","Fruit/pineapple.png","Won","0.35,0.8","9","0.35","183","36","",""
"","","","feedback","6092dea4efd6d61350f0fdbf","bdp_rwlrn","Wed Mar 15 2023 14:45:17 GMT-0500 (Central Daylight Time)","382153","Untrustworthy,Trustworthy","html-keyboard-response","118","181328","0.0-11.0-3.35","","null","","<div class='respPicDiv'><img src='img/responseButtonOffersNo0_wht.png' class='respPic'></div><div class='trialDiv'><img src='Fruit/pineapple.png'><br><font class='baseline'><strong>Primo Pineapple</strong><p><strong><font class='posOutcome'>You WON</font><p>You bet: 5</strong></font> &nbsp; &nbsp; &nbsp; &nbsp; &nbsp; &nbsp;<font class='posOutcome'>you receive: <strong>10</strong></font></div>","null","12","Primo Pineapple","Fruit/pineapple.png","Won","0.35,0.8","9","0.35","193","36","",""
"","","","decision","6092dea4efd6d61350f0fdbf","bdp_rwlrn","Wed Mar 15 2023 14:45:17 GMT-0500 (Central Daylight Time)","382153","Untrustworthy,Trustworthy","html-keyboard-response","119","182056","0.0-11.0-1.36","","726","","<div class='trialDiv'><img src='Fruit/melon.png'><br><font class='baseline'><strong>Melon Millions</strong><p>Choose number of points to bet.</font><div class='respPicDiv'><img src='img/responseButtonOffersNo0L.png' class='respPic'></div></div>","5","13","Melon Millions","Fruit/melon.png","Lost","0.65,0.2","11","0.65","198","37","",""
"","","","decisionFB","6092dea4efd6d61350f0fdbf","bdp_rwlrn","Wed Mar 15 2023 14:45:17 GMT-0500 (Central Daylight Time)","382153","Untrustworthy,Trustworthy","html-keyboard-response","120","182311","0.0-11.0-2.36","","null","","<div class='trialDiv'><img src='Fruit/melon.png'><br><font class='baseline'><strong>Melon Millions</strong><p>Choose number of points to bet.</font><div class='respPicDiv'><img src='img/responseButtonOffersNo0L5.png' class='respPic'></div></div>","null","13","Melon Millions","Fruit/melon.png","Lost","0.65,0.2","11","0.65","193","37","",""
"","","","feedback","6092dea4efd6d61350f0fdbf","bdp_rwlrn","Wed Mar 15 2023 14:45:17 GMT-0500 (Central Daylight Time)","382153","Untrustworthy,Trustworthy","html-keyboard-response","121","183324","0.0-11.0-3.36","","null","","<div class='respPicDiv'><img src='img/responseButtonOffersNo0_wht.png' class='respPic'></div><div class='trialDiv'><img src='Fruit/melon.png'><br><font class='baseline'><strong>Melon Millions</strong><p><strong><font class='negOutcome'>You LOST</font><p>You bet: 5</strong></font> &nbsp; &nbsp; &nbsp; &nbsp; &nbsp; &nbsp;<font class='negOutcome'>You receive: <strong>0</strong></font></div>","null","13","Melon Millions","Fruit/melon.png","Lost","0.65,0.2","11","0.65","193","37","",""
"","","","decision","6092dea4efd6d61350f0fdbf","bdp_rwlrn","Wed Mar 15 2023 14:45:17 GMT-0500 (Central Daylight Time)","382153","Untrustworthy,Trustworthy","html-keyboard-response","122","185630","0.0-11.0-1.37","","2305","","<div class='trialDiv'><img src='Fruit/lemon.png'><br><font class='baseline'><strong>Lucky Lemons</strong><p>Choose number of points to bet.</font><div class='respPicDiv'><img src='img/responseButtonOffersNo0L.png' class='respPic'></div></div>","4","13","Lucky Lemons","Fruit/lemon.png","Lost","0.8,0.2","12","0.8","198","38","",""
"","","","decisionFB","6092dea4efd6d61350f0fdbf","bdp_rwlrn","Wed Mar 15 2023 14:45:17 GMT-0500 (Central Daylight Time)","382153","Untrustworthy,Trustworthy","html-keyboard-response","123","185889","0.0-11.0-2.37","","null","","<div class='trialDiv'><img src='Fruit/lemon.png'><br><font class='baseline'><strong>Lucky Lemons</strong><p>Choose number of points to bet.</font><div class='respPicDiv'><img src='img/responseButtonOffersNo0L4.png' class='respPic'></div></div>","null","13","Lucky Lemons","Fruit/lemon.png","Lost","0.8,0.2","12","0.8","194","38","",""
"","","","feedback","6092dea4efd6d61350f0fdbf","bdp_rwlrn","Wed Mar 15 2023 14:45:17 GMT-0500 (Central Daylight Time)","382153","Untrustworthy,Trustworthy","html-keyboard-response","124","186895","0.0-11.0-3.37","","null","","<div class='respPicDiv'><img src='img/responseButtonOffersNo0_wht.png' class='respPic'></div><div class='trialDiv'><img src='Fruit/lemon.png'><br><font class='baseline'><strong>Lucky Lemons</strong><p><strong><font class='negOutcome'>You LOST</font><p>You bet: 4</strong></font> &nbsp; &nbsp; &nbsp; &nbsp; &nbsp; &nbsp;<font class='negOutcome'>You receive: <strong>0</strong></font></div>","null","13","Lucky Lemons","Fruit/lemon.png","Lost","0.8,0.2","12","0.8","194","38","",""
"","","","decision","6092dea4efd6d61350f0fdbf","bdp_rwlrn","Wed Mar 15 2023 14:45:17 GMT-0500 (Central Daylight Time)","382153","Untrustworthy,Trustworthy","html-keyboard-response","125","187527","0.0-11.0-1.38","","632","","<div class='trialDiv'><img src='Fruit/pineapple.png'><br><font class='baseline'><strong>Primo Pineapple</strong><p>Choose number of points to bet.</font><div class='respPicDiv'><img src='img/responseButtonOffersNo0L.png' class='respPic'></div></div>","5","13","Primo Pineapple","Fruit/pineapple.png","Won","0.35,0.8","9","0.35","199","39","",""
"","","","decisionFB","6092dea4efd6d61350f0fdbf","bdp_rwlrn","Wed Mar 15 2023 14:45:17 GMT-0500 (Central Daylight Time)","382153","Untrustworthy,Trustworthy","html-keyboard-response","126","187786","0.0-11.0-2.38","","null","","<div class='trialDiv'><img src='Fruit/pineapple.png'><br><font class='baseline'><strong>Primo Pineapple</strong><p>Choose number of points to bet.</font><div class='respPicDiv'><img src='img/responseButtonOffersNo0L5.png' class='respPic'></div></div>","null","13","Primo Pineapple","Fruit/pineapple.png","Won","0.35,0.8","9","0.35","194","39","",""
"","","","feedback","6092dea4efd6d61350f0fdbf","bdp_rwlrn","Wed Mar 15 2023 14:45:17 GMT-0500 (Central Daylight Time)","382153","Untrustworthy,Trustworthy","html-keyboard-response","127","188801","0.0-11.0-3.38","","null","","<div class='respPicDiv'><img src='img/responseButtonOffersNo0_wht.png' class='respPic'></div><div class='trialDiv'><img src='Fruit/pineapple.png'><br><font class='baseline'><strong>Primo Pineapple</strong><p><strong><font class='posOutcome'>You WON</font><p>You bet: 5</strong></font> &nbsp; &nbsp; &nbsp; &nbsp; &nbsp; &nbsp;<font class='posOutcome'>you receive: <strong>10</strong></font></div>","null","13","Primo Pineapple","Fruit/pineapple.png","Won","0.35,0.8","9","0.35","204","39","",""
"","","","decision","6092dea4efd6d61350f0fdbf","bdp_rwlrn","Wed Mar 15 2023 14:45:17 GMT-0500 (Central Daylight Time)","382153","Untrustworthy,Trustworthy","html-keyboard-response","128","189366","0.0-11.0-1.39","","563","","<div class='trialDiv'><img src='Fruit/lemon.png'><br><font class='baseline'><strong>Lucky Lemons</strong><p>Choose number of points to bet.</font><div class='respPicDiv'><img src='img/responseButtonOffersNo0L.png' class='respPic'></div></div>","5","14","Lucky Lemons","Fruit/lemon.png","Lost","0.8,0.2","12","0.8","209","40","",""
"","","","decisionFB","6092dea4efd6d61350f0fdbf","bdp_rwlrn","Wed Mar 15 2023 14:45:17 GMT-0500 (Central Daylight Time)","382153","Untrustworthy,Trustworthy","html-keyboard-response","129","189630","0.0-11.0-2.39","","null","","<div class='trialDiv'><img src='Fruit/lemon.png'><br><font class='baseline'><strong>Lucky Lemons</strong><p>Choose number of points to bet.</font><div class='respPicDiv'><img src='img/responseButtonOffersNo0L5.png' class='respPic'></div></div>","null","14","Lucky Lemons","Fruit/lemon.png","Lost","0.8,0.2","12","0.8","204","40","",""
"","","","feedback","6092dea4efd6d61350f0fdbf","bdp_rwlrn","Wed Mar 15 2023 14:45:17 GMT-0500 (Central Daylight Time)","382153","Untrustworthy,Trustworthy","html-keyboard-response","130","190646","0.0-11.0-3.39","","null","","<div class='respPicDiv'><img src='img/responseButtonOffersNo0_wht.png' class='respPic'></div><div class='trialDiv'><img src='Fruit/lemon.png'><br><font class='baseline'><strong>Lucky Lemons</strong><p><strong><font class='negOutcome'>You LOST</font><p>You bet: 5</strong></font> &nbsp; &nbsp; &nbsp; &nbsp; &nbsp; &nbsp;<font class='negOutcome'>You receive: <strong>0</strong></font></div>","null","14","Lucky Lemons","Fruit/lemon.png","Lost","0.8,0.2","12","0.8","204","40","",""
"","","","decision","6092dea4efd6d61350f0fdbf","bdp_rwlrn","Wed Mar 15 2023 14:45:17 GMT-0500 (Central Daylight Time)","382153","Untrustworthy,Trustworthy","html-keyboard-response","131","190995","0.0-11.0-1.40","","347","","<div class='trialDiv'><img src='Fruit/pineapple.png'><br><font class='baseline'><strong>Primo Pineapple</strong><p>Choose number of points to bet.</font><div class='respPicDiv'><img src='img/responseButtonOffersNo0L.png' class='respPic'></div></div>","5","14","Primo Pineapple","Fruit/pineapple.png","Won","0.35,0.8","9","0.35","209","41","",""
"","","","decisionFB","6092dea4efd6d61350f0fdbf","bdp_rwlrn","Wed Mar 15 2023 14:45:17 GMT-0500 (Central Daylight Time)","382153","Untrustworthy,Trustworthy","html-keyboard-response","132","191256","0.0-11.0-2.40","","null","","<div class='trialDiv'><img src='Fruit/pineapple.png'><br><font class='baseline'><strong>Primo Pineapple</strong><p>Choose number of points to bet.</font><div class='respPicDiv'><img src='img/responseButtonOffersNo0L5.png' class='respPic'></div></div>","null","14","Primo Pineapple","Fruit/pineapple.png","Won","0.35,0.8","9","0.35","204","41","",""
"","","","feedback","6092dea4efd6d61350f0fdbf","bdp_rwlrn","Wed Mar 15 2023 14:45:17 GMT-0500 (Central Daylight Time)","382153","Untrustworthy,Trustworthy","html-keyboard-response","133","192269","0.0-11.0-3.40","","null","","<div class='respPicDiv'><img src='img/responseButtonOffersNo0_wht.png' class='respPic'></div><div class='trialDiv'><img src='Fruit/pineapple.png'><br><font class='baseline'><strong>Primo Pineapple</strong><p><strong><font class='posOutcome'>You WON</font><p>You bet: 5</strong></font> &nbsp; &nbsp; &nbsp; &nbsp; &nbsp; &nbsp;<font class='posOutcome'>you receive: <strong>10</strong></font></div>","null","14","Primo Pineapple","Fruit/pineapple.png","Won","0.35,0.8","9","0.35","214","41","",""
"","","","decision","6092dea4efd6d61350f0fdbf","bdp_rwlrn","Wed Mar 15 2023 14:45:17 GMT-0500 (Central Daylight Time)","382153","Untrustworthy,Trustworthy","html-keyboard-response","134","192425","0.0-11.0-1.41","","156","","<div class='trialDiv'><img src='Fruit/melon.png'><br><font class='baseline'><strong>Melon Millions</strong><p>Choose number of points to bet.</font><div class='respPicDiv'><img src='img/responseButtonOffersNo0L.png' class='respPic'></div></div>","5","14","Melon Millions","Fruit/melon.png","Lost","0.65,0.2","11","0.65","219","42","",""
"","","","decisionFB","6092dea4efd6d61350f0fdbf","bdp_rwlrn","Wed Mar 15 2023 14:45:17 GMT-0500 (Central Daylight Time)","382153","Untrustworthy,Trustworthy","html-keyboard-response","135","192691","0.0-11.0-2.41","","null","","<div class='trialDiv'><img src='Fruit/melon.png'><br><font class='baseline'><strong>Melon Millions</strong><p>Choose number of points to bet.</font><div class='respPicDiv'><img src='img/responseButtonOffersNo0L5.png' class='respPic'></div></div>","null","14","Melon Millions","Fruit/melon.png","Lost","0.65,0.2","11","0.65","214","42","",""
"","","","feedback","6092dea4efd6d61350f0fdbf","bdp_rwlrn","Wed Mar 15 2023 14:45:17 GMT-0500 (Central Daylight Time)","382153","Untrustworthy,Trustworthy","html-keyboard-response","136","193695","0.0-11.0-3.41","","null","","<div class='respPicDiv'><img src='img/responseButtonOffersNo0_wht.png' class='respPic'></div><div class='trialDiv'><img src='Fruit/melon.png'><br><font class='baseline'><strong>Melon Millions</strong><p><strong><font class='negOutcome'>You LOST</font><p>You bet: 5</strong></font> &nbsp; &nbsp; &nbsp; &nbsp; &nbsp; &nbsp;<font class='negOutcome'>You receive: <strong>0</strong></font></div>","null","14","Melon Millions","Fruit/melon.png","Lost","0.65,0.2","11","0.65","214","42","",""
"","","","decision","6092dea4efd6d61350f0fdbf","bdp_rwlrn","Wed Mar 15 2023 14:45:17 GMT-0500 (Central Daylight Time)","382153","Untrustworthy,Trustworthy","html-keyboard-response","137","194060","0.0-11.0-1.42","","364","","<div class='trialDiv'><img src='Fruit/lemon.png'><br><font class='baseline'><strong>Lucky Lemons</strong><p>Choose number of points to bet.</font><div class='respPicDiv'><img src='img/responseButtonOffersNo0L.png' class='respPic'></div></div>","5","15","Lucky Lemons","Fruit/lemon.png","Won","0.8,0.2","12","0.8","219","43","",""
"","","","decisionFB","6092dea4efd6d61350f0fdbf","bdp_rwlrn","Wed Mar 15 2023 14:45:17 GMT-0500 (Central Daylight Time)","382153","Untrustworthy,Trustworthy","html-keyboard-response","138","194319","0.0-11.0-2.42","","null","","<div class='trialDiv'><img src='Fruit/lemon.png'><br><font class='baseline'><strong>Lucky Lemons</strong><p>Choose number of points to bet.</font><div class='respPicDiv'><img src='img/responseButtonOffersNo0L5.png' class='respPic'></div></div>","null","15","Lucky Lemons","Fruit/lemon.png","Won","0.8,0.2","12","0.8","214","43","",""
"","","","feedback","6092dea4efd6d61350f0fdbf","bdp_rwlrn","Wed Mar 15 2023 14:45:17 GMT-0500 (Central Daylight Time)","382153","Untrustworthy,Trustworthy","html-keyboard-response","139","195332","0.0-11.0-3.42","","null","","<div class='respPicDiv'><img src='img/responseButtonOffersNo0_wht.png' class='respPic'></div><div class='trialDiv'><img src='Fruit/lemon.png'><br><font class='baseline'><strong>Lucky Lemons</strong><p><strong><font class='posOutcome'>You WON</font><p>You bet: 5</strong></font> &nbsp; &nbsp; &nbsp; &nbsp; &nbsp; &nbsp;<font class='posOutcome'>you receive: <strong>10</strong></font></div>","null","15","Lucky Lemons","Fruit/lemon.png","Won","0.8,0.2","12","0.8","224","43","",""
"","","","decision","6092dea4efd6d61350f0fdbf","bdp_rwlrn","Wed Mar 15 2023 14:45:17 GMT-0500 (Central Daylight Time)","382153","Untrustworthy,Trustworthy","html-keyboard-response","140","195653","0.0-11.0-1.43","","320","","<div class='trialDiv'><img src='Fruit/melon.png'><br><font class='baseline'><strong>Melon Millions</strong><p>Choose number of points to bet.</font><div class='respPicDiv'><img src='img/responseButtonOffersNo0L.png' class='respPic'></div></div>","5","15","Melon Millions","Fruit/melon.png","Won","0.65,0.2","11","0.65","229","44","",""
"","","","decisionFB","6092dea4efd6d61350f0fdbf","bdp_rwlrn","Wed Mar 15 2023 14:45:17 GMT-0500 (Central Daylight Time)","382153","Untrustworthy,Trustworthy","html-keyboard-response","141","195908","0.0-11.0-2.43","","null","","<div class='trialDiv'><img src='Fruit/melon.png'><br><font class='baseline'><strong>Melon Millions</strong><p>Choose number of points to bet.</font><div class='respPicDiv'><img src='img/responseButtonOffersNo0L5.png' class='respPic'></div></div>","null","15","Melon Millions","Fruit/melon.png","Won","0.65,0.2","11","0.65","224","44","",""
"","","","feedback","6092dea4efd6d61350f0fdbf","bdp_rwlrn","Wed Mar 15 2023 14:45:17 GMT-0500 (Central Daylight Time)","382153","Untrustworthy,Trustworthy","html-keyboard-response","142","196909","0.0-11.0-3.43","","null","","<div class='respPicDiv'><img src='img/responseButtonOffersNo0_wht.png' class='respPic'></div><div class='trialDiv'><img src='Fruit/melon.png'><br><font class='baseline'><strong>Melon Millions</strong><p><strong><font class='posOutcome'>You WON</font><p>You bet: 5</strong></font> &nbsp; &nbsp; &nbsp; &nbsp; &nbsp; &nbsp;<font class='posOutcome'>you receive: <strong>10</strong></font></div>","null","15","Melon Millions","Fruit/melon.png","Won","0.65,0.2","11","0.65","234","44","",""
"","","","decision","6092dea4efd6d61350f0fdbf","bdp_rwlrn","Wed Mar 15 2023 14:45:17 GMT-0500 (Central Daylight Time)","382153","Untrustworthy,Trustworthy","html-keyboard-response","143","197258","0.0-11.0-1.44","","349","","<div class='trialDiv'><img src='Fruit/pineapple.png'><br><font class='baseline'><strong>Primo Pineapple</strong><p>Choose number of points to bet.</font><div class='respPicDiv'><img src='img/responseButtonOffersNo0L.png' class='respPic'></div></div>","5","15","Primo Pineapple","Fruit/pineapple.png","Won","0.35,0.8","9","0.35","239","45","",""
"","","","decisionFB","6092dea4efd6d61350f0fdbf","bdp_rwlrn","Wed Mar 15 2023 14:45:17 GMT-0500 (Central Daylight Time)","382153","Untrustworthy,Trustworthy","html-keyboard-response","144","197520","0.0-11.0-2.44","","null","","<div class='trialDiv'><img src='Fruit/pineapple.png'><br><font class='baseline'><strong>Primo Pineapple</strong><p>Choose number of points to bet.</font><div class='respPicDiv'><img src='img/responseButtonOffersNo0L5.png' class='respPic'></div></div>","null","15","Primo Pineapple","Fruit/pineapple.png","Won","0.35,0.8","9","0.35","234","45","",""
"","","","feedback","6092dea4efd6d61350f0fdbf","bdp_rwlrn","Wed Mar 15 2023 14:45:17 GMT-0500 (Central Daylight Time)","382153","Untrustworthy,Trustworthy","html-keyboard-response","145","198522","0.0-11.0-3.44","","null","","<div class='respPicDiv'><img src='img/responseButtonOffersNo0_wht.png' class='respPic'></div><div class='trialDiv'><img src='Fruit/pineapple.png'><br><font class='baseline'><strong>Primo Pineapple</strong><p><strong><font class='posOutcome'>You WON</font><p>You bet: 5</strong></font> &nbsp; &nbsp; &nbsp; &nbsp; &nbsp; &nbsp;<font class='posOutcome'>you receive: <strong>10</strong></font></div>","null","15","Primo Pineapple","Fruit/pineapple.png","Won","0.35,0.8","9","0.35","244","45","",""
"","","","decision","6092dea4efd6d61350f0fdbf","bdp_rwlrn","Wed Mar 15 2023 14:45:17 GMT-0500 (Central Daylight Time)","382153","Untrustworthy,Trustworthy","html-keyboard-response","146","199062","0.0-11.0-1.45","","538","","<div class='trialDiv'><img src='Fruit/melon.png'><br><font class='baseline'><strong>Melon Millions</strong><p>Choose number of points to bet.</font><div class='respPicDiv'><img src='img/responseButtonOffersNo0L.png' class='respPic'></div></div>","5","16","Melon Millions","Fruit/melon.png","Lost","0.65,0.2","11","0.65","249","46","",""
"","","","decisionFB","6092dea4efd6d61350f0fdbf","bdp_rwlrn","Wed Mar 15 2023 14:45:17 GMT-0500 (Central Daylight Time)","382153","Untrustworthy,Trustworthy","html-keyboard-response","147","199314","0.0-11.0-2.45","","null","","<div class='trialDiv'><img src='Fruit/melon.png'><br><font class='baseline'><strong>Melon Millions</strong><p>Choose number of points to bet.</font><div class='respPicDiv'><img src='img/responseButtonOffersNo0L5.png' class='respPic'></div></div>","null","16","Melon Millions","Fruit/melon.png","Lost","0.65,0.2","11","0.65","244","46","",""
"","","","feedback","6092dea4efd6d61350f0fdbf","bdp_rwlrn","Wed Mar 15 2023 14:45:17 GMT-0500 (Central Daylight Time)","382153","Untrustworthy,Trustworthy","html-keyboard-response","148","200328","0.0-11.0-3.45","","null","","<div class='respPicDiv'><img src='img/responseButtonOffersNo0_wht.png' class='respPic'></div><div class='trialDiv'><img src='Fruit/melon.png'><br><font class='baseline'><strong>Melon Millions</strong><p><strong><font class='negOutcome'>You LOST</font><p>You bet: 5</strong></font> &nbsp; &nbsp; &nbsp; &nbsp; &nbsp; &nbsp;<font class='negOutcome'>You receive: <strong>0</strong></font></div>","null","16","Melon Millions","Fruit/melon.png","Lost","0.65,0.2","11","0.65","244","46","",""
"","","","decision","6092dea4efd6d61350f0fdbf","bdp_rwlrn","Wed Mar 15 2023 14:45:17 GMT-0500 (Central Daylight Time)","382153","Untrustworthy,Trustworthy","html-keyboard-response","149","200838","0.0-11.0-1.46","","509","","<div class='trialDiv'><img src='Fruit/lemon.png'><br><font class='baseline'><strong>Lucky Lemons</strong><p>Choose number of points to bet.</font><div class='respPicDiv'><img src='img/responseButtonOffersNo0L.png' class='respPic'></div></div>","5","16","Lucky Lemons","Fruit/lemon.png","Lost","0.8,0.2","12","0.8","249","47","",""
"","","","decisionFB","6092dea4efd6d61350f0fdbf","bdp_rwlrn","Wed Mar 15 2023 14:45:17 GMT-0500 (Central Daylight Time)","382153","Untrustworthy,Trustworthy","html-keyboard-response","150","201091","0.0-11.0-2.46","","null","","<div class='trialDiv'><img src='Fruit/lemon.png'><br><font class='baseline'><strong>Lucky Lemons</strong><p>Choose number of points to bet.</font><div class='respPicDiv'><img src='img/responseButtonOffersNo0L5.png' class='respPic'></div></div>","null","16","Lucky Lemons","Fruit/lemon.png","Lost","0.8,0.2","12","0.8","244","47","",""
"","","","feedback","6092dea4efd6d61350f0fdbf","bdp_rwlrn","Wed Mar 15 2023 14:45:17 GMT-0500 (Central Daylight Time)","382153","Untrustworthy,Trustworthy","html-keyboard-response","151","202105","0.0-11.0-3.46","","null","","<div class='respPicDiv'><img src='img/responseButtonOffersNo0_wht.png' class='respPic'></div><div class='trialDiv'><img src='Fruit/lemon.png'><br><font class='baseline'><strong>Lucky Lemons</strong><p><strong><font class='negOutcome'>You LOST</font><p>You bet: 5</strong></font> &nbsp; &nbsp; &nbsp; &nbsp; &nbsp; &nbsp;<font class='negOutcome'>You receive: <strong>0</strong></font></div>","null","16","Lucky Lemons","Fruit/lemon.png","Lost","0.8,0.2","12","0.8","244","47","",""
"","","","decision","6092dea4efd6d61350f0fdbf","bdp_rwlrn","Wed Mar 15 2023 14:45:17 GMT-0500 (Central Daylight Time)","382153","Untrustworthy,Trustworthy","html-keyboard-response","152","202439","0.0-11.0-1.47","","332","","<div class='trialDiv'><img src='Fruit/pineapple.png'><br><font class='baseline'><strong>Primo Pineapple</strong><p>Choose number of points to bet.</font><div class='respPicDiv'><img src='img/responseButtonOffersNo0L.png' class='respPic'></div></div>","5","16","Primo Pineapple","Fruit/pineapple.png","Lost","0.35,0.8","9","0.35","249","48","",""
"","","","decisionFB","6092dea4efd6d61350f0fdbf","bdp_rwlrn","Wed Mar 15 2023 14:45:17 GMT-0500 (Central Daylight Time)","382153","Untrustworthy,Trustworthy","html-keyboard-response","153","202695","0.0-11.0-2.47","","null","","<div class='trialDiv'><img src='Fruit/pineapple.png'><br><font class='baseline'><strong>Primo Pineapple</strong><p>Choose number of points to bet.</font><div class='respPicDiv'><img src='img/responseButtonOffersNo0L5.png' class='respPic'></div></div>","null","16","Primo Pineapple","Fruit/pineapple.png","Lost","0.35,0.8","9","0.35","244","48","",""
"","","","feedback","6092dea4efd6d61350f0fdbf","bdp_rwlrn","Wed Mar 15 2023 14:45:17 GMT-0500 (Central Daylight Time)","382153","Untrustworthy,Trustworthy","html-keyboard-response","154","203711","0.0-11.0-3.47","","null","","<div class='respPicDiv'><img src='img/responseButtonOffersNo0_wht.png' class='respPic'></div><div class='trialDiv'><img src='Fruit/pineapple.png'><br><font class='baseline'><strong>Primo Pineapple</strong><p><strong><font class='negOutcome'>You LOST</font><p>You bet: 5</strong></font> &nbsp; &nbsp; &nbsp; &nbsp; &nbsp; &nbsp;<font class='negOutcome'>You receive: <strong>0</strong></font></div>","null","16","Primo Pineapple","Fruit/pineapple.png","Lost","0.35,0.8","9","0.35","244","48","",""
"","","","decision","6092dea4efd6d61350f0fdbf","bdp_rwlrn","Wed Mar 15 2023 14:45:17 GMT-0500 (Central Daylight Time)","382153","Untrustworthy,Trustworthy","html-keyboard-response","155","205578","0.0-11.0-1.48","","1867","","<div class='trialDiv'><img src='Fruit/lemon.png'><br><font class='baseline'><strong>Lucky Lemons</strong><p>Choose number of points to bet.</font><div class='respPicDiv'><img src='img/responseButtonOffersNo0L.png' class='respPic'></div></div>","1","17","Lucky Lemons","Fruit/lemon.png","Lost","0.8,0.2","12","0.8","249","49","",""
"","","","decisionFB","6092dea4efd6d61350f0fdbf","bdp_rwlrn","Wed Mar 15 2023 14:45:17 GMT-0500 (Central Daylight Time)","382153","Untrustworthy,Trustworthy","html-keyboard-response","156","205829","0.0-11.0-2.48","","null","","<div class='trialDiv'><img src='Fruit/lemon.png'><br><font class='baseline'><strong>Lucky Lemons</strong><p>Choose number of points to bet.</font><div class='respPicDiv'><img src='img/responseButtonOffersNo0L1.png' class='respPic'></div></div>","null","17","Lucky Lemons","Fruit/lemon.png","Lost","0.8,0.2","12","0.8","248","49","",""
"","","","feedback","6092dea4efd6d61350f0fdbf","bdp_rwlrn","Wed Mar 15 2023 14:45:17 GMT-0500 (Central Daylight Time)","382153","Untrustworthy,Trustworthy","html-keyboard-response","157","206840","0.0-11.0-3.48","","null","","<div class='respPicDiv'><img src='img/responseButtonOffersNo0_wht.png' class='respPic'></div><div class='trialDiv'><img src='Fruit/lemon.png'><br><font class='baseline'><strong>Lucky Lemons</strong><p><strong><font class='negOutcome'>You LOST</font><p>You bet: 1</strong></font> &nbsp; &nbsp; &nbsp; &nbsp; &nbsp; &nbsp;<font class='negOutcome'>You receive: <strong>0</strong></font></div>","null","17","Lucky Lemons","Fruit/lemon.png","Lost","0.8,0.2","12","0.8","248","49","",""
"","","","decision","6092dea4efd6d61350f0fdbf","bdp_rwlrn","Wed Mar 15 2023 14:45:17 GMT-0500 (Central Daylight Time)","382153","Untrustworthy,Trustworthy","html-keyboard-response","158","207341","0.0-11.0-1.49","","500","","<div class='trialDiv'><img src='Fruit/pineapple.png'><br><font class='baseline'><strong>Primo Pineapple</strong><p>Choose number of points to bet.</font><div class='respPicDiv'><img src='img/responseButtonOffersNo0L.png' class='respPic'></div></div>","1","17","Primo Pineapple","Fruit/pineapple.png","Won","0.35,0.8","9","0.35","253","50","",""
"","","","decisionFB","6092dea4efd6d61350f0fdbf","bdp_rwlrn","Wed Mar 15 2023 14:45:17 GMT-0500 (Central Daylight Time)","382153","Untrustworthy,Trustworthy","html-keyboard-response","159","207594","0.0-11.0-2.49","","null","","<div class='trialDiv'><img src='Fruit/pineapple.png'><br><font class='baseline'><strong>Primo Pineapple</strong><p>Choose number of points to bet.</font><div class='respPicDiv'><img src='img/responseButtonOffersNo0L1.png' class='respPic'></div></div>","null","17","Primo Pineapple","Fruit/pineapple.png","Won","0.35,0.8","9","0.35","252","50","",""
"","","","feedback","6092dea4efd6d61350f0fdbf","bdp_rwlrn","Wed Mar 15 2023 14:45:17 GMT-0500 (Central Daylight Time)","382153","Untrustworthy,Trustworthy","html-keyboard-response","160","208609","0.0-11.0-3.49","","null","","<div class='respPicDiv'><img src='img/responseButtonOffersNo0_wht.png' class='respPic'></div><div class='trialDiv'><img src='Fruit/pineapple.png'><br><font class='baseline'><strong>Primo Pineapple</strong><p><strong><font class='posOutcome'>You WON</font><p>You bet: 1</strong></font> &nbsp; &nbsp; &nbsp; &nbsp; &nbsp; &nbsp;<font class='posOutcome'>you receive: <strong>2</strong></font></div>","null","17","Primo Pineapple","Fruit/pineapple.png","Won","0.35,0.8","9","0.35","254","50","",""
"","","","decision","6092dea4efd6d61350f0fdbf","bdp_rwlrn","Wed Mar 15 2023 14:45:17 GMT-0500 (Central Daylight Time)","382153","Untrustworthy,Trustworthy","html-keyboard-response","161","209176","0.0-11.0-1.50","","566","","<div class='trialDiv'><img src='Fruit/melon.png'><br><font class='baseline'><strong>Melon Millions</strong><p>Choose number of points to bet.</font><div class='respPicDiv'><img src='img/responseButtonOffersNo0L.png' class='respPic'></div></div>","1","17","Melon Millions","Fruit/melon.png","Lost","0.65,0.2","11","0.65","259","51","",""
"","","","decisionFB","6092dea4efd6d61350f0fdbf","bdp_rwlrn","Wed Mar 15 2023 14:45:17 GMT-0500 (Central Daylight Time)","382153","Untrustworthy,Trustworthy","html-keyboard-response","162","209437","0.0-11.0-2.50","","null","","<div class='trialDiv'><img src='Fruit/melon.png'><br><font class='baseline'><strong>Melon Millions</strong><p>Choose number of points to bet.</font><div class='respPicDiv'><img src='img/responseButtonOffersNo0L1.png' class='respPic'></div></div>","null","17","Melon Millions","Fruit/melon.png","Lost","0.65,0.2","11","0.65","258","51","",""
