"event","trial","time","trialtype","numBlurs","subject_id","task","startTime","totalTime","labels","trial_type","trial_index","time_elapsed","internal_node_id","view_history","rt","success","stimulus","key_press","ltround","name","fileID","outcome","lottotype","lottoswpt","lottocurrpshare","point_total","round","faceID","face"
"blur","0","0","blurevent","1","5efc1d4ee23e2a011ded073e","bdp_rwlrn","Sat Apr 08 2023 09:42:50 GMT-0700 (Pacific Daylight Time)","351429","Untrustworthy,Trustworthy","","","","","","","","","","","","","","","","","","","",""
"focus","0","0","focusevent","","5efc1d4ee23e2a011ded073e","bdp_rwlrn","Sat Apr 08 2023 09:42:50 GMT-0700 (Pacific Daylight Time)","351429","Untrustworthy,Trustworthy","","","","","","","","","","","","","","","","","","","",""
"","","","","","5efc1d4ee23e2a011ded073e","bdp_rwlrn","Sat Apr 08 2023 09:42:50 GMT-0700 (Pacific Daylight Time)","351429","Untrustworthy,Trustworthy","pavlovia","0","12","0.0-0.0","","","","","","","","","","","","","","","",""
"","","","","","5efc1d4ee23e2a011ded073e","bdp_rwlrn","Sat Apr 08 2023 09:42:50 GMT-0700 (Pacific Daylight Time)","351429","Untrustworthy,Trustworthy","instructions","1","5664","0.0-1.0","[{""page_index"":0,""viewing_time"":5650}]","5650","","","","","","","","","","","","","",""
"fullscreenenter","2","9496","fullscreenenter","","5efc1d4ee23e2a011ded073e","bdp_rwlrn","Sat Apr 08 2023 09:42:50 GMT-0700 (Pacific Daylight Time)","351429","Untrustworthy,Trustworthy","","","","","","","","","","","","","","","","","","","",""
"","","","","","5efc1d4ee23e2a011ded073e","bdp_rwlrn","Sat Apr 08 2023 09:42:50 GMT-0700 (Pacific Daylight Time)","351429","Untrustworthy,Trustworthy","fullscreen","2","10450","0.0-2.0","","","true","","","","","","","","","","","","",""
"","","","","","5efc1d4ee23e2a011ded073e","bdp_rwlrn","Sat Apr 08 2023 09:42:50 GMT-0700 (Pacific Daylight Time)","351429","Untrustworthy,Trustworthy","instructions","3","72547","0.0-4.0","[{""page_index"":0,""viewing_time"":13639},{""page_index"":1,""viewing_time"":12992},{""page_index"":2,""viewing_time"":3343},{""page_index"":3,""viewing_time"":17336},{""page_index"":4,""viewing_time"":12966},{""page_index"":5,""viewing_time"":1816}]","62092","","","","","","","","","","","","","",""
"","","","","","5efc1d4ee23e2a011ded073e","bdp_rwlrn","Sat Apr 08 2023 09:42:50 GMT-0700 (Pacific Daylight Time)","351429","Untrustworthy,Trustworthy","html-keyboard-response","4","77247","0.0-5.0","","4696","","<div class='header' style='text-align:left; position: absolute; top: 5%; left: 5%;'><small>Task 3 of 5</small></div><div class='instruxDiv'><p><strong>1) What is the maximum number of points you can choose to bet on a lottery?</strong></p><p>a) 0</p><p>b) 1</p><p>c) 5</p>","C","","","","","","","","","","",""
"","","","","","5efc1d4ee23e2a011ded073e","bdp_rwlrn","Sat Apr 08 2023 09:42:50 GMT-0700 (Pacific Daylight Time)","351429","Untrustworthy,Trustworthy","html-keyboard-response","5","78814","0.0-6.0","","1463","","<div class='header' style='text-align:left; position: absolute; top: 5%; left: 5%;'><small>Task 3 of 5</small></div><div class='instruxDiv'><p><strong>1) What is the maximum number of points you can choose to bet on a lottery?</strong></p><p>a) 1</p><p>b) 1</p><p style='color:#00FF00'>c) 5</p><h3 style='color:#00FF00'>Correct!</h3><h3 class='center-content'>The correct response is c).</h3><h3 class='center-content'>The maximum number of points you can choose to bet on a lottery is 5 points.</h3><p><em>Press SPACEBAR to continue</em></p></div>"," ","","","","","","","","","","",""
"","","","","","5efc1d4ee23e2a011ded073e","bdp_rwlrn","Sat Apr 08 2023 09:42:50 GMT-0700 (Pacific Daylight Time)","351429","Untrustworthy,Trustworthy","html-keyboard-response","6","84408","0.0-7.0","","5485","","<div class='header' style='text-align:left; position: absolute; top: 5%; left: 5%;'><small>Task 3 of 5</small></div><div class='instruxDiv'><p><strong>2) How many points can you win each round?</strong></p><p>a) 10 points</p><p>b) Double what you bet</p><p>c) Quadruple what you bet</p>","B","","","","","","","","","","",""
"","","","","","5efc1d4ee23e2a011ded073e","bdp_rwlrn","Sat Apr 08 2023 09:42:50 GMT-0700 (Pacific Daylight Time)","351429","Untrustworthy,Trustworthy","html-keyboard-response","7","85818","0.0-8.0","","1300","","<div class='header' style='text-align:left; position: absolute; top: 5%; left: 5%;'><small>Task 3 of 5</small></div><div class='instruxDiv'><p><strong>2) How many points can you win each round?</strong></p><p>a) 10 points</p><p style='color:#00FF00'>b) Double what you bet</p><p>c) Quadruple what you bet</p><h3 style='color:#00FF00'>Correct!</h3><h3 class='center-content'>The correct response is b).</h3><h3 class='center-content'>You can win double the amount of points you bet.</h3><p><em>Press SPACEBAR to continue</em></p></div>"," ","","","","","","","","","","",""
"","","","","","5efc1d4ee23e2a011ded073e","bdp_rwlrn","Sat Apr 08 2023 09:42:50 GMT-0700 (Pacific Daylight Time)","351429","Untrustworthy,Trustworthy","html-keyboard-response","8","90935","0.0-9.0","","null","","<div class='header' style='text-align:left; position: absolute; top: 5%; left: 5%;'><small>Task 3 of 5</small></div><div class='instruxDiv'><p>Thank you for completing the quiz<p>These are the actual lotteries you will be playing in the next block:<p><div class='tc' align='center'><img class='introPic' src='Fruit/bananas.png'><br><strong>Banana Bonanza</strong></div><div class='bl' align='center'><img class='introPic' src='Fruit/lemon.png'><br><strong>Lucky Lemons</strong></div><div class='br' align='center'><img class='introPic' src='Fruit/watermelon.png'><br><strong>Watermelon Win$</strong></div></div><p>Across <strong>66 rounds</strong> you will play each lottery <strong>22 times</strong> (in random order).<p style='align:center; color:white'><font <em>Press SPACEBAR to continue</em></p>","null","","","","","","","","","","",""
"","","","","","5efc1d4ee23e2a011ded073e","bdp_rwlrn","Sat Apr 08 2023 09:42:50 GMT-0700 (Pacific Daylight Time)","351429","Untrustworthy,Trustworthy","instructions","9","93698","0.0-10.0","[{""page_index"":0,""viewing_time"":1032},{""page_index"":1,""viewing_time"":1729}]","2762","","","","","","","","","","","","","",""
"","","","decision","","5efc1d4ee23e2a011ded073e","bdp_rwlrn","Sat Apr 08 2023 09:42:50 GMT-0700 (Pacific Daylight Time)","351429","Untrustworthy,Trustworthy","html-keyboard-response","10","95747","0.0-11.0-1.0","","1935","","<div class='trialDiv'><img src='Fruit/lemon.png'><br><font class='baseline'><strong>Lucky Lemons</strong><p>Choose number of points to bet.</font><div class='respPicDiv'><img src='img/responseButtonOffersNo0L.png' class='respPic'></div></div>","3","1","Lucky Lemons","Fruit/lemon.png","Won","0.65,0.2","12","0.65","5","1","",""
"","","","decisionFB","","5efc1d4ee23e2a011ded073e","bdp_rwlrn","Sat Apr 08 2023 09:42:50 GMT-0700 (Pacific Daylight Time)","351429","Untrustworthy,Trustworthy","html-keyboard-response","11","96007","0.0-11.0-2.0","","null","","<div class='trialDiv'><img src='Fruit/lemon.png'><br><font class='baseline'><strong>Lucky Lemons</strong><p>Choose number of points to bet.</font><div class='respPicDiv'><img src='img/responseButtonOffersNo0L3.png' class='respPic'></div></div>","null","1","Lucky Lemons","Fruit/lemon.png","Won","0.65,0.2","12","0.65","2","1","",""
"","","","feedback","","5efc1d4ee23e2a011ded073e","bdp_rwlrn","Sat Apr 08 2023 09:42:50 GMT-0700 (Pacific Daylight Time)","351429","Untrustworthy,Trustworthy","html-keyboard-response","12","97018","0.0-11.0-3.0","","null","","<div class='respPicDiv'><img src='img/responseButtonOffersNo0_wht.png' class='respPic'></div><div class='trialDiv'><img src='Fruit/lemon.png'><br><font class='baseline'><strong>Lucky Lemons</strong><p><strong><font class='posOutcome'>You WON</font><p>You bet: 3</strong></font> &nbsp; &nbsp; &nbsp; &nbsp; &nbsp; &nbsp;<font class='posOutcome'>you receive: <strong>6</strong></font></div>","null","1","Lucky Lemons","Fruit/lemon.png","Won","0.65,0.2","12","0.65","8","1","",""
"","","","decision","","5efc1d4ee23e2a011ded073e","bdp_rwlrn","Sat Apr 08 2023 09:42:50 GMT-0700 (Pacific Daylight Time)","351429","Untrustworthy,Trustworthy","html-keyboard-response","13","97481","0.0-11.0-1.1","","459","","<div class='trialDiv'><img src='Fruit/bananas.png'><br><font class='baseline'><strong>Banana Bonanza</strong><p>Choose number of points to bet.</font><div class='respPicDiv'><img src='img/responseButtonOffersNo0L.png' class='respPic'></div></div>","3","1","Banana Bonanza","Fruit/bananas.png","Lost","0.35,0.8","9","0.35","13","2","",""
"","","","decisionFB","","5efc1d4ee23e2a011ded073e","bdp_rwlrn","Sat Apr 08 2023 09:42:50 GMT-0700 (Pacific Daylight Time)","351429","Untrustworthy,Trustworthy","html-keyboard-response","14","97744","0.0-11.0-2.1","","null","","<div class='trialDiv'><img src='Fruit/bananas.png'><br><font class='baseline'><strong>Banana Bonanza</strong><p>Choose number of points to bet.</font><div class='respPicDiv'><img src='img/responseButtonOffersNo0L3.png' class='respPic'></div></div>","null","1","Banana Bonanza","Fruit/bananas.png","Lost","0.35,0.8","9","0.35","10","2","",""
"","","","feedback","","5efc1d4ee23e2a011ded073e","bdp_rwlrn","Sat Apr 08 2023 09:42:50 GMT-0700 (Pacific Daylight Time)","351429","Untrustworthy,Trustworthy","html-keyboard-response","15","98754","0.0-11.0-3.1","","null","","<div class='respPicDiv'><img src='img/responseButtonOffersNo0_wht.png' class='respPic'></div><div class='trialDiv'><img src='Fruit/bananas.png'><br><font class='baseline'><strong>Banana Bonanza</strong><p><strong><font class='negOutcome'>You LOST</font><p>You bet: 3</strong></font> &nbsp; &nbsp; &nbsp; &nbsp; &nbsp; &nbsp;<font class='negOutcome'>You receive: <strong>0</strong></font></div>","null","1","Banana Bonanza","Fruit/bananas.png","Lost","0.35,0.8","9","0.35","10","2","",""
"","","","decision","","5efc1d4ee23e2a011ded073e","bdp_rwlrn","Sat Apr 08 2023 09:42:50 GMT-0700 (Pacific Daylight Time)","351429","Untrustworthy,Trustworthy","html-keyboard-response","16","99151","0.0-11.0-1.2","","393","","<div class='trialDiv'><img src='Fruit/watermelon.png'><br><font class='baseline'><strong>Watermelon Win$</strong><p>Choose number of points to bet.</font><div class='respPicDiv'><img src='img/responseButtonOffersNo0L.png' class='respPic'></div></div>","4","1","Watermelon Win$","Fruit/watermelon.png","Lost","0.35,0.65","12","0.35","15","3","",""
"","","","decisionFB","","5efc1d4ee23e2a011ded073e","bdp_rwlrn","Sat Apr 08 2023 09:42:50 GMT-0700 (Pacific Daylight Time)","351429","Untrustworthy,Trustworthy","html-keyboard-response","17","99406","0.0-11.0-2.2","","null","","<div class='trialDiv'><img src='Fruit/watermelon.png'><br><font class='baseline'><strong>Watermelon Win$</strong><p>Choose number of points to bet.</font><div class='respPicDiv'><img src='img/responseButtonOffersNo0L4.png' class='respPic'></div></div>","null","1","Watermelon Win$","Fruit/watermelon.png","Lost","0.35,0.65","12","0.35","11","3","",""
"","","","feedback","","5efc1d4ee23e2a011ded073e","bdp_rwlrn","Sat Apr 08 2023 09:42:50 GMT-0700 (Pacific Daylight Time)","351429","Untrustworthy,Trustworthy","html-keyboard-response","18","100411","0.0-11.0-3.2","","null","","<div class='respPicDiv'><img src='img/responseButtonOffersNo0_wht.png' class='respPic'></div><div class='trialDiv'><img src='Fruit/watermelon.png'><br><font class='baseline'><strong>Watermelon Win$</strong><p><strong><font class='negOutcome'>You LOST</font><p>You bet: 4</strong></font> &nbsp; &nbsp; &nbsp; &nbsp; &nbsp; &nbsp;<font class='negOutcome'>You receive: <strong>0</strong></font></div>","null","1","Watermelon Win$","Fruit/watermelon.png","Lost","0.35,0.65","12","0.35","11","3","",""
"","","","decision","","5efc1d4ee23e2a011ded073e","bdp_rwlrn","Sat Apr 08 2023 09:42:50 GMT-0700 (Pacific Daylight Time)","351429","Untrustworthy,Trustworthy","html-keyboard-response","19","100736","0.0-11.0-1.3","","321","","<div class='trialDiv'><img src='Fruit/lemon.png'><br><font class='baseline'><strong>Lucky Lemons</strong><p>Choose number of points to bet.</font><div class='respPicDiv'><img src='img/responseButtonOffersNo0L.png' class='respPic'></div></div>","3","2","Lucky Lemons","Fruit/lemon.png","Won","0.65,0.2","12","0.65","16","4","",""
"","","","decisionFB","","5efc1d4ee23e2a011ded073e","bdp_rwlrn","Sat Apr 08 2023 09:42:50 GMT-0700 (Pacific Daylight Time)","351429","Untrustworthy,Trustworthy","html-keyboard-response","20","100990","0.0-11.0-2.3","","null","","<div class='trialDiv'><img src='Fruit/lemon.png'><br><font class='baseline'><strong>Lucky Lemons</strong><p>Choose number of points to bet.</font><div class='respPicDiv'><img src='img/responseButtonOffersNo0L3.png' class='respPic'></div></div>","null","2","Lucky Lemons","Fruit/lemon.png","Won","0.65,0.2","12","0.65","13","4","",""
"","","","feedback","","5efc1d4ee23e2a011ded073e","bdp_rwlrn","Sat Apr 08 2023 09:42:50 GMT-0700 (Pacific Daylight Time)","351429","Untrustworthy,Trustworthy","html-keyboard-response","21","102001","0.0-11.0-3.3","","null","","<div class='respPicDiv'><img src='img/responseButtonOffersNo0_wht.png' class='respPic'></div><div class='trialDiv'><img src='Fruit/lemon.png'><br><font class='baseline'><strong>Lucky Lemons</strong><p><strong><font class='posOutcome'>You WON</font><p>You bet: 3</strong></font> &nbsp; &nbsp; &nbsp; &nbsp; &nbsp; &nbsp;<font class='posOutcome'>you receive: <strong>6</strong></font></div>","null","2","Lucky Lemons","Fruit/lemon.png","Won","0.65,0.2","12","0.65","19","4","",""
"","","","decision","","5efc1d4ee23e2a011ded073e","bdp_rwlrn","Sat Apr 08 2023 09:42:50 GMT-0700 (Pacific Daylight Time)","351429","Untrustworthy,Trustworthy","html-keyboard-response","22","102334","0.0-11.0-1.4","","330","","<div class='trialDiv'><img src='Fruit/watermelon.png'><br><font class='baseline'><strong>Watermelon Win$</strong><p>Choose number of points to bet.</font><div class='respPicDiv'><img src='img/responseButtonOffersNo0L.png' class='respPic'></div></div>","4","2","Watermelon Win$","Fruit/watermelon.png","Lost","0.35,0.65","12","0.35","24","5","",""
"","","","decisionFB","","5efc1d4ee23e2a011ded073e","bdp_rwlrn","Sat Apr 08 2023 09:42:50 GMT-0700 (Pacific Daylight Time)","351429","Untrustworthy,Trustworthy","html-keyboard-response","23","102593","0.0-11.0-2.4","","null","","<div class='trialDiv'><img src='Fruit/watermelon.png'><br><font class='baseline'><strong>Watermelon Win$</strong><p>Choose number of points to bet.</font><div class='respPicDiv'><img src='img/responseButtonOffersNo0L4.png' class='respPic'></div></div>","null","2","Watermelon Win$","Fruit/watermelon.png","Lost","0.35,0.65","12","0.35","20","5","",""
"","","","feedback","","5efc1d4ee23e2a011ded073e","bdp_rwlrn","Sat Apr 08 2023 09:42:50 GMT-0700 (Pacific Daylight Time)","351429","Untrustworthy,Trustworthy","html-keyboard-response","24","103596","0.0-11.0-3.4","","null","","<div class='respPicDiv'><img src='img/responseButtonOffersNo0_wht.png' class='respPic'></div><div class='trialDiv'><img src='Fruit/watermelon.png'><br><font class='baseline'><strong>Watermelon Win$</strong><p><strong><font class='negOutcome'>You LOST</font><p>You bet: 4</strong></font> &nbsp; &nbsp; &nbsp; &nbsp; &nbsp; &nbsp;<font class='negOutcome'>You receive: <strong>0</strong></font></div>","null","2","Watermelon Win$","Fruit/watermelon.png","Lost","0.35,0.65","12","0.35","20","5","",""
"","","","decision","","5efc1d4ee23e2a011ded073e","bdp_rwlrn","Sat Apr 08 2023 09:42:50 GMT-0700 (Pacific Daylight Time)","351429","Untrustworthy,Trustworthy","html-keyboard-response","25","103745","0.0-11.0-1.5","","145","","<div class='trialDiv'><img src='Fruit/bananas.png'><br><font class='baseline'><strong>Banana Bonanza</strong><p>Choose number of points to bet.</font><div class='respPicDiv'><img src='img/responseButtonOffersNo0L.png' class='respPic'></div></div>","2","2","Banana Bonanza","Fruit/bananas.png","Lost","0.35,0.8","9","0.35","25","6","",""
"","","","decisionFB","","5efc1d4ee23e2a011ded073e","bdp_rwlrn","Sat Apr 08 2023 09:42:50 GMT-0700 (Pacific Daylight Time)","351429","Untrustworthy,Trustworthy","html-keyboard-response","26","104004","0.0-11.0-2.5","","null","","<div class='trialDiv'><img src='Fruit/bananas.png'><br><font class='baseline'><strong>Banana Bonanza</strong><p>Choose number of points to bet.</font><div class='respPicDiv'><img src='img/responseButtonOffersNo0L2.png' class='respPic'></div></div>","null","2","Banana Bonanza","Fruit/bananas.png","Lost","0.35,0.8","9","0.35","23","6","",""
"","","","feedback","","5efc1d4ee23e2a011ded073e","bdp_rwlrn","Sat Apr 08 2023 09:42:50 GMT-0700 (Pacific Daylight Time)","351429","Untrustworthy,Trustworthy","html-keyboard-response","27","105015","0.0-11.0-3.5","","null","","<div class='respPicDiv'><img src='img/responseButtonOffersNo0_wht.png' class='respPic'></div><div class='trialDiv'><img src='Fruit/bananas.png'><br><font class='baseline'><strong>Banana Bonanza</strong><p><strong><font class='negOutcome'>You LOST</font><p>You bet: 2</strong></font> &nbsp; &nbsp; &nbsp; &nbsp; &nbsp; &nbsp;<font class='negOutcome'>You receive: <strong>0</strong></font></div>","null","2","Banana Bonanza","Fruit/bananas.png","Lost","0.35,0.8","9","0.35","23","6","",""
"","","","decision","","5efc1d4ee23e2a011ded073e","bdp_rwlrn","Sat Apr 08 2023 09:42:50 GMT-0700 (Pacific Daylight Time)","351429","Untrustworthy,Trustworthy","html-keyboard-response","28","105413","0.0-11.0-1.6","","395","","<div class='trialDiv'><img src='Fruit/lemon.png'><br><font class='baseline'><strong>Lucky Lemons</strong><p>Choose number of points to bet.</font><div class='respPicDiv'><img src='img/responseButtonOffersNo0L.png' class='respPic'></div></div>","4","3","Lucky Lemons","Fruit/lemon.png","Lost","0.65,0.2","12","0.65","28","7","",""
"","","","decisionFB","","5efc1d4ee23e2a011ded073e","bdp_rwlrn","Sat Apr 08 2023 09:42:50 GMT-0700 (Pacific Daylight Time)","351429","Untrustworthy,Trustworthy","html-keyboard-response","29","105667","0.0-11.0-2.6","","null","","<div class='trialDiv'><img src='Fruit/lemon.png'><br><font class='baseline'><strong>Lucky Lemons</strong><p>Choose number of points to bet.</font><div class='respPicDiv'><img src='img/responseButtonOffersNo0L4.png' class='respPic'></div></div>","null","3","Lucky Lemons","Fruit/lemon.png","Lost","0.65,0.2","12","0.65","24","7","",""
"","","","feedback","","5efc1d4ee23e2a011ded073e","bdp_rwlrn","Sat Apr 08 2023 09:42:50 GMT-0700 (Pacific Daylight Time)","351429","Untrustworthy,Trustworthy","html-keyboard-response","30","106674","0.0-11.0-3.6","","null","","<div class='respPicDiv'><img src='img/responseButtonOffersNo0_wht.png' class='respPic'></div><div class='trialDiv'><img src='Fruit/lemon.png'><br><font class='baseline'><strong>Lucky Lemons</strong><p><strong><font class='negOutcome'>You LOST</font><p>You bet: 4</strong></font> &nbsp; &nbsp; &nbsp; &nbsp; &nbsp; &nbsp;<font class='negOutcome'>You receive: <strong>0</strong></font></div>","null","3","Lucky Lemons","Fruit/lemon.png","Lost","0.65,0.2","12","0.65","24","7","",""
"","","","decision","","5efc1d4ee23e2a011ded073e","bdp_rwlrn","Sat Apr 08 2023 09:42:50 GMT-0700 (Pacific Daylight Time)","351429","Untrustworthy,Trustworthy","html-keyboard-response","31","107022","0.0-11.0-1.7","","345","","<div class='trialDiv'><img src='Fruit/bananas.png'><br><font class='baseline'><strong>Banana Bonanza</strong><p>Choose number of points to bet.</font><div class='respPicDiv'><img src='img/responseButtonOffersNo0L.png' class='respPic'></div></div>","3","3","Banana Bonanza","Fruit/bananas.png","Won","0.35,0.8","9","0.35","29","8","",""
"","","","decisionFB","","5efc1d4ee23e2a011ded073e","bdp_rwlrn","Sat Apr 08 2023 09:42:50 GMT-0700 (Pacific Daylight Time)","351429","Untrustworthy,Trustworthy","html-keyboard-response","32","107288","0.0-11.0-2.7","","null","","<div class='trialDiv'><img src='Fruit/bananas.png'><br><font class='baseline'><strong>Banana Bonanza</strong><p>Choose number of points to bet.</font><div class='respPicDiv'><img src='img/responseButtonOffersNo0L3.png' class='respPic'></div></div>","null","3","Banana Bonanza","Fruit/bananas.png","Won","0.35,0.8","9","0.35","26","8","",""
"","","","feedback","","5efc1d4ee23e2a011ded073e","bdp_rwlrn","Sat Apr 08 2023 09:42:50 GMT-0700 (Pacific Daylight Time)","351429","Untrustworthy,Trustworthy","html-keyboard-response","33","108293","0.0-11.0-3.7","","null","","<div class='respPicDiv'><img src='img/responseButtonOffersNo0_wht.png' class='respPic'></div><div class='trialDiv'><img src='Fruit/bananas.png'><br><font class='baseline'><strong>Banana Bonanza</strong><p><strong><font class='posOutcome'>You WON</font><p>You bet: 3</strong></font> &nbsp; &nbsp; &nbsp; &nbsp; &nbsp; &nbsp;<font class='posOutcome'>you receive: <strong>6</strong></font></div>","null","3","Banana Bonanza","Fruit/bananas.png","Won","0.35,0.8","9","0.35","32","8","",""
"","","","decision","","5efc1d4ee23e2a011ded073e","bdp_rwlrn","Sat Apr 08 2023 09:42:50 GMT-0700 (Pacific Daylight Time)","351429","Untrustworthy,Trustworthy","html-keyboard-response","34","108541","0.0-11.0-1.8","","245","","<div class='trialDiv'><img src='Fruit/watermelon.png'><br><font class='baseline'><strong>Watermelon Win$</strong><p>Choose number of points to bet.</font><div class='respPicDiv'><img src='img/responseButtonOffersNo0L.png' class='respPic'></div></div>","3","3","Watermelon Win$","Fruit/watermelon.png","Lost","0.35,0.65","12","0.35","37","9","",""
"","","","decisionFB","","5efc1d4ee23e2a011ded073e","bdp_rwlrn","Sat Apr 08 2023 09:42:50 GMT-0700 (Pacific Daylight Time)","351429","Untrustworthy,Trustworthy","html-keyboard-response","35","108802","0.0-11.0-2.8","","null","","<div class='trialDiv'><img src='Fruit/watermelon.png'><br><font class='baseline'><strong>Watermelon Win$</strong><p>Choose number of points to bet.</font><div class='respPicDiv'><img src='img/responseButtonOffersNo0L3.png' class='respPic'></div></div>","null","3","Watermelon Win$","Fruit/watermelon.png","Lost","0.35,0.65","12","0.35","34","9","",""
"","","","feedback","","5efc1d4ee23e2a011ded073e","bdp_rwlrn","Sat Apr 08 2023 09:42:50 GMT-0700 (Pacific Daylight Time)","351429","Untrustworthy,Trustworthy","html-keyboard-response","36","109809","0.0-11.0-3.8","","null","","<div class='respPicDiv'><img src='img/responseButtonOffersNo0_wht.png' class='respPic'></div><div class='trialDiv'><img src='Fruit/watermelon.png'><br><font class='baseline'><strong>Watermelon Win$</strong><p><strong><font class='negOutcome'>You LOST</font><p>You bet: 3</strong></font> &nbsp; &nbsp; &nbsp; &nbsp; &nbsp; &nbsp;<font class='negOutcome'>You receive: <strong>0</strong></font></div>","null","3","Watermelon Win$","Fruit/watermelon.png","Lost","0.35,0.65","12","0.35","34","9","",""
"","","","decision","","5efc1d4ee23e2a011ded073e","bdp_rwlrn","Sat Apr 08 2023 09:42:50 GMT-0700 (Pacific Daylight Time)","351429","Untrustworthy,Trustworthy","html-keyboard-response","37","110781","0.0-11.0-1.9","","969","","<div class='trialDiv'><img src='Fruit/lemon.png'><br><font class='baseline'><strong>Lucky Lemons</strong><p>Choose number of points to bet.</font><div class='respPicDiv'><img src='img/responseButtonOffersNo0L.png' class='respPic'></div></div>","2","4","Lucky Lemons","Fruit/lemon.png","Lost","0.65,0.2","12","0.65","39","10","",""
"","","","decisionFB","","5efc1d4ee23e2a011ded073e","bdp_rwlrn","Sat Apr 08 2023 09:42:50 GMT-0700 (Pacific Daylight Time)","351429","Untrustworthy,Trustworthy","html-keyboard-response","38","111041","0.0-11.0-2.9","","null","","<div class='trialDiv'><img src='Fruit/lemon.png'><br><font class='baseline'><strong>Lucky Lemons</strong><p>Choose number of points to bet.</font><div class='respPicDiv'><img src='img/responseButtonOffersNo0L2.png' class='respPic'></div></div>","null","4","Lucky Lemons","Fruit/lemon.png","Lost","0.65,0.2","12","0.65","37","10","",""
"","","","feedback","","5efc1d4ee23e2a011ded073e","bdp_rwlrn","Sat Apr 08 2023 09:42:50 GMT-0700 (Pacific Daylight Time)","351429","Untrustworthy,Trustworthy","html-keyboard-response","39","112045","0.0-11.0-3.9","","null","","<div class='respPicDiv'><img src='img/responseButtonOffersNo0_wht.png' class='respPic'></div><div class='trialDiv'><img src='Fruit/lemon.png'><br><font class='baseline'><strong>Lucky Lemons</strong><p><strong><font class='negOutcome'>You LOST</font><p>You bet: 2</strong></font> &nbsp; &nbsp; &nbsp; &nbsp; &nbsp; &nbsp;<font class='negOutcome'>You receive: <strong>0</strong></font></div>","null","4","Lucky Lemons","Fruit/lemon.png","Lost","0.65,0.2","12","0.65","37","10","",""
"","","","decision","","5efc1d4ee23e2a011ded073e","bdp_rwlrn","Sat Apr 08 2023 09:42:50 GMT-0700 (Pacific Daylight Time)","351429","Untrustworthy,Trustworthy","html-keyboard-response","40","112791","0.0-11.0-1.10","","743","","<div class='trialDiv'><img src='Fruit/watermelon.png'><br><font class='baseline'><strong>Watermelon Win$</strong><p>Choose number of points to bet.</font><div class='respPicDiv'><img src='img/responseButtonOffersNo0L.png' class='respPic'></div></div>","2","4","Watermelon Win$","Fruit/watermelon.png","Won","0.35,0.65","12","0.35","42","11","",""
"","","","decisionFB","","5efc1d4ee23e2a011ded073e","bdp_rwlrn","Sat Apr 08 2023 09:42:50 GMT-0700 (Pacific Daylight Time)","351429","Untrustworthy,Trustworthy","html-keyboard-response","41","113047","0.0-11.0-2.10","","null","","<div class='trialDiv'><img src='Fruit/watermelon.png'><br><font class='baseline'><strong>Watermelon Win$</strong><p>Choose number of points to bet.</font><div class='respPicDiv'><img src='img/responseButtonOffersNo0L2.png' class='respPic'></div></div>","null","4","Watermelon Win$","Fruit/watermelon.png","Won","0.35,0.65","12","0.35","40","11","",""
"","","","feedback","","5efc1d4ee23e2a011ded073e","bdp_rwlrn","Sat Apr 08 2023 09:42:50 GMT-0700 (Pacific Daylight Time)","351429","Untrustworthy,Trustworthy","html-keyboard-response","42","114055","0.0-11.0-3.10","","null","","<div class='respPicDiv'><img src='img/responseButtonOffersNo0_wht.png' class='respPic'></div><div class='trialDiv'><img src='Fruit/watermelon.png'><br><font class='baseline'><strong>Watermelon Win$</strong><p><strong><font class='posOutcome'>You WON</font><p>You bet: 2</strong></font> &nbsp; &nbsp; &nbsp; &nbsp; &nbsp; &nbsp;<font class='posOutcome'>you receive: <strong>4</strong></font></div>","null","4","Watermelon Win$","Fruit/watermelon.png","Won","0.35,0.65","12","0.35","44","11","",""
"","","","decision","","5efc1d4ee23e2a011ded073e","bdp_rwlrn","Sat Apr 08 2023 09:42:50 GMT-0700 (Pacific Daylight Time)","351429","Untrustworthy,Trustworthy","html-keyboard-response","43","114583","0.0-11.0-1.11","","524","","<div class='trialDiv'><img src='Fruit/bananas.png'><br><font class='baseline'><strong>Banana Bonanza</strong><p>Choose number of points to bet.</font><div class='respPicDiv'><img src='img/responseButtonOffersNo0L.png' class='respPic'></div></div>","3","4","Banana Bonanza","Fruit/bananas.png","Lost","0.35,0.8","9","0.35","49","12","",""
"","","","decisionFB","","5efc1d4ee23e2a011ded073e","bdp_rwlrn","Sat Apr 08 2023 09:42:50 GMT-0700 (Pacific Daylight Time)","351429","Untrustworthy,Trustworthy","html-keyboard-response","44","114837","0.0-11.0-2.11","","null","","<div class='trialDiv'><img src='Fruit/bananas.png'><br><font class='baseline'><strong>Banana Bonanza</strong><p>Choose number of points to bet.</font><div class='respPicDiv'><img src='img/responseButtonOffersNo0L3.png' class='respPic'></div></div>","null","4","Banana Bonanza","Fruit/bananas.png","Lost","0.35,0.8","9","0.35","46","12","",""
"","","","feedback","","5efc1d4ee23e2a011ded073e","bdp_rwlrn","Sat Apr 08 2023 09:42:50 GMT-0700 (Pacific Daylight Time)","351429","Untrustworthy,Trustworthy","html-keyboard-response","45","115842","0.0-11.0-3.11","","null","","<div class='respPicDiv'><img src='img/responseButtonOffersNo0_wht.png' class='respPic'></div><div class='trialDiv'><img src='Fruit/bananas.png'><br><font class='baseline'><strong>Banana Bonanza</strong><p><strong><font class='negOutcome'>You LOST</font><p>You bet: 3</strong></font> &nbsp; &nbsp; &nbsp; &nbsp; &nbsp; &nbsp;<font class='negOutcome'>You receive: <strong>0</strong></font></div>","null","4","Banana Bonanza","Fruit/bananas.png","Lost","0.35,0.8","9","0.35","46","12","",""
"","","","decision","","5efc1d4ee23e2a011ded073e","bdp_rwlrn","Sat Apr 08 2023 09:42:50 GMT-0700 (Pacific Daylight Time)","351429","Untrustworthy,Trustworthy","html-keyboard-response","46","116193","0.0-11.0-1.12","","349","","<div class='trialDiv'><img src='Fruit/watermelon.png'><br><font class='baseline'><strong>Watermelon Win$</strong><p>Choose number of points to bet.</font><div class='respPicDiv'><img src='img/responseButtonOffersNo0L.png' class='respPic'></div></div>","3","5","Watermelon Win$","Fruit/watermelon.png","Won","0.35,0.65","12","0.35","51","13","",""
"","","","decisionFB","","5efc1d4ee23e2a011ded073e","bdp_rwlrn","Sat Apr 08 2023 09:42:50 GMT-0700 (Pacific Daylight Time)","351429","Untrustworthy,Trustworthy","html-keyboard-response","47","116450","0.0-11.0-2.12","","null","","<div class='trialDiv'><img src='Fruit/watermelon.png'><br><font class='baseline'><strong>Watermelon Win$</strong><p>Choose number of points to bet.</font><div class='respPicDiv'><img src='img/responseButtonOffersNo0L3.png' class='respPic'></div></div>","null","5","Watermelon Win$","Fruit/watermelon.png","Won","0.35,0.65","12","0.35","48","13","",""
"","","","feedback","","5efc1d4ee23e2a011ded073e","bdp_rwlrn","Sat Apr 08 2023 09:42:50 GMT-0700 (Pacific Daylight Time)","351429","Untrustworthy,Trustworthy","html-keyboard-response","48","117460","0.0-11.0-3.12","","null","","<div class='respPicDiv'><img src='img/responseButtonOffersNo0_wht.png' class='respPic'></div><div class='trialDiv'><img src='Fruit/watermelon.png'><br><font class='baseline'><strong>Watermelon Win$</strong><p><strong><font class='posOutcome'>You WON</font><p>You bet: 3</strong></font> &nbsp; &nbsp; &nbsp; &nbsp; &nbsp; &nbsp;<font class='posOutcome'>you receive: <strong>6</strong></font></div>","null","5","Watermelon Win$","Fruit/watermelon.png","Won","0.35,0.65","12","0.35","54","13","",""
"","","","decision","","5efc1d4ee23e2a011ded073e","bdp_rwlrn","Sat Apr 08 2023 09:42:50 GMT-0700 (Pacific Daylight Time)","351429","Untrustworthy,Trustworthy","html-keyboard-response","49","117861","0.0-11.0-1.13","","398","","<div class='trialDiv'><img src='Fruit/lemon.png'><br><font class='baseline'><strong>Lucky Lemons</strong><p>Choose number of points to bet.</font><div class='respPicDiv'><img src='img/responseButtonOffersNo0L.png' class='respPic'></div></div>","3","5","Lucky Lemons","Fruit/lemon.png","Lost","0.65,0.2","12","0.65","59","14","",""
"","","","decisionFB","","5efc1d4ee23e2a011ded073e","bdp_rwlrn","Sat Apr 08 2023 09:42:50 GMT-0700 (Pacific Daylight Time)","351429","Untrustworthy,Trustworthy","html-keyboard-response","50","118115","0.0-11.0-2.13","","null","","<div class='trialDiv'><img src='Fruit/lemon.png'><br><font class='baseline'><strong>Lucky Lemons</strong><p>Choose number of points to bet.</font><div class='respPicDiv'><img src='img/responseButtonOffersNo0L3.png' class='respPic'></div></div>","null","5","Lucky Lemons","Fruit/lemon.png","Lost","0.65,0.2","12","0.65","56","14","",""
"","","","feedback","","5efc1d4ee23e2a011ded073e","bdp_rwlrn","Sat Apr 08 2023 09:42:50 GMT-0700 (Pacific Daylight Time)","351429","Untrustworthy,Trustworthy","html-keyboard-response","51","119118","0.0-11.0-3.13","","null","","<div class='respPicDiv'><img src='img/responseButtonOffersNo0_wht.png' class='respPic'></div><div class='trialDiv'><img src='Fruit/lemon.png'><br><font class='baseline'><strong>Lucky Lemons</strong><p><strong><font class='negOutcome'>You LOST</font><p>You bet: 3</strong></font> &nbsp; &nbsp; &nbsp; &nbsp; &nbsp; &nbsp;<font class='negOutcome'>You receive: <strong>0</strong></font></div>","null","5","Lucky Lemons","Fruit/lemon.png","Lost","0.65,0.2","12","0.65","56","14","",""
"","","","decision","","5efc1d4ee23e2a011ded073e","bdp_rwlrn","Sat Apr 08 2023 09:42:50 GMT-0700 (Pacific Daylight Time)","351429","Untrustworthy,Trustworthy","html-keyboard-response","52","119477","0.0-11.0-1.14","","356","","<div class='trialDiv'><img src='Fruit/bananas.png'><br><font class='baseline'><strong>Banana Bonanza</strong><p>Choose number of points to bet.</font><div class='respPicDiv'><img src='img/responseButtonOffersNo0L.png' class='respPic'></div></div>","4","5","Banana Bonanza","Fruit/bananas.png","Won","0.35,0.8","9","0.35","61","15","",""
"","","","decisionFB","","5efc1d4ee23e2a011ded073e","bdp_rwlrn","Sat Apr 08 2023 09:42:50 GMT-0700 (Pacific Daylight Time)","351429","Untrustworthy,Trustworthy","html-keyboard-response","53","119731","0.0-11.0-2.14","","null","","<div class='trialDiv'><img src='Fruit/bananas.png'><br><font class='baseline'><strong>Banana Bonanza</strong><p>Choose number of points to bet.</font><div class='respPicDiv'><img src='img/responseButtonOffersNo0L4.png' class='respPic'></div></div>","null","5","Banana Bonanza","Fruit/bananas.png","Won","0.35,0.8","9","0.35","57","15","",""
"","","","feedback","","5efc1d4ee23e2a011ded073e","bdp_rwlrn","Sat Apr 08 2023 09:42:50 GMT-0700 (Pacific Daylight Time)","351429","Untrustworthy,Trustworthy","html-keyboard-response","54","120736","0.0-11.0-3.14","","null","","<div class='respPicDiv'><img src='img/responseButtonOffersNo0_wht.png' class='respPic'></div><div class='trialDiv'><img src='Fruit/bananas.png'><br><font class='baseline'><strong>Banana Bonanza</strong><p><strong><font class='posOutcome'>You WON</font><p>You bet: 4</strong></font> &nbsp; &nbsp; &nbsp; &nbsp; &nbsp; &nbsp;<font class='posOutcome'>you receive: <strong>8</strong></font></div>","null","5","Banana Bonanza","Fruit/bananas.png","Won","0.35,0.8","9","0.35","65","15","",""
"","","","decision","","5efc1d4ee23e2a011ded073e","bdp_rwlrn","Sat Apr 08 2023 09:42:50 GMT-0700 (Pacific Daylight Time)","351429","Untrustworthy,Trustworthy","html-keyboard-response","55","121054","0.0-11.0-1.15","","315","","<div class='trialDiv'><img src='Fruit/lemon.png'><br><font class='baseline'><strong>Lucky Lemons</strong><p>Choose number of points to bet.</font><div class='respPicDiv'><img src='img/responseButtonOffersNo0L.png' class='respPic'></div></div>","3","6","Lucky Lemons","Fruit/lemon.png","Won","0.65,0.2","12","0.65","70","16","",""
"","","","decisionFB","","5efc1d4ee23e2a011ded073e","bdp_rwlrn","Sat Apr 08 2023 09:42:50 GMT-0700 (Pacific Daylight Time)","351429","Untrustworthy,Trustworthy","html-keyboard-response","56","121313","0.0-11.0-2.15","","null","","<div class='trialDiv'><img src='Fruit/lemon.png'><br><font class='baseline'><strong>Lucky Lemons</strong><p>Choose number of points to bet.</font><div class='respPicDiv'><img src='img/responseButtonOffersNo0L3.png' class='respPic'></div></div>","null","6","Lucky Lemons","Fruit/lemon.png","Won","0.65,0.2","12","0.65","67","16","",""
"","","","feedback","","5efc1d4ee23e2a011ded073e","bdp_rwlrn","Sat Apr 08 2023 09:42:50 GMT-0700 (Pacific Daylight Time)","351429","Untrustworthy,Trustworthy","html-keyboard-response","57","122327","0.0-11.0-3.15","","null","","<div class='respPicDiv'><img src='img/responseButtonOffersNo0_wht.png' class='respPic'></div><div class='trialDiv'><img src='Fruit/lemon.png'><br><font class='baseline'><strong>Lucky Lemons</strong><p><strong><font class='posOutcome'>You WON</font><p>You bet: 3</strong></font> &nbsp; &nbsp; &nbsp; &nbsp; &nbsp; &nbsp;<font class='posOutcome'>you receive: <strong>6</strong></font></div>","null","6","Lucky Lemons","Fruit/lemon.png","Won","0.65,0.2","12","0.65","73","16","",""
"","","","decision","","5efc1d4ee23e2a011ded073e","bdp_rwlrn","Sat Apr 08 2023 09:42:50 GMT-0700 (Pacific Daylight Time)","351429","Untrustworthy,Trustworthy","html-keyboard-response","58","122440","0.0-11.0-1.16","","110","","<div class='trialDiv'><img src='Fruit/bananas.png'><br><font class='baseline'><strong>Banana Bonanza</strong><p>Choose number of points to bet.</font><div class='respPicDiv'><img src='img/responseButtonOffersNo0L.png' class='respPic'></div></div>","3","6","Banana Bonanza","Fruit/bananas.png","Lost","0.35,0.8","9","0.35","78","17","",""
"","","","decisionFB","","5efc1d4ee23e2a011ded073e","bdp_rwlrn","Sat Apr 08 2023 09:42:50 GMT-0700 (Pacific Daylight Time)","351429","Untrustworthy,Trustworthy","html-keyboard-response","59","122694","0.0-11.0-2.16","","null","","<div class='trialDiv'><img src='Fruit/bananas.png'><br><font class='baseline'><strong>Banana Bonanza</strong><p>Choose number of points to bet.</font><div class='respPicDiv'><img src='img/responseButtonOffersNo0L3.png' class='respPic'></div></div>","null","6","Banana Bonanza","Fruit/bananas.png","Lost","0.35,0.8","9","0.35","75","17","",""
"","","","feedback","","5efc1d4ee23e2a011ded073e","bdp_rwlrn","Sat Apr 08 2023 09:42:50 GMT-0700 (Pacific Daylight Time)","351429","Untrustworthy,Trustworthy","html-keyboard-response","60","123698","0.0-11.0-3.16","","null","","<div class='respPicDiv'><img src='img/responseButtonOffersNo0_wht.png' class='respPic'></div><div class='trialDiv'><img src='Fruit/bananas.png'><br><font class='baseline'><strong>Banana Bonanza</strong><p><strong><font class='negOutcome'>You LOST</font><p>You bet: 3</strong></font> &nbsp; &nbsp; &nbsp; &nbsp; &nbsp; &nbsp;<font class='negOutcome'>You receive: <strong>0</strong></font></div>","null","6","Banana Bonanza","Fruit/bananas.png","Lost","0.35,0.8","9","0.35","75","17","",""
"","","","decision","","5efc1d4ee23e2a011ded073e","bdp_rwlrn","Sat Apr 08 2023 09:42:50 GMT-0700 (Pacific Daylight Time)","351429","Untrustworthy,Trustworthy","html-keyboard-response","61","123765","0.0-11.0-1.17","","65","","<div class='trialDiv'><img src='Fruit/watermelon.png'><br><font class='baseline'><strong>Watermelon Win$</strong><p>Choose number of points to bet.</font><div class='respPicDiv'><img src='img/responseButtonOffersNo0L.png' class='respPic'></div></div>","2","6","Watermelon Win$","Fruit/watermelon.png","Lost","0.35,0.65","12","0.35","80","18","",""
"","","","decisionFB","","5efc1d4ee23e2a011ded073e","bdp_rwlrn","Sat Apr 08 2023 09:42:50 GMT-0700 (Pacific Daylight Time)","351429","Untrustworthy,Trustworthy","html-keyboard-response","62","124024","0.0-11.0-2.17","","null","","<div class='trialDiv'><img src='Fruit/watermelon.png'><br><font class='baseline'><strong>Watermelon Win$</strong><p>Choose number of points to bet.</font><div class='respPicDiv'><img src='img/responseButtonOffersNo0L2.png' class='respPic'></div></div>","null","6","Watermelon Win$","Fruit/watermelon.png","Lost","0.35,0.65","12","0.35","78","18","",""
"","","","feedback","","5efc1d4ee23e2a011ded073e","bdp_rwlrn","Sat Apr 08 2023 09:42:50 GMT-0700 (Pacific Daylight Time)","351429","Untrustworthy,Trustworthy","html-keyboard-response","63","125028","0.0-11.0-3.17","","null","","<div class='respPicDiv'><img src='img/responseButtonOffersNo0_wht.png' class='respPic'></div><div class='trialDiv'><img src='Fruit/watermelon.png'><br><font class='baseline'><strong>Watermelon Win$</strong><p><strong><font class='negOutcome'>You LOST</font><p>You bet: 2</strong></font> &nbsp; &nbsp; &nbsp; &nbsp; &nbsp; &nbsp;<font class='negOutcome'>You receive: <strong>0</strong></font></div>","null","6","Watermelon Win$","Fruit/watermelon.png","Lost","0.35,0.65","12","0.35","78","18","",""
"","","","decision","","5efc1d4ee23e2a011ded073e","bdp_rwlrn","Sat Apr 08 2023 09:42:50 GMT-0700 (Pacific Daylight Time)","351429","Untrustworthy,Trustworthy","html-keyboard-response","64","125193","0.0-11.0-1.18","","162","","<div class='trialDiv'><img src='Fruit/lemon.png'><br><font class='baseline'><strong>Lucky Lemons</strong><p>Choose number of points to bet.</font><div class='respPicDiv'><img src='img/responseButtonOffersNo0L.png' class='respPic'></div></div>","4","7","Lucky Lemons","Fruit/lemon.png","Won","0.65,0.2","12","0.65","83","19","",""
"","","","decisionFB","","5efc1d4ee23e2a011ded073e","bdp_rwlrn","Sat Apr 08 2023 09:42:50 GMT-0700 (Pacific Daylight Time)","351429","Untrustworthy,Trustworthy","html-keyboard-response","65","125446","0.0-11.0-2.18","","null","","<div class='trialDiv'><img src='Fruit/lemon.png'><br><font class='baseline'><strong>Lucky Lemons</strong><p>Choose number of points to bet.</font><div class='respPicDiv'><img src='img/responseButtonOffersNo0L4.png' class='respPic'></div></div>","null","7","Lucky Lemons","Fruit/lemon.png","Won","0.65,0.2","12","0.65","79","19","",""
"","","","feedback","","5efc1d4ee23e2a011ded073e","bdp_rwlrn","Sat Apr 08 2023 09:42:50 GMT-0700 (Pacific Daylight Time)","351429","Untrustworthy,Trustworthy","html-keyboard-response","66","126456","0.0-11.0-3.18","","null","","<div class='respPicDiv'><img src='img/responseButtonOffersNo0_wht.png' class='respPic'></div><div class='trialDiv'><img src='Fruit/lemon.png'><br><font class='baseline'><strong>Lucky Lemons</strong><p><strong><font class='posOutcome'>You WON</font><p>You bet: 4</strong></font> &nbsp; &nbsp; &nbsp; &nbsp; &nbsp; &nbsp;<font class='posOutcome'>you receive: <strong>8</strong></font></div>","null","7","Lucky Lemons","Fruit/lemon.png","Won","0.65,0.2","12","0.65","87","19","",""
"","","","decision","","5efc1d4ee23e2a011ded073e","bdp_rwlrn","Sat Apr 08 2023 09:42:50 GMT-0700 (Pacific Daylight Time)","351429","Untrustworthy,Trustworthy","html-keyboard-response","67","126742","0.0-11.0-1.19","","285","","<div class='trialDiv'><img src='Fruit/bananas.png'><br><font class='baseline'><strong>Banana Bonanza</strong><p>Choose number of points to bet.</font><div class='respPicDiv'><img src='img/responseButtonOffersNo0L.png' class='respPic'></div></div>","3","7","Banana Bonanza","Fruit/bananas.png","Lost","0.35,0.8","9","0.35","92","20","",""
"","","","decisionFB","","5efc1d4ee23e2a011ded073e","bdp_rwlrn","Sat Apr 08 2023 09:42:50 GMT-0700 (Pacific Daylight Time)","351429","Untrustworthy,Trustworthy","html-keyboard-response","68","126995","0.0-11.0-2.19","","null","","<div class='trialDiv'><img src='Fruit/bananas.png'><br><font class='baseline'><strong>Banana Bonanza</strong><p>Choose number of points to bet.</font><div class='respPicDiv'><img src='img/responseButtonOffersNo0L3.png' class='respPic'></div></div>","null","7","Banana Bonanza","Fruit/bananas.png","Lost","0.35,0.8","9","0.35","89","20","",""
"","","","feedback","","5efc1d4ee23e2a011ded073e","bdp_rwlrn","Sat Apr 08 2023 09:42:50 GMT-0700 (Pacific Daylight Time)","351429","Untrustworthy,Trustworthy","html-keyboard-response","69","128008","0.0-11.0-3.19","","null","","<div class='respPicDiv'><img src='img/responseButtonOffersNo0_wht.png' class='respPic'></div><div class='trialDiv'><img src='Fruit/bananas.png'><br><font class='baseline'><strong>Banana Bonanza</strong><p><strong><font class='negOutcome'>You LOST</font><p>You bet: 3</strong></font> &nbsp; &nbsp; &nbsp; &nbsp; &nbsp; &nbsp;<font class='negOutcome'>You receive: <strong>0</strong></font></div>","null","7","Banana Bonanza","Fruit/bananas.png","Lost","0.35,0.8","9","0.35","89","20","",""
"","","","decision","","5efc1d4ee23e2a011ded073e","bdp_rwlrn","Sat Apr 08 2023 09:42:50 GMT-0700 (Pacific Daylight Time)","351429","Untrustworthy,Trustworthy","html-keyboard-response","70","128017","0.0-11.0-1.20","","7","","<div class='trialDiv'><img src='Fruit/watermelon.png'><br><font class='baseline'><strong>Watermelon Win$</strong><p>Choose number of points to bet.</font><div class='respPicDiv'><img src='img/responseButtonOffersNo0L.png' class='respPic'></div></div>","3","7","Watermelon Win$","Fruit/watermelon.png","Lost","0.35,0.65","12","0.35","94","21","",""
"","","","decisionFB","","5efc1d4ee23e2a011ded073e","bdp_rwlrn","Sat Apr 08 2023 09:42:50 GMT-0700 (Pacific Daylight Time)","351429","Untrustworthy,Trustworthy","html-keyboard-response","71","128278","0.0-11.0-2.20","","null","","<div class='trialDiv'><img src='Fruit/watermelon.png'><br><font class='baseline'><strong>Watermelon Win$</strong><p>Choose number of points to bet.</font><div class='respPicDiv'><img src='img/responseButtonOffersNo0L3.png' class='respPic'></div></div>","null","7","Watermelon Win$","Fruit/watermelon.png","Lost","0.35,0.65","12","0.35","91","21","",""
"","","","feedback","","5efc1d4ee23e2a011ded073e","bdp_rwlrn","Sat Apr 08 2023 09:42:50 GMT-0700 (Pacific Daylight Time)","351429","Untrustworthy,Trustworthy","html-keyboard-response","72","129290","0.0-11.0-3.20","","null","","<div class='respPicDiv'><img src='img/responseButtonOffersNo0_wht.png' class='respPic'></div><div class='trialDiv'><img src='Fruit/watermelon.png'><br><font class='baseline'><strong>Watermelon Win$</strong><p><strong><font class='negOutcome'>You LOST</font><p>You bet: 3</strong></font> &nbsp; &nbsp; &nbsp; &nbsp; &nbsp; &nbsp;<font class='negOutcome'>You receive: <strong>0</strong></font></div>","null","7","Watermelon Win$","Fruit/watermelon.png","Lost","0.35,0.65","12","0.35","91","21","",""
"","","","decision","","5efc1d4ee23e2a011ded073e","bdp_rwlrn","Sat Apr 08 2023 09:42:50 GMT-0700 (Pacific Daylight Time)","351429","Untrustworthy,Trustworthy","html-keyboard-response","73","130597","0.0-11.0-1.21","","1304","","<div class='trialDiv'><img src='Fruit/bananas.png'><br><font class='baseline'><strong>Banana Bonanza</strong><p>Choose number of points to bet.</font><div class='respPicDiv'><img src='img/responseButtonOffersNo0L.png' class='respPic'></div></div>","3","8","Banana Bonanza","Fruit/bananas.png","Lost","0.35,0.8","9","0.35","96","22","",""
"","","","decisionFB","","5efc1d4ee23e2a011ded073e","bdp_rwlrn","Sat Apr 08 2023 09:42:50 GMT-0700 (Pacific Daylight Time)","351429","Untrustworthy,Trustworthy","html-keyboard-response","74","130852","0.0-11.0-2.21","","null","","<div class='trialDiv'><img src='Fruit/bananas.png'><br><font class='baseline'><strong>Banana Bonanza</strong><p>Choose number of points to bet.</font><div class='respPicDiv'><img src='img/responseButtonOffersNo0L3.png' class='respPic'></div></div>","null","8","Banana Bonanza","Fruit/bananas.png","Lost","0.35,0.8","9","0.35","93","22","",""
"","","","feedback","","5efc1d4ee23e2a011ded073e","bdp_rwlrn","Sat Apr 08 2023 09:42:50 GMT-0700 (Pacific Daylight Time)","351429","Untrustworthy,Trustworthy","html-keyboard-response","75","131863","0.0-11.0-3.21","","null","","<div class='respPicDiv'><img src='img/responseButtonOffersNo0_wht.png' class='respPic'></div><div class='trialDiv'><img src='Fruit/bananas.png'><br><font class='baseline'><strong>Banana Bonanza</strong><p><strong><font class='negOutcome'>You LOST</font><p>You bet: 3</strong></font> &nbsp; &nbsp; &nbsp; &nbsp; &nbsp; &nbsp;<font class='negOutcome'>You receive: <strong>0</strong></font></div>","null","8","Banana Bonanza","Fruit/bananas.png","Lost","0.35,0.8","9","0.35","93","22","",""
"","","","decision","","5efc1d4ee23e2a011ded073e","bdp_rwlrn","Sat Apr 08 2023 09:42:50 GMT-0700 (Pacific Daylight Time)","351429","Untrustworthy,Trustworthy","html-keyboard-response","76","131998","0.0-11.0-1.22","","132","","<div class='trialDiv'><img src='Fruit/lemon.png'><br><font class='baseline'><strong>Lucky Lemons</strong><p>Choose number of points to bet.</font><div class='respPicDiv'><img src='img/responseButtonOffersNo0L.png' class='respPic'></div></div>","3","8","Lucky Lemons","Fruit/lemon.png","Won","0.65,0.2","12","0.65","98","23","",""
"","","","decisionFB","","5efc1d4ee23e2a011ded073e","bdp_rwlrn","Sat Apr 08 2023 09:42:50 GMT-0700 (Pacific Daylight Time)","351429","Untrustworthy,Trustworthy","html-keyboard-response","77","132256","0.0-11.0-2.22","","null","","<div class='trialDiv'><img src='Fruit/lemon.png'><br><font class='baseline'><strong>Lucky Lemons</strong><p>Choose number of points to bet.</font><div class='respPicDiv'><img src='img/responseButtonOffersNo0L3.png' class='respPic'></div></div>","null","8","Lucky Lemons","Fruit/lemon.png","Won","0.65,0.2","12","0.65","95","23","",""
"","","","feedback","","5efc1d4ee23e2a011ded073e","bdp_rwlrn","Sat Apr 08 2023 09:42:50 GMT-0700 (Pacific Daylight Time)","351429","Untrustworthy,Trustworthy","html-keyboard-response","78","133259","0.0-11.0-3.22","","null","","<div class='respPicDiv'><img src='img/responseButtonOffersNo0_wht.png' class='respPic'></div><div class='trialDiv'><img src='Fruit/lemon.png'><br><font class='baseline'><strong>Lucky Lemons</strong><p><strong><font class='posOutcome'>You WON</font><p>You bet: 3</strong></font> &nbsp; &nbsp; &nbsp; &nbsp; &nbsp; &nbsp;<font class='posOutcome'>you receive: <strong>6</strong></font></div>","null","8","Lucky Lemons","Fruit/lemon.png","Won","0.65,0.2","12","0.65","101","23","",""
"","","","decision","","5efc1d4ee23e2a011ded073e","bdp_rwlrn","Sat Apr 08 2023 09:42:50 GMT-0700 (Pacific Daylight Time)","351429","Untrustworthy,Trustworthy","html-keyboard-response","79","134315","0.0-11.0-1.23","","1053","","<div class='trialDiv'><img src='Fruit/watermelon.png'><br><font class='baseline'><strong>Watermelon Win$</strong><p>Choose number of points to bet.</font><div class='respPicDiv'><img src='img/responseButtonOffersNo0L.png' class='respPic'></div></div>","5","8","Watermelon Win$","Fruit/watermelon.png","Lost","0.35,0.65","12","0.35","106","24","",""
"","","","decisionFB","","5efc1d4ee23e2a011ded073e","bdp_rwlrn","Sat Apr 08 2023 09:42:50 GMT-0700 (Pacific Daylight Time)","351429","Untrustworthy,Trustworthy","html-keyboard-response","80","134573","0.0-11.0-2.23","","null","","<div class='trialDiv'><img src='Fruit/watermelon.png'><br><font class='baseline'><strong>Watermelon Win$</strong><p>Choose number of points to bet.</font><div class='respPicDiv'><img src='img/responseButtonOffersNo0L5.png' class='respPic'></div></div>","null","8","Watermelon Win$","Fruit/watermelon.png","Lost","0.35,0.65","12","0.35","101","24","",""
"","","","feedback","","5efc1d4ee23e2a011ded073e","bdp_rwlrn","Sat Apr 08 2023 09:42:50 GMT-0700 (Pacific Daylight Time)","351429","Untrustworthy,Trustworthy","html-keyboard-response","81","135577","0.0-11.0-3.23","","null","","<div class='respPicDiv'><img src='img/responseButtonOffersNo0_wht.png' class='respPic'></div><div class='trialDiv'><img src='Fruit/watermelon.png'><br><font class='baseline'><strong>Watermelon Win$</strong><p><strong><font class='negOutcome'>You LOST</font><p>You bet: 5</strong></font> &nbsp; &nbsp; &nbsp; &nbsp; &nbsp; &nbsp;<font class='negOutcome'>You receive: <strong>0</strong></font></div>","null","8","Watermelon Win$","Fruit/watermelon.png","Lost","0.35,0.65","12","0.35","101","24","",""
"","","","decision","","5efc1d4ee23e2a011ded073e","bdp_rwlrn","Sat Apr 08 2023 09:42:50 GMT-0700 (Pacific Daylight Time)","351429","Untrustworthy,Trustworthy","html-keyboard-response","82","136602","0.0-11.0-1.24","","1022","","<div class='trialDiv'><img src='Fruit/bananas.png'><br><font class='baseline'><strong>Banana Bonanza</strong><p>Choose number of points to bet.</font><div class='respPicDiv'><img src='img/responseButtonOffersNo0L.png' class='respPic'></div></div>","4","9","Banana Bonanza","Fruit/bananas.png","Lost","0.35,0.8","9","0.35","106","25","",""
"","","","decisionFB","","5efc1d4ee23e2a011ded073e","bdp_rwlrn","Sat Apr 08 2023 09:42:50 GMT-0700 (Pacific Daylight Time)","351429","Untrustworthy,Trustworthy","html-keyboard-response","83","136857","0.0-11.0-2.24","","null","","<div class='trialDiv'><img src='Fruit/bananas.png'><br><font class='baseline'><strong>Banana Bonanza</strong><p>Choose number of points to bet.</font><div class='respPicDiv'><img src='img/responseButtonOffersNo0L4.png' class='respPic'></div></div>","null","9","Banana Bonanza","Fruit/bananas.png","Lost","0.35,0.8","9","0.35","102","25","",""
"","","","feedback","","5efc1d4ee23e2a011ded073e","bdp_rwlrn","Sat Apr 08 2023 09:42:50 GMT-0700 (Pacific Daylight Time)","351429","Untrustworthy,Trustworthy","html-keyboard-response","84","137866","0.0-11.0-3.24","","null","","<div class='respPicDiv'><img src='img/responseButtonOffersNo0_wht.png' class='respPic'></div><div class='trialDiv'><img src='Fruit/bananas.png'><br><font class='baseline'><strong>Banana Bonanza</strong><p><strong><font class='negOutcome'>You LOST</font><p>You bet: 4</strong></font> &nbsp; &nbsp; &nbsp; &nbsp; &nbsp; &nbsp;<font class='negOutcome'>You receive: <strong>0</strong></font></div>","null","9","Banana Bonanza","Fruit/bananas.png","Lost","0.35,0.8","9","0.35","102","25","",""
"","","","decision","","5efc1d4ee23e2a011ded073e","bdp_rwlrn","Sat Apr 08 2023 09:42:50 GMT-0700 (Pacific Daylight Time)","351429","Untrustworthy,Trustworthy","html-keyboard-response","85","138151","0.0-11.0-1.25","","282","","<div class='trialDiv'><img src='Fruit/lemon.png'><br><font class='baseline'><strong>Lucky Lemons</strong><p>Choose number of points to bet.</font><div class='respPicDiv'><img src='img/responseButtonOffersNo0L.png' class='respPic'></div></div>","3","9","Lucky Lemons","Fruit/lemon.png","Lost","0.65,0.2","12","0.65","107","26","",""
"","","","decisionFB","","5efc1d4ee23e2a011ded073e","bdp_rwlrn","Sat Apr 08 2023 09:42:50 GMT-0700 (Pacific Daylight Time)","351429","Untrustworthy,Trustworthy","html-keyboard-response","86","138405","0.0-11.0-2.25","","null","","<div class='trialDiv'><img src='Fruit/lemon.png'><br><font class='baseline'><strong>Lucky Lemons</strong><p>Choose number of points to bet.</font><div class='respPicDiv'><img src='img/responseButtonOffersNo0L3.png' class='respPic'></div></div>","null","9","Lucky Lemons","Fruit/lemon.png","Lost","0.65,0.2","12","0.65","104","26","",""
"","","","feedback","","5efc1d4ee23e2a011ded073e","bdp_rwlrn","Sat Apr 08 2023 09:42:50 GMT-0700 (Pacific Daylight Time)","351429","Untrustworthy,Trustworthy","html-keyboard-response","87","139410","0.0-11.0-3.25","","null","","<div class='respPicDiv'><img src='img/responseButtonOffersNo0_wht.png' class='respPic'></div><div class='trialDiv'><img src='Fruit/lemon.png'><br><font class='baseline'><strong>Lucky Lemons</strong><p><strong><font class='negOutcome'>You LOST</font><p>You bet: 3</strong></font> &nbsp; &nbsp; &nbsp; &nbsp; &nbsp; &nbsp;<font class='negOutcome'>You receive: <strong>0</strong></font></div>","null","9","Lucky Lemons","Fruit/lemon.png","Lost","0.65,0.2","12","0.65","104","26","",""
"","","","decision","","5efc1d4ee23e2a011ded073e","bdp_rwlrn","Sat Apr 08 2023 09:42:50 GMT-0700 (Pacific Daylight Time)","351429","Untrustworthy,Trustworthy","html-keyboard-response","88","139561","0.0-11.0-1.26","","149","","<div class='trialDiv'><img src='Fruit/watermelon.png'><br><font class='baseline'><strong>Watermelon Win$</strong><p>Choose number of points to bet.</font><div class='respPicDiv'><img src='img/responseButtonOffersNo0L.png' class='respPic'></div></div>","3","9","Watermelon Win$","Fruit/watermelon.png","Won","0.35,0.65","12","0.35","109","27","",""
"","","","decisionFB","","5efc1d4ee23e2a011ded073e","bdp_rwlrn","Sat Apr 08 2023 09:42:50 GMT-0700 (Pacific Daylight Time)","351429","Untrustworthy,Trustworthy","html-keyboard-response","89","139820","0.0-11.0-2.26","","null","","<div class='trialDiv'><img src='Fruit/watermelon.png'><br><font class='baseline'><strong>Watermelon Win$</strong><p>Choose number of points to bet.</font><div class='respPicDiv'><img src='img/responseButtonOffersNo0L3.png' class='respPic'></div></div>","null","9","Watermelon Win$","Fruit/watermelon.png","Won","0.35,0.65","12","0.35","106","27","",""
"","","","feedback","","5efc1d4ee23e2a011ded073e","bdp_rwlrn","Sat Apr 08 2023 09:42:50 GMT-0700 (Pacific Daylight Time)","351429","Untrustworthy,Trustworthy","html-keyboard-response","90","140825","0.0-11.0-3.26","","null","","<div class='respPicDiv'><img src='img/responseButtonOffersNo0_wht.png' class='respPic'></div><div class='trialDiv'><img src='Fruit/watermelon.png'><br><font class='baseline'><strong>Watermelon Win$</strong><p><strong><font class='posOutcome'>You WON</font><p>You bet: 3</strong></font> &nbsp; &nbsp; &nbsp; &nbsp; &nbsp; &nbsp;<font class='posOutcome'>you receive: <strong>6</strong></font></div>","null","9","Watermelon Win$","Fruit/watermelon.png","Won","0.35,0.65","12","0.35","112","27","",""
"","","","decision","","5efc1d4ee23e2a011ded073e","bdp_rwlrn","Sat Apr 08 2023 09:42:50 GMT-0700 (Pacific Daylight Time)","351429","Untrustworthy,Trustworthy","html-keyboard-response","91","141076","0.0-11.0-1.27","","247","","<div class='trialDiv'><img src='Fruit/bananas.png'><br><font class='baseline'><strong>Banana Bonanza</strong><p>Choose number of points to bet.</font><div class='respPicDiv'><img src='img/responseButtonOffersNo0L.png' class='respPic'></div></div>","3","10","Banana Bonanza","Fruit/bananas.png","Won","0.35,0.8","9","0.35","117","28","",""
"","","","decisionFB","","5efc1d4ee23e2a011ded073e","bdp_rwlrn","Sat Apr 08 2023 09:42:50 GMT-0700 (Pacific Daylight Time)","351429","Untrustworthy,Trustworthy","html-keyboard-response","92","141335","0.0-11.0-2.27","","null","","<div class='trialDiv'><img src='Fruit/bananas.png'><br><font class='baseline'><strong>Banana Bonanza</strong><p>Choose number of points to bet.</font><div class='respPicDiv'><img src='img/responseButtonOffersNo0L3.png' class='respPic'></div></div>","null","10","Banana Bonanza","Fruit/bananas.png","Won","0.35,0.8","9","0.35","114","28","",""
"","","","feedback","","5efc1d4ee23e2a011ded073e","bdp_rwlrn","Sat Apr 08 2023 09:42:50 GMT-0700 (Pacific Daylight Time)","351429","Untrustworthy,Trustworthy","html-keyboard-response","93","142343","0.0-11.0-3.27","","null","","<div class='respPicDiv'><img src='img/responseButtonOffersNo0_wht.png' class='respPic'></div><div class='trialDiv'><img src='Fruit/bananas.png'><br><font class='baseline'><strong>Banana Bonanza</strong><p><strong><font class='posOutcome'>You WON</font><p>You bet: 3</strong></font> &nbsp; &nbsp; &nbsp; &nbsp; &nbsp; &nbsp;<font class='posOutcome'>you receive: <strong>6</strong></font></div>","null","10","Banana Bonanza","Fruit/bananas.png","Won","0.35,0.8","9","0.35","120","28","",""
"","","","decision","","5efc1d4ee23e2a011ded073e","bdp_rwlrn","Sat Apr 08 2023 09:42:50 GMT-0700 (Pacific Daylight Time)","351429","Untrustworthy,Trustworthy","html-keyboard-response","94","144005","0.0-11.0-1.28","","1659","","<div class='trialDiv'><img src='Fruit/watermelon.png'><br><font class='baseline'><strong>Watermelon Win$</strong><p>Choose number of points to bet.</font><div class='respPicDiv'><img src='img/responseButtonOffersNo0L.png' class='respPic'></div></div>","3","10","Watermelon Win$","Fruit/watermelon.png","Lost","0.35,0.65","12","0.35","125","29","",""
"","","","decisionFB","","5efc1d4ee23e2a011ded073e","bdp_rwlrn","Sat Apr 08 2023 09:42:50 GMT-0700 (Pacific Daylight Time)","351429","Untrustworthy,Trustworthy","html-keyboard-response","95","144265","0.0-11.0-2.28","","null","","<div class='trialDiv'><img src='Fruit/watermelon.png'><br><font class='baseline'><strong>Watermelon Win$</strong><p>Choose number of points to bet.</font><div class='respPicDiv'><img src='img/responseButtonOffersNo0L3.png' class='respPic'></div></div>","null","10","Watermelon Win$","Fruit/watermelon.png","Lost","0.35,0.65","12","0.35","122","29","",""
"","","","feedback","","5efc1d4ee23e2a011ded073e","bdp_rwlrn","Sat Apr 08 2023 09:42:50 GMT-0700 (Pacific Daylight Time)","351429","Untrustworthy,Trustworthy","html-keyboard-response","96","145275","0.0-11.0-3.28","","null","","<div class='respPicDiv'><img src='img/responseButtonOffersNo0_wht.png' class='respPic'></div><div class='trialDiv'><img src='Fruit/watermelon.png'><br><font class='baseline'><strong>Watermelon Win$</strong><p><strong><font class='negOutcome'>You LOST</font><p>You bet: 3</strong></font> &nbsp; &nbsp; &nbsp; &nbsp; &nbsp; &nbsp;<font class='negOutcome'>You receive: <strong>0</strong></font></div>","null","10","Watermelon Win$","Fruit/watermelon.png","Lost","0.35,0.65","12","0.35","122","29","",""
"","","","decision","","5efc1d4ee23e2a011ded073e","bdp_rwlrn","Sat Apr 08 2023 09:42:50 GMT-0700 (Pacific Daylight Time)","351429","Untrustworthy,Trustworthy","html-keyboard-response","97","146226","0.0-11.0-1.29","","947","","<div class='trialDiv'><img src='Fruit/lemon.png'><br><font class='baseline'><strong>Lucky Lemons</strong><p>Choose number of points to bet.</font><div class='respPicDiv'><img src='img/responseButtonOffersNo0L.png' class='respPic'></div></div>","3","10","Lucky Lemons","Fruit/lemon.png","Won","0.65,0.2","12","0.65","127","30","",""
"","","","decisionFB","","5efc1d4ee23e2a011ded073e","bdp_rwlrn","Sat Apr 08 2023 09:42:50 GMT-0700 (Pacific Daylight Time)","351429","Untrustworthy,Trustworthy","html-keyboard-response","98","146485","0.0-11.0-2.29","","null","","<div class='trialDiv'><img src='Fruit/lemon.png'><br><font class='baseline'><strong>Lucky Lemons</strong><p>Choose number of points to bet.</font><div class='respPicDiv'><img src='img/responseButtonOffersNo0L3.png' class='respPic'></div></div>","null","10","Lucky Lemons","Fruit/lemon.png","Won","0.65,0.2","12","0.65","124","30","",""
"","","","feedback","","5efc1d4ee23e2a011ded073e","bdp_rwlrn","Sat Apr 08 2023 09:42:50 GMT-0700 (Pacific Daylight Time)","351429","Untrustworthy,Trustworthy","html-keyboard-response","99","147495","0.0-11.0-3.29","","null","","<div class='respPicDiv'><img src='img/responseButtonOffersNo0_wht.png' class='respPic'></div><div class='trialDiv'><img src='Fruit/lemon.png'><br><font class='baseline'><strong>Lucky Lemons</strong><p><strong><font class='posOutcome'>You WON</font><p>You bet: 3</strong></font> &nbsp; &nbsp; &nbsp; &nbsp; &nbsp; &nbsp;<font class='posOutcome'>you receive: <strong>6</strong></font></div>","null","10","Lucky Lemons","Fruit/lemon.png","Won","0.65,0.2","12","0.65","130","30","",""
"","","","decision","","5efc1d4ee23e2a011ded073e","bdp_rwlrn","Sat Apr 08 2023 09:42:50 GMT-0700 (Pacific Daylight Time)","351429","Untrustworthy,Trustworthy","html-keyboard-response","100","149062","0.0-11.0-1.30","","1565","","<div class='trialDiv'><img src='Fruit/bananas.png'><br><font class='baseline'><strong>Banana Bonanza</strong><p>Choose number of points to bet.</font><div class='respPicDiv'><img src='img/responseButtonOffersNo0L.png' class='respPic'></div></div>","4","11","Banana Bonanza","Fruit/bananas.png","Won","0.35,0.8","9","0.35","135","31","",""
"","","","decisionFB","","5efc1d4ee23e2a011ded073e","bdp_rwlrn","Sat Apr 08 2023 09:42:50 GMT-0700 (Pacific Daylight Time)","351429","Untrustworthy,Trustworthy","html-keyboard-response","101","149318","0.0-11.0-2.30","","null","","<div class='trialDiv'><img src='Fruit/bananas.png'><br><font class='baseline'><strong>Banana Bonanza</strong><p>Choose number of points to bet.</font><div class='respPicDiv'><img src='img/responseButtonOffersNo0L4.png' class='respPic'></div></div>","null","11","Banana Bonanza","Fruit/bananas.png","Won","0.35,0.8","9","0.35","131","31","",""
"","","","feedback","","5efc1d4ee23e2a011ded073e","bdp_rwlrn","Sat Apr 08 2023 09:42:50 GMT-0700 (Pacific Daylight Time)","351429","Untrustworthy,Trustworthy","html-keyboard-response","102","150328","0.0-11.0-3.30","","null","","<div class='respPicDiv'><img src='img/responseButtonOffersNo0_wht.png' class='respPic'></div><div class='trialDiv'><img src='Fruit/bananas.png'><br><font class='baseline'><strong>Banana Bonanza</strong><p><strong><font class='posOutcome'>You WON</font><p>You bet: 4</strong></font> &nbsp; &nbsp; &nbsp; &nbsp; &nbsp; &nbsp;<font class='posOutcome'>you receive: <strong>8</strong></font></div>","null","11","Banana Bonanza","Fruit/bananas.png","Won","0.35,0.8","9","0.35","139","31","",""
"","","","decision","","5efc1d4ee23e2a011ded073e","bdp_rwlrn","Sat Apr 08 2023 09:42:50 GMT-0700 (Pacific Daylight Time)","351429","Untrustworthy,Trustworthy","html-keyboard-response","103","152520","0.0-11.0-1.31","","2189","","<div class='trialDiv'><img src='Fruit/lemon.png'><br><font class='baseline'><strong>Lucky Lemons</strong><p>Choose number of points to bet.</font><div class='respPicDiv'><img src='img/responseButtonOffersNo0L.png' class='respPic'></div></div>","4","11","Lucky Lemons","Fruit/lemon.png","Lost","0.65,0.2","12","0.65","144","32","",""
"","","","decisionFB","","5efc1d4ee23e2a011ded073e","bdp_rwlrn","Sat Apr 08 2023 09:42:50 GMT-0700 (Pacific Daylight Time)","351429","Untrustworthy,Trustworthy","html-keyboard-response","104","152778","0.0-11.0-2.31","","null","","<div class='trialDiv'><img src='Fruit/lemon.png'><br><font class='baseline'><strong>Lucky Lemons</strong><p>Choose number of points to bet.</font><div class='respPicDiv'><img src='img/responseButtonOffersNo0L4.png' class='respPic'></div></div>","null","11","Lucky Lemons","Fruit/lemon.png","Lost","0.65,0.2","12","0.65","140","32","",""
"","","","feedback","","5efc1d4ee23e2a011ded073e","bdp_rwlrn","Sat Apr 08 2023 09:42:50 GMT-0700 (Pacific Daylight Time)","351429","Untrustworthy,Trustworthy","html-keyboard-response","105","153789","0.0-11.0-3.31","","null","","<div class='respPicDiv'><img src='img/responseButtonOffersNo0_wht.png' class='respPic'></div><div class='trialDiv'><img src='Fruit/lemon.png'><br><font class='baseline'><strong>Lucky Lemons</strong><p><strong><font class='negOutcome'>You LOST</font><p>You bet: 4</strong></font> &nbsp; &nbsp; &nbsp; &nbsp; &nbsp; &nbsp;<font class='negOutcome'>You receive: <strong>0</strong></font></div>","null","11","Lucky Lemons","Fruit/lemon.png","Lost","0.65,0.2","12","0.65","140","32","",""
"","","","decision","","5efc1d4ee23e2a011ded073e","bdp_rwlrn","Sat Apr 08 2023 09:42:50 GMT-0700 (Pacific Daylight Time)","351429","Untrustworthy,Trustworthy","html-keyboard-response","106","155207","0.0-11.0-1.32","","1415","","<div class='trialDiv'><img src='Fruit/watermelon.png'><br><font class='baseline'><strong>Watermelon Win$</strong><p>Choose number of points to bet.</font><div class='respPicDiv'><img src='img/responseButtonOffersNo0L.png' class='respPic'></div></div>","3","11","Watermelon Win$","Fruit/watermelon.png","Won","0.35,0.65","12","0.35","145","33","",""
"","","","decisionFB","","5efc1d4ee23e2a011ded073e","bdp_rwlrn","Sat Apr 08 2023 09:42:50 GMT-0700 (Pacific Daylight Time)","351429","Untrustworthy,Trustworthy","html-keyboard-response","107","155466","0.0-11.0-2.32","","null","","<div class='trialDiv'><img src='Fruit/watermelon.png'><br><font class='baseline'><strong>Watermelon Win$</strong><p>Choose number of points to bet.</font><div class='respPicDiv'><img src='img/responseButtonOffersNo0L3.png' class='respPic'></div></div>","null","11","Watermelon Win$","Fruit/watermelon.png","Won","0.35,0.65","12","0.35","142","33","",""
"","","","feedback","","5efc1d4ee23e2a011ded073e","bdp_rwlrn","Sat Apr 08 2023 09:42:50 GMT-0700 (Pacific Daylight Time)","351429","Untrustworthy,Trustworthy","html-keyboard-response","108","156471","0.0-11.0-3.32","","null","","<div class='respPicDiv'><img src='img/responseButtonOffersNo0_wht.png' class='respPic'></div><div class='trialDiv'><img src='Fruit/watermelon.png'><br><font class='baseline'><strong>Watermelon Win$</strong><p><strong><font class='posOutcome'>You WON</font><p>You bet: 3</strong></font> &nbsp; &nbsp; &nbsp; &nbsp; &nbsp; &nbsp;<font class='posOutcome'>you receive: <strong>6</strong></font></div>","null","11","Watermelon Win$","Fruit/watermelon.png","Won","0.35,0.65","12","0.35","148","33","",""
"","","","decision","","5efc1d4ee23e2a011ded073e","bdp_rwlrn","Sat Apr 08 2023 09:42:50 GMT-0700 (Pacific Daylight Time)","351429","Untrustworthy,Trustworthy","html-keyboard-response","109","158254","0.0-11.0-1.33","","1780","","<div class='trialDiv'><img src='Fruit/lemon.png'><br><font class='baseline'><strong>Lucky Lemons</strong><p>Choose number of points to bet.</font><div class='respPicDiv'><img src='img/responseButtonOffersNo0L.png' class='respPic'></div></div>","3","12","Lucky Lemons","Fruit/lemon.png","Lost","0.65,0.2","12","0.65","153","34","",""
"","","","decisionFB","","5efc1d4ee23e2a011ded073e","bdp_rwlrn","Sat Apr 08 2023 09:42:50 GMT-0700 (Pacific Daylight Time)","351429","Untrustworthy,Trustworthy","html-keyboard-response","110","158510","0.0-11.0-2.33","","null","","<div class='trialDiv'><img src='Fruit/lemon.png'><br><font class='baseline'><strong>Lucky Lemons</strong><p>Choose number of points to bet.</font><div class='respPicDiv'><img src='img/responseButtonOffersNo0L3.png' class='respPic'></div></div>","null","12","Lucky Lemons","Fruit/lemon.png","Lost","0.65,0.2","12","0.65","150","34","",""
"","","","feedback","","5efc1d4ee23e2a011ded073e","bdp_rwlrn","Sat Apr 08 2023 09:42:50 GMT-0700 (Pacific Daylight Time)","351429","Untrustworthy,Trustworthy","html-keyboard-response","111","159520","0.0-11.0-3.33","","null","","<div class='respPicDiv'><img src='img/responseButtonOffersNo0_wht.png' class='respPic'></div><div class='trialDiv'><img src='Fruit/lemon.png'><br><font class='baseline'><strong>Lucky Lemons</strong><p><strong><font class='negOutcome'>You LOST</font><p>You bet: 3</strong></font> &nbsp; &nbsp; &nbsp; &nbsp; &nbsp; &nbsp;<font class='negOutcome'>You receive: <strong>0</strong></font></div>","null","12","Lucky Lemons","Fruit/lemon.png","Lost","0.65,0.2","12","0.65","150","34","",""
"","","","decision","","5efc1d4ee23e2a011ded073e","bdp_rwlrn","Sat Apr 08 2023 09:42:50 GMT-0700 (Pacific Daylight Time)","351429","Untrustworthy,Trustworthy","html-keyboard-response","112","160478","0.0-11.0-1.34","","955","","<div class='trialDiv'><img src='Fruit/bananas.png'><br><font class='baseline'><strong>Banana Bonanza</strong><p>Choose number of points to bet.</font><div class='respPicDiv'><img src='img/responseButtonOffersNo0L.png' class='respPic'></div></div>","4","12","Banana Bonanza","Fruit/bananas.png","Won","0.35,0.8","9","0.35","155","35","",""
"","","","decisionFB","","5efc1d4ee23e2a011ded073e","bdp_rwlrn","Sat Apr 08 2023 09:42:50 GMT-0700 (Pacific Daylight Time)","351429","Untrustworthy,Trustworthy","html-keyboard-response","113","160739","0.0-11.0-2.34","","null","","<div class='trialDiv'><img src='Fruit/bananas.png'><br><font class='baseline'><strong>Banana Bonanza</strong><p>Choose number of points to bet.</font><div class='respPicDiv'><img src='img/responseButtonOffersNo0L4.png' class='respPic'></div></div>","null","12","Banana Bonanza","Fruit/bananas.png","Won","0.35,0.8","9","0.35","151","35","",""
"","","","feedback","","5efc1d4ee23e2a011ded073e","bdp_rwlrn","Sat Apr 08 2023 09:42:50 GMT-0700 (Pacific Daylight Time)","351429","Untrustworthy,Trustworthy","html-keyboard-response","114","161748","0.0-11.0-3.34","","null","","<div class='respPicDiv'><img src='img/responseButtonOffersNo0_wht.png' class='respPic'></div><div class='trialDiv'><img src='Fruit/bananas.png'><br><font class='baseline'><strong>Banana Bonanza</strong><p><strong><font class='posOutcome'>You WON</font><p>You bet: 4</strong></font> &nbsp; &nbsp; &nbsp; &nbsp; &nbsp; &nbsp;<font class='posOutcome'>you receive: <strong>8</strong></font></div>","null","12","Banana Bonanza","Fruit/bananas.png","Won","0.35,0.8","9","0.35","159","35","",""
"","","","decision","","5efc1d4ee23e2a011ded073e","bdp_rwlrn","Sat Apr 08 2023 09:42:50 GMT-0700 (Pacific Daylight Time)","351429","Untrustworthy,Trustworthy","html-keyboard-response","115","163830","0.0-11.0-1.35","","2079","","<div class='trialDiv'><img src='Fruit/watermelon.png'><br><font class='baseline'><strong>Watermelon Win$</strong><p>Choose number of points to bet.</font><div class='respPicDiv'><img src='img/responseButtonOffersNo0L.png' class='respPic'></div></div>","3","12","Watermelon Win$","Fruit/watermelon.png","Won","0.35,0.65","12","0.35","164","36","",""
"","","","decisionFB","","5efc1d4ee23e2a011ded073e","bdp_rwlrn","Sat Apr 08 2023 09:42:50 GMT-0700 (Pacific Daylight Time)","351429","Untrustworthy,Trustworthy","html-keyboard-response","116","164097","0.0-11.0-2.35","","null","","<div class='trialDiv'><img src='Fruit/watermelon.png'><br><font class='baseline'><strong>Watermelon Win$</strong><p>Choose number of points to bet.</font><div class='respPicDiv'><img src='img/responseButtonOffersNo0L3.png' class='respPic'></div></div>","null","12","Watermelon Win$","Fruit/watermelon.png","Won","0.35,0.65","12","0.35","161","36","",""
"","","","feedback","","5efc1d4ee23e2a011ded073e","bdp_rwlrn","Sat Apr 08 2023 09:42:50 GMT-0700 (Pacific Daylight Time)","351429","Untrustworthy,Trustworthy","html-keyboard-response","117","165102","0.0-11.0-3.35","","null","","<div class='respPicDiv'><img src='img/responseButtonOffersNo0_wht.png' class='respPic'></div><div class='trialDiv'><img src='Fruit/watermelon.png'><br><font class='baseline'><strong>Watermelon Win$</strong><p><strong><font class='posOutcome'>You WON</font><p>You bet: 3</strong></font> &nbsp; &nbsp; &nbsp; &nbsp; &nbsp; &nbsp;<font class='posOutcome'>you receive: <strong>6</strong></font></div>","null","12","Watermelon Win$","Fruit/watermelon.png","Won","0.35,0.65","12","0.35","167","36","",""
"","","","decision","","5efc1d4ee23e2a011ded073e","bdp_rwlrn","Sat Apr 08 2023 09:42:50 GMT-0700 (Pacific Daylight Time)","351429","Untrustworthy,Trustworthy","html-keyboard-response","118","167241","0.0-11.0-1.36","","2135","","<div class='trialDiv'><img src='Fruit/bananas.png'><br><font class='baseline'><strong>Banana Bonanza</strong><p>Choose number of points to bet.</font><div class='respPicDiv'><img src='img/responseButtonOffersNo0L.png' class='respPic'></div></div>","5","13","Banana Bonanza","Fruit/bananas.png","Won","0.35,0.8","9","0.35","172","37","",""
"","","","decisionFB","","5efc1d4ee23e2a011ded073e","bdp_rwlrn","Sat Apr 08 2023 09:42:50 GMT-0700 (Pacific Daylight Time)","351429","Untrustworthy,Trustworthy","html-keyboard-response","119","167498","0.0-11.0-2.36","","null","","<div class='trialDiv'><img src='Fruit/bananas.png'><br><font class='baseline'><strong>Banana Bonanza</strong><p>Choose number of points to bet.</font><div class='respPicDiv'><img src='img/responseButtonOffersNo0L5.png' class='respPic'></div></div>","null","13","Banana Bonanza","Fruit/bananas.png","Won","0.35,0.8","9","0.35","167","37","",""
"","","","feedback","","5efc1d4ee23e2a011ded073e","bdp_rwlrn","Sat Apr 08 2023 09:42:50 GMT-0700 (Pacific Daylight Time)","351429","Untrustworthy,Trustworthy","html-keyboard-response","120","168504","0.0-11.0-3.36","","null","","<div class='respPicDiv'><img src='img/responseButtonOffersNo0_wht.png' class='respPic'></div><div class='trialDiv'><img src='Fruit/bananas.png'><br><font class='baseline'><strong>Banana Bonanza</strong><p><strong><font class='posOutcome'>You WON</font><p>You bet: 5</strong></font> &nbsp; &nbsp; &nbsp; &nbsp; &nbsp; &nbsp;<font class='posOutcome'>you receive: <strong>10</strong></font></div>","null","13","Banana Bonanza","Fruit/bananas.png","Won","0.35,0.8","9","0.35","177","37","",""
"","","","decision","","5efc1d4ee23e2a011ded073e","bdp_rwlrn","Sat Apr 08 2023 09:42:50 GMT-0700 (Pacific Daylight Time)","351429","Untrustworthy,Trustworthy","html-keyboard-response","121","168901","0.0-11.0-1.37","","395","","<div class='trialDiv'><img src='Fruit/lemon.png'><br><font class='baseline'><strong>Lucky Lemons</strong><p>Choose number of points to bet.</font><div class='respPicDiv'><img src='img/responseButtonOffersNo0L.png' class='respPic'></div></div>","3","13","Lucky Lemons","Fruit/lemon.png","Lost","0.65,0.2","12","0.65","182","38","",""
"","","","decisionFB","","5efc1d4ee23e2a011ded073e","bdp_rwlrn","Sat Apr 08 2023 09:42:50 GMT-0700 (Pacific Daylight Time)","351429","Untrustworthy,Trustworthy","html-keyboard-response","122","169155","0.0-11.0-2.37","","null","","<div class='trialDiv'><img src='Fruit/lemon.png'><br><font class='baseline'><strong>Lucky Lemons</strong><p>Choose number of points to bet.</font><div class='respPicDiv'><img src='img/responseButtonOffersNo0L3.png' class='respPic'></div></div>","null","13","Lucky Lemons","Fruit/lemon.png","Lost","0.65,0.2","12","0.65","179","38","",""
"","","","feedback","","5efc1d4ee23e2a011ded073e","bdp_rwlrn","Sat Apr 08 2023 09:42:50 GMT-0700 (Pacific Daylight Time)","351429","Untrustworthy,Trustworthy","html-keyboard-response","123","170165","0.0-11.0-3.37","","null","","<div class='respPicDiv'><img src='img/responseButtonOffersNo0_wht.png' class='respPic'></div><div class='trialDiv'><img src='Fruit/lemon.png'><br><font class='baseline'><strong>Lucky Lemons</strong><p><strong><font class='negOutcome'>You LOST</font><p>You bet: 3</strong></font> &nbsp; &nbsp; &nbsp; &nbsp; &nbsp; &nbsp;<font class='negOutcome'>You receive: <strong>0</strong></font></div>","null","13","Lucky Lemons","Fruit/lemon.png","Lost","0.65,0.2","12","0.65","179","38","",""
"","","","decision","","5efc1d4ee23e2a011ded073e","bdp_rwlrn","Sat Apr 08 2023 09:42:50 GMT-0700 (Pacific Daylight Time)","351429","Untrustworthy,Trustworthy","html-keyboard-response","124","170984","0.0-11.0-1.38","","816","","<div class='trialDiv'><img src='Fruit/watermelon.png'><br><font class='baseline'><strong>Watermelon Win$</strong><p>Choose number of points to bet.</font><div class='respPicDiv'><img src='img/responseButtonOffersNo0L.png' class='respPic'></div></div>","2","13","Watermelon Win$","Fruit/watermelon.png","Won","0.35,0.65","12","0.35","184","39","",""
"","","","decisionFB","","5efc1d4ee23e2a011ded073e","bdp_rwlrn","Sat Apr 08 2023 09:42:50 GMT-0700 (Pacific Daylight Time)","351429","Untrustworthy,Trustworthy","html-keyboard-response","125","171240","0.0-11.0-2.38","","null","","<div class='trialDiv'><img src='Fruit/watermelon.png'><br><font class='baseline'><strong>Watermelon Win$</strong><p>Choose number of points to bet.</font><div class='respPicDiv'><img src='img/responseButtonOffersNo0L2.png' class='respPic'></div></div>","null","13","Watermelon Win$","Fruit/watermelon.png","Won","0.35,0.65","12","0.35","182","39","",""
"","","","feedback","","5efc1d4ee23e2a011ded073e","bdp_rwlrn","Sat Apr 08 2023 09:42:50 GMT-0700 (Pacific Daylight Time)","351429","Untrustworthy,Trustworthy","html-keyboard-response","126","172248","0.0-11.0-3.38","","null","","<div class='respPicDiv'><img src='img/responseButtonOffersNo0_wht.png' class='respPic'></div><div class='trialDiv'><img src='Fruit/watermelon.png'><br><font class='baseline'><strong>Watermelon Win$</strong><p><strong><font class='posOutcome'>You WON</font><p>You bet: 2</strong></font> &nbsp; &nbsp; &nbsp; &nbsp; &nbsp; &nbsp;<font class='posOutcome'>you receive: <strong>4</strong></font></div>","null","13","Watermelon Win$","Fruit/watermelon.png","Won","0.35,0.65","12","0.35","186","39","",""
"","","","decision","","5efc1d4ee23e2a011ded073e","bdp_rwlrn","Sat Apr 08 2023 09:42:50 GMT-0700 (Pacific Daylight Time)","351429","Untrustworthy,Trustworthy","html-keyboard-response","127","172899","0.0-11.0-1.39","","648","","<div class='trialDiv'><img src='Fruit/lemon.png'><br><font class='baseline'><strong>Lucky Lemons</strong><p>Choose number of points to bet.</font><div class='respPicDiv'><img src='img/responseButtonOffersNo0L.png' class='respPic'></div></div>","2","14","Lucky Lemons","Fruit/lemon.png","Lost","0.65,0.2","12","0.65","191","40","",""
"","","","decisionFB","","5efc1d4ee23e2a011ded073e","bdp_rwlrn","Sat Apr 08 2023 09:42:50 GMT-0700 (Pacific Daylight Time)","351429","Untrustworthy,Trustworthy","html-keyboard-response","128","173155","0.0-11.0-2.39","","null","","<div class='trialDiv'><img src='Fruit/lemon.png'><br><font class='baseline'><strong>Lucky Lemons</strong><p>Choose number of points to bet.</font><div class='respPicDiv'><img src='img/responseButtonOffersNo0L2.png' class='respPic'></div></div>","null","14","Lucky Lemons","Fruit/lemon.png","Lost","0.65,0.2","12","0.65","189","40","",""
"","","","feedback","","5efc1d4ee23e2a011ded073e","bdp_rwlrn","Sat Apr 08 2023 09:42:50 GMT-0700 (Pacific Daylight Time)","351429","Untrustworthy,Trustworthy","html-keyboard-response","129","174167","0.0-11.0-3.39","","null","","<div class='respPicDiv'><img src='img/responseButtonOffersNo0_wht.png' class='respPic'></div><div class='trialDiv'><img src='Fruit/lemon.png'><br><font class='baseline'><strong>Lucky Lemons</strong><p><strong><font class='negOutcome'>You LOST</font><p>You bet: 2</strong></font> &nbsp; &nbsp; &nbsp; &nbsp; &nbsp; &nbsp;<font class='negOutcome'>You receive: <strong>0</strong></font></div>","null","14","Lucky Lemons","Fruit/lemon.png","Lost","0.65,0.2","12","0.65","189","40","",""
"","","","decision","","5efc1d4ee23e2a011ded073e","bdp_rwlrn","Sat Apr 08 2023 09:42:50 GMT-0700 (Pacific Daylight Time)","351429","Untrustworthy,Trustworthy","html-keyboard-response","130","174262","0.0-11.0-1.40","","93","","<div class='trialDiv'><img src='Fruit/watermelon.png'><br><font class='baseline'><strong>Watermelon Win$</strong><p>Choose number of points to bet.</font><div class='respPicDiv'><img src='img/responseButtonOffersNo0L.png' class='respPic'></div></div>","3","14","Watermelon Win$","Fruit/watermelon.png","Won","0.35,0.65","12","0.35","194","41","",""
"","","","decisionFB","","5efc1d4ee23e2a011ded073e","bdp_rwlrn","Sat Apr 08 2023 09:42:50 GMT-0700 (Pacific Daylight Time)","351429","Untrustworthy,Trustworthy","html-keyboard-response","131","174523","0.0-11.0-2.40","","null","","<div class='trialDiv'><img src='Fruit/watermelon.png'><br><font class='baseline'><strong>Watermelon Win$</strong><p>Choose number of points to bet.</font><div class='respPicDiv'><img src='img/responseButtonOffersNo0L3.png' class='respPic'></div></div>","null","14","Watermelon Win$","Fruit/watermelon.png","Won","0.35,0.65","12","0.35","191","41","",""
"","","","feedback","","5efc1d4ee23e2a011ded073e","bdp_rwlrn","Sat Apr 08 2023 09:42:50 GMT-0700 (Pacific Daylight Time)","351429","Untrustworthy,Trustworthy","html-keyboard-response","132","175527","0.0-11.0-3.40","","null","","<div class='respPicDiv'><img src='img/responseButtonOffersNo0_wht.png' class='respPic'></div><div class='trialDiv'><img src='Fruit/watermelon.png'><br><font class='baseline'><strong>Watermelon Win$</strong><p><strong><font class='posOutcome'>You WON</font><p>You bet: 3</strong></font> &nbsp; &nbsp; &nbsp; &nbsp; &nbsp; &nbsp;<font class='posOutcome'>you receive: <strong>6</strong></font></div>","null","14","Watermelon Win$","Fruit/watermelon.png","Won","0.35,0.65","12","0.35","197","41","",""
"","","","decision","","5efc1d4ee23e2a011ded073e","bdp_rwlrn","Sat Apr 08 2023 09:42:50 GMT-0700 (Pacific Daylight Time)","351429","Untrustworthy,Trustworthy","html-keyboard-response","133","175664","0.0-11.0-1.41","","135","","<div class='trialDiv'><img src='Fruit/bananas.png'><br><font class='baseline'><strong>Banana Bonanza</strong><p>Choose number of points to bet.</font><div class='respPicDiv'><img src='img/responseButtonOffersNo0L.png' class='respPic'></div></div>","2","14","Banana Bonanza","Fruit/bananas.png","Won","0.35,0.8","9","0.35","202","42","",""
"","","","decisionFB","","5efc1d4ee23e2a011ded073e","bdp_rwlrn","Sat Apr 08 2023 09:42:50 GMT-0700 (Pacific Daylight Time)","351429","Untrustworthy,Trustworthy","html-keyboard-response","134","175919","0.0-11.0-2.41","","null","","<div class='trialDiv'><img src='Fruit/bananas.png'><br><font class='baseline'><strong>Banana Bonanza</strong><p>Choose number of points to bet.</font><div class='respPicDiv'><img src='img/responseButtonOffersNo0L2.png' class='respPic'></div></div>","null","14","Banana Bonanza","Fruit/bananas.png","Won","0.35,0.8","9","0.35","200","42","",""
"","","","feedback","","5efc1d4ee23e2a011ded073e","bdp_rwlrn","Sat Apr 08 2023 09:42:50 GMT-0700 (Pacific Daylight Time)","351429","Untrustworthy,Trustworthy","html-keyboard-response","135","176928","0.0-11.0-3.41","","null","","<div class='respPicDiv'><img src='img/responseButtonOffersNo0_wht.png' class='respPic'></div><div class='trialDiv'><img src='Fruit/bananas.png'><br><font class='baseline'><strong>Banana Bonanza</strong><p><strong><font class='posOutcome'>You WON</font><p>You bet: 2</strong></font> &nbsp; &nbsp; &nbsp; &nbsp; &nbsp; &nbsp;<font class='posOutcome'>you receive: <strong>4</strong></font></div>","null","14","Banana Bonanza","Fruit/bananas.png","Won","0.35,0.8","9","0.35","204","42","",""
"","","","decision","","5efc1d4ee23e2a011ded073e","bdp_rwlrn","Sat Apr 08 2023 09:42:50 GMT-0700 (Pacific Daylight Time)","351429","Untrustworthy,Trustworthy","html-keyboard-response","136","177327","0.0-11.0-1.42","","396","","<div class='trialDiv'><img src='Fruit/lemon.png'><br><font class='baseline'><strong>Lucky Lemons</strong><p>Choose number of points to bet.</font><div class='respPicDiv'><img src='img/responseButtonOffersNo0L.png' class='respPic'></div></div>","4","15","Lucky Lemons","Fruit/lemon.png","Lost","0.65,0.2","12","0.65","209","43","",""
"","","","decisionFB","","5efc1d4ee23e2a011ded073e","bdp_rwlrn","Sat Apr 08 2023 09:42:50 GMT-0700 (Pacific Daylight Time)","351429","Untrustworthy,Trustworthy","html-keyboard-response","137","177582","0.0-11.0-2.42","","null","","<div class='trialDiv'><img src='Fruit/lemon.png'><br><font class='baseline'><strong>Lucky Lemons</strong><p>Choose number of points to bet.</font><div class='respPicDiv'><img src='img/responseButtonOffersNo0L4.png' class='respPic'></div></div>","null","15","Lucky Lemons","Fruit/lemon.png","Lost","0.65,0.2","12","0.65","205","43","",""
"","","","feedback","","5efc1d4ee23e2a011ded073e","bdp_rwlrn","Sat Apr 08 2023 09:42:50 GMT-0700 (Pacific Daylight Time)","351429","Untrustworthy,Trustworthy","html-keyboard-response","138","178597","0.0-11.0-3.42","","null","","<div class='respPicDiv'><img src='img/responseButtonOffersNo0_wht.png' class='respPic'></div><div class='trialDiv'><img src='Fruit/lemon.png'><br><font class='baseline'><strong>Lucky Lemons</strong><p><strong><font class='negOutcome'>You LOST</font><p>You bet: 4</strong></font> &nbsp; &nbsp; &nbsp; &nbsp; &nbsp; &nbsp;<font class='negOutcome'>You receive: <strong>0</strong></font></div>","null","15","Lucky Lemons","Fruit/lemon.png","Lost","0.65,0.2","12","0.65","205","43","",""
"","","","decision","","5efc1d4ee23e2a011ded073e","bdp_rwlrn","Sat Apr 08 2023 09:42:50 GMT-0700 (Pacific Daylight Time)","351429","Untrustworthy,Trustworthy","html-keyboard-response","139","178828","0.0-11.0-1.43","","227","","<div class='trialDiv'><img src='Fruit/watermelon.png'><br><font class='baseline'><strong>Watermelon Win$</strong><p>Choose number of points to bet.</font><div class='respPicDiv'><img src='img/responseButtonOffersNo0L.png' class='respPic'></div></div>","2","15","Watermelon Win$","Fruit/watermelon.png","Won","0.35,0.65","12","0.35","210","44","",""
"","","","decisionFB","","5efc1d4ee23e2a011ded073e","bdp_rwlrn","Sat Apr 08 2023 09:42:50 GMT-0700 (Pacific Daylight Time)","351429","Untrustworthy,Trustworthy","html-keyboard-response","140","179082","0.0-11.0-2.43","","null","","<div class='trialDiv'><img src='Fruit/watermelon.png'><br><font class='baseline'><strong>Watermelon Win$</strong><p>Choose number of points to bet.</font><div class='respPicDiv'><img src='img/responseButtonOffersNo0L2.png' class='respPic'></div></div>","null","15","Watermelon Win$","Fruit/watermelon.png","Won","0.35,0.65","12","0.35","208","44","",""
"","","","feedback","","5efc1d4ee23e2a011ded073e","bdp_rwlrn","Sat Apr 08 2023 09:42:50 GMT-0700 (Pacific Daylight Time)","351429","Untrustworthy,Trustworthy","html-keyboard-response","141","180090","0.0-11.0-3.43","","null","","<div class='respPicDiv'><img src='img/responseButtonOffersNo0_wht.png' class='respPic'></div><div class='trialDiv'><img src='Fruit/watermelon.png'><br><font class='baseline'><strong>Watermelon Win$</strong><p><strong><font class='posOutcome'>You WON</font><p>You bet: 2</strong></font> &nbsp; &nbsp; &nbsp; &nbsp; &nbsp; &nbsp;<font class='posOutcome'>you receive: <strong>4</strong></font></div>","null","15","Watermelon Win$","Fruit/watermelon.png","Won","0.35,0.65","12","0.35","212","44","",""
"","","","decision","","5efc1d4ee23e2a011ded073e","bdp_rwlrn","Sat Apr 08 2023 09:42:50 GMT-0700 (Pacific Daylight Time)","351429","Untrustworthy,Trustworthy","html-keyboard-response","142","180482","0.0-11.0-1.44","","389","","<div class='trialDiv'><img src='Fruit/bananas.png'><br><font class='baseline'><strong>Banana Bonanza</strong><p>Choose number of points to bet.</font><div class='respPicDiv'><img src='img/responseButtonOffersNo0L.png' class='respPic'></div></div>","3","15","Banana Bonanza","Fruit/bananas.png","Won","0.35,0.8","9","0.35","217","45","",""
"","","","decisionFB","","5efc1d4ee23e2a011ded073e","bdp_rwlrn","Sat Apr 08 2023 09:42:50 GMT-0700 (Pacific Daylight Time)","351429","Untrustworthy,Trustworthy","html-keyboard-response","143","180736","0.0-11.0-2.44","","null","","<div class='trialDiv'><img src='Fruit/bananas.png'><br><font class='baseline'><strong>Banana Bonanza</strong><p>Choose number of points to bet.</font><div class='respPicDiv'><img src='img/responseButtonOffersNo0L3.png' class='respPic'></div></div>","null","15","Banana Bonanza","Fruit/bananas.png","Won","0.35,0.8","9","0.35","214","45","",""
"","","","feedback","","5efc1d4ee23e2a011ded073e","bdp_rwlrn","Sat Apr 08 2023 09:42:50 GMT-0700 (Pacific Daylight Time)","351429","Untrustworthy,Trustworthy","html-keyboard-response","144","181754","0.0-11.0-3.44","","null","","<div class='respPicDiv'><img src='img/responseButtonOffersNo0_wht.png' class='respPic'></div><div class='trialDiv'><img src='Fruit/bananas.png'><br><font class='baseline'><strong>Banana Bonanza</strong><p><strong><font class='posOutcome'>You WON</font><p>You bet: 3</strong></font> &nbsp; &nbsp; &nbsp; &nbsp; &nbsp; &nbsp;<font class='posOutcome'>you receive: <strong>6</strong></font></div>","null","15","Banana Bonanza","Fruit/bananas.png","Won","0.35,0.8","9","0.35","220","45","",""
"","","","decision","","5efc1d4ee23e2a011ded073e","bdp_rwlrn","Sat Apr 08 2023 09:42:50 GMT-0700 (Pacific Daylight Time)","351429","Untrustworthy,Trustworthy","html-keyboard-response","145","182101","0.0-11.0-1.45","","344","","<div class='trialDiv'><img src='Fruit/watermelon.png'><br><font class='baseline'><strong>Watermelon Win$</strong><p>Choose number of points to bet.</font><div class='respPicDiv'><img src='img/responseButtonOffersNo0L.png' class='respPic'></div></div>","3","16","Watermelon Win$","Fruit/watermelon.png","Won","0.35,0.65","12","0.35","225","46","",""
"","","","decisionFB","","5efc1d4ee23e2a011ded073e","bdp_rwlrn","Sat Apr 08 2023 09:42:50 GMT-0700 (Pacific Daylight Time)","351429","Untrustworthy,Trustworthy","html-keyboard-response","146","182358","0.0-11.0-2.45","","null","","<div class='trialDiv'><img src='Fruit/watermelon.png'><br><font class='baseline'><strong>Watermelon Win$</strong><p>Choose number of points to bet.</font><div class='respPicDiv'><img src='img/responseButtonOffersNo0L3.png' class='respPic'></div></div>","null","16","Watermelon Win$","Fruit/watermelon.png","Won","0.35,0.65","12","0.35","222","46","",""
"","","","feedback","","5efc1d4ee23e2a011ded073e","bdp_rwlrn","Sat Apr 08 2023 09:42:50 GMT-0700 (Pacific Daylight Time)","351429","Untrustworthy,Trustworthy","html-keyboard-response","147","183365","0.0-11.0-3.45","","null","","<div class='respPicDiv'><img src='img/responseButtonOffersNo0_wht.png' class='respPic'></div><div class='trialDiv'><img src='Fruit/watermelon.png'><br><font class='baseline'><strong>Watermelon Win$</strong><p><strong><font class='posOutcome'>You WON</font><p>You bet: 3</strong></font> &nbsp; &nbsp; &nbsp; &nbsp; &nbsp; &nbsp;<font class='posOutcome'>you receive: <strong>6</strong></font></div>","null","16","Watermelon Win$","Fruit/watermelon.png","Won","0.35,0.65","12","0.35","228","46","",""
"","","","decision","","5efc1d4ee23e2a011ded073e","bdp_rwlrn","Sat Apr 08 2023 09:42:50 GMT-0700 (Pacific Daylight Time)","351429","Untrustworthy,Trustworthy","html-keyboard-response","148","183703","0.0-11.0-1.46","","334","","<div class='trialDiv'><img src='Fruit/bananas.png'><br><font class='baseline'><strong>Banana Bonanza</strong><p>Choose number of points to bet.</font><div class='respPicDiv'><img src='img/responseButtonOffersNo0L.png' class='respPic'></div></div>","2","16","Banana Bonanza","Fruit/bananas.png","Won","0.35,0.8","9","0.35","233","47","",""
"","","","decisionFB","","5efc1d4ee23e2a011ded073e","bdp_rwlrn","Sat Apr 08 2023 09:42:50 GMT-0700 (Pacific Daylight Time)","351429","Untrustworthy,Trustworthy","html-keyboard-response","149","183959","0.0-11.0-2.46","","null","","<div class='trialDiv'><img src='Fruit/bananas.png'><br><font class='baseline'><strong>Banana Bonanza</strong><p>Choose number of points to bet.</font><div class='respPicDiv'><img src='img/responseButtonOffersNo0L2.png' class='respPic'></div></div>","null","16","Banana Bonanza","Fruit/bananas.png","Won","0.35,0.8","9","0.35","231","47","",""
"","","","feedback","","5efc1d4ee23e2a011ded073e","bdp_rwlrn","Sat Apr 08 2023 09:42:50 GMT-0700 (Pacific Daylight Time)","351429","Untrustworthy,Trustworthy","html-keyboard-response","150","184968","0.0-11.0-3.46","","null","","<div class='respPicDiv'><img src='img/responseButtonOffersNo0_wht.png' class='respPic'></div><div class='trialDiv'><img src='Fruit/bananas.png'><br><font class='baseline'><strong>Banana Bonanza</strong><p><strong><font class='posOutcome'>You WON</font><p>You bet: 2</strong></font> &nbsp; &nbsp; &nbsp; &nbsp; &nbsp; &nbsp;<font class='posOutcome'>you receive: <strong>4</strong></font></div>","null","16","Banana Bonanza","Fruit/bananas.png","Won","0.35,0.8","9","0.35","235","47","",""
"","","","decision","","5efc1d4ee23e2a011ded073e","bdp_rwlrn","Sat Apr 08 2023 09:42:50 GMT-0700 (Pacific Daylight Time)","351429","Untrustworthy,Trustworthy","html-keyboard-response","151","185294","0.0-11.0-1.47","","323","","<div class='trialDiv'><img src='Fruit/lemon.png'><br><font class='baseline'><strong>Lucky Lemons</strong><p>Choose number of points to bet.</font><div class='respPicDiv'><img src='img/responseButtonOffersNo0L.png' class='respPic'></div></div>","3","16","Lucky Lemons","Fruit/lemon.png","Lost","0.65,0.2","12","0.65","240","48","",""
"","","","decisionFB","","5efc1d4ee23e2a011ded073e","bdp_rwlrn","Sat Apr 08 2023 09:42:50 GMT-0700 (Pacific Daylight Time)","351429","Untrustworthy,Trustworthy","html-keyboard-response","152","185547","0.0-11.0-2.47","","null","","<div class='trialDiv'><img src='Fruit/lemon.png'><br><font class='baseline'><strong>Lucky Lemons</strong><p>Choose number of points to bet.</font><div class='respPicDiv'><img src='img/responseButtonOffersNo0L3.png' class='respPic'></div></div>","null","16","Lucky Lemons","Fruit/lemon.png","Lost","0.65,0.2","12","0.65","237","48","",""
"","","","feedback","","5efc1d4ee23e2a011ded073e","bdp_rwlrn","Sat Apr 08 2023 09:42:50 GMT-0700 (Pacific Daylight Time)","351429","Untrustworthy,Trustworthy","html-keyboard-response","153","186558","0.0-11.0-3.47","","null","","<div class='respPicDiv'><img src='img/responseButtonOffersNo0_wht.png' class='respPic'></div><div class='trialDiv'><img src='Fruit/lemon.png'><br><font class='baseline'><strong>Lucky Lemons</strong><p><strong><font class='negOutcome'>You LOST</font><p>You bet: 3</strong></font> &nbsp; &nbsp; &nbsp; &nbsp; &nbsp; &nbsp;<font class='negOutcome'>You receive: <strong>0</strong></font></div>","null","16","Lucky Lemons","Fruit/lemon.png","Lost","0.65,0.2","12","0.65","237","48","",""
"","","","decision","","5efc1d4ee23e2a011ded073e","bdp_rwlrn","Sat Apr 08 2023 09:42:50 GMT-0700 (Pacific Daylight Time)","351429","Untrustworthy,Trustworthy","html-keyboard-response","154","187249","0.0-11.0-1.48","","688","","<div class='trialDiv'><img src='Fruit/watermelon.png'><br><font class='baseline'><strong>Watermelon Win$</strong><p>Choose number of points to bet.</font><div class='respPicDiv'><img src='img/responseButtonOffersNo0L.png' class='respPic'></div></div>","4","17","Watermelon Win$","Fruit/watermelon.png","Won","0.35,0.65","12","0.35","242","49","",""
"","","","decisionFB","","5efc1d4ee23e2a011ded073e","bdp_rwlrn","Sat Apr 08 2023 09:42:50 GMT-0700 (Pacific Daylight Time)","351429","Untrustworthy,Trustworthy","html-keyboard-response","155","187509","0.0-11.0-2.48","","null","","<div class='trialDiv'><img src='Fruit/watermelon.png'><br><font class='baseline'><strong>Watermelon Win$</strong><p>Choose number of points to bet.</font><div class='respPicDiv'><img src='img/responseButtonOffersNo0L4.png' class='respPic'></div></div>","null","17","Watermelon Win$","Fruit/watermelon.png","Won","0.35,0.65","12","0.35","238","49","",""
"","","","feedback","","5efc1d4ee23e2a011ded073e","bdp_rwlrn","Sat Apr 08 2023 09:42:50 GMT-0700 (Pacific Daylight Time)","351429","Untrustworthy,Trustworthy","html-keyboard-response","156","188520","0.0-11.0-3.48","","null","","<div class='respPicDiv'><img src='img/responseButtonOffersNo0_wht.png' class='respPic'></div><div class='trialDiv'><img src='Fruit/watermelon.png'><br><font class='baseline'><strong>Watermelon Win$</strong><p><strong><font class='posOutcome'>You WON</font><p>You bet: 4</strong></font> &nbsp; &nbsp; &nbsp; &nbsp; &nbsp; &nbsp;<font class='posOutcome'>you receive: <strong>8</strong></font></div>","null","17","Watermelon Win$","Fruit/watermelon.png","Won","0.35,0.65","12","0.35","246","49","",""
"","","","decision","","5efc1d4ee23e2a011ded073e","bdp_rwlrn","Sat Apr 08 2023 09:42:50 GMT-0700 (Pacific Daylight Time)","351429","Untrustworthy,Trustworthy","html-keyboard-response","157","188991","0.0-11.0-1.49","","468","","<div class='trialDiv'><img src='Fruit/bananas.png'><br><font class='baseline'><strong>Banana Bonanza</strong><p>Choose number of points to bet.</font><div class='respPicDiv'><img src='img/responseButtonOffersNo0L.png' class='respPic'></div></div>","3","17","Banana Bonanza","Fruit/bananas.png","Won","0.35,0.8","9","0.35","251","50","",""
"","","","decisionFB","","5efc1d4ee23e2a011ded073e","bdp_rwlrn","Sat Apr 08 2023 09:42:50 GMT-0700 (Pacific Daylight Time)","351429","Untrustworthy,Trustworthy","html-keyboard-response","158","189249","0.0-11.0-2.49","","null","","<div class='trialDiv'><img src='Fruit/bananas.png'><br><font class='baseline'><strong>Banana Bonanza</strong><p>Choose number of points to bet.</font><div class='respPicDiv'><img src='img/responseButtonOffersNo0L3.png' class='respPic'></div></div>","null","17","Banana Bonanza","Fruit/bananas.png","Won","0.35,0.8","9","0.35","248","50","",""
"","","","feedback","","5efc1d4ee23e2a011ded073e","bdp_rwlrn","Sat Apr 08 2023 09:42:50 GMT-0700 (Pacific Daylight Time)","351429","Untrustworthy,Trustworthy","html-keyboard-response","159","190259","0.0-11.0-3.49","","null","","<div class='respPicDiv'><img src='img/responseButtonOffersNo0_wht.png' class='respPic'></div><div class='trialDiv'><img src='Fruit/bananas.png'><br><font class='baseline'><strong>Banana Bonanza</strong><p><strong><font class='posOutcome'>You WON</font><p>You bet: 3</strong></font> &nbsp; &nbsp; &nbsp; &nbsp; &nbsp; &nbsp;<font class='posOutcome'>you receive: <strong>6</strong></font></div>","null","17","Banana Bonanza","Fruit/bananas.png","Won","0.35,0.8","9","0.35","254","50","",""
"","","","decision","","5efc1d4ee23e2a011ded073e","bdp_rwlrn","Sat Apr 08 2023 09:42:50 GMT-0700 (Pacific Daylight Time)","351429","Untrustworthy,Trustworthy","html-keyboard-response","160","190842","0.0-11.0-1.50","","580","","<div class='trialDiv'><img src='Fruit/lemon.png'><br><font class='baseline'><strong>Lucky Lemons</strong><p>Choose number of points to bet.</font><div class='respPicDiv'><img src='img/responseButtonOffersNo0L.png' class='respPic'></div></div>","2","17","Lucky Lemons","Fruit/lemon.png","Lost","0.65,0.2","12","0.65","259","51","",""
