"trial_type","trial_index","time_elapsed","internal_node_id","subject_id","task","startTime","totalTime","labels","view_history","rt","event","trial","time","trialtype","success","stimulus","key_press","ltround","name","fileID","outcome","lottotype","lottoswpt","lottocurrpshare","point_total","round","faceID","face"
"pavlovia","0","5","0.0-0.0","63dafeda84d9a5e684adb6be","bdp_rwlrn","Tue Mar 14 2023 21:44:29 GMT-0400 (Eastern Daylight Time)","378621","Untrustworthy,Trustworthy","","","","","","","","","","","","","","","","","","","",""
"instructions","1","4116","0.0-1.0","63dafeda84d9a5e684adb6be","bdp_rwlrn","Tue Mar 14 2023 21:44:29 GMT-0400 (Eastern Daylight Time)","378621","Untrustworthy,Trustworthy","[{""page_index"":0,""viewing_time"":4110}]","4110","","","","","","","","","","","","","","","","","",""
"","","","","63dafeda84d9a5e684adb6be","bdp_rwlrn","Tue Mar 14 2023 21:44:29 GMT-0400 (Eastern Daylight Time)","378621","Untrustworthy,Trustworthy","","","fullscreenenter","2","8476","fullscreenenter","","","","","","","","","","","","","",""
"fullscreen","2","9469","0.0-2.0","63dafeda84d9a5e684adb6be","bdp_rwlrn","Tue Mar 14 2023 21:44:29 GMT-0400 (Eastern Daylight Time)","378621","Untrustworthy,Trustworthy","","","","","","","true","","","","","","","","","","","","",""
"instructions","3","54724","0.0-4.0","63dafeda84d9a5e684adb6be","bdp_rwlrn","Tue Mar 14 2023 21:44:29 GMT-0400 (Eastern Daylight Time)","378621","Untrustworthy,Trustworthy","[{""page_index"":0,""viewing_time"":16007},{""page_index"":1,""viewing_time"":9483},{""page_index"":2,""viewing_time"":6295},{""page_index"":3,""viewing_time"":6914},{""page_index"":4,""viewing_time"":5190},{""page_index"":5,""viewing_time"":1364}]","45253","","","","","","","","","","","","","","","","","",""
"html-keyboard-response","4","62551","0.0-5.0","63dafeda84d9a5e684adb6be","bdp_rwlrn","Tue Mar 14 2023 21:44:29 GMT-0400 (Eastern Daylight Time)","378621","Untrustworthy,Trustworthy","","7825","","","","","","<div class='header' style='text-align:left; position: absolute; top: 5%; left: 5%;'><small>Task 3 of 5</small></div><div class='instruxDiv'><p><strong>1) What is the maximum number of points you can choose to bet on a lottery?</strong></p><p>a) 0</p><p>b) 1</p><p>c) 5</p>","C","","","","","","","","","","",""
"html-keyboard-response","5","63803","0.0-6.0","63dafeda84d9a5e684adb6be","bdp_rwlrn","Tue Mar 14 2023 21:44:29 GMT-0400 (Eastern Daylight Time)","378621","Untrustworthy,Trustworthy","","1148","","","","","","<div class='header' style='text-align:left; position: absolute; top: 5%; left: 5%;'><small>Task 3 of 5</small></div><div class='instruxDiv'><p><strong>1) What is the maximum number of points you can choose to bet on a lottery?</strong></p><p>a) 1</p><p>b) 1</p><p style='color:#00FF00'>c) 5</p><h3 style='color:#00FF00'>Correct!</h3><h3 class='center-content'>The correct response is c).</h3><h3 class='center-content'>The maximum number of points you can choose to bet on a lottery is 5 points.</h3><p><em>Press SPACEBAR to continue</em></p></div>"," ","","","","","","","","","","",""
"html-keyboard-response","6","78015","0.0-7.0","63dafeda84d9a5e684adb6be","bdp_rwlrn","Tue Mar 14 2023 21:44:29 GMT-0400 (Eastern Daylight Time)","378621","Untrustworthy,Trustworthy","","14105","","","","","","<div class='header' style='text-align:left; position: absolute; top: 5%; left: 5%;'><small>Task 3 of 5</small></div><div class='instruxDiv'><p><strong>2) How many points can you win each round?</strong></p><p>a) 10 points</p><p>b) Double what you bet</p><p>c) Quadruple what you bet</p>","B","","","","","","","","","","",""
"html-keyboard-response","7","80598","0.0-8.0","63dafeda84d9a5e684adb6be","bdp_rwlrn","Tue Mar 14 2023 21:44:29 GMT-0400 (Eastern Daylight Time)","378621","Untrustworthy,Trustworthy","","2480","","","","","","<div class='header' style='text-align:left; position: absolute; top: 5%; left: 5%;'><small>Task 3 of 5</small></div><div class='instruxDiv'><p><strong>2) How many points can you win each round?</strong></p><p>a) 10 points</p><p style='color:#00FF00'>b) Double what you bet</p><p>c) Quadruple what you bet</p><h3 style='color:#00FF00'>Correct!</h3><h3 class='center-content'>The correct response is b).</h3><h3 class='center-content'>You can win double the amount of points you bet.</h3><p><em>Press SPACEBAR to continue</em></p></div>"," ","","","","","","","","","","",""
"html-keyboard-response","8","85710","0.0-9.0","63dafeda84d9a5e684adb6be","bdp_rwlrn","Tue Mar 14 2023 21:44:29 GMT-0400 (Eastern Daylight Time)","378621","Untrustworthy,Trustworthy","","null","","","","","","<div class='header' style='text-align:left; position: absolute; top: 5%; left: 5%;'><small>Task 3 of 5</small></div><div class='instruxDiv'><p>Thank you for completing the quiz<p>These are the actual lotteries you will be playing in the next block:<p><div class='tc' align='center'><img class='introPic' src='Fruit/plums1.png'><br><strong>Plum Powerball</strong></div><div class='bl' align='center'><img class='introPic' src='Fruit/grapes.png'><br><strong>Great Grapes</strong></div><div class='br' align='center'><img class='introPic' src='Fruit/lemon.png'><br><strong>Lucky Lemons</strong></div></div><p>Across <strong>66 rounds</strong> you will play each lottery <strong>22 times</strong> (in random order).<p style='align:center; color:white'><font <em>Press SPACEBAR to continue</em></p>","null","","","","","","","","","","",""
"instructions","9","87304","0.0-10.0","63dafeda84d9a5e684adb6be","bdp_rwlrn","Tue Mar 14 2023 21:44:29 GMT-0400 (Eastern Daylight Time)","378621","Untrustworthy,Trustworthy","[{""page_index"":0,""viewing_time"":297},{""page_index"":1,""viewing_time"":1297}]","1594","","","","","","","","","","","","","","","","","",""
"html-keyboard-response","10","90325","0.0-11.0-1.0","63dafeda84d9a5e684adb6be","bdp_rwlrn","Tue Mar 14 2023 21:44:29 GMT-0400 (Eastern Daylight Time)","378621","Untrustworthy,Trustworthy","","2918","","","","decision","","<div class='trialDiv'><img src='Fruit/lemon.png'><br><font class='baseline'><strong>Lucky Lemons</strong><p>Choose number of points to bet.</font><div class='respPicDiv'><img src='img/responseButtonOffersNo0L.png' class='respPic'></div></div>","4","1","Lucky Lemons","Fruit/lemon.png","Lost","0.2,0.65","12","0.2","5","1","",""
"html-keyboard-response","11","90582","0.0-11.0-2.0","63dafeda84d9a5e684adb6be","bdp_rwlrn","Tue Mar 14 2023 21:44:29 GMT-0400 (Eastern Daylight Time)","378621","Untrustworthy,Trustworthy","","null","","","","decisionFB","","<div class='trialDiv'><img src='Fruit/lemon.png'><br><font class='baseline'><strong>Lucky Lemons</strong><p>Choose number of points to bet.</font><div class='respPicDiv'><img src='img/responseButtonOffersNo0L4.png' class='respPic'></div></div>","null","1","Lucky Lemons","Fruit/lemon.png","Lost","0.2,0.65","12","0.2","1","1","",""
"html-keyboard-response","12","91589","0.0-11.0-3.0","63dafeda84d9a5e684adb6be","bdp_rwlrn","Tue Mar 14 2023 21:44:29 GMT-0400 (Eastern Daylight Time)","378621","Untrustworthy,Trustworthy","","null","","","","feedback","","<div class='respPicDiv'><img src='img/responseButtonOffersNo0_wht.png' class='respPic'></div><div class='trialDiv'><img src='Fruit/lemon.png'><br><font class='baseline'><strong>Lucky Lemons</strong><p><strong><font class='negOutcome'>You LOST</font><p>You bet: 4</strong></font> &nbsp; &nbsp; &nbsp; &nbsp; &nbsp; &nbsp;<font class='negOutcome'>You receive: <strong>0</strong></font></div>","null","1","Lucky Lemons","Fruit/lemon.png","Lost","0.2,0.65","12","0.2","1","1","",""
"html-keyboard-response","13","92328","0.0-11.0-1.1","63dafeda84d9a5e684adb6be","bdp_rwlrn","Tue Mar 14 2023 21:44:29 GMT-0400 (Eastern Daylight Time)","378621","Untrustworthy,Trustworthy","","738","","","","decision","","<div class='trialDiv'><img src='Fruit/plums1.png'><br><font class='baseline'><strong>Plum Powerball</strong><p>Choose number of points to bet.</font><div class='respPicDiv'><img src='img/responseButtonOffersNo0L.png' class='respPic'></div></div>","2","1","Plum Powerball","Fruit/plums1.png","Won","0.8,0.35","8","0.8","6","2","",""
"html-keyboard-response","14","92581","0.0-11.0-2.1","63dafeda84d9a5e684adb6be","bdp_rwlrn","Tue Mar 14 2023 21:44:29 GMT-0400 (Eastern Daylight Time)","378621","Untrustworthy,Trustworthy","","null","","","","decisionFB","","<div class='trialDiv'><img src='Fruit/plums1.png'><br><font class='baseline'><strong>Plum Powerball</strong><p>Choose number of points to bet.</font><div class='respPicDiv'><img src='img/responseButtonOffersNo0L2.png' class='respPic'></div></div>","null","1","Plum Powerball","Fruit/plums1.png","Won","0.8,0.35","8","0.8","4","2","",""
"html-keyboard-response","15","93589","0.0-11.0-3.1","63dafeda84d9a5e684adb6be","bdp_rwlrn","Tue Mar 14 2023 21:44:29 GMT-0400 (Eastern Daylight Time)","378621","Untrustworthy,Trustworthy","","null","","","","feedback","","<div class='respPicDiv'><img src='img/responseButtonOffersNo0_wht.png' class='respPic'></div><div class='trialDiv'><img src='Fruit/plums1.png'><br><font class='baseline'><strong>Plum Powerball</strong><p><strong><font class='posOutcome'>You WON</font><p>You bet: 2</strong></font> &nbsp; &nbsp; &nbsp; &nbsp; &nbsp; &nbsp;<font class='posOutcome'>you receive: <strong>4</strong></font></div>","null","1","Plum Powerball","Fruit/plums1.png","Won","0.8,0.35","8","0.8","8","2","",""
"html-keyboard-response","16","94718","0.0-11.0-1.2","63dafeda84d9a5e684adb6be","bdp_rwlrn","Tue Mar 14 2023 21:44:29 GMT-0400 (Eastern Daylight Time)","378621","Untrustworthy,Trustworthy","","1128","","","","decision","","<div class='trialDiv'><img src='Fruit/grapes.png'><br><font class='baseline'><strong>Great Grapes</strong><p>Choose number of points to bet.</font><div class='respPicDiv'><img src='img/responseButtonOffersNo0L.png' class='respPic'></div></div>","1","1","Great Grapes","Fruit/grapes.png","Lost","0.2,0.8","14","0.2","13","3","",""
"html-keyboard-response","17","94973","0.0-11.0-2.2","63dafeda84d9a5e684adb6be","bdp_rwlrn","Tue Mar 14 2023 21:44:29 GMT-0400 (Eastern Daylight Time)","378621","Untrustworthy,Trustworthy","","null","","","","decisionFB","","<div class='trialDiv'><img src='Fruit/grapes.png'><br><font class='baseline'><strong>Great Grapes</strong><p>Choose number of points to bet.</font><div class='respPicDiv'><img src='img/responseButtonOffersNo0L1.png' class='respPic'></div></div>","null","1","Great Grapes","Fruit/grapes.png","Lost","0.2,0.8","14","0.2","12","3","",""
"html-keyboard-response","18","95981","0.0-11.0-3.2","63dafeda84d9a5e684adb6be","bdp_rwlrn","Tue Mar 14 2023 21:44:29 GMT-0400 (Eastern Daylight Time)","378621","Untrustworthy,Trustworthy","","null","","","","feedback","","<div class='respPicDiv'><img src='img/responseButtonOffersNo0_wht.png' class='respPic'></div><div class='trialDiv'><img src='Fruit/grapes.png'><br><font class='baseline'><strong>Great Grapes</strong><p><strong><font class='negOutcome'>You LOST</font><p>You bet: 1</strong></font> &nbsp; &nbsp; &nbsp; &nbsp; &nbsp; &nbsp;<font class='negOutcome'>You receive: <strong>0</strong></font></div>","null","1","Great Grapes","Fruit/grapes.png","Lost","0.2,0.8","14","0.2","12","3","",""
"html-keyboard-response","19","96915","0.0-11.0-1.3","63dafeda84d9a5e684adb6be","bdp_rwlrn","Tue Mar 14 2023 21:44:29 GMT-0400 (Eastern Daylight Time)","378621","Untrustworthy,Trustworthy","","933","","","","decision","","<div class='trialDiv'><img src='Fruit/lemon.png'><br><font class='baseline'><strong>Lucky Lemons</strong><p>Choose number of points to bet.</font><div class='respPicDiv'><img src='img/responseButtonOffersNo0L.png' class='respPic'></div></div>","3","2","Lucky Lemons","Fruit/lemon.png","Lost","0.2,0.65","12","0.2","17","4","",""
"html-keyboard-response","20","97173","0.0-11.0-2.3","63dafeda84d9a5e684adb6be","bdp_rwlrn","Tue Mar 14 2023 21:44:29 GMT-0400 (Eastern Daylight Time)","378621","Untrustworthy,Trustworthy","","null","","","","decisionFB","","<div class='trialDiv'><img src='Fruit/lemon.png'><br><font class='baseline'><strong>Lucky Lemons</strong><p>Choose number of points to bet.</font><div class='respPicDiv'><img src='img/responseButtonOffersNo0L3.png' class='respPic'></div></div>","null","2","Lucky Lemons","Fruit/lemon.png","Lost","0.2,0.65","12","0.2","14","4","",""
"html-keyboard-response","21","98181","0.0-11.0-3.3","63dafeda84d9a5e684adb6be","bdp_rwlrn","Tue Mar 14 2023 21:44:29 GMT-0400 (Eastern Daylight Time)","378621","Untrustworthy,Trustworthy","","null","","","","feedback","","<div class='respPicDiv'><img src='img/responseButtonOffersNo0_wht.png' class='respPic'></div><div class='trialDiv'><img src='Fruit/lemon.png'><br><font class='baseline'><strong>Lucky Lemons</strong><p><strong><font class='negOutcome'>You LOST</font><p>You bet: 3</strong></font> &nbsp; &nbsp; &nbsp; &nbsp; &nbsp; &nbsp;<font class='negOutcome'>You receive: <strong>0</strong></font></div>","null","2","Lucky Lemons","Fruit/lemon.png","Lost","0.2,0.65","12","0.2","14","4","",""
"html-keyboard-response","22","98724","0.0-11.0-1.4","63dafeda84d9a5e684adb6be","bdp_rwlrn","Tue Mar 14 2023 21:44:29 GMT-0400 (Eastern Daylight Time)","378621","Untrustworthy,Trustworthy","","541","","","","decision","","<div class='trialDiv'><img src='Fruit/plums1.png'><br><font class='baseline'><strong>Plum Powerball</strong><p>Choose number of points to bet.</font><div class='respPicDiv'><img src='img/responseButtonOffersNo0L.png' class='respPic'></div></div>","2","2","Plum Powerball","Fruit/plums1.png","Lost","0.8,0.35","8","0.8","19","5","",""
"html-keyboard-response","23","98981","0.0-11.0-2.4","63dafeda84d9a5e684adb6be","bdp_rwlrn","Tue Mar 14 2023 21:44:29 GMT-0400 (Eastern Daylight Time)","378621","Untrustworthy,Trustworthy","","null","","","","decisionFB","","<div class='trialDiv'><img src='Fruit/plums1.png'><br><font class='baseline'><strong>Plum Powerball</strong><p>Choose number of points to bet.</font><div class='respPicDiv'><img src='img/responseButtonOffersNo0L2.png' class='respPic'></div></div>","null","2","Plum Powerball","Fruit/plums1.png","Lost","0.8,0.35","8","0.8","17","5","",""
"html-keyboard-response","24","99989","0.0-11.0-3.4","63dafeda84d9a5e684adb6be","bdp_rwlrn","Tue Mar 14 2023 21:44:29 GMT-0400 (Eastern Daylight Time)","378621","Untrustworthy,Trustworthy","","null","","","","feedback","","<div class='respPicDiv'><img src='img/responseButtonOffersNo0_wht.png' class='respPic'></div><div class='trialDiv'><img src='Fruit/plums1.png'><br><font class='baseline'><strong>Plum Powerball</strong><p><strong><font class='negOutcome'>You LOST</font><p>You bet: 2</strong></font> &nbsp; &nbsp; &nbsp; &nbsp; &nbsp; &nbsp;<font class='negOutcome'>You receive: <strong>0</strong></font></div>","null","2","Plum Powerball","Fruit/plums1.png","Lost","0.8,0.35","8","0.8","17","5","",""
"html-keyboard-response","25","100806","0.0-11.0-1.5","63dafeda84d9a5e684adb6be","bdp_rwlrn","Tue Mar 14 2023 21:44:29 GMT-0400 (Eastern Daylight Time)","378621","Untrustworthy,Trustworthy","","815","","","","decision","","<div class='trialDiv'><img src='Fruit/grapes.png'><br><font class='baseline'><strong>Great Grapes</strong><p>Choose number of points to bet.</font><div class='respPicDiv'><img src='img/responseButtonOffersNo0L.png' class='respPic'></div></div>","4","2","Great Grapes","Fruit/grapes.png","Lost","0.2,0.8","14","0.2","22","6","",""
"html-keyboard-response","26","101061","0.0-11.0-2.5","63dafeda84d9a5e684adb6be","bdp_rwlrn","Tue Mar 14 2023 21:44:29 GMT-0400 (Eastern Daylight Time)","378621","Untrustworthy,Trustworthy","","null","","","","decisionFB","","<div class='trialDiv'><img src='Fruit/grapes.png'><br><font class='baseline'><strong>Great Grapes</strong><p>Choose number of points to bet.</font><div class='respPicDiv'><img src='img/responseButtonOffersNo0L4.png' class='respPic'></div></div>","null","2","Great Grapes","Fruit/grapes.png","Lost","0.2,0.8","14","0.2","18","6","",""
"html-keyboard-response","27","102069","0.0-11.0-3.5","63dafeda84d9a5e684adb6be","bdp_rwlrn","Tue Mar 14 2023 21:44:29 GMT-0400 (Eastern Daylight Time)","378621","Untrustworthy,Trustworthy","","null","","","","feedback","","<div class='respPicDiv'><img src='img/responseButtonOffersNo0_wht.png' class='respPic'></div><div class='trialDiv'><img src='Fruit/grapes.png'><br><font class='baseline'><strong>Great Grapes</strong><p><strong><font class='negOutcome'>You LOST</font><p>You bet: 4</strong></font> &nbsp; &nbsp; &nbsp; &nbsp; &nbsp; &nbsp;<font class='negOutcome'>You receive: <strong>0</strong></font></div>","null","2","Great Grapes","Fruit/grapes.png","Lost","0.2,0.8","14","0.2","18","6","",""
"html-keyboard-response","28","102795","0.0-11.0-1.6","63dafeda84d9a5e684adb6be","bdp_rwlrn","Tue Mar 14 2023 21:44:29 GMT-0400 (Eastern Daylight Time)","378621","Untrustworthy,Trustworthy","","725","","","","decision","","<div class='trialDiv'><img src='Fruit/lemon.png'><br><font class='baseline'><strong>Lucky Lemons</strong><p>Choose number of points to bet.</font><div class='respPicDiv'><img src='img/responseButtonOffersNo0L.png' class='respPic'></div></div>","1","3","Lucky Lemons","Fruit/lemon.png","Won","0.2,0.65","12","0.2","23","7","",""
"html-keyboard-response","29","103053","0.0-11.0-2.6","63dafeda84d9a5e684adb6be","bdp_rwlrn","Tue Mar 14 2023 21:44:29 GMT-0400 (Eastern Daylight Time)","378621","Untrustworthy,Trustworthy","","null","","","","decisionFB","","<div class='trialDiv'><img src='Fruit/lemon.png'><br><font class='baseline'><strong>Lucky Lemons</strong><p>Choose number of points to bet.</font><div class='respPicDiv'><img src='img/responseButtonOffersNo0L1.png' class='respPic'></div></div>","null","3","Lucky Lemons","Fruit/lemon.png","Won","0.2,0.65","12","0.2","22","7","",""
"html-keyboard-response","30","104061","0.0-11.0-3.6","63dafeda84d9a5e684adb6be","bdp_rwlrn","Tue Mar 14 2023 21:44:29 GMT-0400 (Eastern Daylight Time)","378621","Untrustworthy,Trustworthy","","null","","","","feedback","","<div class='respPicDiv'><img src='img/responseButtonOffersNo0_wht.png' class='respPic'></div><div class='trialDiv'><img src='Fruit/lemon.png'><br><font class='baseline'><strong>Lucky Lemons</strong><p><strong><font class='posOutcome'>You WON</font><p>You bet: 1</strong></font> &nbsp; &nbsp; &nbsp; &nbsp; &nbsp; &nbsp;<font class='posOutcome'>you receive: <strong>2</strong></font></div>","null","3","Lucky Lemons","Fruit/lemon.png","Won","0.2,0.65","12","0.2","24","7","",""
"html-keyboard-response","31","105185","0.0-11.0-1.7","63dafeda84d9a5e684adb6be","bdp_rwlrn","Tue Mar 14 2023 21:44:29 GMT-0400 (Eastern Daylight Time)","378621","Untrustworthy,Trustworthy","","1122","","","","decision","","<div class='trialDiv'><img src='Fruit/grapes.png'><br><font class='baseline'><strong>Great Grapes</strong><p>Choose number of points to bet.</font><div class='respPicDiv'><img src='img/responseButtonOffersNo0L.png' class='respPic'></div></div>","5","3","Great Grapes","Fruit/grapes.png","Lost","0.2,0.8","14","0.2","29","8","",""
"html-keyboard-response","32","105445","0.0-11.0-2.7","63dafeda84d9a5e684adb6be","bdp_rwlrn","Tue Mar 14 2023 21:44:29 GMT-0400 (Eastern Daylight Time)","378621","Untrustworthy,Trustworthy","","null","","","","decisionFB","","<div class='trialDiv'><img src='Fruit/grapes.png'><br><font class='baseline'><strong>Great Grapes</strong><p>Choose number of points to bet.</font><div class='respPicDiv'><img src='img/responseButtonOffersNo0L5.png' class='respPic'></div></div>","null","3","Great Grapes","Fruit/grapes.png","Lost","0.2,0.8","14","0.2","24","8","",""
"html-keyboard-response","33","106453","0.0-11.0-3.7","63dafeda84d9a5e684adb6be","bdp_rwlrn","Tue Mar 14 2023 21:44:29 GMT-0400 (Eastern Daylight Time)","378621","Untrustworthy,Trustworthy","","null","","","","feedback","","<div class='respPicDiv'><img src='img/responseButtonOffersNo0_wht.png' class='respPic'></div><div class='trialDiv'><img src='Fruit/grapes.png'><br><font class='baseline'><strong>Great Grapes</strong><p><strong><font class='negOutcome'>You LOST</font><p>You bet: 5</strong></font> &nbsp; &nbsp; &nbsp; &nbsp; &nbsp; &nbsp;<font class='negOutcome'>You receive: <strong>0</strong></font></div>","null","3","Great Grapes","Fruit/grapes.png","Lost","0.2,0.8","14","0.2","24","8","",""
"html-keyboard-response","34","106980","0.0-11.0-1.8","63dafeda84d9a5e684adb6be","bdp_rwlrn","Tue Mar 14 2023 21:44:29 GMT-0400 (Eastern Daylight Time)","378621","Untrustworthy,Trustworthy","","525","","","","decision","","<div class='trialDiv'><img src='Fruit/plums1.png'><br><font class='baseline'><strong>Plum Powerball</strong><p>Choose number of points to bet.</font><div class='respPicDiv'><img src='img/responseButtonOffersNo0L.png' class='respPic'></div></div>","2","3","Plum Powerball","Fruit/plums1.png","Won","0.8,0.35","8","0.8","29","9","",""
"html-keyboard-response","35","107237","0.0-11.0-2.8","63dafeda84d9a5e684adb6be","bdp_rwlrn","Tue Mar 14 2023 21:44:29 GMT-0400 (Eastern Daylight Time)","378621","Untrustworthy,Trustworthy","","null","","","","decisionFB","","<div class='trialDiv'><img src='Fruit/plums1.png'><br><font class='baseline'><strong>Plum Powerball</strong><p>Choose number of points to bet.</font><div class='respPicDiv'><img src='img/responseButtonOffersNo0L2.png' class='respPic'></div></div>","null","3","Plum Powerball","Fruit/plums1.png","Won","0.8,0.35","8","0.8","27","9","",""
"html-keyboard-response","36","108245","0.0-11.0-3.8","63dafeda84d9a5e684adb6be","bdp_rwlrn","Tue Mar 14 2023 21:44:29 GMT-0400 (Eastern Daylight Time)","378621","Untrustworthy,Trustworthy","","null","","","","feedback","","<div class='respPicDiv'><img src='img/responseButtonOffersNo0_wht.png' class='respPic'></div><div class='trialDiv'><img src='Fruit/plums1.png'><br><font class='baseline'><strong>Plum Powerball</strong><p><strong><font class='posOutcome'>You WON</font><p>You bet: 2</strong></font> &nbsp; &nbsp; &nbsp; &nbsp; &nbsp; &nbsp;<font class='posOutcome'>you receive: <strong>4</strong></font></div>","null","3","Plum Powerball","Fruit/plums1.png","Won","0.8,0.35","8","0.8","31","9","",""
"html-keyboard-response","37","108858","0.0-11.0-1.9","63dafeda84d9a5e684adb6be","bdp_rwlrn","Tue Mar 14 2023 21:44:29 GMT-0400 (Eastern Daylight Time)","378621","Untrustworthy,Trustworthy","","612","","","","decision","","<div class='trialDiv'><img src='Fruit/lemon.png'><br><font class='baseline'><strong>Lucky Lemons</strong><p>Choose number of points to bet.</font><div class='respPicDiv'><img src='img/responseButtonOffersNo0L.png' class='respPic'></div></div>","5","4","Lucky Lemons","Fruit/lemon.png","Lost","0.2,0.65","12","0.2","36","10","",""
"html-keyboard-response","38","109118","0.0-11.0-2.9","63dafeda84d9a5e684adb6be","bdp_rwlrn","Tue Mar 14 2023 21:44:29 GMT-0400 (Eastern Daylight Time)","378621","Untrustworthy,Trustworthy","","null","","","","decisionFB","","<div class='trialDiv'><img src='Fruit/lemon.png'><br><font class='baseline'><strong>Lucky Lemons</strong><p>Choose number of points to bet.</font><div class='respPicDiv'><img src='img/responseButtonOffersNo0L5.png' class='respPic'></div></div>","null","4","Lucky Lemons","Fruit/lemon.png","Lost","0.2,0.65","12","0.2","31","10","",""
"html-keyboard-response","39","110125","0.0-11.0-3.9","63dafeda84d9a5e684adb6be","bdp_rwlrn","Tue Mar 14 2023 21:44:29 GMT-0400 (Eastern Daylight Time)","378621","Untrustworthy,Trustworthy","","null","","","","feedback","","<div class='respPicDiv'><img src='img/responseButtonOffersNo0_wht.png' class='respPic'></div><div class='trialDiv'><img src='Fruit/lemon.png'><br><font class='baseline'><strong>Lucky Lemons</strong><p><strong><font class='negOutcome'>You LOST</font><p>You bet: 5</strong></font> &nbsp; &nbsp; &nbsp; &nbsp; &nbsp; &nbsp;<font class='negOutcome'>You receive: <strong>0</strong></font></div>","null","4","Lucky Lemons","Fruit/lemon.png","Lost","0.2,0.65","12","0.2","31","10","",""
"html-keyboard-response","40","110642","0.0-11.0-1.10","63dafeda84d9a5e684adb6be","bdp_rwlrn","Tue Mar 14 2023 21:44:29 GMT-0400 (Eastern Daylight Time)","378621","Untrustworthy,Trustworthy","","516","","","","decision","","<div class='trialDiv'><img src='Fruit/grapes.png'><br><font class='baseline'><strong>Great Grapes</strong><p>Choose number of points to bet.</font><div class='respPicDiv'><img src='img/responseButtonOffersNo0L.png' class='respPic'></div></div>","3","4","Great Grapes","Fruit/grapes.png","Lost","0.2,0.8","14","0.2","36","11","",""
"html-keyboard-response","41","110901","0.0-11.0-2.10","63dafeda84d9a5e684adb6be","bdp_rwlrn","Tue Mar 14 2023 21:44:29 GMT-0400 (Eastern Daylight Time)","378621","Untrustworthy,Trustworthy","","null","","","","decisionFB","","<div class='trialDiv'><img src='Fruit/grapes.png'><br><font class='baseline'><strong>Great Grapes</strong><p>Choose number of points to bet.</font><div class='respPicDiv'><img src='img/responseButtonOffersNo0L3.png' class='respPic'></div></div>","null","4","Great Grapes","Fruit/grapes.png","Lost","0.2,0.8","14","0.2","33","11","",""
"html-keyboard-response","42","111909","0.0-11.0-3.10","63dafeda84d9a5e684adb6be","bdp_rwlrn","Tue Mar 14 2023 21:44:29 GMT-0400 (Eastern Daylight Time)","378621","Untrustworthy,Trustworthy","","null","","","","feedback","","<div class='respPicDiv'><img src='img/responseButtonOffersNo0_wht.png' class='respPic'></div><div class='trialDiv'><img src='Fruit/grapes.png'><br><font class='baseline'><strong>Great Grapes</strong><p><strong><font class='negOutcome'>You LOST</font><p>You bet: 3</strong></font> &nbsp; &nbsp; &nbsp; &nbsp; &nbsp; &nbsp;<font class='negOutcome'>You receive: <strong>0</strong></font></div>","null","4","Great Grapes","Fruit/grapes.png","Lost","0.2,0.8","14","0.2","33","11","",""
"html-keyboard-response","43","112267","0.0-11.0-1.11","63dafeda84d9a5e684adb6be","bdp_rwlrn","Tue Mar 14 2023 21:44:29 GMT-0400 (Eastern Daylight Time)","378621","Untrustworthy,Trustworthy","","357","","","","decision","","<div class='trialDiv'><img src='Fruit/plums1.png'><br><font class='baseline'><strong>Plum Powerball</strong><p>Choose number of points to bet.</font><div class='respPicDiv'><img src='img/responseButtonOffersNo0L.png' class='respPic'></div></div>","5","4","Plum Powerball","Fruit/plums1.png","Won","0.8,0.35","8","0.8","38","12","",""
"html-keyboard-response","44","112525","0.0-11.0-2.11","63dafeda84d9a5e684adb6be","bdp_rwlrn","Tue Mar 14 2023 21:44:29 GMT-0400 (Eastern Daylight Time)","378621","Untrustworthy,Trustworthy","","null","","","","decisionFB","","<div class='trialDiv'><img src='Fruit/plums1.png'><br><font class='baseline'><strong>Plum Powerball</strong><p>Choose number of points to bet.</font><div class='respPicDiv'><img src='img/responseButtonOffersNo0L5.png' class='respPic'></div></div>","null","4","Plum Powerball","Fruit/plums1.png","Won","0.8,0.35","8","0.8","33","12","",""
"html-keyboard-response","45","113533","0.0-11.0-3.11","63dafeda84d9a5e684adb6be","bdp_rwlrn","Tue Mar 14 2023 21:44:29 GMT-0400 (Eastern Daylight Time)","378621","Untrustworthy,Trustworthy","","null","","","","feedback","","<div class='respPicDiv'><img src='img/responseButtonOffersNo0_wht.png' class='respPic'></div><div class='trialDiv'><img src='Fruit/plums1.png'><br><font class='baseline'><strong>Plum Powerball</strong><p><strong><font class='posOutcome'>You WON</font><p>You bet: 5</strong></font> &nbsp; &nbsp; &nbsp; &nbsp; &nbsp; &nbsp;<font class='posOutcome'>you receive: <strong>10</strong></font></div>","null","4","Plum Powerball","Fruit/plums1.png","Won","0.8,0.35","8","0.8","43","12","",""
"html-keyboard-response","46","114059","0.0-11.0-1.12","63dafeda84d9a5e684adb6be","bdp_rwlrn","Tue Mar 14 2023 21:44:29 GMT-0400 (Eastern Daylight Time)","378621","Untrustworthy,Trustworthy","","525","","","","decision","","<div class='trialDiv'><img src='Fruit/lemon.png'><br><font class='baseline'><strong>Lucky Lemons</strong><p>Choose number of points to bet.</font><div class='respPicDiv'><img src='img/responseButtonOffersNo0L.png' class='respPic'></div></div>","1","5","Lucky Lemons","Fruit/lemon.png","Lost","0.2,0.65","12","0.2","48","13","",""
"html-keyboard-response","47","114318","0.0-11.0-2.12","63dafeda84d9a5e684adb6be","bdp_rwlrn","Tue Mar 14 2023 21:44:29 GMT-0400 (Eastern Daylight Time)","378621","Untrustworthy,Trustworthy","","null","","","","decisionFB","","<div class='trialDiv'><img src='Fruit/lemon.png'><br><font class='baseline'><strong>Lucky Lemons</strong><p>Choose number of points to bet.</font><div class='respPicDiv'><img src='img/responseButtonOffersNo0L1.png' class='respPic'></div></div>","null","5","Lucky Lemons","Fruit/lemon.png","Lost","0.2,0.65","12","0.2","47","13","",""
"html-keyboard-response","48","115325","0.0-11.0-3.12","63dafeda84d9a5e684adb6be","bdp_rwlrn","Tue Mar 14 2023 21:44:29 GMT-0400 (Eastern Daylight Time)","378621","Untrustworthy,Trustworthy","","null","","","","feedback","","<div class='respPicDiv'><img src='img/responseButtonOffersNo0_wht.png' class='respPic'></div><div class='trialDiv'><img src='Fruit/lemon.png'><br><font class='baseline'><strong>Lucky Lemons</strong><p><strong><font class='negOutcome'>You LOST</font><p>You bet: 1</strong></font> &nbsp; &nbsp; &nbsp; &nbsp; &nbsp; &nbsp;<font class='negOutcome'>You receive: <strong>0</strong></font></div>","null","5","Lucky Lemons","Fruit/lemon.png","Lost","0.2,0.65","12","0.2","47","13","",""
"html-keyboard-response","49","115830","0.0-11.0-1.13","63dafeda84d9a5e684adb6be","bdp_rwlrn","Tue Mar 14 2023 21:44:29 GMT-0400 (Eastern Daylight Time)","378621","Untrustworthy,Trustworthy","","503","","","","decision","","<div class='trialDiv'><img src='Fruit/grapes.png'><br><font class='baseline'><strong>Great Grapes</strong><p>Choose number of points to bet.</font><div class='respPicDiv'><img src='img/responseButtonOffersNo0L.png' class='respPic'></div></div>","5","5","Great Grapes","Fruit/grapes.png","Won","0.2,0.8","14","0.2","52","14","",""
"html-keyboard-response","50","116085","0.0-11.0-2.13","63dafeda84d9a5e684adb6be","bdp_rwlrn","Tue Mar 14 2023 21:44:29 GMT-0400 (Eastern Daylight Time)","378621","Untrustworthy,Trustworthy","","null","","","","decisionFB","","<div class='trialDiv'><img src='Fruit/grapes.png'><br><font class='baseline'><strong>Great Grapes</strong><p>Choose number of points to bet.</font><div class='respPicDiv'><img src='img/responseButtonOffersNo0L5.png' class='respPic'></div></div>","null","5","Great Grapes","Fruit/grapes.png","Won","0.2,0.8","14","0.2","47","14","",""
"html-keyboard-response","51","117093","0.0-11.0-3.13","63dafeda84d9a5e684adb6be","bdp_rwlrn","Tue Mar 14 2023 21:44:29 GMT-0400 (Eastern Daylight Time)","378621","Untrustworthy,Trustworthy","","null","","","","feedback","","<div class='respPicDiv'><img src='img/responseButtonOffersNo0_wht.png' class='respPic'></div><div class='trialDiv'><img src='Fruit/grapes.png'><br><font class='baseline'><strong>Great Grapes</strong><p><strong><font class='posOutcome'>You WON</font><p>You bet: 5</strong></font> &nbsp; &nbsp; &nbsp; &nbsp; &nbsp; &nbsp;<font class='posOutcome'>you receive: <strong>10</strong></font></div>","null","5","Great Grapes","Fruit/grapes.png","Won","0.2,0.8","14","0.2","57","14","",""
"html-keyboard-response","52","117705","0.0-11.0-1.14","63dafeda84d9a5e684adb6be","bdp_rwlrn","Tue Mar 14 2023 21:44:29 GMT-0400 (Eastern Daylight Time)","378621","Untrustworthy,Trustworthy","","609","","","","decision","","<div class='trialDiv'><img src='Fruit/plums1.png'><br><font class='baseline'><strong>Plum Powerball</strong><p>Choose number of points to bet.</font><div class='respPicDiv'><img src='img/responseButtonOffersNo0L.png' class='respPic'></div></div>","3","5","Plum Powerball","Fruit/plums1.png","Lost","0.8,0.35","8","0.8","62","15","",""
"html-keyboard-response","53","117958","0.0-11.0-2.14","63dafeda84d9a5e684adb6be","bdp_rwlrn","Tue Mar 14 2023 21:44:29 GMT-0400 (Eastern Daylight Time)","378621","Untrustworthy,Trustworthy","","null","","","","decisionFB","","<div class='trialDiv'><img src='Fruit/plums1.png'><br><font class='baseline'><strong>Plum Powerball</strong><p>Choose number of points to bet.</font><div class='respPicDiv'><img src='img/responseButtonOffersNo0L3.png' class='respPic'></div></div>","null","5","Plum Powerball","Fruit/plums1.png","Lost","0.8,0.35","8","0.8","59","15","",""
"html-keyboard-response","54","118965","0.0-11.0-3.14","63dafeda84d9a5e684adb6be","bdp_rwlrn","Tue Mar 14 2023 21:44:29 GMT-0400 (Eastern Daylight Time)","378621","Untrustworthy,Trustworthy","","null","","","","feedback","","<div class='respPicDiv'><img src='img/responseButtonOffersNo0_wht.png' class='respPic'></div><div class='trialDiv'><img src='Fruit/plums1.png'><br><font class='baseline'><strong>Plum Powerball</strong><p><strong><font class='negOutcome'>You LOST</font><p>You bet: 3</strong></font> &nbsp; &nbsp; &nbsp; &nbsp; &nbsp; &nbsp;<font class='negOutcome'>You receive: <strong>0</strong></font></div>","null","5","Plum Powerball","Fruit/plums1.png","Lost","0.8,0.35","8","0.8","59","15","",""
"html-keyboard-response","55","119495","0.0-11.0-1.15","63dafeda84d9a5e684adb6be","bdp_rwlrn","Tue Mar 14 2023 21:44:29 GMT-0400 (Eastern Daylight Time)","378621","Untrustworthy,Trustworthy","","529","","","","decision","","<div class='trialDiv'><img src='Fruit/grapes.png'><br><font class='baseline'><strong>Great Grapes</strong><p>Choose number of points to bet.</font><div class='respPicDiv'><img src='img/responseButtonOffersNo0L.png' class='respPic'></div></div>","5","6","Great Grapes","Fruit/grapes.png","Lost","0.2,0.8","14","0.2","64","16","",""
"html-keyboard-response","56","119749","0.0-11.0-2.15","63dafeda84d9a5e684adb6be","bdp_rwlrn","Tue Mar 14 2023 21:44:29 GMT-0400 (Eastern Daylight Time)","378621","Untrustworthy,Trustworthy","","null","","","","decisionFB","","<div class='trialDiv'><img src='Fruit/grapes.png'><br><font class='baseline'><strong>Great Grapes</strong><p>Choose number of points to bet.</font><div class='respPicDiv'><img src='img/responseButtonOffersNo0L5.png' class='respPic'></div></div>","null","6","Great Grapes","Fruit/grapes.png","Lost","0.2,0.8","14","0.2","59","16","",""
"html-keyboard-response","57","120757","0.0-11.0-3.15","63dafeda84d9a5e684adb6be","bdp_rwlrn","Tue Mar 14 2023 21:44:29 GMT-0400 (Eastern Daylight Time)","378621","Untrustworthy,Trustworthy","","null","","","","feedback","","<div class='respPicDiv'><img src='img/responseButtonOffersNo0_wht.png' class='respPic'></div><div class='trialDiv'><img src='Fruit/grapes.png'><br><font class='baseline'><strong>Great Grapes</strong><p><strong><font class='negOutcome'>You LOST</font><p>You bet: 5</strong></font> &nbsp; &nbsp; &nbsp; &nbsp; &nbsp; &nbsp;<font class='negOutcome'>You receive: <strong>0</strong></font></div>","null","6","Great Grapes","Fruit/grapes.png","Lost","0.2,0.8","14","0.2","59","16","",""
"html-keyboard-response","58","121345","0.0-11.0-1.16","63dafeda84d9a5e684adb6be","bdp_rwlrn","Tue Mar 14 2023 21:44:29 GMT-0400 (Eastern Daylight Time)","378621","Untrustworthy,Trustworthy","","587","","","","decision","","<div class='trialDiv'><img src='Fruit/lemon.png'><br><font class='baseline'><strong>Lucky Lemons</strong><p>Choose number of points to bet.</font><div class='respPicDiv'><img src='img/responseButtonOffersNo0L.png' class='respPic'></div></div>","3","6","Lucky Lemons","Fruit/lemon.png","Lost","0.2,0.65","12","0.2","64","17","",""
"html-keyboard-response","59","121597","0.0-11.0-2.16","63dafeda84d9a5e684adb6be","bdp_rwlrn","Tue Mar 14 2023 21:44:29 GMT-0400 (Eastern Daylight Time)","378621","Untrustworthy,Trustworthy","","null","","","","decisionFB","","<div class='trialDiv'><img src='Fruit/lemon.png'><br><font class='baseline'><strong>Lucky Lemons</strong><p>Choose number of points to bet.</font><div class='respPicDiv'><img src='img/responseButtonOffersNo0L3.png' class='respPic'></div></div>","null","6","Lucky Lemons","Fruit/lemon.png","Lost","0.2,0.65","12","0.2","61","17","",""
"html-keyboard-response","60","122605","0.0-11.0-3.16","63dafeda84d9a5e684adb6be","bdp_rwlrn","Tue Mar 14 2023 21:44:29 GMT-0400 (Eastern Daylight Time)","378621","Untrustworthy,Trustworthy","","null","","","","feedback","","<div class='respPicDiv'><img src='img/responseButtonOffersNo0_wht.png' class='respPic'></div><div class='trialDiv'><img src='Fruit/lemon.png'><br><font class='baseline'><strong>Lucky Lemons</strong><p><strong><font class='negOutcome'>You LOST</font><p>You bet: 3</strong></font> &nbsp; &nbsp; &nbsp; &nbsp; &nbsp; &nbsp;<font class='negOutcome'>You receive: <strong>0</strong></font></div>","null","6","Lucky Lemons","Fruit/lemon.png","Lost","0.2,0.65","12","0.2","61","17","",""
"html-keyboard-response","61","123026","0.0-11.0-1.17","63dafeda84d9a5e684adb6be","bdp_rwlrn","Tue Mar 14 2023 21:44:29 GMT-0400 (Eastern Daylight Time)","378621","Untrustworthy,Trustworthy","","420","","","","decision","","<div class='trialDiv'><img src='Fruit/plums1.png'><br><font class='baseline'><strong>Plum Powerball</strong><p>Choose number of points to bet.</font><div class='respPicDiv'><img src='img/responseButtonOffersNo0L.png' class='respPic'></div></div>","1","6","Plum Powerball","Fruit/plums1.png","Won","0.8,0.35","8","0.8","66","18","",""
"html-keyboard-response","62","123286","0.0-11.0-2.17","63dafeda84d9a5e684adb6be","bdp_rwlrn","Tue Mar 14 2023 21:44:29 GMT-0400 (Eastern Daylight Time)","378621","Untrustworthy,Trustworthy","","null","","","","decisionFB","","<div class='trialDiv'><img src='Fruit/plums1.png'><br><font class='baseline'><strong>Plum Powerball</strong><p>Choose number of points to bet.</font><div class='respPicDiv'><img src='img/responseButtonOffersNo0L1.png' class='respPic'></div></div>","null","6","Plum Powerball","Fruit/plums1.png","Won","0.8,0.35","8","0.8","65","18","",""
"html-keyboard-response","63","124293","0.0-11.0-3.17","63dafeda84d9a5e684adb6be","bdp_rwlrn","Tue Mar 14 2023 21:44:29 GMT-0400 (Eastern Daylight Time)","378621","Untrustworthy,Trustworthy","","null","","","","feedback","","<div class='respPicDiv'><img src='img/responseButtonOffersNo0_wht.png' class='respPic'></div><div class='trialDiv'><img src='Fruit/plums1.png'><br><font class='baseline'><strong>Plum Powerball</strong><p><strong><font class='posOutcome'>You WON</font><p>You bet: 1</strong></font> &nbsp; &nbsp; &nbsp; &nbsp; &nbsp; &nbsp;<font class='posOutcome'>you receive: <strong>2</strong></font></div>","null","6","Plum Powerball","Fruit/plums1.png","Won","0.8,0.35","8","0.8","67","18","",""
"html-keyboard-response","64","124979","0.0-11.0-1.18","63dafeda84d9a5e684adb6be","bdp_rwlrn","Tue Mar 14 2023 21:44:29 GMT-0400 (Eastern Daylight Time)","378621","Untrustworthy,Trustworthy","","685","","","","decision","","<div class='trialDiv'><img src='Fruit/grapes.png'><br><font class='baseline'><strong>Great Grapes</strong><p>Choose number of points to bet.</font><div class='respPicDiv'><img src='img/responseButtonOffersNo0L.png' class='respPic'></div></div>","2","7","Great Grapes","Fruit/grapes.png","Lost","0.2,0.8","14","0.2","72","19","",""
"html-keyboard-response","65","125237","0.0-11.0-2.18","63dafeda84d9a5e684adb6be","bdp_rwlrn","Tue Mar 14 2023 21:44:29 GMT-0400 (Eastern Daylight Time)","378621","Untrustworthy,Trustworthy","","null","","","","decisionFB","","<div class='trialDiv'><img src='Fruit/grapes.png'><br><font class='baseline'><strong>Great Grapes</strong><p>Choose number of points to bet.</font><div class='respPicDiv'><img src='img/responseButtonOffersNo0L2.png' class='respPic'></div></div>","null","7","Great Grapes","Fruit/grapes.png","Lost","0.2,0.8","14","0.2","70","19","",""
"html-keyboard-response","66","126245","0.0-11.0-3.18","63dafeda84d9a5e684adb6be","bdp_rwlrn","Tue Mar 14 2023 21:44:29 GMT-0400 (Eastern Daylight Time)","378621","Untrustworthy,Trustworthy","","null","","","","feedback","","<div class='respPicDiv'><img src='img/responseButtonOffersNo0_wht.png' class='respPic'></div><div class='trialDiv'><img src='Fruit/grapes.png'><br><font class='baseline'><strong>Great Grapes</strong><p><strong><font class='negOutcome'>You LOST</font><p>You bet: 2</strong></font> &nbsp; &nbsp; &nbsp; &nbsp; &nbsp; &nbsp;<font class='negOutcome'>You receive: <strong>0</strong></font></div>","null","7","Great Grapes","Fruit/grapes.png","Lost","0.2,0.8","14","0.2","70","19","",""
"html-keyboard-response","67","126856","0.0-11.0-1.19","63dafeda84d9a5e684adb6be","bdp_rwlrn","Tue Mar 14 2023 21:44:29 GMT-0400 (Eastern Daylight Time)","378621","Untrustworthy,Trustworthy","","609","","","","decision","","<div class='trialDiv'><img src='Fruit/lemon.png'><br><font class='baseline'><strong>Lucky Lemons</strong><p>Choose number of points to bet.</font><div class='respPicDiv'><img src='img/responseButtonOffersNo0L.png' class='respPic'></div></div>","4","7","Lucky Lemons","Fruit/lemon.png","Won","0.2,0.65","12","0.2","75","20","",""
"html-keyboard-response","68","127109","0.0-11.0-2.19","63dafeda84d9a5e684adb6be","bdp_rwlrn","Tue Mar 14 2023 21:44:29 GMT-0400 (Eastern Daylight Time)","378621","Untrustworthy,Trustworthy","","null","","","","decisionFB","","<div class='trialDiv'><img src='Fruit/lemon.png'><br><font class='baseline'><strong>Lucky Lemons</strong><p>Choose number of points to bet.</font><div class='respPicDiv'><img src='img/responseButtonOffersNo0L4.png' class='respPic'></div></div>","null","7","Lucky Lemons","Fruit/lemon.png","Won","0.2,0.65","12","0.2","71","20","",""
"html-keyboard-response","69","128117","0.0-11.0-3.19","63dafeda84d9a5e684adb6be","bdp_rwlrn","Tue Mar 14 2023 21:44:29 GMT-0400 (Eastern Daylight Time)","378621","Untrustworthy,Trustworthy","","null","","","","feedback","","<div class='respPicDiv'><img src='img/responseButtonOffersNo0_wht.png' class='respPic'></div><div class='trialDiv'><img src='Fruit/lemon.png'><br><font class='baseline'><strong>Lucky Lemons</strong><p><strong><font class='posOutcome'>You WON</font><p>You bet: 4</strong></font> &nbsp; &nbsp; &nbsp; &nbsp; &nbsp; &nbsp;<font class='posOutcome'>you receive: <strong>8</strong></font></div>","null","7","Lucky Lemons","Fruit/lemon.png","Won","0.2,0.65","12","0.2","79","20","",""
"html-keyboard-response","70","128768","0.0-11.0-1.20","63dafeda84d9a5e684adb6be","bdp_rwlrn","Tue Mar 14 2023 21:44:29 GMT-0400 (Eastern Daylight Time)","378621","Untrustworthy,Trustworthy","","650","","","","decision","","<div class='trialDiv'><img src='Fruit/plums1.png'><br><font class='baseline'><strong>Plum Powerball</strong><p>Choose number of points to bet.</font><div class='respPicDiv'><img src='img/responseButtonOffersNo0L.png' class='respPic'></div></div>","5","7","Plum Powerball","Fruit/plums1.png","Won","0.8,0.35","8","0.8","84","21","",""
"html-keyboard-response","71","129021","0.0-11.0-2.20","63dafeda84d9a5e684adb6be","bdp_rwlrn","Tue Mar 14 2023 21:44:29 GMT-0400 (Eastern Daylight Time)","378621","Untrustworthy,Trustworthy","","null","","","","decisionFB","","<div class='trialDiv'><img src='Fruit/plums1.png'><br><font class='baseline'><strong>Plum Powerball</strong><p>Choose number of points to bet.</font><div class='respPicDiv'><img src='img/responseButtonOffersNo0L5.png' class='respPic'></div></div>","null","7","Plum Powerball","Fruit/plums1.png","Won","0.8,0.35","8","0.8","79","21","",""
"html-keyboard-response","72","130029","0.0-11.0-3.20","63dafeda84d9a5e684adb6be","bdp_rwlrn","Tue Mar 14 2023 21:44:29 GMT-0400 (Eastern Daylight Time)","378621","Untrustworthy,Trustworthy","","null","","","","feedback","","<div class='respPicDiv'><img src='img/responseButtonOffersNo0_wht.png' class='respPic'></div><div class='trialDiv'><img src='Fruit/plums1.png'><br><font class='baseline'><strong>Plum Powerball</strong><p><strong><font class='posOutcome'>You WON</font><p>You bet: 5</strong></font> &nbsp; &nbsp; &nbsp; &nbsp; &nbsp; &nbsp;<font class='posOutcome'>you receive: <strong>10</strong></font></div>","null","7","Plum Powerball","Fruit/plums1.png","Won","0.8,0.35","8","0.8","89","21","",""
"html-keyboard-response","73","130797","0.0-11.0-1.21","63dafeda84d9a5e684adb6be","bdp_rwlrn","Tue Mar 14 2023 21:44:29 GMT-0400 (Eastern Daylight Time)","378621","Untrustworthy,Trustworthy","","766","","","","decision","","<div class='trialDiv'><img src='Fruit/lemon.png'><br><font class='baseline'><strong>Lucky Lemons</strong><p>Choose number of points to bet.</font><div class='respPicDiv'><img src='img/responseButtonOffersNo0L.png' class='respPic'></div></div>","3","8","Lucky Lemons","Fruit/lemon.png","Won","0.2,0.65","12","0.2","94","22","",""
"html-keyboard-response","74","131053","0.0-11.0-2.21","63dafeda84d9a5e684adb6be","bdp_rwlrn","Tue Mar 14 2023 21:44:29 GMT-0400 (Eastern Daylight Time)","378621","Untrustworthy,Trustworthy","","null","","","","decisionFB","","<div class='trialDiv'><img src='Fruit/lemon.png'><br><font class='baseline'><strong>Lucky Lemons</strong><p>Choose number of points to bet.</font><div class='respPicDiv'><img src='img/responseButtonOffersNo0L3.png' class='respPic'></div></div>","null","8","Lucky Lemons","Fruit/lemon.png","Won","0.2,0.65","12","0.2","91","22","",""
"html-keyboard-response","75","132061","0.0-11.0-3.21","63dafeda84d9a5e684adb6be","bdp_rwlrn","Tue Mar 14 2023 21:44:29 GMT-0400 (Eastern Daylight Time)","378621","Untrustworthy,Trustworthy","","null","","","","feedback","","<div class='respPicDiv'><img src='img/responseButtonOffersNo0_wht.png' class='respPic'></div><div class='trialDiv'><img src='Fruit/lemon.png'><br><font class='baseline'><strong>Lucky Lemons</strong><p><strong><font class='posOutcome'>You WON</font><p>You bet: 3</strong></font> &nbsp; &nbsp; &nbsp; &nbsp; &nbsp; &nbsp;<font class='posOutcome'>you receive: <strong>6</strong></font></div>","null","8","Lucky Lemons","Fruit/lemon.png","Won","0.2,0.65","12","0.2","97","22","",""
"html-keyboard-response","76","133006","0.0-11.0-1.22","63dafeda84d9a5e684adb6be","bdp_rwlrn","Tue Mar 14 2023 21:44:29 GMT-0400 (Eastern Daylight Time)","378621","Untrustworthy,Trustworthy","","943","","","","decision","","<div class='trialDiv'><img src='Fruit/grapes.png'><br><font class='baseline'><strong>Great Grapes</strong><p>Choose number of points to bet.</font><div class='respPicDiv'><img src='img/responseButtonOffersNo0L.png' class='respPic'></div></div>","5","8","Great Grapes","Fruit/grapes.png","Lost","0.2,0.8","14","0.2","102","23","",""
"html-keyboard-response","77","133261","0.0-11.0-2.22","63dafeda84d9a5e684adb6be","bdp_rwlrn","Tue Mar 14 2023 21:44:29 GMT-0400 (Eastern Daylight Time)","378621","Untrustworthy,Trustworthy","","null","","","","decisionFB","","<div class='trialDiv'><img src='Fruit/grapes.png'><br><font class='baseline'><strong>Great Grapes</strong><p>Choose number of points to bet.</font><div class='respPicDiv'><img src='img/responseButtonOffersNo0L5.png' class='respPic'></div></div>","null","8","Great Grapes","Fruit/grapes.png","Lost","0.2,0.8","14","0.2","97","23","",""
"html-keyboard-response","78","134269","0.0-11.0-3.22","63dafeda84d9a5e684adb6be","bdp_rwlrn","Tue Mar 14 2023 21:44:29 GMT-0400 (Eastern Daylight Time)","378621","Untrustworthy,Trustworthy","","null","","","","feedback","","<div class='respPicDiv'><img src='img/responseButtonOffersNo0_wht.png' class='respPic'></div><div class='trialDiv'><img src='Fruit/grapes.png'><br><font class='baseline'><strong>Great Grapes</strong><p><strong><font class='negOutcome'>You LOST</font><p>You bet: 5</strong></font> &nbsp; &nbsp; &nbsp; &nbsp; &nbsp; &nbsp;<font class='negOutcome'>You receive: <strong>0</strong></font></div>","null","8","Great Grapes","Fruit/grapes.png","Lost","0.2,0.8","14","0.2","97","23","",""
"html-keyboard-response","79","134772","0.0-11.0-1.23","63dafeda84d9a5e684adb6be","bdp_rwlrn","Tue Mar 14 2023 21:44:29 GMT-0400 (Eastern Daylight Time)","378621","Untrustworthy,Trustworthy","","502","","","","decision","","<div class='trialDiv'><img src='Fruit/plums1.png'><br><font class='baseline'><strong>Plum Powerball</strong><p>Choose number of points to bet.</font><div class='respPicDiv'><img src='img/responseButtonOffersNo0L.png' class='respPic'></div></div>","2","8","Plum Powerball","Fruit/plums1.png","Lost","0.8,0.35","8","0.8","102","24","",""
"html-keyboard-response","80","135029","0.0-11.0-2.23","63dafeda84d9a5e684adb6be","bdp_rwlrn","Tue Mar 14 2023 21:44:29 GMT-0400 (Eastern Daylight Time)","378621","Untrustworthy,Trustworthy","","null","","","","decisionFB","","<div class='trialDiv'><img src='Fruit/plums1.png'><br><font class='baseline'><strong>Plum Powerball</strong><p>Choose number of points to bet.</font><div class='respPicDiv'><img src='img/responseButtonOffersNo0L2.png' class='respPic'></div></div>","null","8","Plum Powerball","Fruit/plums1.png","Lost","0.8,0.35","8","0.8","100","24","",""
"html-keyboard-response","81","136037","0.0-11.0-3.23","63dafeda84d9a5e684adb6be","bdp_rwlrn","Tue Mar 14 2023 21:44:29 GMT-0400 (Eastern Daylight Time)","378621","Untrustworthy,Trustworthy","","null","","","","feedback","","<div class='respPicDiv'><img src='img/responseButtonOffersNo0_wht.png' class='respPic'></div><div class='trialDiv'><img src='Fruit/plums1.png'><br><font class='baseline'><strong>Plum Powerball</strong><p><strong><font class='negOutcome'>You LOST</font><p>You bet: 2</strong></font> &nbsp; &nbsp; &nbsp; &nbsp; &nbsp; &nbsp;<font class='negOutcome'>You receive: <strong>0</strong></font></div>","null","8","Plum Powerball","Fruit/plums1.png","Lost","0.8,0.35","8","0.8","100","24","",""
"html-keyboard-response","82","136893","0.0-11.0-1.24","63dafeda84d9a5e684adb6be","bdp_rwlrn","Tue Mar 14 2023 21:44:29 GMT-0400 (Eastern Daylight Time)","378621","Untrustworthy,Trustworthy","","854","","","","decision","","<div class='trialDiv'><img src='Fruit/grapes.png'><br><font class='baseline'><strong>Great Grapes</strong><p>Choose number of points to bet.</font><div class='respPicDiv'><img src='img/responseButtonOffersNo0L.png' class='respPic'></div></div>","3","9","Great Grapes","Fruit/grapes.png","Won","0.2,0.8","14","0.2","105","25","",""
"html-keyboard-response","83","137149","0.0-11.0-2.24","63dafeda84d9a5e684adb6be","bdp_rwlrn","Tue Mar 14 2023 21:44:29 GMT-0400 (Eastern Daylight Time)","378621","Untrustworthy,Trustworthy","","null","","","","decisionFB","","<div class='trialDiv'><img src='Fruit/grapes.png'><br><font class='baseline'><strong>Great Grapes</strong><p>Choose number of points to bet.</font><div class='respPicDiv'><img src='img/responseButtonOffersNo0L3.png' class='respPic'></div></div>","null","9","Great Grapes","Fruit/grapes.png","Won","0.2,0.8","14","0.2","102","25","",""
"html-keyboard-response","84","138157","0.0-11.0-3.24","63dafeda84d9a5e684adb6be","bdp_rwlrn","Tue Mar 14 2023 21:44:29 GMT-0400 (Eastern Daylight Time)","378621","Untrustworthy,Trustworthy","","null","","","","feedback","","<div class='respPicDiv'><img src='img/responseButtonOffersNo0_wht.png' class='respPic'></div><div class='trialDiv'><img src='Fruit/grapes.png'><br><font class='baseline'><strong>Great Grapes</strong><p><strong><font class='posOutcome'>You WON</font><p>You bet: 3</strong></font> &nbsp; &nbsp; &nbsp; &nbsp; &nbsp; &nbsp;<font class='posOutcome'>you receive: <strong>6</strong></font></div>","null","9","Great Grapes","Fruit/grapes.png","Won","0.2,0.8","14","0.2","108","25","",""
"html-keyboard-response","85","138966","0.0-11.0-1.25","63dafeda84d9a5e684adb6be","bdp_rwlrn","Tue Mar 14 2023 21:44:29 GMT-0400 (Eastern Daylight Time)","378621","Untrustworthy,Trustworthy","","808","","","","decision","","<div class='trialDiv'><img src='Fruit/lemon.png'><br><font class='baseline'><strong>Lucky Lemons</strong><p>Choose number of points to bet.</font><div class='respPicDiv'><img src='img/responseButtonOffersNo0L.png' class='respPic'></div></div>","5","9","Lucky Lemons","Fruit/lemon.png","Lost","0.2,0.65","12","0.2","113","26","",""
"html-keyboard-response","86","139221","0.0-11.0-2.25","63dafeda84d9a5e684adb6be","bdp_rwlrn","Tue Mar 14 2023 21:44:29 GMT-0400 (Eastern Daylight Time)","378621","Untrustworthy,Trustworthy","","null","","","","decisionFB","","<div class='trialDiv'><img src='Fruit/lemon.png'><br><font class='baseline'><strong>Lucky Lemons</strong><p>Choose number of points to bet.</font><div class='respPicDiv'><img src='img/responseButtonOffersNo0L5.png' class='respPic'></div></div>","null","9","Lucky Lemons","Fruit/lemon.png","Lost","0.2,0.65","12","0.2","108","26","",""
"html-keyboard-response","87","140229","0.0-11.0-3.25","63dafeda84d9a5e684adb6be","bdp_rwlrn","Tue Mar 14 2023 21:44:29 GMT-0400 (Eastern Daylight Time)","378621","Untrustworthy,Trustworthy","","null","","","","feedback","","<div class='respPicDiv'><img src='img/responseButtonOffersNo0_wht.png' class='respPic'></div><div class='trialDiv'><img src='Fruit/lemon.png'><br><font class='baseline'><strong>Lucky Lemons</strong><p><strong><font class='negOutcome'>You LOST</font><p>You bet: 5</strong></font> &nbsp; &nbsp; &nbsp; &nbsp; &nbsp; &nbsp;<font class='negOutcome'>You receive: <strong>0</strong></font></div>","null","9","Lucky Lemons","Fruit/lemon.png","Lost","0.2,0.65","12","0.2","108","26","",""
"html-keyboard-response","88","140695","0.0-11.0-1.26","63dafeda84d9a5e684adb6be","bdp_rwlrn","Tue Mar 14 2023 21:44:29 GMT-0400 (Eastern Daylight Time)","378621","Untrustworthy,Trustworthy","","465","","","","decision","","<div class='trialDiv'><img src='Fruit/plums1.png'><br><font class='baseline'><strong>Plum Powerball</strong><p>Choose number of points to bet.</font><div class='respPicDiv'><img src='img/responseButtonOffersNo0L.png' class='respPic'></div></div>","1","9","Plum Powerball","Fruit/plums1.png","Lost","0.8,0.35","8","0.8","113","27","",""
"html-keyboard-response","89","140949","0.0-11.0-2.26","63dafeda84d9a5e684adb6be","bdp_rwlrn","Tue Mar 14 2023 21:44:29 GMT-0400 (Eastern Daylight Time)","378621","Untrustworthy,Trustworthy","","null","","","","decisionFB","","<div class='trialDiv'><img src='Fruit/plums1.png'><br><font class='baseline'><strong>Plum Powerball</strong><p>Choose number of points to bet.</font><div class='respPicDiv'><img src='img/responseButtonOffersNo0L1.png' class='respPic'></div></div>","null","9","Plum Powerball","Fruit/plums1.png","Lost","0.8,0.35","8","0.8","112","27","",""
"html-keyboard-response","90","141957","0.0-11.0-3.26","63dafeda84d9a5e684adb6be","bdp_rwlrn","Tue Mar 14 2023 21:44:29 GMT-0400 (Eastern Daylight Time)","378621","Untrustworthy,Trustworthy","","null","","","","feedback","","<div class='respPicDiv'><img src='img/responseButtonOffersNo0_wht.png' class='respPic'></div><div class='trialDiv'><img src='Fruit/plums1.png'><br><font class='baseline'><strong>Plum Powerball</strong><p><strong><font class='negOutcome'>You LOST</font><p>You bet: 1</strong></font> &nbsp; &nbsp; &nbsp; &nbsp; &nbsp; &nbsp;<font class='negOutcome'>You receive: <strong>0</strong></font></div>","null","9","Plum Powerball","Fruit/plums1.png","Lost","0.8,0.35","8","0.8","112","27","",""
"html-keyboard-response","91","142623","0.0-11.0-1.27","63dafeda84d9a5e684adb6be","bdp_rwlrn","Tue Mar 14 2023 21:44:29 GMT-0400 (Eastern Daylight Time)","378621","Untrustworthy,Trustworthy","","665","","","","decision","","<div class='trialDiv'><img src='Fruit/lemon.png'><br><font class='baseline'><strong>Lucky Lemons</strong><p>Choose number of points to bet.</font><div class='respPicDiv'><img src='img/responseButtonOffersNo0L.png' class='respPic'></div></div>","3","10","Lucky Lemons","Fruit/lemon.png","Lost","0.2,0.65","12","0.2","117","28","",""
"html-keyboard-response","92","142877","0.0-11.0-2.27","63dafeda84d9a5e684adb6be","bdp_rwlrn","Tue Mar 14 2023 21:44:29 GMT-0400 (Eastern Daylight Time)","378621","Untrustworthy,Trustworthy","","null","","","","decisionFB","","<div class='trialDiv'><img src='Fruit/lemon.png'><br><font class='baseline'><strong>Lucky Lemons</strong><p>Choose number of points to bet.</font><div class='respPicDiv'><img src='img/responseButtonOffersNo0L3.png' class='respPic'></div></div>","null","10","Lucky Lemons","Fruit/lemon.png","Lost","0.2,0.65","12","0.2","114","28","",""
"html-keyboard-response","93","143885","0.0-11.0-3.27","63dafeda84d9a5e684adb6be","bdp_rwlrn","Tue Mar 14 2023 21:44:29 GMT-0400 (Eastern Daylight Time)","378621","Untrustworthy,Trustworthy","","null","","","","feedback","","<div class='respPicDiv'><img src='img/responseButtonOffersNo0_wht.png' class='respPic'></div><div class='trialDiv'><img src='Fruit/lemon.png'><br><font class='baseline'><strong>Lucky Lemons</strong><p><strong><font class='negOutcome'>You LOST</font><p>You bet: 3</strong></font> &nbsp; &nbsp; &nbsp; &nbsp; &nbsp; &nbsp;<font class='negOutcome'>You receive: <strong>0</strong></font></div>","null","10","Lucky Lemons","Fruit/lemon.png","Lost","0.2,0.65","12","0.2","114","28","",""
"html-keyboard-response","94","144435","0.0-11.0-1.28","63dafeda84d9a5e684adb6be","bdp_rwlrn","Tue Mar 14 2023 21:44:29 GMT-0400 (Eastern Daylight Time)","378621","Untrustworthy,Trustworthy","","549","","","","decision","","<div class='trialDiv'><img src='Fruit/grapes.png'><br><font class='baseline'><strong>Great Grapes</strong><p>Choose number of points to bet.</font><div class='respPicDiv'><img src='img/responseButtonOffersNo0L.png' class='respPic'></div></div>","2","10","Great Grapes","Fruit/grapes.png","Lost","0.2,0.8","14","0.2","119","29","",""
"html-keyboard-response","95","144693","0.0-11.0-2.28","63dafeda84d9a5e684adb6be","bdp_rwlrn","Tue Mar 14 2023 21:44:29 GMT-0400 (Eastern Daylight Time)","378621","Untrustworthy,Trustworthy","","null","","","","decisionFB","","<div class='trialDiv'><img src='Fruit/grapes.png'><br><font class='baseline'><strong>Great Grapes</strong><p>Choose number of points to bet.</font><div class='respPicDiv'><img src='img/responseButtonOffersNo0L2.png' class='respPic'></div></div>","null","10","Great Grapes","Fruit/grapes.png","Lost","0.2,0.8","14","0.2","117","29","",""
"html-keyboard-response","96","145701","0.0-11.0-3.28","63dafeda84d9a5e684adb6be","bdp_rwlrn","Tue Mar 14 2023 21:44:29 GMT-0400 (Eastern Daylight Time)","378621","Untrustworthy,Trustworthy","","null","","","","feedback","","<div class='respPicDiv'><img src='img/responseButtonOffersNo0_wht.png' class='respPic'></div><div class='trialDiv'><img src='Fruit/grapes.png'><br><font class='baseline'><strong>Great Grapes</strong><p><strong><font class='negOutcome'>You LOST</font><p>You bet: 2</strong></font> &nbsp; &nbsp; &nbsp; &nbsp; &nbsp; &nbsp;<font class='negOutcome'>You receive: <strong>0</strong></font></div>","null","10","Great Grapes","Fruit/grapes.png","Lost","0.2,0.8","14","0.2","117","29","",""
"html-keyboard-response","97","146220","0.0-11.0-1.29","63dafeda84d9a5e684adb6be","bdp_rwlrn","Tue Mar 14 2023 21:44:29 GMT-0400 (Eastern Daylight Time)","378621","Untrustworthy,Trustworthy","","518","","","","decision","","<div class='trialDiv'><img src='Fruit/plums1.png'><br><font class='baseline'><strong>Plum Powerball</strong><p>Choose number of points to bet.</font><div class='respPicDiv'><img src='img/responseButtonOffersNo0L.png' class='respPic'></div></div>","4","10","Plum Powerball","Fruit/plums1.png","Lost","0.8,0.35","8","0.8","122","30","",""
"html-keyboard-response","98","146477","0.0-11.0-2.29","63dafeda84d9a5e684adb6be","bdp_rwlrn","Tue Mar 14 2023 21:44:29 GMT-0400 (Eastern Daylight Time)","378621","Untrustworthy,Trustworthy","","null","","","","decisionFB","","<div class='trialDiv'><img src='Fruit/plums1.png'><br><font class='baseline'><strong>Plum Powerball</strong><p>Choose number of points to bet.</font><div class='respPicDiv'><img src='img/responseButtonOffersNo0L4.png' class='respPic'></div></div>","null","10","Plum Powerball","Fruit/plums1.png","Lost","0.8,0.35","8","0.8","118","30","",""
"html-keyboard-response","99","147485","0.0-11.0-3.29","63dafeda84d9a5e684adb6be","bdp_rwlrn","Tue Mar 14 2023 21:44:29 GMT-0400 (Eastern Daylight Time)","378621","Untrustworthy,Trustworthy","","null","","","","feedback","","<div class='respPicDiv'><img src='img/responseButtonOffersNo0_wht.png' class='respPic'></div><div class='trialDiv'><img src='Fruit/plums1.png'><br><font class='baseline'><strong>Plum Powerball</strong><p><strong><font class='negOutcome'>You LOST</font><p>You bet: 4</strong></font> &nbsp; &nbsp; &nbsp; &nbsp; &nbsp; &nbsp;<font class='negOutcome'>You receive: <strong>0</strong></font></div>","null","10","Plum Powerball","Fruit/plums1.png","Lost","0.8,0.35","8","0.8","118","30","",""
"html-keyboard-response","100","148028","0.0-11.0-1.30","63dafeda84d9a5e684adb6be","bdp_rwlrn","Tue Mar 14 2023 21:44:29 GMT-0400 (Eastern Daylight Time)","378621","Untrustworthy,Trustworthy","","541","","","","decision","","<div class='trialDiv'><img src='Fruit/lemon.png'><br><font class='baseline'><strong>Lucky Lemons</strong><p>Choose number of points to bet.</font><div class='respPicDiv'><img src='img/responseButtonOffersNo0L.png' class='respPic'></div></div>","1","11","Lucky Lemons","Fruit/lemon.png","Lost","0.2,0.65","12","0.2","123","31","",""
"html-keyboard-response","101","148285","0.0-11.0-2.30","63dafeda84d9a5e684adb6be","bdp_rwlrn","Tue Mar 14 2023 21:44:29 GMT-0400 (Eastern Daylight Time)","378621","Untrustworthy,Trustworthy","","null","","","","decisionFB","","<div class='trialDiv'><img src='Fruit/lemon.png'><br><font class='baseline'><strong>Lucky Lemons</strong><p>Choose number of points to bet.</font><div class='respPicDiv'><img src='img/responseButtonOffersNo0L1.png' class='respPic'></div></div>","null","11","Lucky Lemons","Fruit/lemon.png","Lost","0.2,0.65","12","0.2","122","31","",""
"html-keyboard-response","102","149293","0.0-11.0-3.30","63dafeda84d9a5e684adb6be","bdp_rwlrn","Tue Mar 14 2023 21:44:29 GMT-0400 (Eastern Daylight Time)","378621","Untrustworthy,Trustworthy","","null","","","","feedback","","<div class='respPicDiv'><img src='img/responseButtonOffersNo0_wht.png' class='respPic'></div><div class='trialDiv'><img src='Fruit/lemon.png'><br><font class='baseline'><strong>Lucky Lemons</strong><p><strong><font class='negOutcome'>You LOST</font><p>You bet: 1</strong></font> &nbsp; &nbsp; &nbsp; &nbsp; &nbsp; &nbsp;<font class='negOutcome'>You receive: <strong>0</strong></font></div>","null","11","Lucky Lemons","Fruit/lemon.png","Lost","0.2,0.65","12","0.2","122","31","",""
"html-keyboard-response","103","149710","0.0-11.0-1.31","63dafeda84d9a5e684adb6be","bdp_rwlrn","Tue Mar 14 2023 21:44:29 GMT-0400 (Eastern Daylight Time)","378621","Untrustworthy,Trustworthy","","416","","","","decision","","<div class='trialDiv'><img src='Fruit/grapes.png'><br><font class='baseline'><strong>Great Grapes</strong><p>Choose number of points to bet.</font><div class='respPicDiv'><img src='img/responseButtonOffersNo0L.png' class='respPic'></div></div>","5","11","Great Grapes","Fruit/grapes.png","Lost","0.2,0.8","14","0.2","127","32","",""
"html-keyboard-response","104","149965","0.0-11.0-2.31","63dafeda84d9a5e684adb6be","bdp_rwlrn","Tue Mar 14 2023 21:44:29 GMT-0400 (Eastern Daylight Time)","378621","Untrustworthy,Trustworthy","","null","","","","decisionFB","","<div class='trialDiv'><img src='Fruit/grapes.png'><br><font class='baseline'><strong>Great Grapes</strong><p>Choose number of points to bet.</font><div class='respPicDiv'><img src='img/responseButtonOffersNo0L5.png' class='respPic'></div></div>","null","11","Great Grapes","Fruit/grapes.png","Lost","0.2,0.8","14","0.2","122","32","",""
"html-keyboard-response","105","150973","0.0-11.0-3.31","63dafeda84d9a5e684adb6be","bdp_rwlrn","Tue Mar 14 2023 21:44:29 GMT-0400 (Eastern Daylight Time)","378621","Untrustworthy,Trustworthy","","null","","","","feedback","","<div class='respPicDiv'><img src='img/responseButtonOffersNo0_wht.png' class='respPic'></div><div class='trialDiv'><img src='Fruit/grapes.png'><br><font class='baseline'><strong>Great Grapes</strong><p><strong><font class='negOutcome'>You LOST</font><p>You bet: 5</strong></font> &nbsp; &nbsp; &nbsp; &nbsp; &nbsp; &nbsp;<font class='negOutcome'>You receive: <strong>0</strong></font></div>","null","11","Great Grapes","Fruit/grapes.png","Lost","0.2,0.8","14","0.2","122","32","",""
"html-keyboard-response","106","151385","0.0-11.0-1.32","63dafeda84d9a5e684adb6be","bdp_rwlrn","Tue Mar 14 2023 21:44:29 GMT-0400 (Eastern Daylight Time)","378621","Untrustworthy,Trustworthy","","411","","","","decision","","<div class='trialDiv'><img src='Fruit/plums1.png'><br><font class='baseline'><strong>Plum Powerball</strong><p>Choose number of points to bet.</font><div class='respPicDiv'><img src='img/responseButtonOffersNo0L.png' class='respPic'></div></div>","2","11","Plum Powerball","Fruit/plums1.png","Lost","0.8,0.35","8","0.8","127","33","",""
"html-keyboard-response","107","151637","0.0-11.0-2.32","63dafeda84d9a5e684adb6be","bdp_rwlrn","Tue Mar 14 2023 21:44:29 GMT-0400 (Eastern Daylight Time)","378621","Untrustworthy,Trustworthy","","null","","","","decisionFB","","<div class='trialDiv'><img src='Fruit/plums1.png'><br><font class='baseline'><strong>Plum Powerball</strong><p>Choose number of points to bet.</font><div class='respPicDiv'><img src='img/responseButtonOffersNo0L2.png' class='respPic'></div></div>","null","11","Plum Powerball","Fruit/plums1.png","Lost","0.8,0.35","8","0.8","125","33","",""
"html-keyboard-response","108","152645","0.0-11.0-3.32","63dafeda84d9a5e684adb6be","bdp_rwlrn","Tue Mar 14 2023 21:44:29 GMT-0400 (Eastern Daylight Time)","378621","Untrustworthy,Trustworthy","","null","","","","feedback","","<div class='respPicDiv'><img src='img/responseButtonOffersNo0_wht.png' class='respPic'></div><div class='trialDiv'><img src='Fruit/plums1.png'><br><font class='baseline'><strong>Plum Powerball</strong><p><strong><font class='negOutcome'>You LOST</font><p>You bet: 2</strong></font> &nbsp; &nbsp; &nbsp; &nbsp; &nbsp; &nbsp;<font class='negOutcome'>You receive: <strong>0</strong></font></div>","null","11","Plum Powerball","Fruit/plums1.png","Lost","0.8,0.35","8","0.8","125","33","",""
"html-keyboard-response","109","153130","0.0-11.0-1.33","63dafeda84d9a5e684adb6be","bdp_rwlrn","Tue Mar 14 2023 21:44:29 GMT-0400 (Eastern Daylight Time)","378621","Untrustworthy,Trustworthy","","484","","","","decision","","<div class='trialDiv'><img src='Fruit/lemon.png'><br><font class='baseline'><strong>Lucky Lemons</strong><p>Choose number of points to bet.</font><div class='respPicDiv'><img src='img/responseButtonOffersNo0L.png' class='respPic'></div></div>","4","12","Lucky Lemons","Fruit/lemon.png","Won","0.2,0.65","12","0.2","130","34","",""
"html-keyboard-response","110","153389","0.0-11.0-2.33","63dafeda84d9a5e684adb6be","bdp_rwlrn","Tue Mar 14 2023 21:44:29 GMT-0400 (Eastern Daylight Time)","378621","Untrustworthy,Trustworthy","","null","","","","decisionFB","","<div class='trialDiv'><img src='Fruit/lemon.png'><br><font class='baseline'><strong>Lucky Lemons</strong><p>Choose number of points to bet.</font><div class='respPicDiv'><img src='img/responseButtonOffersNo0L4.png' class='respPic'></div></div>","null","12","Lucky Lemons","Fruit/lemon.png","Won","0.2,0.65","12","0.2","126","34","",""
"html-keyboard-response","111","154397","0.0-11.0-3.33","63dafeda84d9a5e684adb6be","bdp_rwlrn","Tue Mar 14 2023 21:44:29 GMT-0400 (Eastern Daylight Time)","378621","Untrustworthy,Trustworthy","","null","","","","feedback","","<div class='respPicDiv'><img src='img/responseButtonOffersNo0_wht.png' class='respPic'></div><div class='trialDiv'><img src='Fruit/lemon.png'><br><font class='baseline'><strong>Lucky Lemons</strong><p><strong><font class='posOutcome'>You WON</font><p>You bet: 4</strong></font> &nbsp; &nbsp; &nbsp; &nbsp; &nbsp; &nbsp;<font class='posOutcome'>you receive: <strong>8</strong></font></div>","null","12","Lucky Lemons","Fruit/lemon.png","Won","0.2,0.65","12","0.2","134","34","",""
"html-keyboard-response","112","154918","0.0-11.0-1.34","63dafeda84d9a5e684adb6be","bdp_rwlrn","Tue Mar 14 2023 21:44:29 GMT-0400 (Eastern Daylight Time)","378621","Untrustworthy,Trustworthy","","520","","","","decision","","<div class='trialDiv'><img src='Fruit/grapes.png'><br><font class='baseline'><strong>Great Grapes</strong><p>Choose number of points to bet.</font><div class='respPicDiv'><img src='img/responseButtonOffersNo0L.png' class='respPic'></div></div>","3","12","Great Grapes","Fruit/grapes.png","Won","0.2,0.8","14","0.2","139","35","",""
"html-keyboard-response","113","155173","0.0-11.0-2.34","63dafeda84d9a5e684adb6be","bdp_rwlrn","Tue Mar 14 2023 21:44:29 GMT-0400 (Eastern Daylight Time)","378621","Untrustworthy,Trustworthy","","null","","","","decisionFB","","<div class='trialDiv'><img src='Fruit/grapes.png'><br><font class='baseline'><strong>Great Grapes</strong><p>Choose number of points to bet.</font><div class='respPicDiv'><img src='img/responseButtonOffersNo0L3.png' class='respPic'></div></div>","null","12","Great Grapes","Fruit/grapes.png","Won","0.2,0.8","14","0.2","136","35","",""
"html-keyboard-response","114","156181","0.0-11.0-3.34","63dafeda84d9a5e684adb6be","bdp_rwlrn","Tue Mar 14 2023 21:44:29 GMT-0400 (Eastern Daylight Time)","378621","Untrustworthy,Trustworthy","","null","","","","feedback","","<div class='respPicDiv'><img src='img/responseButtonOffersNo0_wht.png' class='respPic'></div><div class='trialDiv'><img src='Fruit/grapes.png'><br><font class='baseline'><strong>Great Grapes</strong><p><strong><font class='posOutcome'>You WON</font><p>You bet: 3</strong></font> &nbsp; &nbsp; &nbsp; &nbsp; &nbsp; &nbsp;<font class='posOutcome'>you receive: <strong>6</strong></font></div>","null","12","Great Grapes","Fruit/grapes.png","Won","0.2,0.8","14","0.2","142","35","",""
"html-keyboard-response","115","156693","0.0-11.0-1.35","63dafeda84d9a5e684adb6be","bdp_rwlrn","Tue Mar 14 2023 21:44:29 GMT-0400 (Eastern Daylight Time)","378621","Untrustworthy,Trustworthy","","511","","","","decision","","<div class='trialDiv'><img src='Fruit/plums1.png'><br><font class='baseline'><strong>Plum Powerball</strong><p>Choose number of points to bet.</font><div class='respPicDiv'><img src='img/responseButtonOffersNo0L.png' class='respPic'></div></div>","2","12","Plum Powerball","Fruit/plums1.png","Lost","0.8,0.35","8","0.8","147","36","",""
"html-keyboard-response","116","156949","0.0-11.0-2.35","63dafeda84d9a5e684adb6be","bdp_rwlrn","Tue Mar 14 2023 21:44:29 GMT-0400 (Eastern Daylight Time)","378621","Untrustworthy,Trustworthy","","null","","","","decisionFB","","<div class='trialDiv'><img src='Fruit/plums1.png'><br><font class='baseline'><strong>Plum Powerball</strong><p>Choose number of points to bet.</font><div class='respPicDiv'><img src='img/responseButtonOffersNo0L2.png' class='respPic'></div></div>","null","12","Plum Powerball","Fruit/plums1.png","Lost","0.8,0.35","8","0.8","145","36","",""
"html-keyboard-response","117","157957","0.0-11.0-3.35","63dafeda84d9a5e684adb6be","bdp_rwlrn","Tue Mar 14 2023 21:44:29 GMT-0400 (Eastern Daylight Time)","378621","Untrustworthy,Trustworthy","","null","","","","feedback","","<div class='respPicDiv'><img src='img/responseButtonOffersNo0_wht.png' class='respPic'></div><div class='trialDiv'><img src='Fruit/plums1.png'><br><font class='baseline'><strong>Plum Powerball</strong><p><strong><font class='negOutcome'>You LOST</font><p>You bet: 2</strong></font> &nbsp; &nbsp; &nbsp; &nbsp; &nbsp; &nbsp;<font class='negOutcome'>You receive: <strong>0</strong></font></div>","null","12","Plum Powerball","Fruit/plums1.png","Lost","0.8,0.35","8","0.8","145","36","",""
"html-keyboard-response","118","158410","0.0-11.0-1.36","63dafeda84d9a5e684adb6be","bdp_rwlrn","Tue Mar 14 2023 21:44:29 GMT-0400 (Eastern Daylight Time)","378621","Untrustworthy,Trustworthy","","451","","","","decision","","<div class='trialDiv'><img src='Fruit/grapes.png'><br><font class='baseline'><strong>Great Grapes</strong><p>Choose number of points to bet.</font><div class='respPicDiv'><img src='img/responseButtonOffersNo0L.png' class='respPic'></div></div>","1","13","Great Grapes","Fruit/grapes.png","Lost","0.2,0.8","14","0.2","150","37","",""
"html-keyboard-response","119","158669","0.0-11.0-2.36","63dafeda84d9a5e684adb6be","bdp_rwlrn","Tue Mar 14 2023 21:44:29 GMT-0400 (Eastern Daylight Time)","378621","Untrustworthy,Trustworthy","","null","","","","decisionFB","","<div class='trialDiv'><img src='Fruit/grapes.png'><br><font class='baseline'><strong>Great Grapes</strong><p>Choose number of points to bet.</font><div class='respPicDiv'><img src='img/responseButtonOffersNo0L1.png' class='respPic'></div></div>","null","13","Great Grapes","Fruit/grapes.png","Lost","0.2,0.8","14","0.2","149","37","",""
"html-keyboard-response","120","159677","0.0-11.0-3.36","63dafeda84d9a5e684adb6be","bdp_rwlrn","Tue Mar 14 2023 21:44:29 GMT-0400 (Eastern Daylight Time)","378621","Untrustworthy,Trustworthy","","null","","","","feedback","","<div class='respPicDiv'><img src='img/responseButtonOffersNo0_wht.png' class='respPic'></div><div class='trialDiv'><img src='Fruit/grapes.png'><br><font class='baseline'><strong>Great Grapes</strong><p><strong><font class='negOutcome'>You LOST</font><p>You bet: 1</strong></font> &nbsp; &nbsp; &nbsp; &nbsp; &nbsp; &nbsp;<font class='negOutcome'>You receive: <strong>0</strong></font></div>","null","13","Great Grapes","Fruit/grapes.png","Lost","0.2,0.8","14","0.2","149","37","",""
"html-keyboard-response","121","160241","0.0-11.0-1.37","63dafeda84d9a5e684adb6be","bdp_rwlrn","Tue Mar 14 2023 21:44:29 GMT-0400 (Eastern Daylight Time)","378621","Untrustworthy,Trustworthy","","562","","","","decision","","<div class='trialDiv'><img src='Fruit/plums1.png'><br><font class='baseline'><strong>Plum Powerball</strong><p>Choose number of points to bet.</font><div class='respPicDiv'><img src='img/responseButtonOffersNo0L.png' class='respPic'></div></div>","3","13","Plum Powerball","Fruit/plums1.png","Won","0.8,0.35","8","0.8","154","38","",""
"html-keyboard-response","122","160493","0.0-11.0-2.37","63dafeda84d9a5e684adb6be","bdp_rwlrn","Tue Mar 14 2023 21:44:29 GMT-0400 (Eastern Daylight Time)","378621","Untrustworthy,Trustworthy","","null","","","","decisionFB","","<div class='trialDiv'><img src='Fruit/plums1.png'><br><font class='baseline'><strong>Plum Powerball</strong><p>Choose number of points to bet.</font><div class='respPicDiv'><img src='img/responseButtonOffersNo0L3.png' class='respPic'></div></div>","null","13","Plum Powerball","Fruit/plums1.png","Won","0.8,0.35","8","0.8","151","38","",""
"html-keyboard-response","123","161501","0.0-11.0-3.37","63dafeda84d9a5e684adb6be","bdp_rwlrn","Tue Mar 14 2023 21:44:29 GMT-0400 (Eastern Daylight Time)","378621","Untrustworthy,Trustworthy","","null","","","","feedback","","<div class='respPicDiv'><img src='img/responseButtonOffersNo0_wht.png' class='respPic'></div><div class='trialDiv'><img src='Fruit/plums1.png'><br><font class='baseline'><strong>Plum Powerball</strong><p><strong><font class='posOutcome'>You WON</font><p>You bet: 3</strong></font> &nbsp; &nbsp; &nbsp; &nbsp; &nbsp; &nbsp;<font class='posOutcome'>you receive: <strong>6</strong></font></div>","null","13","Plum Powerball","Fruit/plums1.png","Won","0.8,0.35","8","0.8","157","38","",""
"html-keyboard-response","124","162145","0.0-11.0-1.38","63dafeda84d9a5e684adb6be","bdp_rwlrn","Tue Mar 14 2023 21:44:29 GMT-0400 (Eastern Daylight Time)","378621","Untrustworthy,Trustworthy","","643","","","","decision","","<div class='trialDiv'><img src='Fruit/lemon.png'><br><font class='baseline'><strong>Lucky Lemons</strong><p>Choose number of points to bet.</font><div class='respPicDiv'><img src='img/responseButtonOffersNo0L.png' class='respPic'></div></div>","2","13","Lucky Lemons","Fruit/lemon.png","Lost","0.2,0.65","12","0.2","162","39","",""
"html-keyboard-response","125","162398","0.0-11.0-2.38","63dafeda84d9a5e684adb6be","bdp_rwlrn","Tue Mar 14 2023 21:44:29 GMT-0400 (Eastern Daylight Time)","378621","Untrustworthy,Trustworthy","","null","","","","decisionFB","","<div class='trialDiv'><img src='Fruit/lemon.png'><br><font class='baseline'><strong>Lucky Lemons</strong><p>Choose number of points to bet.</font><div class='respPicDiv'><img src='img/responseButtonOffersNo0L2.png' class='respPic'></div></div>","null","13","Lucky Lemons","Fruit/lemon.png","Lost","0.2,0.65","12","0.2","160","39","",""
"html-keyboard-response","126","163405","0.0-11.0-3.38","63dafeda84d9a5e684adb6be","bdp_rwlrn","Tue Mar 14 2023 21:44:29 GMT-0400 (Eastern Daylight Time)","378621","Untrustworthy,Trustworthy","","null","","","","feedback","","<div class='respPicDiv'><img src='img/responseButtonOffersNo0_wht.png' class='respPic'></div><div class='trialDiv'><img src='Fruit/lemon.png'><br><font class='baseline'><strong>Lucky Lemons</strong><p><strong><font class='negOutcome'>You LOST</font><p>You bet: 2</strong></font> &nbsp; &nbsp; &nbsp; &nbsp; &nbsp; &nbsp;<font class='negOutcome'>You receive: <strong>0</strong></font></div>","null","13","Lucky Lemons","Fruit/lemon.png","Lost","0.2,0.65","12","0.2","160","39","",""
"html-keyboard-response","127","164895","0.0-11.0-1.39","63dafeda84d9a5e684adb6be","bdp_rwlrn","Tue Mar 14 2023 21:44:29 GMT-0400 (Eastern Daylight Time)","378621","Untrustworthy,Trustworthy","","1489","","","","decision","","<div class='trialDiv'><img src='Fruit/grapes.png'><br><font class='baseline'><strong>Great Grapes</strong><p>Choose number of points to bet.</font><div class='respPicDiv'><img src='img/responseButtonOffersNo0L.png' class='respPic'></div></div>","5","14","Great Grapes","Fruit/grapes.png","Won","0.2,0.8","14","0.2","165","40","",""
"html-keyboard-response","128","165150","0.0-11.0-2.39","63dafeda84d9a5e684adb6be","bdp_rwlrn","Tue Mar 14 2023 21:44:29 GMT-0400 (Eastern Daylight Time)","378621","Untrustworthy,Trustworthy","","null","","","","decisionFB","","<div class='trialDiv'><img src='Fruit/grapes.png'><br><font class='baseline'><strong>Great Grapes</strong><p>Choose number of points to bet.</font><div class='respPicDiv'><img src='img/responseButtonOffersNo0L5.png' class='respPic'></div></div>","null","14","Great Grapes","Fruit/grapes.png","Won","0.2,0.8","14","0.2","160","40","",""
"html-keyboard-response","129","166157","0.0-11.0-3.39","63dafeda84d9a5e684adb6be","bdp_rwlrn","Tue Mar 14 2023 21:44:29 GMT-0400 (Eastern Daylight Time)","378621","Untrustworthy,Trustworthy","","null","","","","feedback","","<div class='respPicDiv'><img src='img/responseButtonOffersNo0_wht.png' class='respPic'></div><div class='trialDiv'><img src='Fruit/grapes.png'><br><font class='baseline'><strong>Great Grapes</strong><p><strong><font class='posOutcome'>You WON</font><p>You bet: 5</strong></font> &nbsp; &nbsp; &nbsp; &nbsp; &nbsp; &nbsp;<font class='posOutcome'>you receive: <strong>10</strong></font></div>","null","14","Great Grapes","Fruit/grapes.png","Won","0.2,0.8","14","0.2","170","40","",""
"html-keyboard-response","130","166861","0.0-11.0-1.40","63dafeda84d9a5e684adb6be","bdp_rwlrn","Tue Mar 14 2023 21:44:29 GMT-0400 (Eastern Daylight Time)","378621","Untrustworthy,Trustworthy","","702","","","","decision","","<div class='trialDiv'><img src='Fruit/plums1.png'><br><font class='baseline'><strong>Plum Powerball</strong><p>Choose number of points to bet.</font><div class='respPicDiv'><img src='img/responseButtonOffersNo0L.png' class='respPic'></div></div>","3","14","Plum Powerball","Fruit/plums1.png","Lost","0.8,0.35","8","0.8","175","41","",""
"html-keyboard-response","131","167117","0.0-11.0-2.40","63dafeda84d9a5e684adb6be","bdp_rwlrn","Tue Mar 14 2023 21:44:29 GMT-0400 (Eastern Daylight Time)","378621","Untrustworthy,Trustworthy","","null","","","","decisionFB","","<div class='trialDiv'><img src='Fruit/plums1.png'><br><font class='baseline'><strong>Plum Powerball</strong><p>Choose number of points to bet.</font><div class='respPicDiv'><img src='img/responseButtonOffersNo0L3.png' class='respPic'></div></div>","null","14","Plum Powerball","Fruit/plums1.png","Lost","0.8,0.35","8","0.8","172","41","",""
"html-keyboard-response","132","168125","0.0-11.0-3.40","63dafeda84d9a5e684adb6be","bdp_rwlrn","Tue Mar 14 2023 21:44:29 GMT-0400 (Eastern Daylight Time)","378621","Untrustworthy,Trustworthy","","null","","","","feedback","","<div class='respPicDiv'><img src='img/responseButtonOffersNo0_wht.png' class='respPic'></div><div class='trialDiv'><img src='Fruit/plums1.png'><br><font class='baseline'><strong>Plum Powerball</strong><p><strong><font class='negOutcome'>You LOST</font><p>You bet: 3</strong></font> &nbsp; &nbsp; &nbsp; &nbsp; &nbsp; &nbsp;<font class='negOutcome'>You receive: <strong>0</strong></font></div>","null","14","Plum Powerball","Fruit/plums1.png","Lost","0.8,0.35","8","0.8","172","41","",""
"html-keyboard-response","133","168439","0.0-11.0-1.41","63dafeda84d9a5e684adb6be","bdp_rwlrn","Tue Mar 14 2023 21:44:29 GMT-0400 (Eastern Daylight Time)","378621","Untrustworthy,Trustworthy","","312","","","","decision","","<div class='trialDiv'><img src='Fruit/lemon.png'><br><font class='baseline'><strong>Lucky Lemons</strong><p>Choose number of points to bet.</font><div class='respPicDiv'><img src='img/responseButtonOffersNo0L.png' class='respPic'></div></div>","4","14","Lucky Lemons","Fruit/lemon.png","Won","0.2,0.65","12","0.2","177","42","",""
"html-keyboard-response","134","168693","0.0-11.0-2.41","63dafeda84d9a5e684adb6be","bdp_rwlrn","Tue Mar 14 2023 21:44:29 GMT-0400 (Eastern Daylight Time)","378621","Untrustworthy,Trustworthy","","null","","","","decisionFB","","<div class='trialDiv'><img src='Fruit/lemon.png'><br><font class='baseline'><strong>Lucky Lemons</strong><p>Choose number of points to bet.</font><div class='respPicDiv'><img src='img/responseButtonOffersNo0L4.png' class='respPic'></div></div>","null","14","Lucky Lemons","Fruit/lemon.png","Won","0.2,0.65","12","0.2","173","42","",""
"html-keyboard-response","135","169701","0.0-11.0-3.41","63dafeda84d9a5e684adb6be","bdp_rwlrn","Tue Mar 14 2023 21:44:29 GMT-0400 (Eastern Daylight Time)","378621","Untrustworthy,Trustworthy","","null","","","","feedback","","<div class='respPicDiv'><img src='img/responseButtonOffersNo0_wht.png' class='respPic'></div><div class='trialDiv'><img src='Fruit/lemon.png'><br><font class='baseline'><strong>Lucky Lemons</strong><p><strong><font class='posOutcome'>You WON</font><p>You bet: 4</strong></font> &nbsp; &nbsp; &nbsp; &nbsp; &nbsp; &nbsp;<font class='posOutcome'>you receive: <strong>8</strong></font></div>","null","14","Lucky Lemons","Fruit/lemon.png","Won","0.2,0.65","12","0.2","181","42","",""
"html-keyboard-response","136","170246","0.0-11.0-1.42","63dafeda84d9a5e684adb6be","bdp_rwlrn","Tue Mar 14 2023 21:44:29 GMT-0400 (Eastern Daylight Time)","378621","Untrustworthy,Trustworthy","","544","","","","decision","","<div class='trialDiv'><img src='Fruit/grapes.png'><br><font class='baseline'><strong>Great Grapes</strong><p>Choose number of points to bet.</font><div class='respPicDiv'><img src='img/responseButtonOffersNo0L.png' class='respPic'></div></div>","2","15","Great Grapes","Fruit/grapes.png","Won","0.2,0.8","14","0.2","186","43","",""
"html-keyboard-response","137","170502","0.0-11.0-2.42","63dafeda84d9a5e684adb6be","bdp_rwlrn","Tue Mar 14 2023 21:44:29 GMT-0400 (Eastern Daylight Time)","378621","Untrustworthy,Trustworthy","","null","","","","decisionFB","","<div class='trialDiv'><img src='Fruit/grapes.png'><br><font class='baseline'><strong>Great Grapes</strong><p>Choose number of points to bet.</font><div class='respPicDiv'><img src='img/responseButtonOffersNo0L2.png' class='respPic'></div></div>","null","15","Great Grapes","Fruit/grapes.png","Won","0.2,0.8","14","0.2","184","43","",""
"html-keyboard-response","138","171509","0.0-11.0-3.42","63dafeda84d9a5e684adb6be","bdp_rwlrn","Tue Mar 14 2023 21:44:29 GMT-0400 (Eastern Daylight Time)","378621","Untrustworthy,Trustworthy","","null","","","","feedback","","<div class='respPicDiv'><img src='img/responseButtonOffersNo0_wht.png' class='respPic'></div><div class='trialDiv'><img src='Fruit/grapes.png'><br><font class='baseline'><strong>Great Grapes</strong><p><strong><font class='posOutcome'>You WON</font><p>You bet: 2</strong></font> &nbsp; &nbsp; &nbsp; &nbsp; &nbsp; &nbsp;<font class='posOutcome'>you receive: <strong>4</strong></font></div>","null","15","Great Grapes","Fruit/grapes.png","Won","0.2,0.8","14","0.2","188","43","",""
"html-keyboard-response","139","172246","0.0-11.0-1.43","63dafeda84d9a5e684adb6be","bdp_rwlrn","Tue Mar 14 2023 21:44:29 GMT-0400 (Eastern Daylight Time)","378621","Untrustworthy,Trustworthy","","735","","","","decision","","<div class='trialDiv'><img src='Fruit/lemon.png'><br><font class='baseline'><strong>Lucky Lemons</strong><p>Choose number of points to bet.</font><div class='respPicDiv'><img src='img/responseButtonOffersNo0L.png' class='respPic'></div></div>","3","15","Lucky Lemons","Fruit/lemon.png","Lost","0.2,0.65","12","0.2","193","44","",""
"html-keyboard-response","140","172501","0.0-11.0-2.43","63dafeda84d9a5e684adb6be","bdp_rwlrn","Tue Mar 14 2023 21:44:29 GMT-0400 (Eastern Daylight Time)","378621","Untrustworthy,Trustworthy","","null","","","","decisionFB","","<div class='trialDiv'><img src='Fruit/lemon.png'><br><font class='baseline'><strong>Lucky Lemons</strong><p>Choose number of points to bet.</font><div class='respPicDiv'><img src='img/responseButtonOffersNo0L3.png' class='respPic'></div></div>","null","15","Lucky Lemons","Fruit/lemon.png","Lost","0.2,0.65","12","0.2","190","44","",""
"html-keyboard-response","141","173509","0.0-11.0-3.43","63dafeda84d9a5e684adb6be","bdp_rwlrn","Tue Mar 14 2023 21:44:29 GMT-0400 (Eastern Daylight Time)","378621","Untrustworthy,Trustworthy","","null","","","","feedback","","<div class='respPicDiv'><img src='img/responseButtonOffersNo0_wht.png' class='respPic'></div><div class='trialDiv'><img src='Fruit/lemon.png'><br><font class='baseline'><strong>Lucky Lemons</strong><p><strong><font class='negOutcome'>You LOST</font><p>You bet: 3</strong></font> &nbsp; &nbsp; &nbsp; &nbsp; &nbsp; &nbsp;<font class='negOutcome'>You receive: <strong>0</strong></font></div>","null","15","Lucky Lemons","Fruit/lemon.png","Lost","0.2,0.65","12","0.2","190","44","",""
"html-keyboard-response","142","173920","0.0-11.0-1.44","63dafeda84d9a5e684adb6be","bdp_rwlrn","Tue Mar 14 2023 21:44:29 GMT-0400 (Eastern Daylight Time)","378621","Untrustworthy,Trustworthy","","410","","","","decision","","<div class='trialDiv'><img src='Fruit/plums1.png'><br><font class='baseline'><strong>Plum Powerball</strong><p>Choose number of points to bet.</font><div class='respPicDiv'><img src='img/responseButtonOffersNo0L.png' class='respPic'></div></div>","1","15","Plum Powerball","Fruit/plums1.png","Lost","0.8,0.35","8","0.8","195","45","",""
"html-keyboard-response","143","174173","0.0-11.0-2.44","63dafeda84d9a5e684adb6be","bdp_rwlrn","Tue Mar 14 2023 21:44:29 GMT-0400 (Eastern Daylight Time)","378621","Untrustworthy,Trustworthy","","null","","","","decisionFB","","<div class='trialDiv'><img src='Fruit/plums1.png'><br><font class='baseline'><strong>Plum Powerball</strong><p>Choose number of points to bet.</font><div class='respPicDiv'><img src='img/responseButtonOffersNo0L1.png' class='respPic'></div></div>","null","15","Plum Powerball","Fruit/plums1.png","Lost","0.8,0.35","8","0.8","194","45","",""
"html-keyboard-response","144","175181","0.0-11.0-3.44","63dafeda84d9a5e684adb6be","bdp_rwlrn","Tue Mar 14 2023 21:44:29 GMT-0400 (Eastern Daylight Time)","378621","Untrustworthy,Trustworthy","","null","","","","feedback","","<div class='respPicDiv'><img src='img/responseButtonOffersNo0_wht.png' class='respPic'></div><div class='trialDiv'><img src='Fruit/plums1.png'><br><font class='baseline'><strong>Plum Powerball</strong><p><strong><font class='negOutcome'>You LOST</font><p>You bet: 1</strong></font> &nbsp; &nbsp; &nbsp; &nbsp; &nbsp; &nbsp;<font class='negOutcome'>You receive: <strong>0</strong></font></div>","null","15","Plum Powerball","Fruit/plums1.png","Lost","0.8,0.35","8","0.8","194","45","",""
"html-keyboard-response","145","175785","0.0-11.0-1.45","63dafeda84d9a5e684adb6be","bdp_rwlrn","Tue Mar 14 2023 21:44:29 GMT-0400 (Eastern Daylight Time)","378621","Untrustworthy,Trustworthy","","603","","","","decision","","<div class='trialDiv'><img src='Fruit/grapes.png'><br><font class='baseline'><strong>Great Grapes</strong><p>Choose number of points to bet.</font><div class='respPicDiv'><img src='img/responseButtonOffersNo0L.png' class='respPic'></div></div>","1","16","Great Grapes","Fruit/grapes.png","Won","0.2,0.8","14","0.2","199","46","",""
"html-keyboard-response","146","176037","0.0-11.0-2.45","63dafeda84d9a5e684adb6be","bdp_rwlrn","Tue Mar 14 2023 21:44:29 GMT-0400 (Eastern Daylight Time)","378621","Untrustworthy,Trustworthy","","null","","","","decisionFB","","<div class='trialDiv'><img src='Fruit/grapes.png'><br><font class='baseline'><strong>Great Grapes</strong><p>Choose number of points to bet.</font><div class='respPicDiv'><img src='img/responseButtonOffersNo0L1.png' class='respPic'></div></div>","null","16","Great Grapes","Fruit/grapes.png","Won","0.2,0.8","14","0.2","198","46","",""
"html-keyboard-response","147","177045","0.0-11.0-3.45","63dafeda84d9a5e684adb6be","bdp_rwlrn","Tue Mar 14 2023 21:44:29 GMT-0400 (Eastern Daylight Time)","378621","Untrustworthy,Trustworthy","","null","","","","feedback","","<div class='respPicDiv'><img src='img/responseButtonOffersNo0_wht.png' class='respPic'></div><div class='trialDiv'><img src='Fruit/grapes.png'><br><font class='baseline'><strong>Great Grapes</strong><p><strong><font class='posOutcome'>You WON</font><p>You bet: 1</strong></font> &nbsp; &nbsp; &nbsp; &nbsp; &nbsp; &nbsp;<font class='posOutcome'>you receive: <strong>2</strong></font></div>","null","16","Great Grapes","Fruit/grapes.png","Won","0.2,0.8","14","0.2","200","46","",""
"html-keyboard-response","148","177732","0.0-11.0-1.46","63dafeda84d9a5e684adb6be","bdp_rwlrn","Tue Mar 14 2023 21:44:29 GMT-0400 (Eastern Daylight Time)","378621","Untrustworthy,Trustworthy","","686","","","","decision","","<div class='trialDiv'><img src='Fruit/lemon.png'><br><font class='baseline'><strong>Lucky Lemons</strong><p>Choose number of points to bet.</font><div class='respPicDiv'><img src='img/responseButtonOffersNo0L.png' class='respPic'></div></div>","3","16","Lucky Lemons","Fruit/lemon.png","Won","0.2,0.65","12","0.2","205","47","",""
"html-keyboard-response","149","177989","0.0-11.0-2.46","63dafeda84d9a5e684adb6be","bdp_rwlrn","Tue Mar 14 2023 21:44:29 GMT-0400 (Eastern Daylight Time)","378621","Untrustworthy,Trustworthy","","null","","","","decisionFB","","<div class='trialDiv'><img src='Fruit/lemon.png'><br><font class='baseline'><strong>Lucky Lemons</strong><p>Choose number of points to bet.</font><div class='respPicDiv'><img src='img/responseButtonOffersNo0L3.png' class='respPic'></div></div>","null","16","Lucky Lemons","Fruit/lemon.png","Won","0.2,0.65","12","0.2","202","47","",""
"html-keyboard-response","150","178997","0.0-11.0-3.46","63dafeda84d9a5e684adb6be","bdp_rwlrn","Tue Mar 14 2023 21:44:29 GMT-0400 (Eastern Daylight Time)","378621","Untrustworthy,Trustworthy","","null","","","","feedback","","<div class='respPicDiv'><img src='img/responseButtonOffersNo0_wht.png' class='respPic'></div><div class='trialDiv'><img src='Fruit/lemon.png'><br><font class='baseline'><strong>Lucky Lemons</strong><p><strong><font class='posOutcome'>You WON</font><p>You bet: 3</strong></font> &nbsp; &nbsp; &nbsp; &nbsp; &nbsp; &nbsp;<font class='posOutcome'>you receive: <strong>6</strong></font></div>","null","16","Lucky Lemons","Fruit/lemon.png","Won","0.2,0.65","12","0.2","208","47","",""
"html-keyboard-response","151","179653","0.0-11.0-1.47","63dafeda84d9a5e684adb6be","bdp_rwlrn","Tue Mar 14 2023 21:44:29 GMT-0400 (Eastern Daylight Time)","378621","Untrustworthy,Trustworthy","","655","","","","decision","","<div class='trialDiv'><img src='Fruit/plums1.png'><br><font class='baseline'><strong>Plum Powerball</strong><p>Choose number of points to bet.</font><div class='respPicDiv'><img src='img/responseButtonOffersNo0L.png' class='respPic'></div></div>","1","16","Plum Powerball","Fruit/plums1.png","Lost","0.8,0.35","8","0.8","213","48","",""
"html-keyboard-response","152","179909","0.0-11.0-2.47","63dafeda84d9a5e684adb6be","bdp_rwlrn","Tue Mar 14 2023 21:44:29 GMT-0400 (Eastern Daylight Time)","378621","Untrustworthy,Trustworthy","","null","","","","decisionFB","","<div class='trialDiv'><img src='Fruit/plums1.png'><br><font class='baseline'><strong>Plum Powerball</strong><p>Choose number of points to bet.</font><div class='respPicDiv'><img src='img/responseButtonOffersNo0L1.png' class='respPic'></div></div>","null","16","Plum Powerball","Fruit/plums1.png","Lost","0.8,0.35","8","0.8","212","48","",""
"html-keyboard-response","153","180917","0.0-11.0-3.47","63dafeda84d9a5e684adb6be","bdp_rwlrn","Tue Mar 14 2023 21:44:29 GMT-0400 (Eastern Daylight Time)","378621","Untrustworthy,Trustworthy","","null","","","","feedback","","<div class='respPicDiv'><img src='img/responseButtonOffersNo0_wht.png' class='respPic'></div><div class='trialDiv'><img src='Fruit/plums1.png'><br><font class='baseline'><strong>Plum Powerball</strong><p><strong><font class='negOutcome'>You LOST</font><p>You bet: 1</strong></font> &nbsp; &nbsp; &nbsp; &nbsp; &nbsp; &nbsp;<font class='negOutcome'>You receive: <strong>0</strong></font></div>","null","16","Plum Powerball","Fruit/plums1.png","Lost","0.8,0.35","8","0.8","212","48","",""
"html-keyboard-response","154","181479","0.0-11.0-1.48","63dafeda84d9a5e684adb6be","bdp_rwlrn","Tue Mar 14 2023 21:44:29 GMT-0400 (Eastern Daylight Time)","378621","Untrustworthy,Trustworthy","","560","","","","decision","","<div class='trialDiv'><img src='Fruit/grapes.png'><br><font class='baseline'><strong>Great Grapes</strong><p>Choose number of points to bet.</font><div class='respPicDiv'><img src='img/responseButtonOffersNo0L.png' class='respPic'></div></div>","1","17","Great Grapes","Fruit/grapes.png","Won","0.2,0.8","14","0.2","217","49","",""
"html-keyboard-response","155","181733","0.0-11.0-2.48","63dafeda84d9a5e684adb6be","bdp_rwlrn","Tue Mar 14 2023 21:44:29 GMT-0400 (Eastern Daylight Time)","378621","Untrustworthy,Trustworthy","","null","","","","decisionFB","","<div class='trialDiv'><img src='Fruit/grapes.png'><br><font class='baseline'><strong>Great Grapes</strong><p>Choose number of points to bet.</font><div class='respPicDiv'><img src='img/responseButtonOffersNo0L1.png' class='respPic'></div></div>","null","17","Great Grapes","Fruit/grapes.png","Won","0.2,0.8","14","0.2","216","49","",""
"html-keyboard-response","156","182741","0.0-11.0-3.48","63dafeda84d9a5e684adb6be","bdp_rwlrn","Tue Mar 14 2023 21:44:29 GMT-0400 (Eastern Daylight Time)","378621","Untrustworthy,Trustworthy","","null","","","","feedback","","<div class='respPicDiv'><img src='img/responseButtonOffersNo0_wht.png' class='respPic'></div><div class='trialDiv'><img src='Fruit/grapes.png'><br><font class='baseline'><strong>Great Grapes</strong><p><strong><font class='posOutcome'>You WON</font><p>You bet: 1</strong></font> &nbsp; &nbsp; &nbsp; &nbsp; &nbsp; &nbsp;<font class='posOutcome'>you receive: <strong>2</strong></font></div>","null","17","Great Grapes","Fruit/grapes.png","Won","0.2,0.8","14","0.2","218","49","",""
"html-keyboard-response","157","183368","0.0-11.0-1.49","63dafeda84d9a5e684adb6be","bdp_rwlrn","Tue Mar 14 2023 21:44:29 GMT-0400 (Eastern Daylight Time)","378621","Untrustworthy,Trustworthy","","625","","","","decision","","<div class='trialDiv'><img src='Fruit/plums1.png'><br><font class='baseline'><strong>Plum Powerball</strong><p>Choose number of points to bet.</font><div class='respPicDiv'><img src='img/responseButtonOffersNo0L.png' class='respPic'></div></div>","1","17","Plum Powerball","Fruit/plums1.png","Won","0.8,0.35","8","0.8","223","50","",""
"html-keyboard-response","158","183622","0.0-11.0-2.49","63dafeda84d9a5e684adb6be","bdp_rwlrn","Tue Mar 14 2023 21:44:29 GMT-0400 (Eastern Daylight Time)","378621","Untrustworthy,Trustworthy","","null","","","","decisionFB","","<div class='trialDiv'><img src='Fruit/plums1.png'><br><font class='baseline'><strong>Plum Powerball</strong><p>Choose number of points to bet.</font><div class='respPicDiv'><img src='img/responseButtonOffersNo0L1.png' class='respPic'></div></div>","null","17","Plum Powerball","Fruit/plums1.png","Won","0.8,0.35","8","0.8","222","50","",""
"html-keyboard-response","159","184630","0.0-11.0-3.49","63dafeda84d9a5e684adb6be","bdp_rwlrn","Tue Mar 14 2023 21:44:29 GMT-0400 (Eastern Daylight Time)","378621","Untrustworthy,Trustworthy","","null","","","","feedback","","<div class='respPicDiv'><img src='img/responseButtonOffersNo0_wht.png' class='respPic'></div><div class='trialDiv'><img src='Fruit/plums1.png'><br><font class='baseline'><strong>Plum Powerball</strong><p><strong><font class='posOutcome'>You WON</font><p>You bet: 1</strong></font> &nbsp; &nbsp; &nbsp; &nbsp; &nbsp; &nbsp;<font class='posOutcome'>you receive: <strong>2</strong></font></div>","null","17","Plum Powerball","Fruit/plums1.png","Won","0.8,0.35","8","0.8","224","50","",""
"html-keyboard-response","160","185138","0.0-11.0-1.50","63dafeda84d9a5e684adb6be","bdp_rwlrn","Tue Mar 14 2023 21:44:29 GMT-0400 (Eastern Daylight Time)","378621","Untrustworthy,Trustworthy","","507","","","","decision","","<div class='trialDiv'><img src='Fruit/lemon.png'><br><font class='baseline'><strong>Lucky Lemons</strong><p>Choose number of points to bet.</font><div class='respPicDiv'><img src='img/responseButtonOffersNo0L.png' class='respPic'></div></div>","1","17","Lucky Lemons","Fruit/lemon.png","Lost","0.2,0.65","12","0.2","229","51","",""
"html-keyboard-response","161","185397","0.0-11.0-2.50","63dafeda84d9a5e684adb6be","bdp_rwlrn","Tue Mar 14 2023 21:44:29 GMT-0400 (Eastern Daylight Time)","378621","Untrustworthy,Trustworthy","","null","","","","decisionFB","","<div class='trialDiv'><img src='Fruit/lemon.png'><br><font class='baseline'><strong>Lucky Lemons</strong><p>Choose number of points to bet.</font><div class='respPicDiv'><img src='img/responseButtonOffersNo0L1.png' class='respPic'></div></div>","null","17","Lucky Lemons","Fruit/lemon.png","Lost","0.2,0.65","12","0.2","228","51","",""
"html-keyboard-response","162","186405","0.0-11.0-3.50","63dafeda84d9a5e684adb6be","bdp_rwlrn","Tue Mar 14 2023 21:44:29 GMT-0400 (Eastern Daylight Time)","378621","Untrustworthy,Trustworthy","","null","","","","feedback","","<div class='respPicDiv'><img src='img/responseButtonOffersNo0_wht.png' class='respPic'></div><div class='trialDiv'><img src='Fruit/lemon.png'><br><font class='baseline'><strong>Lucky Lemons</strong><p><strong><font class='negOutcome'>You LOST</font><p>You bet: 1</strong></font> &nbsp; &nbsp; &nbsp; &nbsp; &nbsp; &nbsp;<font class='negOutcome'>You receive: <strong>0</strong></font></div>","null","17","Lucky Lemons","Fruit/lemon.png","Lost","0.2,0.65","12","0.2","228","51","",""
"html-keyboard-response","163","186901","0.0-11.0-1.51","63dafeda84d9a5e684adb6be","bdp_rwlrn","Tue Mar 14 2023 21:44:29 GMT-0400 (Eastern Daylight Time)","378621","Untrustworthy,Trustworthy","","495","","","","decision","","<div class='trialDiv'><img src='Fruit/grapes.png'><br><font class='baseline'><strong>Great Grapes</strong><p>Choose number of points to bet.</font><div class='respPicDiv'><img src='img/responseButtonOffersNo0L.png' class='respPic'></div></div>","5","18","Great Grapes","Fruit/grapes.png","Won","0.2,0.8","14","0.2","233","52","",""
