"trial_type","trial_index","time_elapsed","internal_node_id","subject_id","task","startTime","totalTime","labels","view_history","rt","event","trial","time","trialtype","success","stimulus","key_press","ltround","name","fileID","outcome","lottotype","lottoswpt","lottocurrpshare","point_total","round","faceID","face"
"pavlovia","0","9","0.0-0.0","6400d9235287137e7b62fd29","bdp_rwlrn","Sat Apr 08 2023 09:01:47 GMT-0700 (Pacific Daylight Time)","389938","Untrustworthy,Trustworthy","","","","","","","","","","","","","","","","","","","",""
"instructions","1","5583","0.0-1.0","6400d9235287137e7b62fd29","bdp_rwlrn","Sat Apr 08 2023 09:01:47 GMT-0700 (Pacific Daylight Time)","389938","Untrustworthy,Trustworthy","[{""page_index"":0,""viewing_time"":5563}]","5563","","","","","","","","","","","","","","","","","",""
"","","","","6400d9235287137e7b62fd29","bdp_rwlrn","Sat Apr 08 2023 09:01:47 GMT-0700 (Pacific Daylight Time)","389938","Untrustworthy,Trustworthy","","","fullscreenenter","2","8120","fullscreenenter","","","","","","","","","","","","","",""
"fullscreen","2","9091","0.0-2.0","6400d9235287137e7b62fd29","bdp_rwlrn","Sat Apr 08 2023 09:01:47 GMT-0700 (Pacific Daylight Time)","389938","Untrustworthy,Trustworthy","","","","","","","true","","","","","","","","","","","","",""
"instructions","3","35346","0.0-4.0","6400d9235287137e7b62fd29","bdp_rwlrn","Sat Apr 08 2023 09:01:47 GMT-0700 (Pacific Daylight Time)","389938","Untrustworthy,Trustworthy","[{""page_index"":0,""viewing_time"":3865},{""page_index"":1,""viewing_time"":7134},{""page_index"":2,""viewing_time"":1791},{""page_index"":3,""viewing_time"":2162},{""page_index"":4,""viewing_time"":8247},{""page_index"":5,""viewing_time"":3054}]","26253","","","","","","","","","","","","","","","","","",""
"html-keyboard-response","4","38515","0.0-5.0","6400d9235287137e7b62fd29","bdp_rwlrn","Sat Apr 08 2023 09:01:47 GMT-0700 (Pacific Daylight Time)","389938","Untrustworthy,Trustworthy","","3165","","","","","","<div class='header' style='text-align:left; position: absolute; top: 5%; left: 5%;'><small>Task 3 of 5</small></div><div class='instruxDiv'><p><strong>1) What is the maximum number of points you can choose to bet on a lottery?</strong></p><p>a) 0</p><p>b) 1</p><p>c) 5</p>","C","","","","","","","","","","",""
"html-keyboard-response","5","41677","0.0-6.0","6400d9235287137e7b62fd29","bdp_rwlrn","Sat Apr 08 2023 09:01:47 GMT-0700 (Pacific Daylight Time)","389938","Untrustworthy,Trustworthy","","3060","","","","","","<div class='header' style='text-align:left; position: absolute; top: 5%; left: 5%;'><small>Task 3 of 5</small></div><div class='instruxDiv'><p><strong>1) What is the maximum number of points you can choose to bet on a lottery?</strong></p><p>a) 1</p><p>b) 1</p><p style='color:#00FF00'>c) 5</p><h3 style='color:#00FF00'>Correct!</h3><h3 class='center-content'>The correct response is c).</h3><h3 class='center-content'>The maximum number of points you can choose to bet on a lottery is 5 points.</h3><p><em>Press SPACEBAR to continue</em></p></div>"," ","","","","","","","","","","",""
"html-keyboard-response","6","46807","0.0-7.0","6400d9235287137e7b62fd29","bdp_rwlrn","Sat Apr 08 2023 09:01:47 GMT-0700 (Pacific Daylight Time)","389938","Untrustworthy,Trustworthy","","5024","","","","","","<div class='header' style='text-align:left; position: absolute; top: 5%; left: 5%;'><small>Task 3 of 5</small></div><div class='instruxDiv'><p><strong>2) How many points can you win each round?</strong></p><p>a) 10 points</p><p>b) Double what you bet</p><p>c) Quadruple what you bet</p>","B","","","","","","","","","","",""
"html-keyboard-response","7","48314","0.0-8.0","6400d9235287137e7b62fd29","bdp_rwlrn","Sat Apr 08 2023 09:01:47 GMT-0700 (Pacific Daylight Time)","389938","Untrustworthy,Trustworthy","","1398","","","","","","<div class='header' style='text-align:left; position: absolute; top: 5%; left: 5%;'><small>Task 3 of 5</small></div><div class='instruxDiv'><p><strong>2) How many points can you win each round?</strong></p><p>a) 10 points</p><p style='color:#00FF00'>b) Double what you bet</p><p>c) Quadruple what you bet</p><h3 style='color:#00FF00'>Correct!</h3><h3 class='center-content'>The correct response is b).</h3><h3 class='center-content'>You can win double the amount of points you bet.</h3><p><em>Press SPACEBAR to continue</em></p></div>"," ","","","","","","","","","","",""
"html-keyboard-response","8","53428","0.0-9.0","6400d9235287137e7b62fd29","bdp_rwlrn","Sat Apr 08 2023 09:01:47 GMT-0700 (Pacific Daylight Time)","389938","Untrustworthy,Trustworthy","","null","","","","","","<div class='header' style='text-align:left; position: absolute; top: 5%; left: 5%;'><small>Task 3 of 5</small></div><div class='instruxDiv'><p>Thank you for completing the quiz<p>These are the actual lotteries you will be playing in the next block:<p><div class='tc' align='center'><img class='introPic' src='Fruit/grapes.png'><br><strong>Great Grapes</strong></div><div class='bl' align='center'><img class='introPic' src='Fruit/melon.png'><br><strong>Melon Millions</strong></div><div class='br' align='center'><img class='introPic' src='Fruit/lime.png'><br><strong>Limin' Large</strong></div></div><p>Across <strong>66 rounds</strong> you will play each lottery <strong>22 times</strong> (in random order).<p style='align:center; color:white'><font <em>Press SPACEBAR to continue</em></p>","null","","","","","","","","","","",""
"instructions","9","56013","0.0-10.0","6400d9235287137e7b62fd29","bdp_rwlrn","Sat Apr 08 2023 09:01:47 GMT-0700 (Pacific Daylight Time)","389938","Untrustworthy,Trustworthy","[{""page_index"":0,""viewing_time"":1329},{""page_index"":1,""viewing_time"":1254}]","2584","","","","","","","","","","","","","","","","","",""
"html-keyboard-response","10","60166","0.0-11.0-1.0","6400d9235287137e7b62fd29","bdp_rwlrn","Sat Apr 08 2023 09:01:47 GMT-0700 (Pacific Daylight Time)","389938","Untrustworthy,Trustworthy","","4048","","","","decision","","<div class='trialDiv'><img src='Fruit/melon.png'><br><font class='baseline'><strong>Melon Millions</strong><p>Choose number of points to bet.</font><div class='respPicDiv'><img src='img/responseButtonOffersNo0L.png' class='respPic'></div></div>","3","1","Melon Millions","Fruit/melon.png","Won","0.8,0.35","13","0.8","5","1","",""
"html-keyboard-response","11","60429","0.0-11.0-2.0","6400d9235287137e7b62fd29","bdp_rwlrn","Sat Apr 08 2023 09:01:47 GMT-0700 (Pacific Daylight Time)","389938","Untrustworthy,Trustworthy","","null","","","","decisionFB","","<div class='trialDiv'><img src='Fruit/melon.png'><br><font class='baseline'><strong>Melon Millions</strong><p>Choose number of points to bet.</font><div class='respPicDiv'><img src='img/responseButtonOffersNo0L3.png' class='respPic'></div></div>","null","1","Melon Millions","Fruit/melon.png","Won","0.8,0.35","13","0.8","2","1","",""
"html-keyboard-response","12","61433","0.0-11.0-3.0","6400d9235287137e7b62fd29","bdp_rwlrn","Sat Apr 08 2023 09:01:47 GMT-0700 (Pacific Daylight Time)","389938","Untrustworthy,Trustworthy","","null","","","","feedback","","<div class='respPicDiv'><img src='img/responseButtonOffersNo0_wht.png' class='respPic'></div><div class='trialDiv'><img src='Fruit/melon.png'><br><font class='baseline'><strong>Melon Millions</strong><p><strong><font class='posOutcome'>You WON</font><p>You bet: 3</strong></font> &nbsp; &nbsp; &nbsp; &nbsp; &nbsp; &nbsp;<font class='posOutcome'>you receive: <strong>6</strong></font></div>","null","1","Melon Millions","Fruit/melon.png","Won","0.8,0.35","13","0.8","8","1","",""
"html-keyboard-response","13","62247","0.0-11.0-1.1","6400d9235287137e7b62fd29","bdp_rwlrn","Sat Apr 08 2023 09:01:47 GMT-0700 (Pacific Daylight Time)","389938","Untrustworthy,Trustworthy","","812","","","","decision","","<div class='trialDiv'><img src='Fruit/lime.png'><br><font class='baseline'><strong>Limin' Large</strong><p>Choose number of points to bet.</font><div class='respPicDiv'><img src='img/responseButtonOffersNo0L.png' class='respPic'></div></div>","3","1","Limin' Large","Fruit/lime.png","Lost","0.2,0.65","14","0.2","13","2","",""
"html-keyboard-response","14","62504","0.0-11.0-2.1","6400d9235287137e7b62fd29","bdp_rwlrn","Sat Apr 08 2023 09:01:47 GMT-0700 (Pacific Daylight Time)","389938","Untrustworthy,Trustworthy","","null","","","","decisionFB","","<div class='trialDiv'><img src='Fruit/lime.png'><br><font class='baseline'><strong>Limin' Large</strong><p>Choose number of points to bet.</font><div class='respPicDiv'><img src='img/responseButtonOffersNo0L3.png' class='respPic'></div></div>","null","1","Limin' Large","Fruit/lime.png","Lost","0.2,0.65","14","0.2","10","2","",""
"html-keyboard-response","15","63511","0.0-11.0-3.1","6400d9235287137e7b62fd29","bdp_rwlrn","Sat Apr 08 2023 09:01:47 GMT-0700 (Pacific Daylight Time)","389938","Untrustworthy,Trustworthy","","null","","","","feedback","","<div class='respPicDiv'><img src='img/responseButtonOffersNo0_wht.png' class='respPic'></div><div class='trialDiv'><img src='Fruit/lime.png'><br><font class='baseline'><strong>Limin' Large</strong><p><strong><font class='negOutcome'>You LOST</font><p>You bet: 3</strong></font> &nbsp; &nbsp; &nbsp; &nbsp; &nbsp; &nbsp;<font class='negOutcome'>You receive: <strong>0</strong></font></div>","null","1","Limin' Large","Fruit/lime.png","Lost","0.2,0.65","14","0.2","10","2","",""
"html-keyboard-response","16","64145","0.0-11.0-1.2","6400d9235287137e7b62fd29","bdp_rwlrn","Sat Apr 08 2023 09:01:47 GMT-0700 (Pacific Daylight Time)","389938","Untrustworthy,Trustworthy","","632","","","","decision","","<div class='trialDiv'><img src='Fruit/grapes.png'><br><font class='baseline'><strong>Great Grapes</strong><p>Choose number of points to bet.</font><div class='respPicDiv'><img src='img/responseButtonOffersNo0L.png' class='respPic'></div></div>","2","1","Great Grapes","Fruit/grapes.png","Won","0.8,0.2","11","0.8","15","3","",""
"html-keyboard-response","17","64398","0.0-11.0-2.2","6400d9235287137e7b62fd29","bdp_rwlrn","Sat Apr 08 2023 09:01:47 GMT-0700 (Pacific Daylight Time)","389938","Untrustworthy,Trustworthy","","null","","","","decisionFB","","<div class='trialDiv'><img src='Fruit/grapes.png'><br><font class='baseline'><strong>Great Grapes</strong><p>Choose number of points to bet.</font><div class='respPicDiv'><img src='img/responseButtonOffersNo0L2.png' class='respPic'></div></div>","null","1","Great Grapes","Fruit/grapes.png","Won","0.8,0.2","11","0.8","13","3","",""
"html-keyboard-response","18","65407","0.0-11.0-3.2","6400d9235287137e7b62fd29","bdp_rwlrn","Sat Apr 08 2023 09:01:47 GMT-0700 (Pacific Daylight Time)","389938","Untrustworthy,Trustworthy","","null","","","","feedback","","<div class='respPicDiv'><img src='img/responseButtonOffersNo0_wht.png' class='respPic'></div><div class='trialDiv'><img src='Fruit/grapes.png'><br><font class='baseline'><strong>Great Grapes</strong><p><strong><font class='posOutcome'>You WON</font><p>You bet: 2</strong></font> &nbsp; &nbsp; &nbsp; &nbsp; &nbsp; &nbsp;<font class='posOutcome'>you receive: <strong>4</strong></font></div>","null","1","Great Grapes","Fruit/grapes.png","Won","0.8,0.2","11","0.8","17","3","",""
"html-keyboard-response","19","67206","0.0-11.0-1.3","6400d9235287137e7b62fd29","bdp_rwlrn","Sat Apr 08 2023 09:01:47 GMT-0700 (Pacific Daylight Time)","389938","Untrustworthy,Trustworthy","","1797","","","","decision","","<div class='trialDiv'><img src='Fruit/melon.png'><br><font class='baseline'><strong>Melon Millions</strong><p>Choose number of points to bet.</font><div class='respPicDiv'><img src='img/responseButtonOffersNo0L.png' class='respPic'></div></div>","5","2","Melon Millions","Fruit/melon.png","Won","0.8,0.35","13","0.8","22","4","",""
"html-keyboard-response","20","67469","0.0-11.0-2.3","6400d9235287137e7b62fd29","bdp_rwlrn","Sat Apr 08 2023 09:01:47 GMT-0700 (Pacific Daylight Time)","389938","Untrustworthy,Trustworthy","","null","","","","decisionFB","","<div class='trialDiv'><img src='Fruit/melon.png'><br><font class='baseline'><strong>Melon Millions</strong><p>Choose number of points to bet.</font><div class='respPicDiv'><img src='img/responseButtonOffersNo0L5.png' class='respPic'></div></div>","null","2","Melon Millions","Fruit/melon.png","Won","0.8,0.35","13","0.8","17","4","",""
"html-keyboard-response","21","68479","0.0-11.0-3.3","6400d9235287137e7b62fd29","bdp_rwlrn","Sat Apr 08 2023 09:01:47 GMT-0700 (Pacific Daylight Time)","389938","Untrustworthy,Trustworthy","","null","","","","feedback","","<div class='respPicDiv'><img src='img/responseButtonOffersNo0_wht.png' class='respPic'></div><div class='trialDiv'><img src='Fruit/melon.png'><br><font class='baseline'><strong>Melon Millions</strong><p><strong><font class='posOutcome'>You WON</font><p>You bet: 5</strong></font> &nbsp; &nbsp; &nbsp; &nbsp; &nbsp; &nbsp;<font class='posOutcome'>you receive: <strong>10</strong></font></div>","null","2","Melon Millions","Fruit/melon.png","Won","0.8,0.35","13","0.8","27","4","",""
"html-keyboard-response","22","69878","0.0-11.0-1.4","6400d9235287137e7b62fd29","bdp_rwlrn","Sat Apr 08 2023 09:01:47 GMT-0700 (Pacific Daylight Time)","389938","Untrustworthy,Trustworthy","","1397","","","","decision","","<div class='trialDiv'><img src='Fruit/lime.png'><br><font class='baseline'><strong>Limin' Large</strong><p>Choose number of points to bet.</font><div class='respPicDiv'><img src='img/responseButtonOffersNo0L.png' class='respPic'></div></div>","2","2","Limin' Large","Fruit/lime.png","Lost","0.2,0.65","14","0.2","32","5","",""
"html-keyboard-response","23","70132","0.0-11.0-2.4","6400d9235287137e7b62fd29","bdp_rwlrn","Sat Apr 08 2023 09:01:47 GMT-0700 (Pacific Daylight Time)","389938","Untrustworthy,Trustworthy","","null","","","","decisionFB","","<div class='trialDiv'><img src='Fruit/lime.png'><br><font class='baseline'><strong>Limin' Large</strong><p>Choose number of points to bet.</font><div class='respPicDiv'><img src='img/responseButtonOffersNo0L2.png' class='respPic'></div></div>","null","2","Limin' Large","Fruit/lime.png","Lost","0.2,0.65","14","0.2","30","5","",""
"html-keyboard-response","24","71136","0.0-11.0-3.4","6400d9235287137e7b62fd29","bdp_rwlrn","Sat Apr 08 2023 09:01:47 GMT-0700 (Pacific Daylight Time)","389938","Untrustworthy,Trustworthy","","null","","","","feedback","","<div class='respPicDiv'><img src='img/responseButtonOffersNo0_wht.png' class='respPic'></div><div class='trialDiv'><img src='Fruit/lime.png'><br><font class='baseline'><strong>Limin' Large</strong><p><strong><font class='negOutcome'>You LOST</font><p>You bet: 2</strong></font> &nbsp; &nbsp; &nbsp; &nbsp; &nbsp; &nbsp;<font class='negOutcome'>You receive: <strong>0</strong></font></div>","null","2","Limin' Large","Fruit/lime.png","Lost","0.2,0.65","14","0.2","30","5","",""
"html-keyboard-response","25","71935","0.0-11.0-1.5","6400d9235287137e7b62fd29","bdp_rwlrn","Sat Apr 08 2023 09:01:47 GMT-0700 (Pacific Daylight Time)","389938","Untrustworthy,Trustworthy","","797","","","","decision","","<div class='trialDiv'><img src='Fruit/grapes.png'><br><font class='baseline'><strong>Great Grapes</strong><p>Choose number of points to bet.</font><div class='respPicDiv'><img src='img/responseButtonOffersNo0L.png' class='respPic'></div></div>","5","2","Great Grapes","Fruit/grapes.png","Won","0.8,0.2","11","0.8","35","6","",""
"html-keyboard-response","26","72194","0.0-11.0-2.5","6400d9235287137e7b62fd29","bdp_rwlrn","Sat Apr 08 2023 09:01:47 GMT-0700 (Pacific Daylight Time)","389938","Untrustworthy,Trustworthy","","null","","","","decisionFB","","<div class='trialDiv'><img src='Fruit/grapes.png'><br><font class='baseline'><strong>Great Grapes</strong><p>Choose number of points to bet.</font><div class='respPicDiv'><img src='img/responseButtonOffersNo0L5.png' class='respPic'></div></div>","null","2","Great Grapes","Fruit/grapes.png","Won","0.8,0.2","11","0.8","30","6","",""
"html-keyboard-response","27","73200","0.0-11.0-3.5","6400d9235287137e7b62fd29","bdp_rwlrn","Sat Apr 08 2023 09:01:47 GMT-0700 (Pacific Daylight Time)","389938","Untrustworthy,Trustworthy","","null","","","","feedback","","<div class='respPicDiv'><img src='img/responseButtonOffersNo0_wht.png' class='respPic'></div><div class='trialDiv'><img src='Fruit/grapes.png'><br><font class='baseline'><strong>Great Grapes</strong><p><strong><font class='posOutcome'>You WON</font><p>You bet: 5</strong></font> &nbsp; &nbsp; &nbsp; &nbsp; &nbsp; &nbsp;<font class='posOutcome'>you receive: <strong>10</strong></font></div>","null","2","Great Grapes","Fruit/grapes.png","Won","0.8,0.2","11","0.8","40","6","",""
"html-keyboard-response","28","74196","0.0-11.0-1.6","6400d9235287137e7b62fd29","bdp_rwlrn","Sat Apr 08 2023 09:01:47 GMT-0700 (Pacific Daylight Time)","389938","Untrustworthy,Trustworthy","","993","","","","decision","","<div class='trialDiv'><img src='Fruit/melon.png'><br><font class='baseline'><strong>Melon Millions</strong><p>Choose number of points to bet.</font><div class='respPicDiv'><img src='img/responseButtonOffersNo0L.png' class='respPic'></div></div>","1","3","Melon Millions","Fruit/melon.png","Won","0.8,0.35","13","0.8","45","7","",""
"html-keyboard-response","29","74454","0.0-11.0-2.6","6400d9235287137e7b62fd29","bdp_rwlrn","Sat Apr 08 2023 09:01:47 GMT-0700 (Pacific Daylight Time)","389938","Untrustworthy,Trustworthy","","null","","","","decisionFB","","<div class='trialDiv'><img src='Fruit/melon.png'><br><font class='baseline'><strong>Melon Millions</strong><p>Choose number of points to bet.</font><div class='respPicDiv'><img src='img/responseButtonOffersNo0L1.png' class='respPic'></div></div>","null","3","Melon Millions","Fruit/melon.png","Won","0.8,0.35","13","0.8","44","7","",""
"html-keyboard-response","30","75461","0.0-11.0-3.6","6400d9235287137e7b62fd29","bdp_rwlrn","Sat Apr 08 2023 09:01:47 GMT-0700 (Pacific Daylight Time)","389938","Untrustworthy,Trustworthy","","null","","","","feedback","","<div class='respPicDiv'><img src='img/responseButtonOffersNo0_wht.png' class='respPic'></div><div class='trialDiv'><img src='Fruit/melon.png'><br><font class='baseline'><strong>Melon Millions</strong><p><strong><font class='posOutcome'>You WON</font><p>You bet: 1</strong></font> &nbsp; &nbsp; &nbsp; &nbsp; &nbsp; &nbsp;<font class='posOutcome'>you receive: <strong>2</strong></font></div>","null","3","Melon Millions","Fruit/melon.png","Won","0.8,0.35","13","0.8","46","7","",""
"html-keyboard-response","31","76564","0.0-11.0-1.7","6400d9235287137e7b62fd29","bdp_rwlrn","Sat Apr 08 2023 09:01:47 GMT-0700 (Pacific Daylight Time)","389938","Untrustworthy,Trustworthy","","1101","","","","decision","","<div class='trialDiv'><img src='Fruit/lime.png'><br><font class='baseline'><strong>Limin' Large</strong><p>Choose number of points to bet.</font><div class='respPicDiv'><img src='img/responseButtonOffersNo0L.png' class='respPic'></div></div>","5","3","Limin' Large","Fruit/lime.png","Lost","0.2,0.65","14","0.2","51","8","",""
"html-keyboard-response","32","76818","0.0-11.0-2.7","6400d9235287137e7b62fd29","bdp_rwlrn","Sat Apr 08 2023 09:01:47 GMT-0700 (Pacific Daylight Time)","389938","Untrustworthy,Trustworthy","","null","","","","decisionFB","","<div class='trialDiv'><img src='Fruit/lime.png'><br><font class='baseline'><strong>Limin' Large</strong><p>Choose number of points to bet.</font><div class='respPicDiv'><img src='img/responseButtonOffersNo0L5.png' class='respPic'></div></div>","null","3","Limin' Large","Fruit/lime.png","Lost","0.2,0.65","14","0.2","46","8","",""
"html-keyboard-response","33","77827","0.0-11.0-3.7","6400d9235287137e7b62fd29","bdp_rwlrn","Sat Apr 08 2023 09:01:47 GMT-0700 (Pacific Daylight Time)","389938","Untrustworthy,Trustworthy","","null","","","","feedback","","<div class='respPicDiv'><img src='img/responseButtonOffersNo0_wht.png' class='respPic'></div><div class='trialDiv'><img src='Fruit/lime.png'><br><font class='baseline'><strong>Limin' Large</strong><p><strong><font class='negOutcome'>You LOST</font><p>You bet: 5</strong></font> &nbsp; &nbsp; &nbsp; &nbsp; &nbsp; &nbsp;<font class='negOutcome'>You receive: <strong>0</strong></font></div>","null","3","Limin' Large","Fruit/lime.png","Lost","0.2,0.65","14","0.2","46","8","",""
"html-keyboard-response","34","78807","0.0-11.0-1.8","6400d9235287137e7b62fd29","bdp_rwlrn","Sat Apr 08 2023 09:01:47 GMT-0700 (Pacific Daylight Time)","389938","Untrustworthy,Trustworthy","","978","","","","decision","","<div class='trialDiv'><img src='Fruit/grapes.png'><br><font class='baseline'><strong>Great Grapes</strong><p>Choose number of points to bet.</font><div class='respPicDiv'><img src='img/responseButtonOffersNo0L.png' class='respPic'></div></div>","5","3","Great Grapes","Fruit/grapes.png","Won","0.8,0.2","11","0.8","51","9","",""
"html-keyboard-response","35","79065","0.0-11.0-2.8","6400d9235287137e7b62fd29","bdp_rwlrn","Sat Apr 08 2023 09:01:47 GMT-0700 (Pacific Daylight Time)","389938","Untrustworthy,Trustworthy","","null","","","","decisionFB","","<div class='trialDiv'><img src='Fruit/grapes.png'><br><font class='baseline'><strong>Great Grapes</strong><p>Choose number of points to bet.</font><div class='respPicDiv'><img src='img/responseButtonOffersNo0L5.png' class='respPic'></div></div>","null","3","Great Grapes","Fruit/grapes.png","Won","0.8,0.2","11","0.8","46","9","",""
"html-keyboard-response","36","80074","0.0-11.0-3.8","6400d9235287137e7b62fd29","bdp_rwlrn","Sat Apr 08 2023 09:01:47 GMT-0700 (Pacific Daylight Time)","389938","Untrustworthy,Trustworthy","","null","","","","feedback","","<div class='respPicDiv'><img src='img/responseButtonOffersNo0_wht.png' class='respPic'></div><div class='trialDiv'><img src='Fruit/grapes.png'><br><font class='baseline'><strong>Great Grapes</strong><p><strong><font class='posOutcome'>You WON</font><p>You bet: 5</strong></font> &nbsp; &nbsp; &nbsp; &nbsp; &nbsp; &nbsp;<font class='posOutcome'>you receive: <strong>10</strong></font></div>","null","3","Great Grapes","Fruit/grapes.png","Won","0.8,0.2","11","0.8","56","9","",""
"html-keyboard-response","37","82801","0.0-11.0-1.9","6400d9235287137e7b62fd29","bdp_rwlrn","Sat Apr 08 2023 09:01:47 GMT-0700 (Pacific Daylight Time)","389938","Untrustworthy,Trustworthy","","2725","","","","decision","","<div class='trialDiv'><img src='Fruit/melon.png'><br><font class='baseline'><strong>Melon Millions</strong><p>Choose number of points to bet.</font><div class='respPicDiv'><img src='img/responseButtonOffersNo0L.png' class='respPic'></div></div>","4","4","Melon Millions","Fruit/melon.png","Won","0.8,0.35","13","0.8","61","10","",""
"html-keyboard-response","38","83061","0.0-11.0-2.9","6400d9235287137e7b62fd29","bdp_rwlrn","Sat Apr 08 2023 09:01:47 GMT-0700 (Pacific Daylight Time)","389938","Untrustworthy,Trustworthy","","null","","","","decisionFB","","<div class='trialDiv'><img src='Fruit/melon.png'><br><font class='baseline'><strong>Melon Millions</strong><p>Choose number of points to bet.</font><div class='respPicDiv'><img src='img/responseButtonOffersNo0L4.png' class='respPic'></div></div>","null","4","Melon Millions","Fruit/melon.png","Won","0.8,0.35","13","0.8","57","10","",""
"html-keyboard-response","39","84067","0.0-11.0-3.9","6400d9235287137e7b62fd29","bdp_rwlrn","Sat Apr 08 2023 09:01:47 GMT-0700 (Pacific Daylight Time)","389938","Untrustworthy,Trustworthy","","null","","","","feedback","","<div class='respPicDiv'><img src='img/responseButtonOffersNo0_wht.png' class='respPic'></div><div class='trialDiv'><img src='Fruit/melon.png'><br><font class='baseline'><strong>Melon Millions</strong><p><strong><font class='posOutcome'>You WON</font><p>You bet: 4</strong></font> &nbsp; &nbsp; &nbsp; &nbsp; &nbsp; &nbsp;<font class='posOutcome'>you receive: <strong>8</strong></font></div>","null","4","Melon Millions","Fruit/melon.png","Won","0.8,0.35","13","0.8","65","10","",""
"html-keyboard-response","40","84860","0.0-11.0-1.10","6400d9235287137e7b62fd29","bdp_rwlrn","Sat Apr 08 2023 09:01:47 GMT-0700 (Pacific Daylight Time)","389938","Untrustworthy,Trustworthy","","792","","","","decision","","<div class='trialDiv'><img src='Fruit/grapes.png'><br><font class='baseline'><strong>Great Grapes</strong><p>Choose number of points to bet.</font><div class='respPicDiv'><img src='img/responseButtonOffersNo0L.png' class='respPic'></div></div>","5","4","Great Grapes","Fruit/grapes.png","Won","0.8,0.2","11","0.8","70","11","",""
"html-keyboard-response","41","85119","0.0-11.0-2.10","6400d9235287137e7b62fd29","bdp_rwlrn","Sat Apr 08 2023 09:01:47 GMT-0700 (Pacific Daylight Time)","389938","Untrustworthy,Trustworthy","","null","","","","decisionFB","","<div class='trialDiv'><img src='Fruit/grapes.png'><br><font class='baseline'><strong>Great Grapes</strong><p>Choose number of points to bet.</font><div class='respPicDiv'><img src='img/responseButtonOffersNo0L5.png' class='respPic'></div></div>","null","4","Great Grapes","Fruit/grapes.png","Won","0.8,0.2","11","0.8","65","11","",""
"html-keyboard-response","42","86129","0.0-11.0-3.10","6400d9235287137e7b62fd29","bdp_rwlrn","Sat Apr 08 2023 09:01:47 GMT-0700 (Pacific Daylight Time)","389938","Untrustworthy,Trustworthy","","null","","","","feedback","","<div class='respPicDiv'><img src='img/responseButtonOffersNo0_wht.png' class='respPic'></div><div class='trialDiv'><img src='Fruit/grapes.png'><br><font class='baseline'><strong>Great Grapes</strong><p><strong><font class='posOutcome'>You WON</font><p>You bet: 5</strong></font> &nbsp; &nbsp; &nbsp; &nbsp; &nbsp; &nbsp;<font class='posOutcome'>you receive: <strong>10</strong></font></div>","null","4","Great Grapes","Fruit/grapes.png","Won","0.8,0.2","11","0.8","75","11","",""
"html-keyboard-response","43","87202","0.0-11.0-1.11","6400d9235287137e7b62fd29","bdp_rwlrn","Sat Apr 08 2023 09:01:47 GMT-0700 (Pacific Daylight Time)","389938","Untrustworthy,Trustworthy","","1071","","","","decision","","<div class='trialDiv'><img src='Fruit/lime.png'><br><font class='baseline'><strong>Limin' Large</strong><p>Choose number of points to bet.</font><div class='respPicDiv'><img src='img/responseButtonOffersNo0L.png' class='respPic'></div></div>","1","4","Limin' Large","Fruit/lime.png","Lost","0.2,0.65","14","0.2","80","12","",""
"html-keyboard-response","44","87462","0.0-11.0-2.11","6400d9235287137e7b62fd29","bdp_rwlrn","Sat Apr 08 2023 09:01:47 GMT-0700 (Pacific Daylight Time)","389938","Untrustworthy,Trustworthy","","null","","","","decisionFB","","<div class='trialDiv'><img src='Fruit/lime.png'><br><font class='baseline'><strong>Limin' Large</strong><p>Choose number of points to bet.</font><div class='respPicDiv'><img src='img/responseButtonOffersNo0L1.png' class='respPic'></div></div>","null","4","Limin' Large","Fruit/lime.png","Lost","0.2,0.65","14","0.2","79","12","",""
"html-keyboard-response","45","88468","0.0-11.0-3.11","6400d9235287137e7b62fd29","bdp_rwlrn","Sat Apr 08 2023 09:01:47 GMT-0700 (Pacific Daylight Time)","389938","Untrustworthy,Trustworthy","","null","","","","feedback","","<div class='respPicDiv'><img src='img/responseButtonOffersNo0_wht.png' class='respPic'></div><div class='trialDiv'><img src='Fruit/lime.png'><br><font class='baseline'><strong>Limin' Large</strong><p><strong><font class='negOutcome'>You LOST</font><p>You bet: 1</strong></font> &nbsp; &nbsp; &nbsp; &nbsp; &nbsp; &nbsp;<font class='negOutcome'>You receive: <strong>0</strong></font></div>","null","4","Limin' Large","Fruit/lime.png","Lost","0.2,0.65","14","0.2","79","12","",""
"html-keyboard-response","46","89376","0.0-11.0-1.12","6400d9235287137e7b62fd29","bdp_rwlrn","Sat Apr 08 2023 09:01:47 GMT-0700 (Pacific Daylight Time)","389938","Untrustworthy,Trustworthy","","906","","","","decision","","<div class='trialDiv'><img src='Fruit/melon.png'><br><font class='baseline'><strong>Melon Millions</strong><p>Choose number of points to bet.</font><div class='respPicDiv'><img src='img/responseButtonOffersNo0L.png' class='respPic'></div></div>","5","5","Melon Millions","Fruit/melon.png","Won","0.8,0.35","13","0.8","84","13","",""
"html-keyboard-response","47","89634","0.0-11.0-2.12","6400d9235287137e7b62fd29","bdp_rwlrn","Sat Apr 08 2023 09:01:47 GMT-0700 (Pacific Daylight Time)","389938","Untrustworthy,Trustworthy","","null","","","","decisionFB","","<div class='trialDiv'><img src='Fruit/melon.png'><br><font class='baseline'><strong>Melon Millions</strong><p>Choose number of points to bet.</font><div class='respPicDiv'><img src='img/responseButtonOffersNo0L5.png' class='respPic'></div></div>","null","5","Melon Millions","Fruit/melon.png","Won","0.8,0.35","13","0.8","79","13","",""
"html-keyboard-response","48","90640","0.0-11.0-3.12","6400d9235287137e7b62fd29","bdp_rwlrn","Sat Apr 08 2023 09:01:47 GMT-0700 (Pacific Daylight Time)","389938","Untrustworthy,Trustworthy","","null","","","","feedback","","<div class='respPicDiv'><img src='img/responseButtonOffersNo0_wht.png' class='respPic'></div><div class='trialDiv'><img src='Fruit/melon.png'><br><font class='baseline'><strong>Melon Millions</strong><p><strong><font class='posOutcome'>You WON</font><p>You bet: 5</strong></font> &nbsp; &nbsp; &nbsp; &nbsp; &nbsp; &nbsp;<font class='posOutcome'>you receive: <strong>10</strong></font></div>","null","5","Melon Millions","Fruit/melon.png","Won","0.8,0.35","13","0.8","89","13","",""
"html-keyboard-response","49","91402","0.0-11.0-1.13","6400d9235287137e7b62fd29","bdp_rwlrn","Sat Apr 08 2023 09:01:47 GMT-0700 (Pacific Daylight Time)","389938","Untrustworthy,Trustworthy","","760","","","","decision","","<div class='trialDiv'><img src='Fruit/grapes.png'><br><font class='baseline'><strong>Great Grapes</strong><p>Choose number of points to bet.</font><div class='respPicDiv'><img src='img/responseButtonOffersNo0L.png' class='respPic'></div></div>","5","5","Great Grapes","Fruit/grapes.png","Won","0.8,0.2","11","0.8","94","14","",""
"html-keyboard-response","50","91666","0.0-11.0-2.13","6400d9235287137e7b62fd29","bdp_rwlrn","Sat Apr 08 2023 09:01:47 GMT-0700 (Pacific Daylight Time)","389938","Untrustworthy,Trustworthy","","null","","","","decisionFB","","<div class='trialDiv'><img src='Fruit/grapes.png'><br><font class='baseline'><strong>Great Grapes</strong><p>Choose number of points to bet.</font><div class='respPicDiv'><img src='img/responseButtonOffersNo0L5.png' class='respPic'></div></div>","null","5","Great Grapes","Fruit/grapes.png","Won","0.8,0.2","11","0.8","89","14","",""
"html-keyboard-response","51","92677","0.0-11.0-3.13","6400d9235287137e7b62fd29","bdp_rwlrn","Sat Apr 08 2023 09:01:47 GMT-0700 (Pacific Daylight Time)","389938","Untrustworthy,Trustworthy","","null","","","","feedback","","<div class='respPicDiv'><img src='img/responseButtonOffersNo0_wht.png' class='respPic'></div><div class='trialDiv'><img src='Fruit/grapes.png'><br><font class='baseline'><strong>Great Grapes</strong><p><strong><font class='posOutcome'>You WON</font><p>You bet: 5</strong></font> &nbsp; &nbsp; &nbsp; &nbsp; &nbsp; &nbsp;<font class='posOutcome'>you receive: <strong>10</strong></font></div>","null","5","Great Grapes","Fruit/grapes.png","Won","0.8,0.2","11","0.8","99","14","",""
"html-keyboard-response","52","93579","0.0-11.0-1.14","6400d9235287137e7b62fd29","bdp_rwlrn","Sat Apr 08 2023 09:01:47 GMT-0700 (Pacific Daylight Time)","389938","Untrustworthy,Trustworthy","","900","","","","decision","","<div class='trialDiv'><img src='Fruit/lime.png'><br><font class='baseline'><strong>Limin' Large</strong><p>Choose number of points to bet.</font><div class='respPicDiv'><img src='img/responseButtonOffersNo0L.png' class='respPic'></div></div>","2","5","Limin' Large","Fruit/lime.png","Lost","0.2,0.65","14","0.2","104","15","",""
"html-keyboard-response","53","93833","0.0-11.0-2.14","6400d9235287137e7b62fd29","bdp_rwlrn","Sat Apr 08 2023 09:01:47 GMT-0700 (Pacific Daylight Time)","389938","Untrustworthy,Trustworthy","","null","","","","decisionFB","","<div class='trialDiv'><img src='Fruit/lime.png'><br><font class='baseline'><strong>Limin' Large</strong><p>Choose number of points to bet.</font><div class='respPicDiv'><img src='img/responseButtonOffersNo0L2.png' class='respPic'></div></div>","null","5","Limin' Large","Fruit/lime.png","Lost","0.2,0.65","14","0.2","102","15","",""
"html-keyboard-response","54","94839","0.0-11.0-3.14","6400d9235287137e7b62fd29","bdp_rwlrn","Sat Apr 08 2023 09:01:47 GMT-0700 (Pacific Daylight Time)","389938","Untrustworthy,Trustworthy","","null","","","","feedback","","<div class='respPicDiv'><img src='img/responseButtonOffersNo0_wht.png' class='respPic'></div><div class='trialDiv'><img src='Fruit/lime.png'><br><font class='baseline'><strong>Limin' Large</strong><p><strong><font class='negOutcome'>You LOST</font><p>You bet: 2</strong></font> &nbsp; &nbsp; &nbsp; &nbsp; &nbsp; &nbsp;<font class='negOutcome'>You receive: <strong>0</strong></font></div>","null","5","Limin' Large","Fruit/lime.png","Lost","0.2,0.65","14","0.2","102","15","",""
"html-keyboard-response","55","95457","0.0-11.0-1.15","6400d9235287137e7b62fd29","bdp_rwlrn","Sat Apr 08 2023 09:01:47 GMT-0700 (Pacific Daylight Time)","389938","Untrustworthy,Trustworthy","","617","","","","decision","","<div class='trialDiv'><img src='Fruit/melon.png'><br><font class='baseline'><strong>Melon Millions</strong><p>Choose number of points to bet.</font><div class='respPicDiv'><img src='img/responseButtonOffersNo0L.png' class='respPic'></div></div>","5","6","Melon Millions","Fruit/melon.png","Won","0.8,0.35","13","0.8","107","16","",""
"html-keyboard-response","56","95710","0.0-11.0-2.15","6400d9235287137e7b62fd29","bdp_rwlrn","Sat Apr 08 2023 09:01:47 GMT-0700 (Pacific Daylight Time)","389938","Untrustworthy,Trustworthy","","null","","","","decisionFB","","<div class='trialDiv'><img src='Fruit/melon.png'><br><font class='baseline'><strong>Melon Millions</strong><p>Choose number of points to bet.</font><div class='respPicDiv'><img src='img/responseButtonOffersNo0L5.png' class='respPic'></div></div>","null","6","Melon Millions","Fruit/melon.png","Won","0.8,0.35","13","0.8","102","16","",""
"html-keyboard-response","57","96719","0.0-11.0-3.15","6400d9235287137e7b62fd29","bdp_rwlrn","Sat Apr 08 2023 09:01:47 GMT-0700 (Pacific Daylight Time)","389938","Untrustworthy,Trustworthy","","null","","","","feedback","","<div class='respPicDiv'><img src='img/responseButtonOffersNo0_wht.png' class='respPic'></div><div class='trialDiv'><img src='Fruit/melon.png'><br><font class='baseline'><strong>Melon Millions</strong><p><strong><font class='posOutcome'>You WON</font><p>You bet: 5</strong></font> &nbsp; &nbsp; &nbsp; &nbsp; &nbsp; &nbsp;<font class='posOutcome'>you receive: <strong>10</strong></font></div>","null","6","Melon Millions","Fruit/melon.png","Won","0.8,0.35","13","0.8","112","16","",""
"html-keyboard-response","58","97469","0.0-11.0-1.16","6400d9235287137e7b62fd29","bdp_rwlrn","Sat Apr 08 2023 09:01:47 GMT-0700 (Pacific Daylight Time)","389938","Untrustworthy,Trustworthy","","748","","","","decision","","<div class='trialDiv'><img src='Fruit/grapes.png'><br><font class='baseline'><strong>Great Grapes</strong><p>Choose number of points to bet.</font><div class='respPicDiv'><img src='img/responseButtonOffersNo0L.png' class='respPic'></div></div>","5","6","Great Grapes","Fruit/grapes.png","Won","0.8,0.2","11","0.8","117","17","",""
"html-keyboard-response","59","97723","0.0-11.0-2.16","6400d9235287137e7b62fd29","bdp_rwlrn","Sat Apr 08 2023 09:01:47 GMT-0700 (Pacific Daylight Time)","389938","Untrustworthy,Trustworthy","","null","","","","decisionFB","","<div class='trialDiv'><img src='Fruit/grapes.png'><br><font class='baseline'><strong>Great Grapes</strong><p>Choose number of points to bet.</font><div class='respPicDiv'><img src='img/responseButtonOffersNo0L5.png' class='respPic'></div></div>","null","6","Great Grapes","Fruit/grapes.png","Won","0.8,0.2","11","0.8","112","17","",""
"html-keyboard-response","60","98727","0.0-11.0-3.16","6400d9235287137e7b62fd29","bdp_rwlrn","Sat Apr 08 2023 09:01:47 GMT-0700 (Pacific Daylight Time)","389938","Untrustworthy,Trustworthy","","null","","","","feedback","","<div class='respPicDiv'><img src='img/responseButtonOffersNo0_wht.png' class='respPic'></div><div class='trialDiv'><img src='Fruit/grapes.png'><br><font class='baseline'><strong>Great Grapes</strong><p><strong><font class='posOutcome'>You WON</font><p>You bet: 5</strong></font> &nbsp; &nbsp; &nbsp; &nbsp; &nbsp; &nbsp;<font class='posOutcome'>you receive: <strong>10</strong></font></div>","null","6","Great Grapes","Fruit/grapes.png","Won","0.8,0.2","11","0.8","122","17","",""
"html-keyboard-response","61","99171","0.0-11.0-1.17","6400d9235287137e7b62fd29","bdp_rwlrn","Sat Apr 08 2023 09:01:47 GMT-0700 (Pacific Daylight Time)","389938","Untrustworthy,Trustworthy","","443","","","","decision","","<div class='trialDiv'><img src='Fruit/lime.png'><br><font class='baseline'><strong>Limin' Large</strong><p>Choose number of points to bet.</font><div class='respPicDiv'><img src='img/responseButtonOffersNo0L.png' class='respPic'></div></div>","5","6","Limin' Large","Fruit/lime.png","Lost","0.2,0.65","14","0.2","127","18","",""
"html-keyboard-response","62","99430","0.0-11.0-2.17","6400d9235287137e7b62fd29","bdp_rwlrn","Sat Apr 08 2023 09:01:47 GMT-0700 (Pacific Daylight Time)","389938","Untrustworthy,Trustworthy","","null","","","","decisionFB","","<div class='trialDiv'><img src='Fruit/lime.png'><br><font class='baseline'><strong>Limin' Large</strong><p>Choose number of points to bet.</font><div class='respPicDiv'><img src='img/responseButtonOffersNo0L5.png' class='respPic'></div></div>","null","6","Limin' Large","Fruit/lime.png","Lost","0.2,0.65","14","0.2","122","18","",""
"html-keyboard-response","63","100440","0.0-11.0-3.17","6400d9235287137e7b62fd29","bdp_rwlrn","Sat Apr 08 2023 09:01:47 GMT-0700 (Pacific Daylight Time)","389938","Untrustworthy,Trustworthy","","null","","","","feedback","","<div class='respPicDiv'><img src='img/responseButtonOffersNo0_wht.png' class='respPic'></div><div class='trialDiv'><img src='Fruit/lime.png'><br><font class='baseline'><strong>Limin' Large</strong><p><strong><font class='negOutcome'>You LOST</font><p>You bet: 5</strong></font> &nbsp; &nbsp; &nbsp; &nbsp; &nbsp; &nbsp;<font class='negOutcome'>You receive: <strong>0</strong></font></div>","null","6","Limin' Large","Fruit/lime.png","Lost","0.2,0.65","14","0.2","122","18","",""
"html-keyboard-response","64","100968","0.0-11.0-1.18","6400d9235287137e7b62fd29","bdp_rwlrn","Sat Apr 08 2023 09:01:47 GMT-0700 (Pacific Daylight Time)","389938","Untrustworthy,Trustworthy","","526","","","","decision","","<div class='trialDiv'><img src='Fruit/melon.png'><br><font class='baseline'><strong>Melon Millions</strong><p>Choose number of points to bet.</font><div class='respPicDiv'><img src='img/responseButtonOffersNo0L.png' class='respPic'></div></div>","5","7","Melon Millions","Fruit/melon.png","Won","0.8,0.35","13","0.8","127","19","",""
"html-keyboard-response","65","101221","0.0-11.0-2.18","6400d9235287137e7b62fd29","bdp_rwlrn","Sat Apr 08 2023 09:01:47 GMT-0700 (Pacific Daylight Time)","389938","Untrustworthy,Trustworthy","","null","","","","decisionFB","","<div class='trialDiv'><img src='Fruit/melon.png'><br><font class='baseline'><strong>Melon Millions</strong><p>Choose number of points to bet.</font><div class='respPicDiv'><img src='img/responseButtonOffersNo0L5.png' class='respPic'></div></div>","null","7","Melon Millions","Fruit/melon.png","Won","0.8,0.35","13","0.8","122","19","",""
"html-keyboard-response","66","102233","0.0-11.0-3.18","6400d9235287137e7b62fd29","bdp_rwlrn","Sat Apr 08 2023 09:01:47 GMT-0700 (Pacific Daylight Time)","389938","Untrustworthy,Trustworthy","","null","","","","feedback","","<div class='respPicDiv'><img src='img/responseButtonOffersNo0_wht.png' class='respPic'></div><div class='trialDiv'><img src='Fruit/melon.png'><br><font class='baseline'><strong>Melon Millions</strong><p><strong><font class='posOutcome'>You WON</font><p>You bet: 5</strong></font> &nbsp; &nbsp; &nbsp; &nbsp; &nbsp; &nbsp;<font class='posOutcome'>you receive: <strong>10</strong></font></div>","null","7","Melon Millions","Fruit/melon.png","Won","0.8,0.35","13","0.8","132","19","",""
"html-keyboard-response","67","103121","0.0-11.0-1.19","6400d9235287137e7b62fd29","bdp_rwlrn","Sat Apr 08 2023 09:01:47 GMT-0700 (Pacific Daylight Time)","389938","Untrustworthy,Trustworthy","","886","","","","decision","","<div class='trialDiv'><img src='Fruit/lime.png'><br><font class='baseline'><strong>Limin' Large</strong><p>Choose number of points to bet.</font><div class='respPicDiv'><img src='img/responseButtonOffersNo0L.png' class='respPic'></div></div>","3","7","Limin' Large","Fruit/lime.png","Lost","0.2,0.65","14","0.2","137","20","",""
"html-keyboard-response","68","103378","0.0-11.0-2.19","6400d9235287137e7b62fd29","bdp_rwlrn","Sat Apr 08 2023 09:01:47 GMT-0700 (Pacific Daylight Time)","389938","Untrustworthy,Trustworthy","","null","","","","decisionFB","","<div class='trialDiv'><img src='Fruit/lime.png'><br><font class='baseline'><strong>Limin' Large</strong><p>Choose number of points to bet.</font><div class='respPicDiv'><img src='img/responseButtonOffersNo0L3.png' class='respPic'></div></div>","null","7","Limin' Large","Fruit/lime.png","Lost","0.2,0.65","14","0.2","134","20","",""
"html-keyboard-response","69","104387","0.0-11.0-3.19","6400d9235287137e7b62fd29","bdp_rwlrn","Sat Apr 08 2023 09:01:47 GMT-0700 (Pacific Daylight Time)","389938","Untrustworthy,Trustworthy","","null","","","","feedback","","<div class='respPicDiv'><img src='img/responseButtonOffersNo0_wht.png' class='respPic'></div><div class='trialDiv'><img src='Fruit/lime.png'><br><font class='baseline'><strong>Limin' Large</strong><p><strong><font class='negOutcome'>You LOST</font><p>You bet: 3</strong></font> &nbsp; &nbsp; &nbsp; &nbsp; &nbsp; &nbsp;<font class='negOutcome'>You receive: <strong>0</strong></font></div>","null","7","Limin' Large","Fruit/lime.png","Lost","0.2,0.65","14","0.2","134","20","",""
"html-keyboard-response","70","104831","0.0-11.0-1.20","6400d9235287137e7b62fd29","bdp_rwlrn","Sat Apr 08 2023 09:01:47 GMT-0700 (Pacific Daylight Time)","389938","Untrustworthy,Trustworthy","","442","","","","decision","","<div class='trialDiv'><img src='Fruit/grapes.png'><br><font class='baseline'><strong>Great Grapes</strong><p>Choose number of points to bet.</font><div class='respPicDiv'><img src='img/responseButtonOffersNo0L.png' class='respPic'></div></div>","5","7","Great Grapes","Fruit/grapes.png","Won","0.8,0.2","11","0.8","139","21","",""
"html-keyboard-response","71","105087","0.0-11.0-2.20","6400d9235287137e7b62fd29","bdp_rwlrn","Sat Apr 08 2023 09:01:47 GMT-0700 (Pacific Daylight Time)","389938","Untrustworthy,Trustworthy","","null","","","","decisionFB","","<div class='trialDiv'><img src='Fruit/grapes.png'><br><font class='baseline'><strong>Great Grapes</strong><p>Choose number of points to bet.</font><div class='respPicDiv'><img src='img/responseButtonOffersNo0L5.png' class='respPic'></div></div>","null","7","Great Grapes","Fruit/grapes.png","Won","0.8,0.2","11","0.8","134","21","",""
"html-keyboard-response","72","106092","0.0-11.0-3.20","6400d9235287137e7b62fd29","bdp_rwlrn","Sat Apr 08 2023 09:01:47 GMT-0700 (Pacific Daylight Time)","389938","Untrustworthy,Trustworthy","","null","","","","feedback","","<div class='respPicDiv'><img src='img/responseButtonOffersNo0_wht.png' class='respPic'></div><div class='trialDiv'><img src='Fruit/grapes.png'><br><font class='baseline'><strong>Great Grapes</strong><p><strong><font class='posOutcome'>You WON</font><p>You bet: 5</strong></font> &nbsp; &nbsp; &nbsp; &nbsp; &nbsp; &nbsp;<font class='posOutcome'>you receive: <strong>10</strong></font></div>","null","7","Great Grapes","Fruit/grapes.png","Won","0.8,0.2","11","0.8","144","21","",""
"html-keyboard-response","73","106691","0.0-11.0-1.21","6400d9235287137e7b62fd29","bdp_rwlrn","Sat Apr 08 2023 09:01:47 GMT-0700 (Pacific Daylight Time)","389938","Untrustworthy,Trustworthy","","597","","","","decision","","<div class='trialDiv'><img src='Fruit/melon.png'><br><font class='baseline'><strong>Melon Millions</strong><p>Choose number of points to bet.</font><div class='respPicDiv'><img src='img/responseButtonOffersNo0L.png' class='respPic'></div></div>","5","8","Melon Millions","Fruit/melon.png","Won","0.8,0.35","13","0.8","149","22","",""
"html-keyboard-response","74","106945","0.0-11.0-2.21","6400d9235287137e7b62fd29","bdp_rwlrn","Sat Apr 08 2023 09:01:47 GMT-0700 (Pacific Daylight Time)","389938","Untrustworthy,Trustworthy","","null","","","","decisionFB","","<div class='trialDiv'><img src='Fruit/melon.png'><br><font class='baseline'><strong>Melon Millions</strong><p>Choose number of points to bet.</font><div class='respPicDiv'><img src='img/responseButtonOffersNo0L5.png' class='respPic'></div></div>","null","8","Melon Millions","Fruit/melon.png","Won","0.8,0.35","13","0.8","144","22","",""
"html-keyboard-response","75","107948","0.0-11.0-3.21","6400d9235287137e7b62fd29","bdp_rwlrn","Sat Apr 08 2023 09:01:47 GMT-0700 (Pacific Daylight Time)","389938","Untrustworthy,Trustworthy","","null","","","","feedback","","<div class='respPicDiv'><img src='img/responseButtonOffersNo0_wht.png' class='respPic'></div><div class='trialDiv'><img src='Fruit/melon.png'><br><font class='baseline'><strong>Melon Millions</strong><p><strong><font class='posOutcome'>You WON</font><p>You bet: 5</strong></font> &nbsp; &nbsp; &nbsp; &nbsp; &nbsp; &nbsp;<font class='posOutcome'>you receive: <strong>10</strong></font></div>","null","8","Melon Millions","Fruit/melon.png","Won","0.8,0.35","13","0.8","154","22","",""
"html-keyboard-response","76","108946","0.0-11.0-1.22","6400d9235287137e7b62fd29","bdp_rwlrn","Sat Apr 08 2023 09:01:47 GMT-0700 (Pacific Daylight Time)","389938","Untrustworthy,Trustworthy","","996","","","","decision","","<div class='trialDiv'><img src='Fruit/lime.png'><br><font class='baseline'><strong>Limin' Large</strong><p>Choose number of points to bet.</font><div class='respPicDiv'><img src='img/responseButtonOffersNo0L.png' class='respPic'></div></div>","4","8","Limin' Large","Fruit/lime.png","Won","0.2,0.65","14","0.2","159","23","",""
"html-keyboard-response","77","109202","0.0-11.0-2.22","6400d9235287137e7b62fd29","bdp_rwlrn","Sat Apr 08 2023 09:01:47 GMT-0700 (Pacific Daylight Time)","389938","Untrustworthy,Trustworthy","","null","","","","decisionFB","","<div class='trialDiv'><img src='Fruit/lime.png'><br><font class='baseline'><strong>Limin' Large</strong><p>Choose number of points to bet.</font><div class='respPicDiv'><img src='img/responseButtonOffersNo0L4.png' class='respPic'></div></div>","null","8","Limin' Large","Fruit/lime.png","Won","0.2,0.65","14","0.2","155","23","",""
"html-keyboard-response","78","110205","0.0-11.0-3.22","6400d9235287137e7b62fd29","bdp_rwlrn","Sat Apr 08 2023 09:01:47 GMT-0700 (Pacific Daylight Time)","389938","Untrustworthy,Trustworthy","","null","","","","feedback","","<div class='respPicDiv'><img src='img/responseButtonOffersNo0_wht.png' class='respPic'></div><div class='trialDiv'><img src='Fruit/lime.png'><br><font class='baseline'><strong>Limin' Large</strong><p><strong><font class='posOutcome'>You WON</font><p>You bet: 4</strong></font> &nbsp; &nbsp; &nbsp; &nbsp; &nbsp; &nbsp;<font class='posOutcome'>you receive: <strong>8</strong></font></div>","null","8","Limin' Large","Fruit/lime.png","Won","0.2,0.65","14","0.2","163","23","",""
"html-keyboard-response","79","110858","0.0-11.0-1.23","6400d9235287137e7b62fd29","bdp_rwlrn","Sat Apr 08 2023 09:01:47 GMT-0700 (Pacific Daylight Time)","389938","Untrustworthy,Trustworthy","","651","","","","decision","","<div class='trialDiv'><img src='Fruit/grapes.png'><br><font class='baseline'><strong>Great Grapes</strong><p>Choose number of points to bet.</font><div class='respPicDiv'><img src='img/responseButtonOffersNo0L.png' class='respPic'></div></div>","5","8","Great Grapes","Fruit/grapes.png","Won","0.8,0.2","11","0.8","168","24","",""
"html-keyboard-response","80","111117","0.0-11.0-2.23","6400d9235287137e7b62fd29","bdp_rwlrn","Sat Apr 08 2023 09:01:47 GMT-0700 (Pacific Daylight Time)","389938","Untrustworthy,Trustworthy","","null","","","","decisionFB","","<div class='trialDiv'><img src='Fruit/grapes.png'><br><font class='baseline'><strong>Great Grapes</strong><p>Choose number of points to bet.</font><div class='respPicDiv'><img src='img/responseButtonOffersNo0L5.png' class='respPic'></div></div>","null","8","Great Grapes","Fruit/grapes.png","Won","0.8,0.2","11","0.8","163","24","",""
"html-keyboard-response","81","112122","0.0-11.0-3.23","6400d9235287137e7b62fd29","bdp_rwlrn","Sat Apr 08 2023 09:01:47 GMT-0700 (Pacific Daylight Time)","389938","Untrustworthy,Trustworthy","","null","","","","feedback","","<div class='respPicDiv'><img src='img/responseButtonOffersNo0_wht.png' class='respPic'></div><div class='trialDiv'><img src='Fruit/grapes.png'><br><font class='baseline'><strong>Great Grapes</strong><p><strong><font class='posOutcome'>You WON</font><p>You bet: 5</strong></font> &nbsp; &nbsp; &nbsp; &nbsp; &nbsp; &nbsp;<font class='posOutcome'>you receive: <strong>10</strong></font></div>","null","8","Great Grapes","Fruit/grapes.png","Won","0.8,0.2","11","0.8","173","24","",""
"html-keyboard-response","82","113560","0.0-11.0-1.24","6400d9235287137e7b62fd29","bdp_rwlrn","Sat Apr 08 2023 09:01:47 GMT-0700 (Pacific Daylight Time)","389938","Untrustworthy,Trustworthy","","1436","","","","decision","","<div class='trialDiv'><img src='Fruit/melon.png'><br><font class='baseline'><strong>Melon Millions</strong><p>Choose number of points to bet.</font><div class='respPicDiv'><img src='img/responseButtonOffersNo0L.png' class='respPic'></div></div>","5","9","Melon Millions","Fruit/melon.png","Lost","0.8,0.35","13","0.8","178","25","",""
"html-keyboard-response","83","113814","0.0-11.0-2.24","6400d9235287137e7b62fd29","bdp_rwlrn","Sat Apr 08 2023 09:01:47 GMT-0700 (Pacific Daylight Time)","389938","Untrustworthy,Trustworthy","","null","","","","decisionFB","","<div class='trialDiv'><img src='Fruit/melon.png'><br><font class='baseline'><strong>Melon Millions</strong><p>Choose number of points to bet.</font><div class='respPicDiv'><img src='img/responseButtonOffersNo0L5.png' class='respPic'></div></div>","null","9","Melon Millions","Fruit/melon.png","Lost","0.8,0.35","13","0.8","173","25","",""
"html-keyboard-response","84","114830","0.0-11.0-3.24","6400d9235287137e7b62fd29","bdp_rwlrn","Sat Apr 08 2023 09:01:47 GMT-0700 (Pacific Daylight Time)","389938","Untrustworthy,Trustworthy","","null","","","","feedback","","<div class='respPicDiv'><img src='img/responseButtonOffersNo0_wht.png' class='respPic'></div><div class='trialDiv'><img src='Fruit/melon.png'><br><font class='baseline'><strong>Melon Millions</strong><p><strong><font class='negOutcome'>You LOST</font><p>You bet: 5</strong></font> &nbsp; &nbsp; &nbsp; &nbsp; &nbsp; &nbsp;<font class='negOutcome'>You receive: <strong>0</strong></font></div>","null","9","Melon Millions","Fruit/melon.png","Lost","0.8,0.35","13","0.8","173","25","",""
"html-keyboard-response","85","115378","0.0-11.0-1.25","6400d9235287137e7b62fd29","bdp_rwlrn","Sat Apr 08 2023 09:01:47 GMT-0700 (Pacific Daylight Time)","389938","Untrustworthy,Trustworthy","","545","","","","decision","","<div class='trialDiv'><img src='Fruit/lime.png'><br><font class='baseline'><strong>Limin' Large</strong><p>Choose number of points to bet.</font><div class='respPicDiv'><img src='img/responseButtonOffersNo0L.png' class='respPic'></div></div>","4","9","Limin' Large","Fruit/lime.png","Won","0.2,0.65","14","0.2","178","26","",""
"html-keyboard-response","86","115632","0.0-11.0-2.25","6400d9235287137e7b62fd29","bdp_rwlrn","Sat Apr 08 2023 09:01:47 GMT-0700 (Pacific Daylight Time)","389938","Untrustworthy,Trustworthy","","null","","","","decisionFB","","<div class='trialDiv'><img src='Fruit/lime.png'><br><font class='baseline'><strong>Limin' Large</strong><p>Choose number of points to bet.</font><div class='respPicDiv'><img src='img/responseButtonOffersNo0L4.png' class='respPic'></div></div>","null","9","Limin' Large","Fruit/lime.png","Won","0.2,0.65","14","0.2","174","26","",""
"html-keyboard-response","87","116647","0.0-11.0-3.25","6400d9235287137e7b62fd29","bdp_rwlrn","Sat Apr 08 2023 09:01:47 GMT-0700 (Pacific Daylight Time)","389938","Untrustworthy,Trustworthy","","null","","","","feedback","","<div class='respPicDiv'><img src='img/responseButtonOffersNo0_wht.png' class='respPic'></div><div class='trialDiv'><img src='Fruit/lime.png'><br><font class='baseline'><strong>Limin' Large</strong><p><strong><font class='posOutcome'>You WON</font><p>You bet: 4</strong></font> &nbsp; &nbsp; &nbsp; &nbsp; &nbsp; &nbsp;<font class='posOutcome'>you receive: <strong>8</strong></font></div>","null","9","Limin' Large","Fruit/lime.png","Won","0.2,0.65","14","0.2","182","26","",""
"html-keyboard-response","88","118931","0.0-11.0-1.26","6400d9235287137e7b62fd29","bdp_rwlrn","Sat Apr 08 2023 09:01:47 GMT-0700 (Pacific Daylight Time)","389938","Untrustworthy,Trustworthy","","2282","","","","decision","","<div class='trialDiv'><img src='Fruit/grapes.png'><br><font class='baseline'><strong>Great Grapes</strong><p>Choose number of points to bet.</font><div class='respPicDiv'><img src='img/responseButtonOffersNo0L.png' class='respPic'></div></div>","5","9","Great Grapes","Fruit/grapes.png","Won","0.8,0.2","11","0.8","187","27","",""
"html-keyboard-response","89","119186","0.0-11.0-2.26","6400d9235287137e7b62fd29","bdp_rwlrn","Sat Apr 08 2023 09:01:47 GMT-0700 (Pacific Daylight Time)","389938","Untrustworthy,Trustworthy","","null","","","","decisionFB","","<div class='trialDiv'><img src='Fruit/grapes.png'><br><font class='baseline'><strong>Great Grapes</strong><p>Choose number of points to bet.</font><div class='respPicDiv'><img src='img/responseButtonOffersNo0L5.png' class='respPic'></div></div>","null","9","Great Grapes","Fruit/grapes.png","Won","0.8,0.2","11","0.8","182","27","",""
"html-keyboard-response","90","120195","0.0-11.0-3.26","6400d9235287137e7b62fd29","bdp_rwlrn","Sat Apr 08 2023 09:01:47 GMT-0700 (Pacific Daylight Time)","389938","Untrustworthy,Trustworthy","","null","","","","feedback","","<div class='respPicDiv'><img src='img/responseButtonOffersNo0_wht.png' class='respPic'></div><div class='trialDiv'><img src='Fruit/grapes.png'><br><font class='baseline'><strong>Great Grapes</strong><p><strong><font class='posOutcome'>You WON</font><p>You bet: 5</strong></font> &nbsp; &nbsp; &nbsp; &nbsp; &nbsp; &nbsp;<font class='posOutcome'>you receive: <strong>10</strong></font></div>","null","9","Great Grapes","Fruit/grapes.png","Won","0.8,0.2","11","0.8","192","27","",""
"html-keyboard-response","91","121071","0.0-11.0-1.27","6400d9235287137e7b62fd29","bdp_rwlrn","Sat Apr 08 2023 09:01:47 GMT-0700 (Pacific Daylight Time)","389938","Untrustworthy,Trustworthy","","873","","","","decision","","<div class='trialDiv'><img src='Fruit/melon.png'><br><font class='baseline'><strong>Melon Millions</strong><p>Choose number of points to bet.</font><div class='respPicDiv'><img src='img/responseButtonOffersNo0L.png' class='respPic'></div></div>","5","10","Melon Millions","Fruit/melon.png","Won","0.8,0.35","13","0.8","197","28","",""
"html-keyboard-response","92","121329","0.0-11.0-2.27","6400d9235287137e7b62fd29","bdp_rwlrn","Sat Apr 08 2023 09:01:47 GMT-0700 (Pacific Daylight Time)","389938","Untrustworthy,Trustworthy","","null","","","","decisionFB","","<div class='trialDiv'><img src='Fruit/melon.png'><br><font class='baseline'><strong>Melon Millions</strong><p>Choose number of points to bet.</font><div class='respPicDiv'><img src='img/responseButtonOffersNo0L5.png' class='respPic'></div></div>","null","10","Melon Millions","Fruit/melon.png","Won","0.8,0.35","13","0.8","192","28","",""
"html-keyboard-response","93","122333","0.0-11.0-3.27","6400d9235287137e7b62fd29","bdp_rwlrn","Sat Apr 08 2023 09:01:47 GMT-0700 (Pacific Daylight Time)","389938","Untrustworthy,Trustworthy","","null","","","","feedback","","<div class='respPicDiv'><img src='img/responseButtonOffersNo0_wht.png' class='respPic'></div><div class='trialDiv'><img src='Fruit/melon.png'><br><font class='baseline'><strong>Melon Millions</strong><p><strong><font class='posOutcome'>You WON</font><p>You bet: 5</strong></font> &nbsp; &nbsp; &nbsp; &nbsp; &nbsp; &nbsp;<font class='posOutcome'>you receive: <strong>10</strong></font></div>","null","10","Melon Millions","Fruit/melon.png","Won","0.8,0.35","13","0.8","202","28","",""
"html-keyboard-response","94","123044","0.0-11.0-1.28","6400d9235287137e7b62fd29","bdp_rwlrn","Sat Apr 08 2023 09:01:47 GMT-0700 (Pacific Daylight Time)","389938","Untrustworthy,Trustworthy","","709","","","","decision","","<div class='trialDiv'><img src='Fruit/grapes.png'><br><font class='baseline'><strong>Great Grapes</strong><p>Choose number of points to bet.</font><div class='respPicDiv'><img src='img/responseButtonOffersNo0L.png' class='respPic'></div></div>","5","10","Great Grapes","Fruit/grapes.png","Won","0.8,0.2","11","0.8","207","29","",""
"html-keyboard-response","95","123300","0.0-11.0-2.28","6400d9235287137e7b62fd29","bdp_rwlrn","Sat Apr 08 2023 09:01:47 GMT-0700 (Pacific Daylight Time)","389938","Untrustworthy,Trustworthy","","null","","","","decisionFB","","<div class='trialDiv'><img src='Fruit/grapes.png'><br><font class='baseline'><strong>Great Grapes</strong><p>Choose number of points to bet.</font><div class='respPicDiv'><img src='img/responseButtonOffersNo0L5.png' class='respPic'></div></div>","null","10","Great Grapes","Fruit/grapes.png","Won","0.8,0.2","11","0.8","202","29","",""
"html-keyboard-response","96","124307","0.0-11.0-3.28","6400d9235287137e7b62fd29","bdp_rwlrn","Sat Apr 08 2023 09:01:47 GMT-0700 (Pacific Daylight Time)","389938","Untrustworthy,Trustworthy","","null","","","","feedback","","<div class='respPicDiv'><img src='img/responseButtonOffersNo0_wht.png' class='respPic'></div><div class='trialDiv'><img src='Fruit/grapes.png'><br><font class='baseline'><strong>Great Grapes</strong><p><strong><font class='posOutcome'>You WON</font><p>You bet: 5</strong></font> &nbsp; &nbsp; &nbsp; &nbsp; &nbsp; &nbsp;<font class='posOutcome'>you receive: <strong>10</strong></font></div>","null","10","Great Grapes","Fruit/grapes.png","Won","0.8,0.2","11","0.8","212","29","",""
"html-keyboard-response","97","124800","0.0-11.0-1.29","6400d9235287137e7b62fd29","bdp_rwlrn","Sat Apr 08 2023 09:01:47 GMT-0700 (Pacific Daylight Time)","389938","Untrustworthy,Trustworthy","","491","","","","decision","","<div class='trialDiv'><img src='Fruit/lime.png'><br><font class='baseline'><strong>Limin' Large</strong><p>Choose number of points to bet.</font><div class='respPicDiv'><img src='img/responseButtonOffersNo0L.png' class='respPic'></div></div>","5","10","Limin' Large","Fruit/lime.png","Lost","0.2,0.65","14","0.2","217","30","",""
"html-keyboard-response","98","125059","0.0-11.0-2.29","6400d9235287137e7b62fd29","bdp_rwlrn","Sat Apr 08 2023 09:01:47 GMT-0700 (Pacific Daylight Time)","389938","Untrustworthy,Trustworthy","","null","","","","decisionFB","","<div class='trialDiv'><img src='Fruit/lime.png'><br><font class='baseline'><strong>Limin' Large</strong><p>Choose number of points to bet.</font><div class='respPicDiv'><img src='img/responseButtonOffersNo0L5.png' class='respPic'></div></div>","null","10","Limin' Large","Fruit/lime.png","Lost","0.2,0.65","14","0.2","212","30","",""
"html-keyboard-response","99","126066","0.0-11.0-3.29","6400d9235287137e7b62fd29","bdp_rwlrn","Sat Apr 08 2023 09:01:47 GMT-0700 (Pacific Daylight Time)","389938","Untrustworthy,Trustworthy","","null","","","","feedback","","<div class='respPicDiv'><img src='img/responseButtonOffersNo0_wht.png' class='respPic'></div><div class='trialDiv'><img src='Fruit/lime.png'><br><font class='baseline'><strong>Limin' Large</strong><p><strong><font class='negOutcome'>You LOST</font><p>You bet: 5</strong></font> &nbsp; &nbsp; &nbsp; &nbsp; &nbsp; &nbsp;<font class='negOutcome'>You receive: <strong>0</strong></font></div>","null","10","Limin' Large","Fruit/lime.png","Lost","0.2,0.65","14","0.2","212","30","",""
"html-keyboard-response","100","126548","0.0-11.0-1.30","6400d9235287137e7b62fd29","bdp_rwlrn","Sat Apr 08 2023 09:01:47 GMT-0700 (Pacific Daylight Time)","389938","Untrustworthy,Trustworthy","","479","","","","decision","","<div class='trialDiv'><img src='Fruit/melon.png'><br><font class='baseline'><strong>Melon Millions</strong><p>Choose number of points to bet.</font><div class='respPicDiv'><img src='img/responseButtonOffersNo0L.png' class='respPic'></div></div>","5","11","Melon Millions","Fruit/melon.png","Lost","0.8,0.35","13","0.8","217","31","",""
"html-keyboard-response","101","126802","0.0-11.0-2.30","6400d9235287137e7b62fd29","bdp_rwlrn","Sat Apr 08 2023 09:01:47 GMT-0700 (Pacific Daylight Time)","389938","Untrustworthy,Trustworthy","","null","","","","decisionFB","","<div class='trialDiv'><img src='Fruit/melon.png'><br><font class='baseline'><strong>Melon Millions</strong><p>Choose number of points to bet.</font><div class='respPicDiv'><img src='img/responseButtonOffersNo0L5.png' class='respPic'></div></div>","null","11","Melon Millions","Fruit/melon.png","Lost","0.8,0.35","13","0.8","212","31","",""
"html-keyboard-response","102","127807","0.0-11.0-3.30","6400d9235287137e7b62fd29","bdp_rwlrn","Sat Apr 08 2023 09:01:47 GMT-0700 (Pacific Daylight Time)","389938","Untrustworthy,Trustworthy","","null","","","","feedback","","<div class='respPicDiv'><img src='img/responseButtonOffersNo0_wht.png' class='respPic'></div><div class='trialDiv'><img src='Fruit/melon.png'><br><font class='baseline'><strong>Melon Millions</strong><p><strong><font class='negOutcome'>You LOST</font><p>You bet: 5</strong></font> &nbsp; &nbsp; &nbsp; &nbsp; &nbsp; &nbsp;<font class='negOutcome'>You receive: <strong>0</strong></font></div>","null","11","Melon Millions","Fruit/melon.png","Lost","0.8,0.35","13","0.8","212","31","",""
"html-keyboard-response","103","128741","0.0-11.0-1.31","6400d9235287137e7b62fd29","bdp_rwlrn","Sat Apr 08 2023 09:01:47 GMT-0700 (Pacific Daylight Time)","389938","Untrustworthy,Trustworthy","","932","","","","decision","","<div class='trialDiv'><img src='Fruit/grapes.png'><br><font class='baseline'><strong>Great Grapes</strong><p>Choose number of points to bet.</font><div class='respPicDiv'><img src='img/responseButtonOffersNo0L.png' class='respPic'></div></div>","5","11","Great Grapes","Fruit/grapes.png","Lost","0.8,0.2","11","0.8","217","32","",""
"html-keyboard-response","104","128996","0.0-11.0-2.31","6400d9235287137e7b62fd29","bdp_rwlrn","Sat Apr 08 2023 09:01:47 GMT-0700 (Pacific Daylight Time)","389938","Untrustworthy,Trustworthy","","null","","","","decisionFB","","<div class='trialDiv'><img src='Fruit/grapes.png'><br><font class='baseline'><strong>Great Grapes</strong><p>Choose number of points to bet.</font><div class='respPicDiv'><img src='img/responseButtonOffersNo0L5.png' class='respPic'></div></div>","null","11","Great Grapes","Fruit/grapes.png","Lost","0.8,0.2","11","0.8","212","32","",""
"html-keyboard-response","105","130007","0.0-11.0-3.31","6400d9235287137e7b62fd29","bdp_rwlrn","Sat Apr 08 2023 09:01:47 GMT-0700 (Pacific Daylight Time)","389938","Untrustworthy,Trustworthy","","null","","","","feedback","","<div class='respPicDiv'><img src='img/responseButtonOffersNo0_wht.png' class='respPic'></div><div class='trialDiv'><img src='Fruit/grapes.png'><br><font class='baseline'><strong>Great Grapes</strong><p><strong><font class='negOutcome'>You LOST</font><p>You bet: 5</strong></font> &nbsp; &nbsp; &nbsp; &nbsp; &nbsp; &nbsp;<font class='negOutcome'>You receive: <strong>0</strong></font></div>","null","11","Great Grapes","Fruit/grapes.png","Lost","0.8,0.2","11","0.8","212","32","",""
"html-keyboard-response","106","130236","0.0-11.0-1.32","6400d9235287137e7b62fd29","bdp_rwlrn","Sat Apr 08 2023 09:01:47 GMT-0700 (Pacific Daylight Time)","389938","Untrustworthy,Trustworthy","","227","","","","decision","","<div class='trialDiv'><img src='Fruit/lime.png'><br><font class='baseline'><strong>Limin' Large</strong><p>Choose number of points to bet.</font><div class='respPicDiv'><img src='img/responseButtonOffersNo0L.png' class='respPic'></div></div>","1","11","Limin' Large","Fruit/lime.png","Lost","0.2,0.65","14","0.2","217","33","",""
"html-keyboard-response","107","130497","0.0-11.0-2.32","6400d9235287137e7b62fd29","bdp_rwlrn","Sat Apr 08 2023 09:01:47 GMT-0700 (Pacific Daylight Time)","389938","Untrustworthy,Trustworthy","","null","","","","decisionFB","","<div class='trialDiv'><img src='Fruit/lime.png'><br><font class='baseline'><strong>Limin' Large</strong><p>Choose number of points to bet.</font><div class='respPicDiv'><img src='img/responseButtonOffersNo0L1.png' class='respPic'></div></div>","null","11","Limin' Large","Fruit/lime.png","Lost","0.2,0.65","14","0.2","216","33","",""
"html-keyboard-response","108","131506","0.0-11.0-3.32","6400d9235287137e7b62fd29","bdp_rwlrn","Sat Apr 08 2023 09:01:47 GMT-0700 (Pacific Daylight Time)","389938","Untrustworthy,Trustworthy","","null","","","","feedback","","<div class='respPicDiv'><img src='img/responseButtonOffersNo0_wht.png' class='respPic'></div><div class='trialDiv'><img src='Fruit/lime.png'><br><font class='baseline'><strong>Limin' Large</strong><p><strong><font class='negOutcome'>You LOST</font><p>You bet: 1</strong></font> &nbsp; &nbsp; &nbsp; &nbsp; &nbsp; &nbsp;<font class='negOutcome'>You receive: <strong>0</strong></font></div>","null","11","Limin' Large","Fruit/lime.png","Lost","0.2,0.65","14","0.2","216","33","",""
"html-keyboard-response","109","131785","0.0-11.0-1.33","6400d9235287137e7b62fd29","bdp_rwlrn","Sat Apr 08 2023 09:01:47 GMT-0700 (Pacific Daylight Time)","389938","Untrustworthy,Trustworthy","","277","","","","decision","","<div class='trialDiv'><img src='Fruit/grapes.png'><br><font class='baseline'><strong>Great Grapes</strong><p>Choose number of points to bet.</font><div class='respPicDiv'><img src='img/responseButtonOffersNo0L.png' class='respPic'></div></div>","2","12","Great Grapes","Fruit/grapes.png","Lost","0.8,0.2","11","0.8","221","34","",""
"html-keyboard-response","110","132040","0.0-11.0-2.33","6400d9235287137e7b62fd29","bdp_rwlrn","Sat Apr 08 2023 09:01:47 GMT-0700 (Pacific Daylight Time)","389938","Untrustworthy,Trustworthy","","null","","","","decisionFB","","<div class='trialDiv'><img src='Fruit/grapes.png'><br><font class='baseline'><strong>Great Grapes</strong><p>Choose number of points to bet.</font><div class='respPicDiv'><img src='img/responseButtonOffersNo0L2.png' class='respPic'></div></div>","null","12","Great Grapes","Fruit/grapes.png","Lost","0.8,0.2","11","0.8","219","34","",""
"html-keyboard-response","111","133056","0.0-11.0-3.33","6400d9235287137e7b62fd29","bdp_rwlrn","Sat Apr 08 2023 09:01:47 GMT-0700 (Pacific Daylight Time)","389938","Untrustworthy,Trustworthy","","null","","","","feedback","","<div class='respPicDiv'><img src='img/responseButtonOffersNo0_wht.png' class='respPic'></div><div class='trialDiv'><img src='Fruit/grapes.png'><br><font class='baseline'><strong>Great Grapes</strong><p><strong><font class='negOutcome'>You LOST</font><p>You bet: 2</strong></font> &nbsp; &nbsp; &nbsp; &nbsp; &nbsp; &nbsp;<font class='negOutcome'>You receive: <strong>0</strong></font></div>","null","12","Great Grapes","Fruit/grapes.png","Lost","0.8,0.2","11","0.8","219","34","",""
"html-keyboard-response","112","133698","0.0-11.0-1.34","6400d9235287137e7b62fd29","bdp_rwlrn","Sat Apr 08 2023 09:01:47 GMT-0700 (Pacific Daylight Time)","389938","Untrustworthy,Trustworthy","","640","","","","decision","","<div class='trialDiv'><img src='Fruit/melon.png'><br><font class='baseline'><strong>Melon Millions</strong><p>Choose number of points to bet.</font><div class='respPicDiv'><img src='img/responseButtonOffersNo0L.png' class='respPic'></div></div>","3","12","Melon Millions","Fruit/melon.png","Won","0.8,0.35","13","0.8","224","35","",""
"html-keyboard-response","113","133955","0.0-11.0-2.34","6400d9235287137e7b62fd29","bdp_rwlrn","Sat Apr 08 2023 09:01:47 GMT-0700 (Pacific Daylight Time)","389938","Untrustworthy,Trustworthy","","null","","","","decisionFB","","<div class='trialDiv'><img src='Fruit/melon.png'><br><font class='baseline'><strong>Melon Millions</strong><p>Choose number of points to bet.</font><div class='respPicDiv'><img src='img/responseButtonOffersNo0L3.png' class='respPic'></div></div>","null","12","Melon Millions","Fruit/melon.png","Won","0.8,0.35","13","0.8","221","35","",""
"html-keyboard-response","114","134964","0.0-11.0-3.34","6400d9235287137e7b62fd29","bdp_rwlrn","Sat Apr 08 2023 09:01:47 GMT-0700 (Pacific Daylight Time)","389938","Untrustworthy,Trustworthy","","null","","","","feedback","","<div class='respPicDiv'><img src='img/responseButtonOffersNo0_wht.png' class='respPic'></div><div class='trialDiv'><img src='Fruit/melon.png'><br><font class='baseline'><strong>Melon Millions</strong><p><strong><font class='posOutcome'>You WON</font><p>You bet: 3</strong></font> &nbsp; &nbsp; &nbsp; &nbsp; &nbsp; &nbsp;<font class='posOutcome'>you receive: <strong>6</strong></font></div>","null","12","Melon Millions","Fruit/melon.png","Won","0.8,0.35","13","0.8","227","35","",""
"html-keyboard-response","115","135517","0.0-11.0-1.35","6400d9235287137e7b62fd29","bdp_rwlrn","Sat Apr 08 2023 09:01:47 GMT-0700 (Pacific Daylight Time)","389938","Untrustworthy,Trustworthy","","551","","","","decision","","<div class='trialDiv'><img src='Fruit/lime.png'><br><font class='baseline'><strong>Limin' Large</strong><p>Choose number of points to bet.</font><div class='respPicDiv'><img src='img/responseButtonOffersNo0L.png' class='respPic'></div></div>","4","12","Limin' Large","Fruit/lime.png","Lost","0.2,0.65","14","0.2","232","36","",""
"html-keyboard-response","116","135769","0.0-11.0-2.35","6400d9235287137e7b62fd29","bdp_rwlrn","Sat Apr 08 2023 09:01:47 GMT-0700 (Pacific Daylight Time)","389938","Untrustworthy,Trustworthy","","null","","","","decisionFB","","<div class='trialDiv'><img src='Fruit/lime.png'><br><font class='baseline'><strong>Limin' Large</strong><p>Choose number of points to bet.</font><div class='respPicDiv'><img src='img/responseButtonOffersNo0L4.png' class='respPic'></div></div>","null","12","Limin' Large","Fruit/lime.png","Lost","0.2,0.65","14","0.2","228","36","",""
"html-keyboard-response","117","136780","0.0-11.0-3.35","6400d9235287137e7b62fd29","bdp_rwlrn","Sat Apr 08 2023 09:01:47 GMT-0700 (Pacific Daylight Time)","389938","Untrustworthy,Trustworthy","","null","","","","feedback","","<div class='respPicDiv'><img src='img/responseButtonOffersNo0_wht.png' class='respPic'></div><div class='trialDiv'><img src='Fruit/lime.png'><br><font class='baseline'><strong>Limin' Large</strong><p><strong><font class='negOutcome'>You LOST</font><p>You bet: 4</strong></font> &nbsp; &nbsp; &nbsp; &nbsp; &nbsp; &nbsp;<font class='negOutcome'>You receive: <strong>0</strong></font></div>","null","12","Limin' Large","Fruit/lime.png","Lost","0.2,0.65","14","0.2","228","36","",""
"html-keyboard-response","118","137328","0.0-11.0-1.36","6400d9235287137e7b62fd29","bdp_rwlrn","Sat Apr 08 2023 09:01:47 GMT-0700 (Pacific Daylight Time)","389938","Untrustworthy,Trustworthy","","546","","","","decision","","<div class='trialDiv'><img src='Fruit/grapes.png'><br><font class='baseline'><strong>Great Grapes</strong><p>Choose number of points to bet.</font><div class='respPicDiv'><img src='img/responseButtonOffersNo0L.png' class='respPic'></div></div>","3","13","Great Grapes","Fruit/grapes.png","Won","0.8,0.2","11","0.8","233","37","",""
"html-keyboard-response","119","137583","0.0-11.0-2.36","6400d9235287137e7b62fd29","bdp_rwlrn","Sat Apr 08 2023 09:01:47 GMT-0700 (Pacific Daylight Time)","389938","Untrustworthy,Trustworthy","","null","","","","decisionFB","","<div class='trialDiv'><img src='Fruit/grapes.png'><br><font class='baseline'><strong>Great Grapes</strong><p>Choose number of points to bet.</font><div class='respPicDiv'><img src='img/responseButtonOffersNo0L3.png' class='respPic'></div></div>","null","13","Great Grapes","Fruit/grapes.png","Won","0.8,0.2","11","0.8","230","37","",""
"html-keyboard-response","120","138595","0.0-11.0-3.36","6400d9235287137e7b62fd29","bdp_rwlrn","Sat Apr 08 2023 09:01:47 GMT-0700 (Pacific Daylight Time)","389938","Untrustworthy,Trustworthy","","null","","","","feedback","","<div class='respPicDiv'><img src='img/responseButtonOffersNo0_wht.png' class='respPic'></div><div class='trialDiv'><img src='Fruit/grapes.png'><br><font class='baseline'><strong>Great Grapes</strong><p><strong><font class='posOutcome'>You WON</font><p>You bet: 3</strong></font> &nbsp; &nbsp; &nbsp; &nbsp; &nbsp; &nbsp;<font class='posOutcome'>you receive: <strong>6</strong></font></div>","null","13","Great Grapes","Fruit/grapes.png","Won","0.8,0.2","11","0.8","236","37","",""
"html-keyboard-response","121","139302","0.0-11.0-1.37","6400d9235287137e7b62fd29","bdp_rwlrn","Sat Apr 08 2023 09:01:47 GMT-0700 (Pacific Daylight Time)","389938","Untrustworthy,Trustworthy","","705","","","","decision","","<div class='trialDiv'><img src='Fruit/melon.png'><br><font class='baseline'><strong>Melon Millions</strong><p>Choose number of points to bet.</font><div class='respPicDiv'><img src='img/responseButtonOffersNo0L.png' class='respPic'></div></div>","3","13","Melon Millions","Fruit/melon.png","Won","0.8,0.35","13","0.8","241","38","",""
"html-keyboard-response","122","139554","0.0-11.0-2.37","6400d9235287137e7b62fd29","bdp_rwlrn","Sat Apr 08 2023 09:01:47 GMT-0700 (Pacific Daylight Time)","389938","Untrustworthy,Trustworthy","","null","","","","decisionFB","","<div class='trialDiv'><img src='Fruit/melon.png'><br><font class='baseline'><strong>Melon Millions</strong><p>Choose number of points to bet.</font><div class='respPicDiv'><img src='img/responseButtonOffersNo0L3.png' class='respPic'></div></div>","null","13","Melon Millions","Fruit/melon.png","Won","0.8,0.35","13","0.8","238","38","",""
"html-keyboard-response","123","140558","0.0-11.0-3.37","6400d9235287137e7b62fd29","bdp_rwlrn","Sat Apr 08 2023 09:01:47 GMT-0700 (Pacific Daylight Time)","389938","Untrustworthy,Trustworthy","","null","","","","feedback","","<div class='respPicDiv'><img src='img/responseButtonOffersNo0_wht.png' class='respPic'></div><div class='trialDiv'><img src='Fruit/melon.png'><br><font class='baseline'><strong>Melon Millions</strong><p><strong><font class='posOutcome'>You WON</font><p>You bet: 3</strong></font> &nbsp; &nbsp; &nbsp; &nbsp; &nbsp; &nbsp;<font class='posOutcome'>you receive: <strong>6</strong></font></div>","null","13","Melon Millions","Fruit/melon.png","Won","0.8,0.35","13","0.8","244","38","",""
"html-keyboard-response","124","140817","0.0-11.0-1.38","6400d9235287137e7b62fd29","bdp_rwlrn","Sat Apr 08 2023 09:01:47 GMT-0700 (Pacific Daylight Time)","389938","Untrustworthy,Trustworthy","","256","","","","decision","","<div class='trialDiv'><img src='Fruit/lime.png'><br><font class='baseline'><strong>Limin' Large</strong><p>Choose number of points to bet.</font><div class='respPicDiv'><img src='img/responseButtonOffersNo0L.png' class='respPic'></div></div>","2","13","Limin' Large","Fruit/lime.png","Lost","0.2,0.65","14","0.2","249","39","",""
"html-keyboard-response","125","141084","0.0-11.0-2.38","6400d9235287137e7b62fd29","bdp_rwlrn","Sat Apr 08 2023 09:01:47 GMT-0700 (Pacific Daylight Time)","389938","Untrustworthy,Trustworthy","","null","","","","decisionFB","","<div class='trialDiv'><img src='Fruit/lime.png'><br><font class='baseline'><strong>Limin' Large</strong><p>Choose number of points to bet.</font><div class='respPicDiv'><img src='img/responseButtonOffersNo0L2.png' class='respPic'></div></div>","null","13","Limin' Large","Fruit/lime.png","Lost","0.2,0.65","14","0.2","247","39","",""
"html-keyboard-response","126","142091","0.0-11.0-3.38","6400d9235287137e7b62fd29","bdp_rwlrn","Sat Apr 08 2023 09:01:47 GMT-0700 (Pacific Daylight Time)","389938","Untrustworthy,Trustworthy","","null","","","","feedback","","<div class='respPicDiv'><img src='img/responseButtonOffersNo0_wht.png' class='respPic'></div><div class='trialDiv'><img src='Fruit/lime.png'><br><font class='baseline'><strong>Limin' Large</strong><p><strong><font class='negOutcome'>You LOST</font><p>You bet: 2</strong></font> &nbsp; &nbsp; &nbsp; &nbsp; &nbsp; &nbsp;<font class='negOutcome'>You receive: <strong>0</strong></font></div>","null","13","Limin' Large","Fruit/lime.png","Lost","0.2,0.65","14","0.2","247","39","",""
"html-keyboard-response","127","142533","0.0-11.0-1.39","6400d9235287137e7b62fd29","bdp_rwlrn","Sat Apr 08 2023 09:01:47 GMT-0700 (Pacific Daylight Time)","389938","Untrustworthy,Trustworthy","","440","","","","decision","","<div class='trialDiv'><img src='Fruit/melon.png'><br><font class='baseline'><strong>Melon Millions</strong><p>Choose number of points to bet.</font><div class='respPicDiv'><img src='img/responseButtonOffersNo0L.png' class='respPic'></div></div>","2","14","Melon Millions","Fruit/melon.png","Lost","0.8,0.35","13","0.8","252","40","",""
"html-keyboard-response","128","142786","0.0-11.0-2.39","6400d9235287137e7b62fd29","bdp_rwlrn","Sat Apr 08 2023 09:01:47 GMT-0700 (Pacific Daylight Time)","389938","Untrustworthy,Trustworthy","","null","","","","decisionFB","","<div class='trialDiv'><img src='Fruit/melon.png'><br><font class='baseline'><strong>Melon Millions</strong><p>Choose number of points to bet.</font><div class='respPicDiv'><img src='img/responseButtonOffersNo0L2.png' class='respPic'></div></div>","null","14","Melon Millions","Fruit/melon.png","Lost","0.8,0.35","13","0.8","250","40","",""
"html-keyboard-response","129","143791","0.0-11.0-3.39","6400d9235287137e7b62fd29","bdp_rwlrn","Sat Apr 08 2023 09:01:47 GMT-0700 (Pacific Daylight Time)","389938","Untrustworthy,Trustworthy","","null","","","","feedback","","<div class='respPicDiv'><img src='img/responseButtonOffersNo0_wht.png' class='respPic'></div><div class='trialDiv'><img src='Fruit/melon.png'><br><font class='baseline'><strong>Melon Millions</strong><p><strong><font class='negOutcome'>You LOST</font><p>You bet: 2</strong></font> &nbsp; &nbsp; &nbsp; &nbsp; &nbsp; &nbsp;<font class='negOutcome'>You receive: <strong>0</strong></font></div>","null","14","Melon Millions","Fruit/melon.png","Lost","0.8,0.35","13","0.8","250","40","",""
"html-keyboard-response","130","144070","0.0-11.0-1.40","6400d9235287137e7b62fd29","bdp_rwlrn","Sat Apr 08 2023 09:01:47 GMT-0700 (Pacific Daylight Time)","389938","Untrustworthy,Trustworthy","","277","","","","decision","","<div class='trialDiv'><img src='Fruit/lime.png'><br><font class='baseline'><strong>Limin' Large</strong><p>Choose number of points to bet.</font><div class='respPicDiv'><img src='img/responseButtonOffersNo0L.png' class='respPic'></div></div>","4","14","Limin' Large","Fruit/lime.png","Lost","0.2,0.65","14","0.2","255","41","",""
"html-keyboard-response","131","144329","0.0-11.0-2.40","6400d9235287137e7b62fd29","bdp_rwlrn","Sat Apr 08 2023 09:01:47 GMT-0700 (Pacific Daylight Time)","389938","Untrustworthy,Trustworthy","","null","","","","decisionFB","","<div class='trialDiv'><img src='Fruit/lime.png'><br><font class='baseline'><strong>Limin' Large</strong><p>Choose number of points to bet.</font><div class='respPicDiv'><img src='img/responseButtonOffersNo0L4.png' class='respPic'></div></div>","null","14","Limin' Large","Fruit/lime.png","Lost","0.2,0.65","14","0.2","251","41","",""
"html-keyboard-response","132","145332","0.0-11.0-3.40","6400d9235287137e7b62fd29","bdp_rwlrn","Sat Apr 08 2023 09:01:47 GMT-0700 (Pacific Daylight Time)","389938","Untrustworthy,Trustworthy","","null","","","","feedback","","<div class='respPicDiv'><img src='img/responseButtonOffersNo0_wht.png' class='respPic'></div><div class='trialDiv'><img src='Fruit/lime.png'><br><font class='baseline'><strong>Limin' Large</strong><p><strong><font class='negOutcome'>You LOST</font><p>You bet: 4</strong></font> &nbsp; &nbsp; &nbsp; &nbsp; &nbsp; &nbsp;<font class='negOutcome'>You receive: <strong>0</strong></font></div>","null","14","Limin' Large","Fruit/lime.png","Lost","0.2,0.65","14","0.2","251","41","",""
"html-keyboard-response","133","145632","0.0-11.0-1.41","6400d9235287137e7b62fd29","bdp_rwlrn","Sat Apr 08 2023 09:01:47 GMT-0700 (Pacific Daylight Time)","389938","Untrustworthy,Trustworthy","","298","","","","decision","","<div class='trialDiv'><img src='Fruit/grapes.png'><br><font class='baseline'><strong>Great Grapes</strong><p>Choose number of points to bet.</font><div class='respPicDiv'><img src='img/responseButtonOffersNo0L.png' class='respPic'></div></div>","3","14","Great Grapes","Fruit/grapes.png","Won","0.8,0.2","11","0.8","256","42","",""
"html-keyboard-response","134","145892","0.0-11.0-2.41","6400d9235287137e7b62fd29","bdp_rwlrn","Sat Apr 08 2023 09:01:47 GMT-0700 (Pacific Daylight Time)","389938","Untrustworthy,Trustworthy","","null","","","","decisionFB","","<div class='trialDiv'><img src='Fruit/grapes.png'><br><font class='baseline'><strong>Great Grapes</strong><p>Choose number of points to bet.</font><div class='respPicDiv'><img src='img/responseButtonOffersNo0L3.png' class='respPic'></div></div>","null","14","Great Grapes","Fruit/grapes.png","Won","0.8,0.2","11","0.8","253","42","",""
"html-keyboard-response","135","146902","0.0-11.0-3.41","6400d9235287137e7b62fd29","bdp_rwlrn","Sat Apr 08 2023 09:01:47 GMT-0700 (Pacific Daylight Time)","389938","Untrustworthy,Trustworthy","","null","","","","feedback","","<div class='respPicDiv'><img src='img/responseButtonOffersNo0_wht.png' class='respPic'></div><div class='trialDiv'><img src='Fruit/grapes.png'><br><font class='baseline'><strong>Great Grapes</strong><p><strong><font class='posOutcome'>You WON</font><p>You bet: 3</strong></font> &nbsp; &nbsp; &nbsp; &nbsp; &nbsp; &nbsp;<font class='posOutcome'>you receive: <strong>6</strong></font></div>","null","14","Great Grapes","Fruit/grapes.png","Won","0.8,0.2","11","0.8","259","42","",""
"html-keyboard-response","136","147384","0.0-11.0-1.42","6400d9235287137e7b62fd29","bdp_rwlrn","Sat Apr 08 2023 09:01:47 GMT-0700 (Pacific Daylight Time)","389938","Untrustworthy,Trustworthy","","481","","","","decision","","<div class='trialDiv'><img src='Fruit/lime.png'><br><font class='baseline'><strong>Limin' Large</strong><p>Choose number of points to bet.</font><div class='respPicDiv'><img src='img/responseButtonOffersNo0L.png' class='respPic'></div></div>","3","15","Limin' Large","Fruit/lime.png","Lost","0.2,0.65","14","0.2","264","43","",""
"html-keyboard-response","137","147641","0.0-11.0-2.42","6400d9235287137e7b62fd29","bdp_rwlrn","Sat Apr 08 2023 09:01:47 GMT-0700 (Pacific Daylight Time)","389938","Untrustworthy,Trustworthy","","null","","","","decisionFB","","<div class='trialDiv'><img src='Fruit/lime.png'><br><font class='baseline'><strong>Limin' Large</strong><p>Choose number of points to bet.</font><div class='respPicDiv'><img src='img/responseButtonOffersNo0L3.png' class='respPic'></div></div>","null","15","Limin' Large","Fruit/lime.png","Lost","0.2,0.65","14","0.2","261","43","",""
"html-keyboard-response","138","148650","0.0-11.0-3.42","6400d9235287137e7b62fd29","bdp_rwlrn","Sat Apr 08 2023 09:01:47 GMT-0700 (Pacific Daylight Time)","389938","Untrustworthy,Trustworthy","","null","","","","feedback","","<div class='respPicDiv'><img src='img/responseButtonOffersNo0_wht.png' class='respPic'></div><div class='trialDiv'><img src='Fruit/lime.png'><br><font class='baseline'><strong>Limin' Large</strong><p><strong><font class='negOutcome'>You LOST</font><p>You bet: 3</strong></font> &nbsp; &nbsp; &nbsp; &nbsp; &nbsp; &nbsp;<font class='negOutcome'>You receive: <strong>0</strong></font></div>","null","15","Limin' Large","Fruit/lime.png","Lost","0.2,0.65","14","0.2","261","43","",""
"html-keyboard-response","139","148950","0.0-11.0-1.43","6400d9235287137e7b62fd29","bdp_rwlrn","Sat Apr 08 2023 09:01:47 GMT-0700 (Pacific Daylight Time)","389938","Untrustworthy,Trustworthy","","298","","","","decision","","<div class='trialDiv'><img src='Fruit/grapes.png'><br><font class='baseline'><strong>Great Grapes</strong><p>Choose number of points to bet.</font><div class='respPicDiv'><img src='img/responseButtonOffersNo0L.png' class='respPic'></div></div>","2","15","Great Grapes","Fruit/grapes.png","Won","0.8,0.2","11","0.8","266","44","",""
"html-keyboard-response","140","149207","0.0-11.0-2.43","6400d9235287137e7b62fd29","bdp_rwlrn","Sat Apr 08 2023 09:01:47 GMT-0700 (Pacific Daylight Time)","389938","Untrustworthy,Trustworthy","","null","","","","decisionFB","","<div class='trialDiv'><img src='Fruit/grapes.png'><br><font class='baseline'><strong>Great Grapes</strong><p>Choose number of points to bet.</font><div class='respPicDiv'><img src='img/responseButtonOffersNo0L2.png' class='respPic'></div></div>","null","15","Great Grapes","Fruit/grapes.png","Won","0.8,0.2","11","0.8","264","44","",""
"html-keyboard-response","141","150217","0.0-11.0-3.43","6400d9235287137e7b62fd29","bdp_rwlrn","Sat Apr 08 2023 09:01:47 GMT-0700 (Pacific Daylight Time)","389938","Untrustworthy,Trustworthy","","null","","","","feedback","","<div class='respPicDiv'><img src='img/responseButtonOffersNo0_wht.png' class='respPic'></div><div class='trialDiv'><img src='Fruit/grapes.png'><br><font class='baseline'><strong>Great Grapes</strong><p><strong><font class='posOutcome'>You WON</font><p>You bet: 2</strong></font> &nbsp; &nbsp; &nbsp; &nbsp; &nbsp; &nbsp;<font class='posOutcome'>you receive: <strong>4</strong></font></div>","null","15","Great Grapes","Fruit/grapes.png","Won","0.8,0.2","11","0.8","268","44","",""
"html-keyboard-response","142","150624","0.0-11.0-1.44","6400d9235287137e7b62fd29","bdp_rwlrn","Sat Apr 08 2023 09:01:47 GMT-0700 (Pacific Daylight Time)","389938","Untrustworthy,Trustworthy","","405","","","","decision","","<div class='trialDiv'><img src='Fruit/melon.png'><br><font class='baseline'><strong>Melon Millions</strong><p>Choose number of points to bet.</font><div class='respPicDiv'><img src='img/responseButtonOffersNo0L.png' class='respPic'></div></div>","2","15","Melon Millions","Fruit/melon.png","Lost","0.8,0.35","13","0.8","273","45","",""
"html-keyboard-response","143","150883","0.0-11.0-2.44","6400d9235287137e7b62fd29","bdp_rwlrn","Sat Apr 08 2023 09:01:47 GMT-0700 (Pacific Daylight Time)","389938","Untrustworthy,Trustworthy","","null","","","","decisionFB","","<div class='trialDiv'><img src='Fruit/melon.png'><br><font class='baseline'><strong>Melon Millions</strong><p>Choose number of points to bet.</font><div class='respPicDiv'><img src='img/responseButtonOffersNo0L2.png' class='respPic'></div></div>","null","15","Melon Millions","Fruit/melon.png","Lost","0.8,0.35","13","0.8","271","45","",""
"html-keyboard-response","144","151889","0.0-11.0-3.44","6400d9235287137e7b62fd29","bdp_rwlrn","Sat Apr 08 2023 09:01:47 GMT-0700 (Pacific Daylight Time)","389938","Untrustworthy,Trustworthy","","null","","","","feedback","","<div class='respPicDiv'><img src='img/responseButtonOffersNo0_wht.png' class='respPic'></div><div class='trialDiv'><img src='Fruit/melon.png'><br><font class='baseline'><strong>Melon Millions</strong><p><strong><font class='negOutcome'>You LOST</font><p>You bet: 2</strong></font> &nbsp; &nbsp; &nbsp; &nbsp; &nbsp; &nbsp;<font class='negOutcome'>You receive: <strong>0</strong></font></div>","null","15","Melon Millions","Fruit/melon.png","Lost","0.8,0.35","13","0.8","271","45","",""
"html-keyboard-response","145","152177","0.0-11.0-1.45","6400d9235287137e7b62fd29","bdp_rwlrn","Sat Apr 08 2023 09:01:47 GMT-0700 (Pacific Daylight Time)","389938","Untrustworthy,Trustworthy","","286","","","","decision","","<div class='trialDiv'><img src='Fruit/lime.png'><br><font class='baseline'><strong>Limin' Large</strong><p>Choose number of points to bet.</font><div class='respPicDiv'><img src='img/responseButtonOffersNo0L.png' class='respPic'></div></div>","1","16","Limin' Large","Fruit/lime.png","Lost","0.2,0.65","14","0.2","276","46","",""
"html-keyboard-response","146","152433","0.0-11.0-2.45","6400d9235287137e7b62fd29","bdp_rwlrn","Sat Apr 08 2023 09:01:47 GMT-0700 (Pacific Daylight Time)","389938","Untrustworthy,Trustworthy","","null","","","","decisionFB","","<div class='trialDiv'><img src='Fruit/lime.png'><br><font class='baseline'><strong>Limin' Large</strong><p>Choose number of points to bet.</font><div class='respPicDiv'><img src='img/responseButtonOffersNo0L1.png' class='respPic'></div></div>","null","16","Limin' Large","Fruit/lime.png","Lost","0.2,0.65","14","0.2","275","46","",""
"html-keyboard-response","147","153443","0.0-11.0-3.45","6400d9235287137e7b62fd29","bdp_rwlrn","Sat Apr 08 2023 09:01:47 GMT-0700 (Pacific Daylight Time)","389938","Untrustworthy,Trustworthy","","null","","","","feedback","","<div class='respPicDiv'><img src='img/responseButtonOffersNo0_wht.png' class='respPic'></div><div class='trialDiv'><img src='Fruit/lime.png'><br><font class='baseline'><strong>Limin' Large</strong><p><strong><font class='negOutcome'>You LOST</font><p>You bet: 1</strong></font> &nbsp; &nbsp; &nbsp; &nbsp; &nbsp; &nbsp;<font class='negOutcome'>You receive: <strong>0</strong></font></div>","null","16","Limin' Large","Fruit/lime.png","Lost","0.2,0.65","14","0.2","275","46","",""
"html-keyboard-response","148","153829","0.0-11.0-1.46","6400d9235287137e7b62fd29","bdp_rwlrn","Sat Apr 08 2023 09:01:47 GMT-0700 (Pacific Daylight Time)","389938","Untrustworthy,Trustworthy","","384","","","","decision","","<div class='trialDiv'><img src='Fruit/melon.png'><br><font class='baseline'><strong>Melon Millions</strong><p>Choose number of points to bet.</font><div class='respPicDiv'><img src='img/responseButtonOffersNo0L.png' class='respPic'></div></div>","4","16","Melon Millions","Fruit/melon.png","Lost","0.8,0.35","13","0.8","280","47","",""
"html-keyboard-response","149","154086","0.0-11.0-2.46","6400d9235287137e7b62fd29","bdp_rwlrn","Sat Apr 08 2023 09:01:47 GMT-0700 (Pacific Daylight Time)","389938","Untrustworthy,Trustworthy","","null","","","","decisionFB","","<div class='trialDiv'><img src='Fruit/melon.png'><br><font class='baseline'><strong>Melon Millions</strong><p>Choose number of points to bet.</font><div class='respPicDiv'><img src='img/responseButtonOffersNo0L4.png' class='respPic'></div></div>","null","16","Melon Millions","Fruit/melon.png","Lost","0.8,0.35","13","0.8","276","47","",""
"html-keyboard-response","150","155103","0.0-11.0-3.46","6400d9235287137e7b62fd29","bdp_rwlrn","Sat Apr 08 2023 09:01:47 GMT-0700 (Pacific Daylight Time)","389938","Untrustworthy,Trustworthy","","null","","","","feedback","","<div class='respPicDiv'><img src='img/responseButtonOffersNo0_wht.png' class='respPic'></div><div class='trialDiv'><img src='Fruit/melon.png'><br><font class='baseline'><strong>Melon Millions</strong><p><strong><font class='negOutcome'>You LOST</font><p>You bet: 4</strong></font> &nbsp; &nbsp; &nbsp; &nbsp; &nbsp; &nbsp;<font class='negOutcome'>You receive: <strong>0</strong></font></div>","null","16","Melon Millions","Fruit/melon.png","Lost","0.8,0.35","13","0.8","276","47","",""
"html-keyboard-response","151","155517","0.0-11.0-1.47","6400d9235287137e7b62fd29","bdp_rwlrn","Sat Apr 08 2023 09:01:47 GMT-0700 (Pacific Daylight Time)","389938","Untrustworthy,Trustworthy","","413","","","","decision","","<div class='trialDiv'><img src='Fruit/grapes.png'><br><font class='baseline'><strong>Great Grapes</strong><p>Choose number of points to bet.</font><div class='respPicDiv'><img src='img/responseButtonOffersNo0L.png' class='respPic'></div></div>","5","16","Great Grapes","Fruit/grapes.png","Lost","0.8,0.2","11","0.8","281","48","",""
"html-keyboard-response","152","155770","0.0-11.0-2.47","6400d9235287137e7b62fd29","bdp_rwlrn","Sat Apr 08 2023 09:01:47 GMT-0700 (Pacific Daylight Time)","389938","Untrustworthy,Trustworthy","","null","","","","decisionFB","","<div class='trialDiv'><img src='Fruit/grapes.png'><br><font class='baseline'><strong>Great Grapes</strong><p>Choose number of points to bet.</font><div class='respPicDiv'><img src='img/responseButtonOffersNo0L5.png' class='respPic'></div></div>","null","16","Great Grapes","Fruit/grapes.png","Lost","0.8,0.2","11","0.8","276","48","",""
"html-keyboard-response","153","156780","0.0-11.0-3.47","6400d9235287137e7b62fd29","bdp_rwlrn","Sat Apr 08 2023 09:01:47 GMT-0700 (Pacific Daylight Time)","389938","Untrustworthy,Trustworthy","","null","","","","feedback","","<div class='respPicDiv'><img src='img/responseButtonOffersNo0_wht.png' class='respPic'></div><div class='trialDiv'><img src='Fruit/grapes.png'><br><font class='baseline'><strong>Great Grapes</strong><p><strong><font class='negOutcome'>You LOST</font><p>You bet: 5</strong></font> &nbsp; &nbsp; &nbsp; &nbsp; &nbsp; &nbsp;<font class='negOutcome'>You receive: <strong>0</strong></font></div>","null","16","Great Grapes","Fruit/grapes.png","Lost","0.8,0.2","11","0.8","276","48","",""
"html-keyboard-response","154","157211","0.0-11.0-1.48","6400d9235287137e7b62fd29","bdp_rwlrn","Sat Apr 08 2023 09:01:47 GMT-0700 (Pacific Daylight Time)","389938","Untrustworthy,Trustworthy","","429","","","","decision","","<div class='trialDiv'><img src='Fruit/melon.png'><br><font class='baseline'><strong>Melon Millions</strong><p>Choose number of points to bet.</font><div class='respPicDiv'><img src='img/responseButtonOffersNo0L.png' class='respPic'></div></div>","5","17","Melon Millions","Fruit/melon.png","Lost","0.8,0.35","13","0.8","281","49","",""
"html-keyboard-response","155","157465","0.0-11.0-2.48","6400d9235287137e7b62fd29","bdp_rwlrn","Sat Apr 08 2023 09:01:47 GMT-0700 (Pacific Daylight Time)","389938","Untrustworthy,Trustworthy","","null","","","","decisionFB","","<div class='trialDiv'><img src='Fruit/melon.png'><br><font class='baseline'><strong>Melon Millions</strong><p>Choose number of points to bet.</font><div class='respPicDiv'><img src='img/responseButtonOffersNo0L5.png' class='respPic'></div></div>","null","17","Melon Millions","Fruit/melon.png","Lost","0.8,0.35","13","0.8","276","49","",""
"html-keyboard-response","156","158471","0.0-11.0-3.48","6400d9235287137e7b62fd29","bdp_rwlrn","Sat Apr 08 2023 09:01:47 GMT-0700 (Pacific Daylight Time)","389938","Untrustworthy,Trustworthy","","null","","","","feedback","","<div class='respPicDiv'><img src='img/responseButtonOffersNo0_wht.png' class='respPic'></div><div class='trialDiv'><img src='Fruit/melon.png'><br><font class='baseline'><strong>Melon Millions</strong><p><strong><font class='negOutcome'>You LOST</font><p>You bet: 5</strong></font> &nbsp; &nbsp; &nbsp; &nbsp; &nbsp; &nbsp;<font class='negOutcome'>You receive: <strong>0</strong></font></div>","null","17","Melon Millions","Fruit/melon.png","Lost","0.8,0.35","13","0.8","276","49","",""
"html-keyboard-response","157","158928","0.0-11.0-1.49","6400d9235287137e7b62fd29","bdp_rwlrn","Sat Apr 08 2023 09:01:47 GMT-0700 (Pacific Daylight Time)","389938","Untrustworthy,Trustworthy","","454","","","","decision","","<div class='trialDiv'><img src='Fruit/lime.png'><br><font class='baseline'><strong>Limin' Large</strong><p>Choose number of points to bet.</font><div class='respPicDiv'><img src='img/responseButtonOffersNo0L.png' class='respPic'></div></div>","5","17","Limin' Large","Fruit/lime.png","Won","0.2,0.65","14","0.2","281","50","",""
"html-keyboard-response","158","159181","0.0-11.0-2.49","6400d9235287137e7b62fd29","bdp_rwlrn","Sat Apr 08 2023 09:01:47 GMT-0700 (Pacific Daylight Time)","389938","Untrustworthy,Trustworthy","","null","","","","decisionFB","","<div class='trialDiv'><img src='Fruit/lime.png'><br><font class='baseline'><strong>Limin' Large</strong><p>Choose number of points to bet.</font><div class='respPicDiv'><img src='img/responseButtonOffersNo0L5.png' class='respPic'></div></div>","null","17","Limin' Large","Fruit/lime.png","Won","0.2,0.65","14","0.2","276","50","",""
"html-keyboard-response","159","160186","0.0-11.0-3.49","6400d9235287137e7b62fd29","bdp_rwlrn","Sat Apr 08 2023 09:01:47 GMT-0700 (Pacific Daylight Time)","389938","Untrustworthy,Trustworthy","","null","","","","feedback","","<div class='respPicDiv'><img src='img/responseButtonOffersNo0_wht.png' class='respPic'></div><div class='trialDiv'><img src='Fruit/lime.png'><br><font class='baseline'><strong>Limin' Large</strong><p><strong><font class='posOutcome'>You WON</font><p>You bet: 5</strong></font> &nbsp; &nbsp; &nbsp; &nbsp; &nbsp; &nbsp;<font class='posOutcome'>you receive: <strong>10</strong></font></div>","null","17","Limin' Large","Fruit/lime.png","Won","0.2,0.65","14","0.2","286","50","",""
"html-keyboard-response","160","161304","0.0-11.0-1.50","6400d9235287137e7b62fd29","bdp_rwlrn","Sat Apr 08 2023 09:01:47 GMT-0700 (Pacific Daylight Time)","389938","Untrustworthy,Trustworthy","","1116","","","","decision","","<div class='trialDiv'><img src='Fruit/grapes.png'><br><font class='baseline'><strong>Great Grapes</strong><p>Choose number of points to bet.</font><div class='respPicDiv'><img src='img/responseButtonOffersNo0L.png' class='respPic'></div></div>","1","17","Great Grapes","Fruit/grapes.png","Lost","0.8,0.2","11","0.8","291","51","",""
"html-keyboard-response","161","161560","0.0-11.0-2.50","6400d9235287137e7b62fd29","bdp_rwlrn","Sat Apr 08 2023 09:01:47 GMT-0700 (Pacific Daylight Time)","389938","Untrustworthy,Trustworthy","","null","","","","decisionFB","","<div class='trialDiv'><img src='Fruit/grapes.png'><br><font class='baseline'><strong>Great Grapes</strong><p>Choose number of points to bet.</font><div class='respPicDiv'><img src='img/responseButtonOffersNo0L1.png' class='respPic'></div></div>","null","17","Great Grapes","Fruit/grapes.png","Lost","0.8,0.2","11","0.8","290","51","",""
"html-keyboard-response","162","162572","0.0-11.0-3.50","6400d9235287137e7b62fd29","bdp_rwlrn","Sat Apr 08 2023 09:01:47 GMT-0700 (Pacific Daylight Time)","389938","Untrustworthy,Trustworthy","","null","","","","feedback","","<div class='respPicDiv'><img src='img/responseButtonOffersNo0_wht.png' class='respPic'></div><div class='trialDiv'><img src='Fruit/grapes.png'><br><font class='baseline'><strong>Great Grapes</strong><p><strong><font class='negOutcome'>You LOST</font><p>You bet: 1</strong></font> &nbsp; &nbsp; &nbsp; &nbsp; &nbsp; &nbsp;<font class='negOutcome'>You receive: <strong>0</strong></font></div>","null","17","Great Grapes","Fruit/grapes.png","Lost","0.8,0.2","11","0.8","290","51","",""
"html-keyboard-response","163","163257","0.0-11.0-1.51","6400d9235287137e7b62fd29","bdp_rwlrn","Sat Apr 08 2023 09:01:47 GMT-0700 (Pacific Daylight Time)","389938","Untrustworthy,Trustworthy","","683","","","","decision","","<div class='trialDiv'><img src='Fruit/lime.png'><br><font class='baseline'><strong>Limin' Large</strong><p>Choose number of points to bet.</font><div class='respPicDiv'><img src='img/responseButtonOffersNo0L.png' class='respPic'></div></div>","5","18","Limin' Large","Fruit/lime.png","Lost","0.2,0.65","14","0.2","295","52","",""
"html-keyboard-response","164","163518","0.0-11.0-2.51","6400d9235287137e7b62fd29","bdp_rwlrn","Sat Apr 08 2023 09:01:47 GMT-0700 (Pacific Daylight Time)","389938","Untrustworthy,Trustworthy","","null","","","","decisionFB","","<div class='trialDiv'><img src='Fruit/lime.png'><br><font class='baseline'><strong>Limin' Large</strong><p>Choose number of points to bet.</font><div class='respPicDiv'><img src='img/responseButtonOffersNo0L5.png' class='respPic'></div></div>","null","18","Limin' Large","Fruit/lime.png","Lost","0.2,0.65","14","0.2","290","52","",""
