"trial_type","trial_index","time_elapsed","internal_node_id","subject_id","task","startTime","totalTime","labels","view_history","rt","event","trial","time","trialtype","success","stimulus","key_press","ltround","name","fileID","outcome","lottotype","lottoswpt","lottocurrpshare","point_total","round","faceID","face"
"pavlovia","0","7","0.0-0.0","55d86f3569dbc30012b6869f","bdp_rwlrn","Mon Mar 13 2023 15:03:17 GMT-0400 (Eastern Daylight Time)","402148","Untrustworthy,Trustworthy","","","","","","","","","","","","","","","","","","","",""
"instructions","1","4168","0.0-1.0","55d86f3569dbc30012b6869f","bdp_rwlrn","Mon Mar 13 2023 15:03:17 GMT-0400 (Eastern Daylight Time)","402148","Untrustworthy,Trustworthy","[{""page_index"":0,""viewing_time"":4159}]","4159","","","","","","","","","","","","","","","","","",""
"","","","","55d86f3569dbc30012b6869f","bdp_rwlrn","Mon Mar 13 2023 15:03:17 GMT-0400 (Eastern Daylight Time)","402148","Untrustworthy,Trustworthy","","","fullscreenenter","2","7393","fullscreenenter","","","","","","","","","","","","","",""
"fullscreen","2","8397","0.0-2.0","55d86f3569dbc30012b6869f","bdp_rwlrn","Mon Mar 13 2023 15:03:17 GMT-0400 (Eastern Daylight Time)","402148","Untrustworthy,Trustworthy","","","","","","","true","","","","","","","","","","","","",""
"instructions","3","55188","0.0-4.0","55d86f3569dbc30012b6869f","bdp_rwlrn","Mon Mar 13 2023 15:03:17 GMT-0400 (Eastern Daylight Time)","402148","Untrustworthy,Trustworthy","[{""page_index"":0,""viewing_time"":10083},{""page_index"":1,""viewing_time"":7853},{""page_index"":2,""viewing_time"":5902},{""page_index"":3,""viewing_time"":7776},{""page_index"":4,""viewing_time"":12965},{""page_index"":5,""viewing_time"":2207}]","46786","","","","","","","","","","","","","","","","","",""
"html-keyboard-response","4","58615","0.0-5.0","55d86f3569dbc30012b6869f","bdp_rwlrn","Mon Mar 13 2023 15:03:17 GMT-0400 (Eastern Daylight Time)","402148","Untrustworthy,Trustworthy","","3423","","","","","","<div class='header' style='text-align:left; position: absolute; top: 5%; left: 5%;'><small>Task 3 of 5</small></div><div class='instruxDiv'><p><strong>1) What is the maximum number of points you can choose to bet on a lottery?</strong></p><p>a) 0</p><p>b) 1</p><p>c) 5</p>","C","","","","","","","","","","",""
"html-keyboard-response","5","59792","0.0-6.0","55d86f3569dbc30012b6869f","bdp_rwlrn","Mon Mar 13 2023 15:03:17 GMT-0400 (Eastern Daylight Time)","402148","Untrustworthy,Trustworthy","","1073","","","","","","<div class='header' style='text-align:left; position: absolute; top: 5%; left: 5%;'><small>Task 3 of 5</small></div><div class='instruxDiv'><p><strong>1) What is the maximum number of points you can choose to bet on a lottery?</strong></p><p>a) 1</p><p>b) 1</p><p style='color:#00FF00'>c) 5</p><h3 style='color:#00FF00'>Correct!</h3><h3 class='center-content'>The correct response is c).</h3><h3 class='center-content'>The maximum number of points you can choose to bet on a lottery is 5 points.</h3><p><em>Press SPACEBAR to continue</em></p></div>"," ","","","","","","","","","","",""
"html-keyboard-response","6","64532","0.0-7.0","55d86f3569dbc30012b6869f","bdp_rwlrn","Mon Mar 13 2023 15:03:17 GMT-0400 (Eastern Daylight Time)","402148","Untrustworthy,Trustworthy","","4638","","","","","","<div class='header' style='text-align:left; position: absolute; top: 5%; left: 5%;'><small>Task 3 of 5</small></div><div class='instruxDiv'><p><strong>2) How many points can you win each round?</strong></p><p>a) 10 points</p><p>b) Double what you bet</p><p>c) Quadruple what you bet</p>","B","","","","","","","","","","",""
"html-keyboard-response","7","65845","0.0-8.0","55d86f3569dbc30012b6869f","bdp_rwlrn","Mon Mar 13 2023 15:03:17 GMT-0400 (Eastern Daylight Time)","402148","Untrustworthy,Trustworthy","","1208","","","","","","<div class='header' style='text-align:left; position: absolute; top: 5%; left: 5%;'><small>Task 3 of 5</small></div><div class='instruxDiv'><p><strong>2) How many points can you win each round?</strong></p><p>a) 10 points</p><p style='color:#00FF00'>b) Double what you bet</p><p>c) Quadruple what you bet</p><h3 style='color:#00FF00'>Correct!</h3><h3 class='center-content'>The correct response is b).</h3><h3 class='center-content'>You can win double the amount of points you bet.</h3><p><em>Press SPACEBAR to continue</em></p></div>"," ","","","","","","","","","","",""
"html-keyboard-response","8","70950","0.0-9.0","55d86f3569dbc30012b6869f","bdp_rwlrn","Mon Mar 13 2023 15:03:17 GMT-0400 (Eastern Daylight Time)","402148","Untrustworthy,Trustworthy","","null","","","","","","<div class='header' style='text-align:left; position: absolute; top: 5%; left: 5%;'><small>Task 3 of 5</small></div><div class='instruxDiv'><p>Thank you for completing the quiz<p>These are the actual lotteries you will be playing in the next block:<p><div class='tc' align='center'><img class='introPic' src='Fruit/watermelon.png'><br><strong>Watermelon Win$</strong></div><div class='bl' align='center'><img class='introPic' src='Fruit/orange.png'><br><strong>Odds are Orange</strong></div><div class='br' align='center'><img class='introPic' src='Fruit/mango.png'><br><strong>Mega Mangos</strong></div></div><p>Across <strong>66 rounds</strong> you will play each lottery <strong>22 times</strong> (in random order).<p style='align:center; color:white'><font <em>Press SPACEBAR to continue</em></p>","null","","","","","","","","","","",""
"instructions","9","72954","0.0-10.0","55d86f3569dbc30012b6869f","bdp_rwlrn","Mon Mar 13 2023 15:03:17 GMT-0400 (Eastern Daylight Time)","402148","Untrustworthy,Trustworthy","[{""page_index"":0,""viewing_time"":506},{""page_index"":1,""viewing_time"":1496}]","2002","","","","","","","","","","","","","","","","","",""
"html-keyboard-response","10","75702","0.0-11.0-1.0","55d86f3569dbc30012b6869f","bdp_rwlrn","Mon Mar 13 2023 15:03:17 GMT-0400 (Eastern Daylight Time)","402148","Untrustworthy,Trustworthy","","2642","","","","decision","","<div class='trialDiv'><img src='Fruit/orange.png'><br><font class='baseline'><strong>Odds are Orange</strong><p>Choose number of points to bet.</font><div class='respPicDiv'><img src='img/responseButtonOffersNo0L.png' class='respPic'></div></div>","2","1","Odds are Orange","Fruit/orange.png","Won","0.65,0.35","14","0.65","5","1","",""
"html-keyboard-response","11","75957","0.0-11.0-2.0","55d86f3569dbc30012b6869f","bdp_rwlrn","Mon Mar 13 2023 15:03:17 GMT-0400 (Eastern Daylight Time)","402148","Untrustworthy,Trustworthy","","null","","","","decisionFB","","<div class='trialDiv'><img src='Fruit/orange.png'><br><font class='baseline'><strong>Odds are Orange</strong><p>Choose number of points to bet.</font><div class='respPicDiv'><img src='img/responseButtonOffersNo0L2.png' class='respPic'></div></div>","null","1","Odds are Orange","Fruit/orange.png","Won","0.65,0.35","14","0.65","3","1","",""
"html-keyboard-response","12","76961","0.0-11.0-3.0","55d86f3569dbc30012b6869f","bdp_rwlrn","Mon Mar 13 2023 15:03:17 GMT-0400 (Eastern Daylight Time)","402148","Untrustworthy,Trustworthy","","null","","","","feedback","","<div class='respPicDiv'><img src='img/responseButtonOffersNo0_wht.png' class='respPic'></div><div class='trialDiv'><img src='Fruit/orange.png'><br><font class='baseline'><strong>Odds are Orange</strong><p><strong><font class='posOutcome'>You WON</font><p>You bet: 2</strong></font> &nbsp; &nbsp; &nbsp; &nbsp; &nbsp; &nbsp;<font class='posOutcome'>you receive: <strong>4</strong></font></div>","null","1","Odds are Orange","Fruit/orange.png","Won","0.65,0.35","14","0.65","7","1","",""
"html-keyboard-response","13","77881","0.0-11.0-1.1","55d86f3569dbc30012b6869f","bdp_rwlrn","Mon Mar 13 2023 15:03:17 GMT-0400 (Eastern Daylight Time)","402148","Untrustworthy,Trustworthy","","916","","","","decision","","<div class='trialDiv'><img src='Fruit/mango.png'><br><font class='baseline'><strong>Mega Mangos</strong><p>Choose number of points to bet.</font><div class='respPicDiv'><img src='img/responseButtonOffersNo0L.png' class='respPic'></div></div>","2","1","Mega Mangos","Fruit/mango.png","Lost","0.2,0.65","10","0.2","12","2","",""
"html-keyboard-response","14","78135","0.0-11.0-2.1","55d86f3569dbc30012b6869f","bdp_rwlrn","Mon Mar 13 2023 15:03:17 GMT-0400 (Eastern Daylight Time)","402148","Untrustworthy,Trustworthy","","null","","","","decisionFB","","<div class='trialDiv'><img src='Fruit/mango.png'><br><font class='baseline'><strong>Mega Mangos</strong><p>Choose number of points to bet.</font><div class='respPicDiv'><img src='img/responseButtonOffersNo0L2.png' class='respPic'></div></div>","null","1","Mega Mangos","Fruit/mango.png","Lost","0.2,0.65","10","0.2","10","2","",""
"html-keyboard-response","15","79138","0.0-11.0-3.1","55d86f3569dbc30012b6869f","bdp_rwlrn","Mon Mar 13 2023 15:03:17 GMT-0400 (Eastern Daylight Time)","402148","Untrustworthy,Trustworthy","","null","","","","feedback","","<div class='respPicDiv'><img src='img/responseButtonOffersNo0_wht.png' class='respPic'></div><div class='trialDiv'><img src='Fruit/mango.png'><br><font class='baseline'><strong>Mega Mangos</strong><p><strong><font class='negOutcome'>You LOST</font><p>You bet: 2</strong></font> &nbsp; &nbsp; &nbsp; &nbsp; &nbsp; &nbsp;<font class='negOutcome'>You receive: <strong>0</strong></font></div>","null","1","Mega Mangos","Fruit/mango.png","Lost","0.2,0.65","10","0.2","10","2","",""
"html-keyboard-response","16","79921","0.0-11.0-1.2","55d86f3569dbc30012b6869f","bdp_rwlrn","Mon Mar 13 2023 15:03:17 GMT-0400 (Eastern Daylight Time)","402148","Untrustworthy,Trustworthy","","780","","","","decision","","<div class='trialDiv'><img src='Fruit/watermelon.png'><br><font class='baseline'><strong>Watermelon Win$</strong><p>Choose number of points to bet.</font><div class='respPicDiv'><img src='img/responseButtonOffersNo0L.png' class='respPic'></div></div>","2","1","Watermelon Win$","Fruit/watermelon.png","Won","0.8,0.35","13","0.8","15","3","",""
"html-keyboard-response","17","80173","0.0-11.0-2.2","55d86f3569dbc30012b6869f","bdp_rwlrn","Mon Mar 13 2023 15:03:17 GMT-0400 (Eastern Daylight Time)","402148","Untrustworthy,Trustworthy","","null","","","","decisionFB","","<div class='trialDiv'><img src='Fruit/watermelon.png'><br><font class='baseline'><strong>Watermelon Win$</strong><p>Choose number of points to bet.</font><div class='respPicDiv'><img src='img/responseButtonOffersNo0L2.png' class='respPic'></div></div>","null","1","Watermelon Win$","Fruit/watermelon.png","Won","0.8,0.35","13","0.8","13","3","",""
"html-keyboard-response","18","81177","0.0-11.0-3.2","55d86f3569dbc30012b6869f","bdp_rwlrn","Mon Mar 13 2023 15:03:17 GMT-0400 (Eastern Daylight Time)","402148","Untrustworthy,Trustworthy","","null","","","","feedback","","<div class='respPicDiv'><img src='img/responseButtonOffersNo0_wht.png' class='respPic'></div><div class='trialDiv'><img src='Fruit/watermelon.png'><br><font class='baseline'><strong>Watermelon Win$</strong><p><strong><font class='posOutcome'>You WON</font><p>You bet: 2</strong></font> &nbsp; &nbsp; &nbsp; &nbsp; &nbsp; &nbsp;<font class='posOutcome'>you receive: <strong>4</strong></font></div>","null","1","Watermelon Win$","Fruit/watermelon.png","Won","0.8,0.35","13","0.8","17","3","",""
"html-keyboard-response","19","82231","0.0-11.0-1.3","55d86f3569dbc30012b6869f","bdp_rwlrn","Mon Mar 13 2023 15:03:17 GMT-0400 (Eastern Daylight Time)","402148","Untrustworthy,Trustworthy","","1051","","","","decision","","<div class='trialDiv'><img src='Fruit/mango.png'><br><font class='baseline'><strong>Mega Mangos</strong><p>Choose number of points to bet.</font><div class='respPicDiv'><img src='img/responseButtonOffersNo0L.png' class='respPic'></div></div>","1","2","Mega Mangos","Fruit/mango.png","Lost","0.2,0.65","10","0.2","22","4","",""
"html-keyboard-response","20","82483","0.0-11.0-2.3","55d86f3569dbc30012b6869f","bdp_rwlrn","Mon Mar 13 2023 15:03:17 GMT-0400 (Eastern Daylight Time)","402148","Untrustworthy,Trustworthy","","null","","","","decisionFB","","<div class='trialDiv'><img src='Fruit/mango.png'><br><font class='baseline'><strong>Mega Mangos</strong><p>Choose number of points to bet.</font><div class='respPicDiv'><img src='img/responseButtonOffersNo0L1.png' class='respPic'></div></div>","null","2","Mega Mangos","Fruit/mango.png","Lost","0.2,0.65","10","0.2","21","4","",""
"html-keyboard-response","21","83487","0.0-11.0-3.3","55d86f3569dbc30012b6869f","bdp_rwlrn","Mon Mar 13 2023 15:03:17 GMT-0400 (Eastern Daylight Time)","402148","Untrustworthy,Trustworthy","","null","","","","feedback","","<div class='respPicDiv'><img src='img/responseButtonOffersNo0_wht.png' class='respPic'></div><div class='trialDiv'><img src='Fruit/mango.png'><br><font class='baseline'><strong>Mega Mangos</strong><p><strong><font class='negOutcome'>You LOST</font><p>You bet: 1</strong></font> &nbsp; &nbsp; &nbsp; &nbsp; &nbsp; &nbsp;<font class='negOutcome'>You receive: <strong>0</strong></font></div>","null","2","Mega Mangos","Fruit/mango.png","Lost","0.2,0.65","10","0.2","21","4","",""
"html-keyboard-response","22","84407","0.0-11.0-1.4","55d86f3569dbc30012b6869f","bdp_rwlrn","Mon Mar 13 2023 15:03:17 GMT-0400 (Eastern Daylight Time)","402148","Untrustworthy,Trustworthy","","916","","","","decision","","<div class='trialDiv'><img src='Fruit/watermelon.png'><br><font class='baseline'><strong>Watermelon Win$</strong><p>Choose number of points to bet.</font><div class='respPicDiv'><img src='img/responseButtonOffersNo0L.png' class='respPic'></div></div>","3","2","Watermelon Win$","Fruit/watermelon.png","Won","0.8,0.35","13","0.8","26","5","",""
"html-keyboard-response","23","84661","0.0-11.0-2.4","55d86f3569dbc30012b6869f","bdp_rwlrn","Mon Mar 13 2023 15:03:17 GMT-0400 (Eastern Daylight Time)","402148","Untrustworthy,Trustworthy","","null","","","","decisionFB","","<div class='trialDiv'><img src='Fruit/watermelon.png'><br><font class='baseline'><strong>Watermelon Win$</strong><p>Choose number of points to bet.</font><div class='respPicDiv'><img src='img/responseButtonOffersNo0L3.png' class='respPic'></div></div>","null","2","Watermelon Win$","Fruit/watermelon.png","Won","0.8,0.35","13","0.8","23","5","",""
"html-keyboard-response","24","85665","0.0-11.0-3.4","55d86f3569dbc30012b6869f","bdp_rwlrn","Mon Mar 13 2023 15:03:17 GMT-0400 (Eastern Daylight Time)","402148","Untrustworthy,Trustworthy","","null","","","","feedback","","<div class='respPicDiv'><img src='img/responseButtonOffersNo0_wht.png' class='respPic'></div><div class='trialDiv'><img src='Fruit/watermelon.png'><br><font class='baseline'><strong>Watermelon Win$</strong><p><strong><font class='posOutcome'>You WON</font><p>You bet: 3</strong></font> &nbsp; &nbsp; &nbsp; &nbsp; &nbsp; &nbsp;<font class='posOutcome'>you receive: <strong>6</strong></font></div>","null","2","Watermelon Win$","Fruit/watermelon.png","Won","0.8,0.35","13","0.8","29","5","",""
"html-keyboard-response","25","86383","0.0-11.0-1.5","55d86f3569dbc30012b6869f","bdp_rwlrn","Mon Mar 13 2023 15:03:17 GMT-0400 (Eastern Daylight Time)","402148","Untrustworthy,Trustworthy","","715","","","","decision","","<div class='trialDiv'><img src='Fruit/orange.png'><br><font class='baseline'><strong>Odds are Orange</strong><p>Choose number of points to bet.</font><div class='respPicDiv'><img src='img/responseButtonOffersNo0L.png' class='respPic'></div></div>","3","2","Odds are Orange","Fruit/orange.png","Lost","0.65,0.35","14","0.65","34","6","",""
"html-keyboard-response","26","86635","0.0-11.0-2.5","55d86f3569dbc30012b6869f","bdp_rwlrn","Mon Mar 13 2023 15:03:17 GMT-0400 (Eastern Daylight Time)","402148","Untrustworthy,Trustworthy","","null","","","","decisionFB","","<div class='trialDiv'><img src='Fruit/orange.png'><br><font class='baseline'><strong>Odds are Orange</strong><p>Choose number of points to bet.</font><div class='respPicDiv'><img src='img/responseButtonOffersNo0L3.png' class='respPic'></div></div>","null","2","Odds are Orange","Fruit/orange.png","Lost","0.65,0.35","14","0.65","31","6","",""
"html-keyboard-response","27","87639","0.0-11.0-3.5","55d86f3569dbc30012b6869f","bdp_rwlrn","Mon Mar 13 2023 15:03:17 GMT-0400 (Eastern Daylight Time)","402148","Untrustworthy,Trustworthy","","null","","","","feedback","","<div class='respPicDiv'><img src='img/responseButtonOffersNo0_wht.png' class='respPic'></div><div class='trialDiv'><img src='Fruit/orange.png'><br><font class='baseline'><strong>Odds are Orange</strong><p><strong><font class='negOutcome'>You LOST</font><p>You bet: 3</strong></font> &nbsp; &nbsp; &nbsp; &nbsp; &nbsp; &nbsp;<font class='negOutcome'>You receive: <strong>0</strong></font></div>","null","2","Odds are Orange","Fruit/orange.png","Lost","0.65,0.35","14","0.65","31","6","",""
"html-keyboard-response","28","89316","0.0-11.0-1.6","55d86f3569dbc30012b6869f","bdp_rwlrn","Mon Mar 13 2023 15:03:17 GMT-0400 (Eastern Daylight Time)","402148","Untrustworthy,Trustworthy","","1674","","","","decision","","<div class='trialDiv'><img src='Fruit/mango.png'><br><font class='baseline'><strong>Mega Mangos</strong><p>Choose number of points to bet.</font><div class='respPicDiv'><img src='img/responseButtonOffersNo0L.png' class='respPic'></div></div>","3","3","Mega Mangos","Fruit/mango.png","Lost","0.2,0.65","10","0.2","36","7","",""
"html-keyboard-response","29","89569","0.0-11.0-2.6","55d86f3569dbc30012b6869f","bdp_rwlrn","Mon Mar 13 2023 15:03:17 GMT-0400 (Eastern Daylight Time)","402148","Untrustworthy,Trustworthy","","null","","","","decisionFB","","<div class='trialDiv'><img src='Fruit/mango.png'><br><font class='baseline'><strong>Mega Mangos</strong><p>Choose number of points to bet.</font><div class='respPicDiv'><img src='img/responseButtonOffersNo0L3.png' class='respPic'></div></div>","null","3","Mega Mangos","Fruit/mango.png","Lost","0.2,0.65","10","0.2","33","7","",""
"html-keyboard-response","30","90573","0.0-11.0-3.6","55d86f3569dbc30012b6869f","bdp_rwlrn","Mon Mar 13 2023 15:03:17 GMT-0400 (Eastern Daylight Time)","402148","Untrustworthy,Trustworthy","","null","","","","feedback","","<div class='respPicDiv'><img src='img/responseButtonOffersNo0_wht.png' class='respPic'></div><div class='trialDiv'><img src='Fruit/mango.png'><br><font class='baseline'><strong>Mega Mangos</strong><p><strong><font class='negOutcome'>You LOST</font><p>You bet: 3</strong></font> &nbsp; &nbsp; &nbsp; &nbsp; &nbsp; &nbsp;<font class='negOutcome'>You receive: <strong>0</strong></font></div>","null","3","Mega Mangos","Fruit/mango.png","Lost","0.2,0.65","10","0.2","33","7","",""
"html-keyboard-response","31","91082","0.0-11.0-1.7","55d86f3569dbc30012b6869f","bdp_rwlrn","Mon Mar 13 2023 15:03:17 GMT-0400 (Eastern Daylight Time)","402148","Untrustworthy,Trustworthy","","505","","","","decision","","<div class='trialDiv'><img src='Fruit/orange.png'><br><font class='baseline'><strong>Odds are Orange</strong><p>Choose number of points to bet.</font><div class='respPicDiv'><img src='img/responseButtonOffersNo0L.png' class='respPic'></div></div>","3","3","Odds are Orange","Fruit/orange.png","Won","0.65,0.35","14","0.65","38","8","",""
"html-keyboard-response","32","91335","0.0-11.0-2.7","55d86f3569dbc30012b6869f","bdp_rwlrn","Mon Mar 13 2023 15:03:17 GMT-0400 (Eastern Daylight Time)","402148","Untrustworthy,Trustworthy","","null","","","","decisionFB","","<div class='trialDiv'><img src='Fruit/orange.png'><br><font class='baseline'><strong>Odds are Orange</strong><p>Choose number of points to bet.</font><div class='respPicDiv'><img src='img/responseButtonOffersNo0L3.png' class='respPic'></div></div>","null","3","Odds are Orange","Fruit/orange.png","Won","0.65,0.35","14","0.65","35","8","",""
"html-keyboard-response","33","92339","0.0-11.0-3.7","55d86f3569dbc30012b6869f","bdp_rwlrn","Mon Mar 13 2023 15:03:17 GMT-0400 (Eastern Daylight Time)","402148","Untrustworthy,Trustworthy","","null","","","","feedback","","<div class='respPicDiv'><img src='img/responseButtonOffersNo0_wht.png' class='respPic'></div><div class='trialDiv'><img src='Fruit/orange.png'><br><font class='baseline'><strong>Odds are Orange</strong><p><strong><font class='posOutcome'>You WON</font><p>You bet: 3</strong></font> &nbsp; &nbsp; &nbsp; &nbsp; &nbsp; &nbsp;<font class='posOutcome'>you receive: <strong>6</strong></font></div>","null","3","Odds are Orange","Fruit/orange.png","Won","0.65,0.35","14","0.65","41","8","",""
"html-keyboard-response","34","92709","0.0-11.0-1.8","55d86f3569dbc30012b6869f","bdp_rwlrn","Mon Mar 13 2023 15:03:17 GMT-0400 (Eastern Daylight Time)","402148","Untrustworthy,Trustworthy","","367","","","","decision","","<div class='trialDiv'><img src='Fruit/watermelon.png'><br><font class='baseline'><strong>Watermelon Win$</strong><p>Choose number of points to bet.</font><div class='respPicDiv'><img src='img/responseButtonOffersNo0L.png' class='respPic'></div></div>","3","3","Watermelon Win$","Fruit/watermelon.png","Won","0.8,0.35","13","0.8","46","9","",""
"html-keyboard-response","35","92962","0.0-11.0-2.8","55d86f3569dbc30012b6869f","bdp_rwlrn","Mon Mar 13 2023 15:03:17 GMT-0400 (Eastern Daylight Time)","402148","Untrustworthy,Trustworthy","","null","","","","decisionFB","","<div class='trialDiv'><img src='Fruit/watermelon.png'><br><font class='baseline'><strong>Watermelon Win$</strong><p>Choose number of points to bet.</font><div class='respPicDiv'><img src='img/responseButtonOffersNo0L3.png' class='respPic'></div></div>","null","3","Watermelon Win$","Fruit/watermelon.png","Won","0.8,0.35","13","0.8","43","9","",""
"html-keyboard-response","36","93965","0.0-11.0-3.8","55d86f3569dbc30012b6869f","bdp_rwlrn","Mon Mar 13 2023 15:03:17 GMT-0400 (Eastern Daylight Time)","402148","Untrustworthy,Trustworthy","","null","","","","feedback","","<div class='respPicDiv'><img src='img/responseButtonOffersNo0_wht.png' class='respPic'></div><div class='trialDiv'><img src='Fruit/watermelon.png'><br><font class='baseline'><strong>Watermelon Win$</strong><p><strong><font class='posOutcome'>You WON</font><p>You bet: 3</strong></font> &nbsp; &nbsp; &nbsp; &nbsp; &nbsp; &nbsp;<font class='posOutcome'>you receive: <strong>6</strong></font></div>","null","3","Watermelon Win$","Fruit/watermelon.png","Won","0.8,0.35","13","0.8","49","9","",""
"html-keyboard-response","37","95326","0.0-11.0-1.9","55d86f3569dbc30012b6869f","bdp_rwlrn","Mon Mar 13 2023 15:03:17 GMT-0400 (Eastern Daylight Time)","402148","Untrustworthy,Trustworthy","","1357","","","","decision","","<div class='trialDiv'><img src='Fruit/mango.png'><br><font class='baseline'><strong>Mega Mangos</strong><p>Choose number of points to bet.</font><div class='respPicDiv'><img src='img/responseButtonOffersNo0L.png' class='respPic'></div></div>","1","4","Mega Mangos","Fruit/mango.png","Won","0.2,0.65","10","0.2","54","10","",""
"html-keyboard-response","38","95579","0.0-11.0-2.9","55d86f3569dbc30012b6869f","bdp_rwlrn","Mon Mar 13 2023 15:03:17 GMT-0400 (Eastern Daylight Time)","402148","Untrustworthy,Trustworthy","","null","","","","decisionFB","","<div class='trialDiv'><img src='Fruit/mango.png'><br><font class='baseline'><strong>Mega Mangos</strong><p>Choose number of points to bet.</font><div class='respPicDiv'><img src='img/responseButtonOffersNo0L1.png' class='respPic'></div></div>","null","4","Mega Mangos","Fruit/mango.png","Won","0.2,0.65","10","0.2","53","10","",""
"html-keyboard-response","39","96582","0.0-11.0-3.9","55d86f3569dbc30012b6869f","bdp_rwlrn","Mon Mar 13 2023 15:03:17 GMT-0400 (Eastern Daylight Time)","402148","Untrustworthy,Trustworthy","","null","","","","feedback","","<div class='respPicDiv'><img src='img/responseButtonOffersNo0_wht.png' class='respPic'></div><div class='trialDiv'><img src='Fruit/mango.png'><br><font class='baseline'><strong>Mega Mangos</strong><p><strong><font class='posOutcome'>You WON</font><p>You bet: 1</strong></font> &nbsp; &nbsp; &nbsp; &nbsp; &nbsp; &nbsp;<font class='posOutcome'>you receive: <strong>2</strong></font></div>","null","4","Mega Mangos","Fruit/mango.png","Won","0.2,0.65","10","0.2","55","10","",""
"html-keyboard-response","40","97236","0.0-11.0-1.10","55d86f3569dbc30012b6869f","bdp_rwlrn","Mon Mar 13 2023 15:03:17 GMT-0400 (Eastern Daylight Time)","402148","Untrustworthy,Trustworthy","","651","","","","decision","","<div class='trialDiv'><img src='Fruit/orange.png'><br><font class='baseline'><strong>Odds are Orange</strong><p>Choose number of points to bet.</font><div class='respPicDiv'><img src='img/responseButtonOffersNo0L.png' class='respPic'></div></div>","4","4","Odds are Orange","Fruit/orange.png","Lost","0.65,0.35","14","0.65","60","11","",""
"html-keyboard-response","41","97490","0.0-11.0-2.10","55d86f3569dbc30012b6869f","bdp_rwlrn","Mon Mar 13 2023 15:03:17 GMT-0400 (Eastern Daylight Time)","402148","Untrustworthy,Trustworthy","","null","","","","decisionFB","","<div class='trialDiv'><img src='Fruit/orange.png'><br><font class='baseline'><strong>Odds are Orange</strong><p>Choose number of points to bet.</font><div class='respPicDiv'><img src='img/responseButtonOffersNo0L4.png' class='respPic'></div></div>","null","4","Odds are Orange","Fruit/orange.png","Lost","0.65,0.35","14","0.65","56","11","",""
"html-keyboard-response","42","98493","0.0-11.0-3.10","55d86f3569dbc30012b6869f","bdp_rwlrn","Mon Mar 13 2023 15:03:17 GMT-0400 (Eastern Daylight Time)","402148","Untrustworthy,Trustworthy","","null","","","","feedback","","<div class='respPicDiv'><img src='img/responseButtonOffersNo0_wht.png' class='respPic'></div><div class='trialDiv'><img src='Fruit/orange.png'><br><font class='baseline'><strong>Odds are Orange</strong><p><strong><font class='negOutcome'>You LOST</font><p>You bet: 4</strong></font> &nbsp; &nbsp; &nbsp; &nbsp; &nbsp; &nbsp;<font class='negOutcome'>You receive: <strong>0</strong></font></div>","null","4","Odds are Orange","Fruit/orange.png","Lost","0.65,0.35","14","0.65","56","11","",""
"html-keyboard-response","43","99149","0.0-11.0-1.11","55d86f3569dbc30012b6869f","bdp_rwlrn","Mon Mar 13 2023 15:03:17 GMT-0400 (Eastern Daylight Time)","402148","Untrustworthy,Trustworthy","","653","","","","decision","","<div class='trialDiv'><img src='Fruit/watermelon.png'><br><font class='baseline'><strong>Watermelon Win$</strong><p>Choose number of points to bet.</font><div class='respPicDiv'><img src='img/responseButtonOffersNo0L.png' class='respPic'></div></div>","4","4","Watermelon Win$","Fruit/watermelon.png","Won","0.8,0.35","13","0.8","61","12","",""
"html-keyboard-response","44","99401","0.0-11.0-2.11","55d86f3569dbc30012b6869f","bdp_rwlrn","Mon Mar 13 2023 15:03:17 GMT-0400 (Eastern Daylight Time)","402148","Untrustworthy,Trustworthy","","null","","","","decisionFB","","<div class='trialDiv'><img src='Fruit/watermelon.png'><br><font class='baseline'><strong>Watermelon Win$</strong><p>Choose number of points to bet.</font><div class='respPicDiv'><img src='img/responseButtonOffersNo0L4.png' class='respPic'></div></div>","null","4","Watermelon Win$","Fruit/watermelon.png","Won","0.8,0.35","13","0.8","57","12","",""
"html-keyboard-response","45","100405","0.0-11.0-3.11","55d86f3569dbc30012b6869f","bdp_rwlrn","Mon Mar 13 2023 15:03:17 GMT-0400 (Eastern Daylight Time)","402148","Untrustworthy,Trustworthy","","null","","","","feedback","","<div class='respPicDiv'><img src='img/responseButtonOffersNo0_wht.png' class='respPic'></div><div class='trialDiv'><img src='Fruit/watermelon.png'><br><font class='baseline'><strong>Watermelon Win$</strong><p><strong><font class='posOutcome'>You WON</font><p>You bet: 4</strong></font> &nbsp; &nbsp; &nbsp; &nbsp; &nbsp; &nbsp;<font class='posOutcome'>you receive: <strong>8</strong></font></div>","null","4","Watermelon Win$","Fruit/watermelon.png","Won","0.8,0.35","13","0.8","65","12","",""
"html-keyboard-response","46","101248","0.0-11.0-1.12","55d86f3569dbc30012b6869f","bdp_rwlrn","Mon Mar 13 2023 15:03:17 GMT-0400 (Eastern Daylight Time)","402148","Untrustworthy,Trustworthy","","840","","","","decision","","<div class='trialDiv'><img src='Fruit/mango.png'><br><font class='baseline'><strong>Mega Mangos</strong><p>Choose number of points to bet.</font><div class='respPicDiv'><img src='img/responseButtonOffersNo0L.png' class='respPic'></div></div>","4","5","Mega Mangos","Fruit/mango.png","Lost","0.2,0.65","10","0.2","70","13","",""
"html-keyboard-response","47","101501","0.0-11.0-2.12","55d86f3569dbc30012b6869f","bdp_rwlrn","Mon Mar 13 2023 15:03:17 GMT-0400 (Eastern Daylight Time)","402148","Untrustworthy,Trustworthy","","null","","","","decisionFB","","<div class='trialDiv'><img src='Fruit/mango.png'><br><font class='baseline'><strong>Mega Mangos</strong><p>Choose number of points to bet.</font><div class='respPicDiv'><img src='img/responseButtonOffersNo0L4.png' class='respPic'></div></div>","null","5","Mega Mangos","Fruit/mango.png","Lost","0.2,0.65","10","0.2","66","13","",""
"html-keyboard-response","48","102504","0.0-11.0-3.12","55d86f3569dbc30012b6869f","bdp_rwlrn","Mon Mar 13 2023 15:03:17 GMT-0400 (Eastern Daylight Time)","402148","Untrustworthy,Trustworthy","","null","","","","feedback","","<div class='respPicDiv'><img src='img/responseButtonOffersNo0_wht.png' class='respPic'></div><div class='trialDiv'><img src='Fruit/mango.png'><br><font class='baseline'><strong>Mega Mangos</strong><p><strong><font class='negOutcome'>You LOST</font><p>You bet: 4</strong></font> &nbsp; &nbsp; &nbsp; &nbsp; &nbsp; &nbsp;<font class='negOutcome'>You receive: <strong>0</strong></font></div>","null","5","Mega Mangos","Fruit/mango.png","Lost","0.2,0.65","10","0.2","66","13","",""
"html-keyboard-response","49","103826","0.0-11.0-1.13","55d86f3569dbc30012b6869f","bdp_rwlrn","Mon Mar 13 2023 15:03:17 GMT-0400 (Eastern Daylight Time)","402148","Untrustworthy,Trustworthy","","1319","","","","decision","","<div class='trialDiv'><img src='Fruit/orange.png'><br><font class='baseline'><strong>Odds are Orange</strong><p>Choose number of points to bet.</font><div class='respPicDiv'><img src='img/responseButtonOffersNo0L.png' class='respPic'></div></div>","5","5","Odds are Orange","Fruit/orange.png","Won","0.65,0.35","14","0.65","71","14","",""
"html-keyboard-response","50","104078","0.0-11.0-2.13","55d86f3569dbc30012b6869f","bdp_rwlrn","Mon Mar 13 2023 15:03:17 GMT-0400 (Eastern Daylight Time)","402148","Untrustworthy,Trustworthy","","null","","","","decisionFB","","<div class='trialDiv'><img src='Fruit/orange.png'><br><font class='baseline'><strong>Odds are Orange</strong><p>Choose number of points to bet.</font><div class='respPicDiv'><img src='img/responseButtonOffersNo0L5.png' class='respPic'></div></div>","null","5","Odds are Orange","Fruit/orange.png","Won","0.65,0.35","14","0.65","66","14","",""
"html-keyboard-response","51","105082","0.0-11.0-3.13","55d86f3569dbc30012b6869f","bdp_rwlrn","Mon Mar 13 2023 15:03:17 GMT-0400 (Eastern Daylight Time)","402148","Untrustworthy,Trustworthy","","null","","","","feedback","","<div class='respPicDiv'><img src='img/responseButtonOffersNo0_wht.png' class='respPic'></div><div class='trialDiv'><img src='Fruit/orange.png'><br><font class='baseline'><strong>Odds are Orange</strong><p><strong><font class='posOutcome'>You WON</font><p>You bet: 5</strong></font> &nbsp; &nbsp; &nbsp; &nbsp; &nbsp; &nbsp;<font class='posOutcome'>you receive: <strong>10</strong></font></div>","null","5","Odds are Orange","Fruit/orange.png","Won","0.65,0.35","14","0.65","76","14","",""
"html-keyboard-response","52","106348","0.0-11.0-1.14","55d86f3569dbc30012b6869f","bdp_rwlrn","Mon Mar 13 2023 15:03:17 GMT-0400 (Eastern Daylight Time)","402148","Untrustworthy,Trustworthy","","1263","","","","decision","","<div class='trialDiv'><img src='Fruit/watermelon.png'><br><font class='baseline'><strong>Watermelon Win$</strong><p>Choose number of points to bet.</font><div class='respPicDiv'><img src='img/responseButtonOffersNo0L.png' class='respPic'></div></div>","3","5","Watermelon Win$","Fruit/watermelon.png","Won","0.8,0.35","13","0.8","81","15","",""
"html-keyboard-response","53","106600","0.0-11.0-2.14","55d86f3569dbc30012b6869f","bdp_rwlrn","Mon Mar 13 2023 15:03:17 GMT-0400 (Eastern Daylight Time)","402148","Untrustworthy,Trustworthy","","null","","","","decisionFB","","<div class='trialDiv'><img src='Fruit/watermelon.png'><br><font class='baseline'><strong>Watermelon Win$</strong><p>Choose number of points to bet.</font><div class='respPicDiv'><img src='img/responseButtonOffersNo0L3.png' class='respPic'></div></div>","null","5","Watermelon Win$","Fruit/watermelon.png","Won","0.8,0.35","13","0.8","78","15","",""
"html-keyboard-response","54","107603","0.0-11.0-3.14","55d86f3569dbc30012b6869f","bdp_rwlrn","Mon Mar 13 2023 15:03:17 GMT-0400 (Eastern Daylight Time)","402148","Untrustworthy,Trustworthy","","null","","","","feedback","","<div class='respPicDiv'><img src='img/responseButtonOffersNo0_wht.png' class='respPic'></div><div class='trialDiv'><img src='Fruit/watermelon.png'><br><font class='baseline'><strong>Watermelon Win$</strong><p><strong><font class='posOutcome'>You WON</font><p>You bet: 3</strong></font> &nbsp; &nbsp; &nbsp; &nbsp; &nbsp; &nbsp;<font class='posOutcome'>you receive: <strong>6</strong></font></div>","null","5","Watermelon Win$","Fruit/watermelon.png","Won","0.8,0.35","13","0.8","84","15","",""
"html-keyboard-response","55","108398","0.0-11.0-1.15","55d86f3569dbc30012b6869f","bdp_rwlrn","Mon Mar 13 2023 15:03:17 GMT-0400 (Eastern Daylight Time)","402148","Untrustworthy,Trustworthy","","791","","","","decision","","<div class='trialDiv'><img src='Fruit/orange.png'><br><font class='baseline'><strong>Odds are Orange</strong><p>Choose number of points to bet.</font><div class='respPicDiv'><img src='img/responseButtonOffersNo0L.png' class='respPic'></div></div>","2","6","Odds are Orange","Fruit/orange.png","Won","0.65,0.35","14","0.65","89","16","",""
"html-keyboard-response","56","108651","0.0-11.0-2.15","55d86f3569dbc30012b6869f","bdp_rwlrn","Mon Mar 13 2023 15:03:17 GMT-0400 (Eastern Daylight Time)","402148","Untrustworthy,Trustworthy","","null","","","","decisionFB","","<div class='trialDiv'><img src='Fruit/orange.png'><br><font class='baseline'><strong>Odds are Orange</strong><p>Choose number of points to bet.</font><div class='respPicDiv'><img src='img/responseButtonOffersNo0L2.png' class='respPic'></div></div>","null","6","Odds are Orange","Fruit/orange.png","Won","0.65,0.35","14","0.65","87","16","",""
"html-keyboard-response","57","109655","0.0-11.0-3.15","55d86f3569dbc30012b6869f","bdp_rwlrn","Mon Mar 13 2023 15:03:17 GMT-0400 (Eastern Daylight Time)","402148","Untrustworthy,Trustworthy","","null","","","","feedback","","<div class='respPicDiv'><img src='img/responseButtonOffersNo0_wht.png' class='respPic'></div><div class='trialDiv'><img src='Fruit/orange.png'><br><font class='baseline'><strong>Odds are Orange</strong><p><strong><font class='posOutcome'>You WON</font><p>You bet: 2</strong></font> &nbsp; &nbsp; &nbsp; &nbsp; &nbsp; &nbsp;<font class='posOutcome'>you receive: <strong>4</strong></font></div>","null","6","Odds are Orange","Fruit/orange.png","Won","0.65,0.35","14","0.65","91","16","",""
"html-keyboard-response","58","110890","0.0-11.0-1.16","55d86f3569dbc30012b6869f","bdp_rwlrn","Mon Mar 13 2023 15:03:17 GMT-0400 (Eastern Daylight Time)","402148","Untrustworthy,Trustworthy","","1232","","","","decision","","<div class='trialDiv'><img src='Fruit/mango.png'><br><font class='baseline'><strong>Mega Mangos</strong><p>Choose number of points to bet.</font><div class='respPicDiv'><img src='img/responseButtonOffersNo0L.png' class='respPic'></div></div>","2","6","Mega Mangos","Fruit/mango.png","Won","0.2,0.65","10","0.2","96","17","",""
"html-keyboard-response","59","111142","0.0-11.0-2.16","55d86f3569dbc30012b6869f","bdp_rwlrn","Mon Mar 13 2023 15:03:17 GMT-0400 (Eastern Daylight Time)","402148","Untrustworthy,Trustworthy","","null","","","","decisionFB","","<div class='trialDiv'><img src='Fruit/mango.png'><br><font class='baseline'><strong>Mega Mangos</strong><p>Choose number of points to bet.</font><div class='respPicDiv'><img src='img/responseButtonOffersNo0L2.png' class='respPic'></div></div>","null","6","Mega Mangos","Fruit/mango.png","Won","0.2,0.65","10","0.2","94","17","",""
"html-keyboard-response","60","112146","0.0-11.0-3.16","55d86f3569dbc30012b6869f","bdp_rwlrn","Mon Mar 13 2023 15:03:17 GMT-0400 (Eastern Daylight Time)","402148","Untrustworthy,Trustworthy","","null","","","","feedback","","<div class='respPicDiv'><img src='img/responseButtonOffersNo0_wht.png' class='respPic'></div><div class='trialDiv'><img src='Fruit/mango.png'><br><font class='baseline'><strong>Mega Mangos</strong><p><strong><font class='posOutcome'>You WON</font><p>You bet: 2</strong></font> &nbsp; &nbsp; &nbsp; &nbsp; &nbsp; &nbsp;<font class='posOutcome'>you receive: <strong>4</strong></font></div>","null","6","Mega Mangos","Fruit/mango.png","Won","0.2,0.65","10","0.2","98","17","",""
"html-keyboard-response","61","113554","0.0-11.0-1.17","55d86f3569dbc30012b6869f","bdp_rwlrn","Mon Mar 13 2023 15:03:17 GMT-0400 (Eastern Daylight Time)","402148","Untrustworthy,Trustworthy","","1405","","","","decision","","<div class='trialDiv'><img src='Fruit/watermelon.png'><br><font class='baseline'><strong>Watermelon Win$</strong><p>Choose number of points to bet.</font><div class='respPicDiv'><img src='img/responseButtonOffersNo0L.png' class='respPic'></div></div>","4","6","Watermelon Win$","Fruit/watermelon.png","Won","0.8,0.35","13","0.8","103","18","",""
"html-keyboard-response","62","113808","0.0-11.0-2.17","55d86f3569dbc30012b6869f","bdp_rwlrn","Mon Mar 13 2023 15:03:17 GMT-0400 (Eastern Daylight Time)","402148","Untrustworthy,Trustworthy","","null","","","","decisionFB","","<div class='trialDiv'><img src='Fruit/watermelon.png'><br><font class='baseline'><strong>Watermelon Win$</strong><p>Choose number of points to bet.</font><div class='respPicDiv'><img src='img/responseButtonOffersNo0L4.png' class='respPic'></div></div>","null","6","Watermelon Win$","Fruit/watermelon.png","Won","0.8,0.35","13","0.8","99","18","",""
"html-keyboard-response","63","114811","0.0-11.0-3.17","55d86f3569dbc30012b6869f","bdp_rwlrn","Mon Mar 13 2023 15:03:17 GMT-0400 (Eastern Daylight Time)","402148","Untrustworthy,Trustworthy","","null","","","","feedback","","<div class='respPicDiv'><img src='img/responseButtonOffersNo0_wht.png' class='respPic'></div><div class='trialDiv'><img src='Fruit/watermelon.png'><br><font class='baseline'><strong>Watermelon Win$</strong><p><strong><font class='posOutcome'>You WON</font><p>You bet: 4</strong></font> &nbsp; &nbsp; &nbsp; &nbsp; &nbsp; &nbsp;<font class='posOutcome'>you receive: <strong>8</strong></font></div>","null","6","Watermelon Win$","Fruit/watermelon.png","Won","0.8,0.35","13","0.8","107","18","",""
"html-keyboard-response","64","116011","0.0-11.0-1.18","55d86f3569dbc30012b6869f","bdp_rwlrn","Mon Mar 13 2023 15:03:17 GMT-0400 (Eastern Daylight Time)","402148","Untrustworthy,Trustworthy","","1196","","","","decision","","<div class='trialDiv'><img src='Fruit/mango.png'><br><font class='baseline'><strong>Mega Mangos</strong><p>Choose number of points to bet.</font><div class='respPicDiv'><img src='img/responseButtonOffersNo0L.png' class='respPic'></div></div>","2","7","Mega Mangos","Fruit/mango.png","Won","0.2,0.65","10","0.2","112","19","",""
"html-keyboard-response","65","116264","0.0-11.0-2.18","55d86f3569dbc30012b6869f","bdp_rwlrn","Mon Mar 13 2023 15:03:17 GMT-0400 (Eastern Daylight Time)","402148","Untrustworthy,Trustworthy","","null","","","","decisionFB","","<div class='trialDiv'><img src='Fruit/mango.png'><br><font class='baseline'><strong>Mega Mangos</strong><p>Choose number of points to bet.</font><div class='respPicDiv'><img src='img/responseButtonOffersNo0L2.png' class='respPic'></div></div>","null","7","Mega Mangos","Fruit/mango.png","Won","0.2,0.65","10","0.2","110","19","",""
"html-keyboard-response","66","117267","0.0-11.0-3.18","55d86f3569dbc30012b6869f","bdp_rwlrn","Mon Mar 13 2023 15:03:17 GMT-0400 (Eastern Daylight Time)","402148","Untrustworthy,Trustworthy","","null","","","","feedback","","<div class='respPicDiv'><img src='img/responseButtonOffersNo0_wht.png' class='respPic'></div><div class='trialDiv'><img src='Fruit/mango.png'><br><font class='baseline'><strong>Mega Mangos</strong><p><strong><font class='posOutcome'>You WON</font><p>You bet: 2</strong></font> &nbsp; &nbsp; &nbsp; &nbsp; &nbsp; &nbsp;<font class='posOutcome'>you receive: <strong>4</strong></font></div>","null","7","Mega Mangos","Fruit/mango.png","Won","0.2,0.65","10","0.2","114","19","",""
"html-keyboard-response","67","119916","0.0-11.0-1.19","55d86f3569dbc30012b6869f","bdp_rwlrn","Mon Mar 13 2023 15:03:17 GMT-0400 (Eastern Daylight Time)","402148","Untrustworthy,Trustworthy","","2647","","","","decision","","<div class='trialDiv'><img src='Fruit/watermelon.png'><br><font class='baseline'><strong>Watermelon Win$</strong><p>Choose number of points to bet.</font><div class='respPicDiv'><img src='img/responseButtonOffersNo0L.png' class='respPic'></div></div>","3","7","Watermelon Win$","Fruit/watermelon.png","Won","0.8,0.35","13","0.8","119","20","",""
"html-keyboard-response","68","120169","0.0-11.0-2.19","55d86f3569dbc30012b6869f","bdp_rwlrn","Mon Mar 13 2023 15:03:17 GMT-0400 (Eastern Daylight Time)","402148","Untrustworthy,Trustworthy","","null","","","","decisionFB","","<div class='trialDiv'><img src='Fruit/watermelon.png'><br><font class='baseline'><strong>Watermelon Win$</strong><p>Choose number of points to bet.</font><div class='respPicDiv'><img src='img/responseButtonOffersNo0L3.png' class='respPic'></div></div>","null","7","Watermelon Win$","Fruit/watermelon.png","Won","0.8,0.35","13","0.8","116","20","",""
"html-keyboard-response","69","121172","0.0-11.0-3.19","55d86f3569dbc30012b6869f","bdp_rwlrn","Mon Mar 13 2023 15:03:17 GMT-0400 (Eastern Daylight Time)","402148","Untrustworthy,Trustworthy","","null","","","","feedback","","<div class='respPicDiv'><img src='img/responseButtonOffersNo0_wht.png' class='respPic'></div><div class='trialDiv'><img src='Fruit/watermelon.png'><br><font class='baseline'><strong>Watermelon Win$</strong><p><strong><font class='posOutcome'>You WON</font><p>You bet: 3</strong></font> &nbsp; &nbsp; &nbsp; &nbsp; &nbsp; &nbsp;<font class='posOutcome'>you receive: <strong>6</strong></font></div>","null","7","Watermelon Win$","Fruit/watermelon.png","Won","0.8,0.35","13","0.8","122","20","",""
"html-keyboard-response","70","122153","0.0-11.0-1.20","55d86f3569dbc30012b6869f","bdp_rwlrn","Mon Mar 13 2023 15:03:17 GMT-0400 (Eastern Daylight Time)","402148","Untrustworthy,Trustworthy","","978","","","","decision","","<div class='trialDiv'><img src='Fruit/orange.png'><br><font class='baseline'><strong>Odds are Orange</strong><p>Choose number of points to bet.</font><div class='respPicDiv'><img src='img/responseButtonOffersNo0L.png' class='respPic'></div></div>","5","7","Odds are Orange","Fruit/orange.png","Won","0.65,0.35","14","0.65","127","21","",""
"html-keyboard-response","71","122407","0.0-11.0-2.20","55d86f3569dbc30012b6869f","bdp_rwlrn","Mon Mar 13 2023 15:03:17 GMT-0400 (Eastern Daylight Time)","402148","Untrustworthy,Trustworthy","","null","","","","decisionFB","","<div class='trialDiv'><img src='Fruit/orange.png'><br><font class='baseline'><strong>Odds are Orange</strong><p>Choose number of points to bet.</font><div class='respPicDiv'><img src='img/responseButtonOffersNo0L5.png' class='respPic'></div></div>","null","7","Odds are Orange","Fruit/orange.png","Won","0.65,0.35","14","0.65","122","21","",""
"html-keyboard-response","72","123410","0.0-11.0-3.20","55d86f3569dbc30012b6869f","bdp_rwlrn","Mon Mar 13 2023 15:03:17 GMT-0400 (Eastern Daylight Time)","402148","Untrustworthy,Trustworthy","","null","","","","feedback","","<div class='respPicDiv'><img src='img/responseButtonOffersNo0_wht.png' class='respPic'></div><div class='trialDiv'><img src='Fruit/orange.png'><br><font class='baseline'><strong>Odds are Orange</strong><p><strong><font class='posOutcome'>You WON</font><p>You bet: 5</strong></font> &nbsp; &nbsp; &nbsp; &nbsp; &nbsp; &nbsp;<font class='posOutcome'>you receive: <strong>10</strong></font></div>","null","7","Odds are Orange","Fruit/orange.png","Won","0.65,0.35","14","0.65","132","21","",""
"html-keyboard-response","73","124894","0.0-11.0-1.21","55d86f3569dbc30012b6869f","bdp_rwlrn","Mon Mar 13 2023 15:03:17 GMT-0400 (Eastern Daylight Time)","402148","Untrustworthy,Trustworthy","","1481","","","","decision","","<div class='trialDiv'><img src='Fruit/watermelon.png'><br><font class='baseline'><strong>Watermelon Win$</strong><p>Choose number of points to bet.</font><div class='respPicDiv'><img src='img/responseButtonOffersNo0L.png' class='respPic'></div></div>","2","8","Watermelon Win$","Fruit/watermelon.png","Lost","0.8,0.35","13","0.8","137","22","",""
"html-keyboard-response","74","125147","0.0-11.0-2.21","55d86f3569dbc30012b6869f","bdp_rwlrn","Mon Mar 13 2023 15:03:17 GMT-0400 (Eastern Daylight Time)","402148","Untrustworthy,Trustworthy","","null","","","","decisionFB","","<div class='trialDiv'><img src='Fruit/watermelon.png'><br><font class='baseline'><strong>Watermelon Win$</strong><p>Choose number of points to bet.</font><div class='respPicDiv'><img src='img/responseButtonOffersNo0L2.png' class='respPic'></div></div>","null","8","Watermelon Win$","Fruit/watermelon.png","Lost","0.8,0.35","13","0.8","135","22","",""
"html-keyboard-response","75","126151","0.0-11.0-3.21","55d86f3569dbc30012b6869f","bdp_rwlrn","Mon Mar 13 2023 15:03:17 GMT-0400 (Eastern Daylight Time)","402148","Untrustworthy,Trustworthy","","null","","","","feedback","","<div class='respPicDiv'><img src='img/responseButtonOffersNo0_wht.png' class='respPic'></div><div class='trialDiv'><img src='Fruit/watermelon.png'><br><font class='baseline'><strong>Watermelon Win$</strong><p><strong><font class='negOutcome'>You LOST</font><p>You bet: 2</strong></font> &nbsp; &nbsp; &nbsp; &nbsp; &nbsp; &nbsp;<font class='negOutcome'>You receive: <strong>0</strong></font></div>","null","8","Watermelon Win$","Fruit/watermelon.png","Lost","0.8,0.35","13","0.8","135","22","",""
"html-keyboard-response","76","128015","0.0-11.0-1.22","55d86f3569dbc30012b6869f","bdp_rwlrn","Mon Mar 13 2023 15:03:17 GMT-0400 (Eastern Daylight Time)","402148","Untrustworthy,Trustworthy","","1861","","","","decision","","<div class='trialDiv'><img src='Fruit/orange.png'><br><font class='baseline'><strong>Odds are Orange</strong><p>Choose number of points to bet.</font><div class='respPicDiv'><img src='img/responseButtonOffersNo0L.png' class='respPic'></div></div>","4","8","Odds are Orange","Fruit/orange.png","Won","0.65,0.35","14","0.65","140","23","",""
"html-keyboard-response","77","128268","0.0-11.0-2.22","55d86f3569dbc30012b6869f","bdp_rwlrn","Mon Mar 13 2023 15:03:17 GMT-0400 (Eastern Daylight Time)","402148","Untrustworthy,Trustworthy","","null","","","","decisionFB","","<div class='trialDiv'><img src='Fruit/orange.png'><br><font class='baseline'><strong>Odds are Orange</strong><p>Choose number of points to bet.</font><div class='respPicDiv'><img src='img/responseButtonOffersNo0L4.png' class='respPic'></div></div>","null","8","Odds are Orange","Fruit/orange.png","Won","0.65,0.35","14","0.65","136","23","",""
"html-keyboard-response","78","129271","0.0-11.0-3.22","55d86f3569dbc30012b6869f","bdp_rwlrn","Mon Mar 13 2023 15:03:17 GMT-0400 (Eastern Daylight Time)","402148","Untrustworthy,Trustworthy","","null","","","","feedback","","<div class='respPicDiv'><img src='img/responseButtonOffersNo0_wht.png' class='respPic'></div><div class='trialDiv'><img src='Fruit/orange.png'><br><font class='baseline'><strong>Odds are Orange</strong><p><strong><font class='posOutcome'>You WON</font><p>You bet: 4</strong></font> &nbsp; &nbsp; &nbsp; &nbsp; &nbsp; &nbsp;<font class='posOutcome'>you receive: <strong>8</strong></font></div>","null","8","Odds are Orange","Fruit/orange.png","Won","0.65,0.35","14","0.65","144","23","",""
"html-keyboard-response","79","130291","0.0-11.0-1.23","55d86f3569dbc30012b6869f","bdp_rwlrn","Mon Mar 13 2023 15:03:17 GMT-0400 (Eastern Daylight Time)","402148","Untrustworthy,Trustworthy","","1018","","","","decision","","<div class='trialDiv'><img src='Fruit/mango.png'><br><font class='baseline'><strong>Mega Mangos</strong><p>Choose number of points to bet.</font><div class='respPicDiv'><img src='img/responseButtonOffersNo0L.png' class='respPic'></div></div>","2","8","Mega Mangos","Fruit/mango.png","Lost","0.2,0.65","10","0.2","149","24","",""
"html-keyboard-response","80","130544","0.0-11.0-2.23","55d86f3569dbc30012b6869f","bdp_rwlrn","Mon Mar 13 2023 15:03:17 GMT-0400 (Eastern Daylight Time)","402148","Untrustworthy,Trustworthy","","null","","","","decisionFB","","<div class='trialDiv'><img src='Fruit/mango.png'><br><font class='baseline'><strong>Mega Mangos</strong><p>Choose number of points to bet.</font><div class='respPicDiv'><img src='img/responseButtonOffersNo0L2.png' class='respPic'></div></div>","null","8","Mega Mangos","Fruit/mango.png","Lost","0.2,0.65","10","0.2","147","24","",""
"html-keyboard-response","81","131547","0.0-11.0-3.23","55d86f3569dbc30012b6869f","bdp_rwlrn","Mon Mar 13 2023 15:03:17 GMT-0400 (Eastern Daylight Time)","402148","Untrustworthy,Trustworthy","","null","","","","feedback","","<div class='respPicDiv'><img src='img/responseButtonOffersNo0_wht.png' class='respPic'></div><div class='trialDiv'><img src='Fruit/mango.png'><br><font class='baseline'><strong>Mega Mangos</strong><p><strong><font class='negOutcome'>You LOST</font><p>You bet: 2</strong></font> &nbsp; &nbsp; &nbsp; &nbsp; &nbsp; &nbsp;<font class='negOutcome'>You receive: <strong>0</strong></font></div>","null","8","Mega Mangos","Fruit/mango.png","Lost","0.2,0.65","10","0.2","147","24","",""
"html-keyboard-response","82","133255","0.0-11.0-1.24","55d86f3569dbc30012b6869f","bdp_rwlrn","Mon Mar 13 2023 15:03:17 GMT-0400 (Eastern Daylight Time)","402148","Untrustworthy,Trustworthy","","1705","","","","decision","","<div class='trialDiv'><img src='Fruit/orange.png'><br><font class='baseline'><strong>Odds are Orange</strong><p>Choose number of points to bet.</font><div class='respPicDiv'><img src='img/responseButtonOffersNo0L.png' class='respPic'></div></div>","5","9","Odds are Orange","Fruit/orange.png","Won","0.65,0.35","14","0.65","152","25","",""
"html-keyboard-response","83","133508","0.0-11.0-2.24","55d86f3569dbc30012b6869f","bdp_rwlrn","Mon Mar 13 2023 15:03:17 GMT-0400 (Eastern Daylight Time)","402148","Untrustworthy,Trustworthy","","null","","","","decisionFB","","<div class='trialDiv'><img src='Fruit/orange.png'><br><font class='baseline'><strong>Odds are Orange</strong><p>Choose number of points to bet.</font><div class='respPicDiv'><img src='img/responseButtonOffersNo0L5.png' class='respPic'></div></div>","null","9","Odds are Orange","Fruit/orange.png","Won","0.65,0.35","14","0.65","147","25","",""
"html-keyboard-response","84","134512","0.0-11.0-3.24","55d86f3569dbc30012b6869f","bdp_rwlrn","Mon Mar 13 2023 15:03:17 GMT-0400 (Eastern Daylight Time)","402148","Untrustworthy,Trustworthy","","null","","","","feedback","","<div class='respPicDiv'><img src='img/responseButtonOffersNo0_wht.png' class='respPic'></div><div class='trialDiv'><img src='Fruit/orange.png'><br><font class='baseline'><strong>Odds are Orange</strong><p><strong><font class='posOutcome'>You WON</font><p>You bet: 5</strong></font> &nbsp; &nbsp; &nbsp; &nbsp; &nbsp; &nbsp;<font class='posOutcome'>you receive: <strong>10</strong></font></div>","null","9","Odds are Orange","Fruit/orange.png","Won","0.65,0.35","14","0.65","157","25","",""
"html-keyboard-response","85","135836","0.0-11.0-1.25","55d86f3569dbc30012b6869f","bdp_rwlrn","Mon Mar 13 2023 15:03:17 GMT-0400 (Eastern Daylight Time)","402148","Untrustworthy,Trustworthy","","1321","","","","decision","","<div class='trialDiv'><img src='Fruit/mango.png'><br><font class='baseline'><strong>Mega Mangos</strong><p>Choose number of points to bet.</font><div class='respPicDiv'><img src='img/responseButtonOffersNo0L.png' class='respPic'></div></div>","4","9","Mega Mangos","Fruit/mango.png","Lost","0.2,0.65","10","0.2","162","26","",""
"html-keyboard-response","86","136088","0.0-11.0-2.25","55d86f3569dbc30012b6869f","bdp_rwlrn","Mon Mar 13 2023 15:03:17 GMT-0400 (Eastern Daylight Time)","402148","Untrustworthy,Trustworthy","","null","","","","decisionFB","","<div class='trialDiv'><img src='Fruit/mango.png'><br><font class='baseline'><strong>Mega Mangos</strong><p>Choose number of points to bet.</font><div class='respPicDiv'><img src='img/responseButtonOffersNo0L4.png' class='respPic'></div></div>","null","9","Mega Mangos","Fruit/mango.png","Lost","0.2,0.65","10","0.2","158","26","",""
"html-keyboard-response","87","137092","0.0-11.0-3.25","55d86f3569dbc30012b6869f","bdp_rwlrn","Mon Mar 13 2023 15:03:17 GMT-0400 (Eastern Daylight Time)","402148","Untrustworthy,Trustworthy","","null","","","","feedback","","<div class='respPicDiv'><img src='img/responseButtonOffersNo0_wht.png' class='respPic'></div><div class='trialDiv'><img src='Fruit/mango.png'><br><font class='baseline'><strong>Mega Mangos</strong><p><strong><font class='negOutcome'>You LOST</font><p>You bet: 4</strong></font> &nbsp; &nbsp; &nbsp; &nbsp; &nbsp; &nbsp;<font class='negOutcome'>You receive: <strong>0</strong></font></div>","null","9","Mega Mangos","Fruit/mango.png","Lost","0.2,0.65","10","0.2","158","26","",""
"html-keyboard-response","88","137903","0.0-11.0-1.26","55d86f3569dbc30012b6869f","bdp_rwlrn","Mon Mar 13 2023 15:03:17 GMT-0400 (Eastern Daylight Time)","402148","Untrustworthy,Trustworthy","","808","","","","decision","","<div class='trialDiv'><img src='Fruit/watermelon.png'><br><font class='baseline'><strong>Watermelon Win$</strong><p>Choose number of points to bet.</font><div class='respPicDiv'><img src='img/responseButtonOffersNo0L.png' class='respPic'></div></div>","5","9","Watermelon Win$","Fruit/watermelon.png","Won","0.8,0.35","13","0.8","163","27","",""
"html-keyboard-response","89","138155","0.0-11.0-2.26","55d86f3569dbc30012b6869f","bdp_rwlrn","Mon Mar 13 2023 15:03:17 GMT-0400 (Eastern Daylight Time)","402148","Untrustworthy,Trustworthy","","null","","","","decisionFB","","<div class='trialDiv'><img src='Fruit/watermelon.png'><br><font class='baseline'><strong>Watermelon Win$</strong><p>Choose number of points to bet.</font><div class='respPicDiv'><img src='img/responseButtonOffersNo0L5.png' class='respPic'></div></div>","null","9","Watermelon Win$","Fruit/watermelon.png","Won","0.8,0.35","13","0.8","158","27","",""
"html-keyboard-response","90","139159","0.0-11.0-3.26","55d86f3569dbc30012b6869f","bdp_rwlrn","Mon Mar 13 2023 15:03:17 GMT-0400 (Eastern Daylight Time)","402148","Untrustworthy,Trustworthy","","null","","","","feedback","","<div class='respPicDiv'><img src='img/responseButtonOffersNo0_wht.png' class='respPic'></div><div class='trialDiv'><img src='Fruit/watermelon.png'><br><font class='baseline'><strong>Watermelon Win$</strong><p><strong><font class='posOutcome'>You WON</font><p>You bet: 5</strong></font> &nbsp; &nbsp; &nbsp; &nbsp; &nbsp; &nbsp;<font class='posOutcome'>you receive: <strong>10</strong></font></div>","null","9","Watermelon Win$","Fruit/watermelon.png","Won","0.8,0.35","13","0.8","168","27","",""
"html-keyboard-response","91","140565","0.0-11.0-1.27","55d86f3569dbc30012b6869f","bdp_rwlrn","Mon Mar 13 2023 15:03:17 GMT-0400 (Eastern Daylight Time)","402148","Untrustworthy,Trustworthy","","1403","","","","decision","","<div class='trialDiv'><img src='Fruit/orange.png'><br><font class='baseline'><strong>Odds are Orange</strong><p>Choose number of points to bet.</font><div class='respPicDiv'><img src='img/responseButtonOffersNo0L.png' class='respPic'></div></div>","3","10","Odds are Orange","Fruit/orange.png","Won","0.65,0.35","14","0.65","173","28","",""
"html-keyboard-response","92","140819","0.0-11.0-2.27","55d86f3569dbc30012b6869f","bdp_rwlrn","Mon Mar 13 2023 15:03:17 GMT-0400 (Eastern Daylight Time)","402148","Untrustworthy,Trustworthy","","null","","","","decisionFB","","<div class='trialDiv'><img src='Fruit/orange.png'><br><font class='baseline'><strong>Odds are Orange</strong><p>Choose number of points to bet.</font><div class='respPicDiv'><img src='img/responseButtonOffersNo0L3.png' class='respPic'></div></div>","null","10","Odds are Orange","Fruit/orange.png","Won","0.65,0.35","14","0.65","170","28","",""
"html-keyboard-response","93","141822","0.0-11.0-3.27","55d86f3569dbc30012b6869f","bdp_rwlrn","Mon Mar 13 2023 15:03:17 GMT-0400 (Eastern Daylight Time)","402148","Untrustworthy,Trustworthy","","null","","","","feedback","","<div class='respPicDiv'><img src='img/responseButtonOffersNo0_wht.png' class='respPic'></div><div class='trialDiv'><img src='Fruit/orange.png'><br><font class='baseline'><strong>Odds are Orange</strong><p><strong><font class='posOutcome'>You WON</font><p>You bet: 3</strong></font> &nbsp; &nbsp; &nbsp; &nbsp; &nbsp; &nbsp;<font class='posOutcome'>you receive: <strong>6</strong></font></div>","null","10","Odds are Orange","Fruit/orange.png","Won","0.65,0.35","14","0.65","176","28","",""
"html-keyboard-response","94","142614","0.0-11.0-1.28","55d86f3569dbc30012b6869f","bdp_rwlrn","Mon Mar 13 2023 15:03:17 GMT-0400 (Eastern Daylight Time)","402148","Untrustworthy,Trustworthy","","789","","","","decision","","<div class='trialDiv'><img src='Fruit/watermelon.png'><br><font class='baseline'><strong>Watermelon Win$</strong><p>Choose number of points to bet.</font><div class='respPicDiv'><img src='img/responseButtonOffersNo0L.png' class='respPic'></div></div>","3","10","Watermelon Win$","Fruit/watermelon.png","Won","0.8,0.35","13","0.8","181","29","",""
"html-keyboard-response","95","142867","0.0-11.0-2.28","55d86f3569dbc30012b6869f","bdp_rwlrn","Mon Mar 13 2023 15:03:17 GMT-0400 (Eastern Daylight Time)","402148","Untrustworthy,Trustworthy","","null","","","","decisionFB","","<div class='trialDiv'><img src='Fruit/watermelon.png'><br><font class='baseline'><strong>Watermelon Win$</strong><p>Choose number of points to bet.</font><div class='respPicDiv'><img src='img/responseButtonOffersNo0L3.png' class='respPic'></div></div>","null","10","Watermelon Win$","Fruit/watermelon.png","Won","0.8,0.35","13","0.8","178","29","",""
"html-keyboard-response","96","143870","0.0-11.0-3.28","55d86f3569dbc30012b6869f","bdp_rwlrn","Mon Mar 13 2023 15:03:17 GMT-0400 (Eastern Daylight Time)","402148","Untrustworthy,Trustworthy","","null","","","","feedback","","<div class='respPicDiv'><img src='img/responseButtonOffersNo0_wht.png' class='respPic'></div><div class='trialDiv'><img src='Fruit/watermelon.png'><br><font class='baseline'><strong>Watermelon Win$</strong><p><strong><font class='posOutcome'>You WON</font><p>You bet: 3</strong></font> &nbsp; &nbsp; &nbsp; &nbsp; &nbsp; &nbsp;<font class='posOutcome'>you receive: <strong>6</strong></font></div>","null","10","Watermelon Win$","Fruit/watermelon.png","Won","0.8,0.35","13","0.8","184","29","",""
"html-keyboard-response","97","144521","0.0-11.0-1.29","55d86f3569dbc30012b6869f","bdp_rwlrn","Mon Mar 13 2023 15:03:17 GMT-0400 (Eastern Daylight Time)","402148","Untrustworthy,Trustworthy","","648","","","","decision","","<div class='trialDiv'><img src='Fruit/mango.png'><br><font class='baseline'><strong>Mega Mangos</strong><p>Choose number of points to bet.</font><div class='respPicDiv'><img src='img/responseButtonOffersNo0L.png' class='respPic'></div></div>","1","10","Mega Mangos","Fruit/mango.png","Won","0.2,0.65","10","0.2","189","30","",""
"html-keyboard-response","98","144774","0.0-11.0-2.29","55d86f3569dbc30012b6869f","bdp_rwlrn","Mon Mar 13 2023 15:03:17 GMT-0400 (Eastern Daylight Time)","402148","Untrustworthy,Trustworthy","","null","","","","decisionFB","","<div class='trialDiv'><img src='Fruit/mango.png'><br><font class='baseline'><strong>Mega Mangos</strong><p>Choose number of points to bet.</font><div class='respPicDiv'><img src='img/responseButtonOffersNo0L1.png' class='respPic'></div></div>","null","10","Mega Mangos","Fruit/mango.png","Won","0.2,0.65","10","0.2","188","30","",""
"html-keyboard-response","99","145777","0.0-11.0-3.29","55d86f3569dbc30012b6869f","bdp_rwlrn","Mon Mar 13 2023 15:03:17 GMT-0400 (Eastern Daylight Time)","402148","Untrustworthy,Trustworthy","","null","","","","feedback","","<div class='respPicDiv'><img src='img/responseButtonOffersNo0_wht.png' class='respPic'></div><div class='trialDiv'><img src='Fruit/mango.png'><br><font class='baseline'><strong>Mega Mangos</strong><p><strong><font class='posOutcome'>You WON</font><p>You bet: 1</strong></font> &nbsp; &nbsp; &nbsp; &nbsp; &nbsp; &nbsp;<font class='posOutcome'>you receive: <strong>2</strong></font></div>","null","10","Mega Mangos","Fruit/mango.png","Won","0.2,0.65","10","0.2","190","30","",""
"html-keyboard-response","100","147296","0.0-11.0-1.30","55d86f3569dbc30012b6869f","bdp_rwlrn","Mon Mar 13 2023 15:03:17 GMT-0400 (Eastern Daylight Time)","402148","Untrustworthy,Trustworthy","","1516","","","","decision","","<div class='trialDiv'><img src='Fruit/watermelon.png'><br><font class='baseline'><strong>Watermelon Win$</strong><p>Choose number of points to bet.</font><div class='respPicDiv'><img src='img/responseButtonOffersNo0L.png' class='respPic'></div></div>","4","11","Watermelon Win$","Fruit/watermelon.png","Won","0.8,0.35","13","0.8","195","31","",""
"html-keyboard-response","101","147549","0.0-11.0-2.30","55d86f3569dbc30012b6869f","bdp_rwlrn","Mon Mar 13 2023 15:03:17 GMT-0400 (Eastern Daylight Time)","402148","Untrustworthy,Trustworthy","","null","","","","decisionFB","","<div class='trialDiv'><img src='Fruit/watermelon.png'><br><font class='baseline'><strong>Watermelon Win$</strong><p>Choose number of points to bet.</font><div class='respPicDiv'><img src='img/responseButtonOffersNo0L4.png' class='respPic'></div></div>","null","11","Watermelon Win$","Fruit/watermelon.png","Won","0.8,0.35","13","0.8","191","31","",""
"html-keyboard-response","102","148552","0.0-11.0-3.30","55d86f3569dbc30012b6869f","bdp_rwlrn","Mon Mar 13 2023 15:03:17 GMT-0400 (Eastern Daylight Time)","402148","Untrustworthy,Trustworthy","","null","","","","feedback","","<div class='respPicDiv'><img src='img/responseButtonOffersNo0_wht.png' class='respPic'></div><div class='trialDiv'><img src='Fruit/watermelon.png'><br><font class='baseline'><strong>Watermelon Win$</strong><p><strong><font class='posOutcome'>You WON</font><p>You bet: 4</strong></font> &nbsp; &nbsp; &nbsp; &nbsp; &nbsp; &nbsp;<font class='posOutcome'>you receive: <strong>8</strong></font></div>","null","11","Watermelon Win$","Fruit/watermelon.png","Won","0.8,0.35","13","0.8","199","31","",""
"html-keyboard-response","103","150550","0.0-11.0-1.31","55d86f3569dbc30012b6869f","bdp_rwlrn","Mon Mar 13 2023 15:03:17 GMT-0400 (Eastern Daylight Time)","402148","Untrustworthy,Trustworthy","","1994","","","","decision","","<div class='trialDiv'><img src='Fruit/orange.png'><br><font class='baseline'><strong>Odds are Orange</strong><p>Choose number of points to bet.</font><div class='respPicDiv'><img src='img/responseButtonOffersNo0L.png' class='respPic'></div></div>","4","11","Odds are Orange","Fruit/orange.png","Lost","0.65,0.35","14","0.65","204","32","",""
"html-keyboard-response","104","150802","0.0-11.0-2.31","55d86f3569dbc30012b6869f","bdp_rwlrn","Mon Mar 13 2023 15:03:17 GMT-0400 (Eastern Daylight Time)","402148","Untrustworthy,Trustworthy","","null","","","","decisionFB","","<div class='trialDiv'><img src='Fruit/orange.png'><br><font class='baseline'><strong>Odds are Orange</strong><p>Choose number of points to bet.</font><div class='respPicDiv'><img src='img/responseButtonOffersNo0L4.png' class='respPic'></div></div>","null","11","Odds are Orange","Fruit/orange.png","Lost","0.65,0.35","14","0.65","200","32","",""
"html-keyboard-response","105","151806","0.0-11.0-3.31","55d86f3569dbc30012b6869f","bdp_rwlrn","Mon Mar 13 2023 15:03:17 GMT-0400 (Eastern Daylight Time)","402148","Untrustworthy,Trustworthy","","null","","","","feedback","","<div class='respPicDiv'><img src='img/responseButtonOffersNo0_wht.png' class='respPic'></div><div class='trialDiv'><img src='Fruit/orange.png'><br><font class='baseline'><strong>Odds are Orange</strong><p><strong><font class='negOutcome'>You LOST</font><p>You bet: 4</strong></font> &nbsp; &nbsp; &nbsp; &nbsp; &nbsp; &nbsp;<font class='negOutcome'>You receive: <strong>0</strong></font></div>","null","11","Odds are Orange","Fruit/orange.png","Lost","0.65,0.35","14","0.65","200","32","",""
"html-keyboard-response","106","153218","0.0-11.0-1.32","55d86f3569dbc30012b6869f","bdp_rwlrn","Mon Mar 13 2023 15:03:17 GMT-0400 (Eastern Daylight Time)","402148","Untrustworthy,Trustworthy","","1409","","","","decision","","<div class='trialDiv'><img src='Fruit/mango.png'><br><font class='baseline'><strong>Mega Mangos</strong><p>Choose number of points to bet.</font><div class='respPicDiv'><img src='img/responseButtonOffersNo0L.png' class='respPic'></div></div>","2","11","Mega Mangos","Fruit/mango.png","Lost","0.2,0.65","10","0.2","205","33","",""
"html-keyboard-response","107","153471","0.0-11.0-2.32","55d86f3569dbc30012b6869f","bdp_rwlrn","Mon Mar 13 2023 15:03:17 GMT-0400 (Eastern Daylight Time)","402148","Untrustworthy,Trustworthy","","null","","","","decisionFB","","<div class='trialDiv'><img src='Fruit/mango.png'><br><font class='baseline'><strong>Mega Mangos</strong><p>Choose number of points to bet.</font><div class='respPicDiv'><img src='img/responseButtonOffersNo0L2.png' class='respPic'></div></div>","null","11","Mega Mangos","Fruit/mango.png","Lost","0.2,0.65","10","0.2","203","33","",""
"html-keyboard-response","108","154474","0.0-11.0-3.32","55d86f3569dbc30012b6869f","bdp_rwlrn","Mon Mar 13 2023 15:03:17 GMT-0400 (Eastern Daylight Time)","402148","Untrustworthy,Trustworthy","","null","","","","feedback","","<div class='respPicDiv'><img src='img/responseButtonOffersNo0_wht.png' class='respPic'></div><div class='trialDiv'><img src='Fruit/mango.png'><br><font class='baseline'><strong>Mega Mangos</strong><p><strong><font class='negOutcome'>You LOST</font><p>You bet: 2</strong></font> &nbsp; &nbsp; &nbsp; &nbsp; &nbsp; &nbsp;<font class='negOutcome'>You receive: <strong>0</strong></font></div>","null","11","Mega Mangos","Fruit/mango.png","Lost","0.2,0.65","10","0.2","203","33","",""
"html-keyboard-response","109","155878","0.0-11.0-1.33","55d86f3569dbc30012b6869f","bdp_rwlrn","Mon Mar 13 2023 15:03:17 GMT-0400 (Eastern Daylight Time)","402148","Untrustworthy,Trustworthy","","1401","","","","decision","","<div class='trialDiv'><img src='Fruit/watermelon.png'><br><font class='baseline'><strong>Watermelon Win$</strong><p>Choose number of points to bet.</font><div class='respPicDiv'><img src='img/responseButtonOffersNo0L.png' class='respPic'></div></div>","5","12","Watermelon Win$","Fruit/watermelon.png","Won","0.8,0.35","13","0.8","208","34","",""
"html-keyboard-response","110","156132","0.0-11.0-2.33","55d86f3569dbc30012b6869f","bdp_rwlrn","Mon Mar 13 2023 15:03:17 GMT-0400 (Eastern Daylight Time)","402148","Untrustworthy,Trustworthy","","null","","","","decisionFB","","<div class='trialDiv'><img src='Fruit/watermelon.png'><br><font class='baseline'><strong>Watermelon Win$</strong><p>Choose number of points to bet.</font><div class='respPicDiv'><img src='img/responseButtonOffersNo0L5.png' class='respPic'></div></div>","null","12","Watermelon Win$","Fruit/watermelon.png","Won","0.8,0.35","13","0.8","203","34","",""
"html-keyboard-response","111","157134","0.0-11.0-3.33","55d86f3569dbc30012b6869f","bdp_rwlrn","Mon Mar 13 2023 15:03:17 GMT-0400 (Eastern Daylight Time)","402148","Untrustworthy,Trustworthy","","null","","","","feedback","","<div class='respPicDiv'><img src='img/responseButtonOffersNo0_wht.png' class='respPic'></div><div class='trialDiv'><img src='Fruit/watermelon.png'><br><font class='baseline'><strong>Watermelon Win$</strong><p><strong><font class='posOutcome'>You WON</font><p>You bet: 5</strong></font> &nbsp; &nbsp; &nbsp; &nbsp; &nbsp; &nbsp;<font class='posOutcome'>you receive: <strong>10</strong></font></div>","null","12","Watermelon Win$","Fruit/watermelon.png","Won","0.8,0.35","13","0.8","213","34","",""
"html-keyboard-response","112","158650","0.0-11.0-1.34","55d86f3569dbc30012b6869f","bdp_rwlrn","Mon Mar 13 2023 15:03:17 GMT-0400 (Eastern Daylight Time)","402148","Untrustworthy,Trustworthy","","1514","","","","decision","","<div class='trialDiv'><img src='Fruit/mango.png'><br><font class='baseline'><strong>Mega Mangos</strong><p>Choose number of points to bet.</font><div class='respPicDiv'><img src='img/responseButtonOffersNo0L.png' class='respPic'></div></div>","3","12","Mega Mangos","Fruit/mango.png","Lost","0.2,0.65","10","0.2","218","35","",""
"html-keyboard-response","113","158902","0.0-11.0-2.34","55d86f3569dbc30012b6869f","bdp_rwlrn","Mon Mar 13 2023 15:03:17 GMT-0400 (Eastern Daylight Time)","402148","Untrustworthy,Trustworthy","","null","","","","decisionFB","","<div class='trialDiv'><img src='Fruit/mango.png'><br><font class='baseline'><strong>Mega Mangos</strong><p>Choose number of points to bet.</font><div class='respPicDiv'><img src='img/responseButtonOffersNo0L3.png' class='respPic'></div></div>","null","12","Mega Mangos","Fruit/mango.png","Lost","0.2,0.65","10","0.2","215","35","",""
"html-keyboard-response","114","159905","0.0-11.0-3.34","55d86f3569dbc30012b6869f","bdp_rwlrn","Mon Mar 13 2023 15:03:17 GMT-0400 (Eastern Daylight Time)","402148","Untrustworthy,Trustworthy","","null","","","","feedback","","<div class='respPicDiv'><img src='img/responseButtonOffersNo0_wht.png' class='respPic'></div><div class='trialDiv'><img src='Fruit/mango.png'><br><font class='baseline'><strong>Mega Mangos</strong><p><strong><font class='negOutcome'>You LOST</font><p>You bet: 3</strong></font> &nbsp; &nbsp; &nbsp; &nbsp; &nbsp; &nbsp;<font class='negOutcome'>You receive: <strong>0</strong></font></div>","null","12","Mega Mangos","Fruit/mango.png","Lost","0.2,0.65","10","0.2","215","35","",""
"html-keyboard-response","115","161302","0.0-11.0-1.35","55d86f3569dbc30012b6869f","bdp_rwlrn","Mon Mar 13 2023 15:03:17 GMT-0400 (Eastern Daylight Time)","402148","Untrustworthy,Trustworthy","","1395","","","","decision","","<div class='trialDiv'><img src='Fruit/orange.png'><br><font class='baseline'><strong>Odds are Orange</strong><p>Choose number of points to bet.</font><div class='respPicDiv'><img src='img/responseButtonOffersNo0L.png' class='respPic'></div></div>","3","12","Odds are Orange","Fruit/orange.png","Won","0.65,0.35","14","0.65","220","36","",""
"html-keyboard-response","116","161555","0.0-11.0-2.35","55d86f3569dbc30012b6869f","bdp_rwlrn","Mon Mar 13 2023 15:03:17 GMT-0400 (Eastern Daylight Time)","402148","Untrustworthy,Trustworthy","","null","","","","decisionFB","","<div class='trialDiv'><img src='Fruit/orange.png'><br><font class='baseline'><strong>Odds are Orange</strong><p>Choose number of points to bet.</font><div class='respPicDiv'><img src='img/responseButtonOffersNo0L3.png' class='respPic'></div></div>","null","12","Odds are Orange","Fruit/orange.png","Won","0.65,0.35","14","0.65","217","36","",""
"html-keyboard-response","117","162558","0.0-11.0-3.35","55d86f3569dbc30012b6869f","bdp_rwlrn","Mon Mar 13 2023 15:03:17 GMT-0400 (Eastern Daylight Time)","402148","Untrustworthy,Trustworthy","","null","","","","feedback","","<div class='respPicDiv'><img src='img/responseButtonOffersNo0_wht.png' class='respPic'></div><div class='trialDiv'><img src='Fruit/orange.png'><br><font class='baseline'><strong>Odds are Orange</strong><p><strong><font class='posOutcome'>You WON</font><p>You bet: 3</strong></font> &nbsp; &nbsp; &nbsp; &nbsp; &nbsp; &nbsp;<font class='posOutcome'>you receive: <strong>6</strong></font></div>","null","12","Odds are Orange","Fruit/orange.png","Won","0.65,0.35","14","0.65","223","36","",""
"html-keyboard-response","118","163548","0.0-11.0-1.36","55d86f3569dbc30012b6869f","bdp_rwlrn","Mon Mar 13 2023 15:03:17 GMT-0400 (Eastern Daylight Time)","402148","Untrustworthy,Trustworthy","","986","","","","decision","","<div class='trialDiv'><img src='Fruit/watermelon.png'><br><font class='baseline'><strong>Watermelon Win$</strong><p>Choose number of points to bet.</font><div class='respPicDiv'><img src='img/responseButtonOffersNo0L.png' class='respPic'></div></div>","4","13","Watermelon Win$","Fruit/watermelon.png","Lost","0.8,0.35","13","0.8","228","37","",""
"html-keyboard-response","119","163809","0.0-11.0-2.36","55d86f3569dbc30012b6869f","bdp_rwlrn","Mon Mar 13 2023 15:03:17 GMT-0400 (Eastern Daylight Time)","402148","Untrustworthy,Trustworthy","","null","","","","decisionFB","","<div class='trialDiv'><img src='Fruit/watermelon.png'><br><font class='baseline'><strong>Watermelon Win$</strong><p>Choose number of points to bet.</font><div class='respPicDiv'><img src='img/responseButtonOffersNo0L4.png' class='respPic'></div></div>","null","13","Watermelon Win$","Fruit/watermelon.png","Lost","0.8,0.35","13","0.8","224","37","",""
"html-keyboard-response","120","164812","0.0-11.0-3.36","55d86f3569dbc30012b6869f","bdp_rwlrn","Mon Mar 13 2023 15:03:17 GMT-0400 (Eastern Daylight Time)","402148","Untrustworthy,Trustworthy","","null","","","","feedback","","<div class='respPicDiv'><img src='img/responseButtonOffersNo0_wht.png' class='respPic'></div><div class='trialDiv'><img src='Fruit/watermelon.png'><br><font class='baseline'><strong>Watermelon Win$</strong><p><strong><font class='negOutcome'>You LOST</font><p>You bet: 4</strong></font> &nbsp; &nbsp; &nbsp; &nbsp; &nbsp; &nbsp;<font class='negOutcome'>You receive: <strong>0</strong></font></div>","null","13","Watermelon Win$","Fruit/watermelon.png","Lost","0.8,0.35","13","0.8","224","37","",""
"html-keyboard-response","121","165705","0.0-11.0-1.37","55d86f3569dbc30012b6869f","bdp_rwlrn","Mon Mar 13 2023 15:03:17 GMT-0400 (Eastern Daylight Time)","402148","Untrustworthy,Trustworthy","","890","","","","decision","","<div class='trialDiv'><img src='Fruit/mango.png'><br><font class='baseline'><strong>Mega Mangos</strong><p>Choose number of points to bet.</font><div class='respPicDiv'><img src='img/responseButtonOffersNo0L.png' class='respPic'></div></div>","4","13","Mega Mangos","Fruit/mango.png","Won","0.2,0.65","10","0.2","229","38","",""
"html-keyboard-response","122","165958","0.0-11.0-2.37","55d86f3569dbc30012b6869f","bdp_rwlrn","Mon Mar 13 2023 15:03:17 GMT-0400 (Eastern Daylight Time)","402148","Untrustworthy,Trustworthy","","null","","","","decisionFB","","<div class='trialDiv'><img src='Fruit/mango.png'><br><font class='baseline'><strong>Mega Mangos</strong><p>Choose number of points to bet.</font><div class='respPicDiv'><img src='img/responseButtonOffersNo0L4.png' class='respPic'></div></div>","null","13","Mega Mangos","Fruit/mango.png","Won","0.2,0.65","10","0.2","225","38","",""
"html-keyboard-response","123","166961","0.0-11.0-3.37","55d86f3569dbc30012b6869f","bdp_rwlrn","Mon Mar 13 2023 15:03:17 GMT-0400 (Eastern Daylight Time)","402148","Untrustworthy,Trustworthy","","null","","","","feedback","","<div class='respPicDiv'><img src='img/responseButtonOffersNo0_wht.png' class='respPic'></div><div class='trialDiv'><img src='Fruit/mango.png'><br><font class='baseline'><strong>Mega Mangos</strong><p><strong><font class='posOutcome'>You WON</font><p>You bet: 4</strong></font> &nbsp; &nbsp; &nbsp; &nbsp; &nbsp; &nbsp;<font class='posOutcome'>you receive: <strong>8</strong></font></div>","null","13","Mega Mangos","Fruit/mango.png","Won","0.2,0.65","10","0.2","233","38","",""
"html-keyboard-response","124","167921","0.0-11.0-1.38","55d86f3569dbc30012b6869f","bdp_rwlrn","Mon Mar 13 2023 15:03:17 GMT-0400 (Eastern Daylight Time)","402148","Untrustworthy,Trustworthy","","957","","","","decision","","<div class='trialDiv'><img src='Fruit/orange.png'><br><font class='baseline'><strong>Odds are Orange</strong><p>Choose number of points to bet.</font><div class='respPicDiv'><img src='img/responseButtonOffersNo0L.png' class='respPic'></div></div>","5","13","Odds are Orange","Fruit/orange.png","Won","0.65,0.35","14","0.65","238","39","",""
"html-keyboard-response","125","168174","0.0-11.0-2.38","55d86f3569dbc30012b6869f","bdp_rwlrn","Mon Mar 13 2023 15:03:17 GMT-0400 (Eastern Daylight Time)","402148","Untrustworthy,Trustworthy","","null","","","","decisionFB","","<div class='trialDiv'><img src='Fruit/orange.png'><br><font class='baseline'><strong>Odds are Orange</strong><p>Choose number of points to bet.</font><div class='respPicDiv'><img src='img/responseButtonOffersNo0L5.png' class='respPic'></div></div>","null","13","Odds are Orange","Fruit/orange.png","Won","0.65,0.35","14","0.65","233","39","",""
"html-keyboard-response","126","169177","0.0-11.0-3.38","55d86f3569dbc30012b6869f","bdp_rwlrn","Mon Mar 13 2023 15:03:17 GMT-0400 (Eastern Daylight Time)","402148","Untrustworthy,Trustworthy","","null","","","","feedback","","<div class='respPicDiv'><img src='img/responseButtonOffersNo0_wht.png' class='respPic'></div><div class='trialDiv'><img src='Fruit/orange.png'><br><font class='baseline'><strong>Odds are Orange</strong><p><strong><font class='posOutcome'>You WON</font><p>You bet: 5</strong></font> &nbsp; &nbsp; &nbsp; &nbsp; &nbsp; &nbsp;<font class='posOutcome'>you receive: <strong>10</strong></font></div>","null","13","Odds are Orange","Fruit/orange.png","Won","0.65,0.35","14","0.65","243","39","",""
"html-keyboard-response","127","170651","0.0-11.0-1.39","55d86f3569dbc30012b6869f","bdp_rwlrn","Mon Mar 13 2023 15:03:17 GMT-0400 (Eastern Daylight Time)","402148","Untrustworthy,Trustworthy","","1470","","","","decision","","<div class='trialDiv'><img src='Fruit/mango.png'><br><font class='baseline'><strong>Mega Mangos</strong><p>Choose number of points to bet.</font><div class='respPicDiv'><img src='img/responseButtonOffersNo0L.png' class='respPic'></div></div>","4","14","Mega Mangos","Fruit/mango.png","Won","0.2,0.65","10","0.2","248","40","",""
"html-keyboard-response","128","170904","0.0-11.0-2.39","55d86f3569dbc30012b6869f","bdp_rwlrn","Mon Mar 13 2023 15:03:17 GMT-0400 (Eastern Daylight Time)","402148","Untrustworthy,Trustworthy","","null","","","","decisionFB","","<div class='trialDiv'><img src='Fruit/mango.png'><br><font class='baseline'><strong>Mega Mangos</strong><p>Choose number of points to bet.</font><div class='respPicDiv'><img src='img/responseButtonOffersNo0L4.png' class='respPic'></div></div>","null","14","Mega Mangos","Fruit/mango.png","Won","0.2,0.65","10","0.2","244","40","",""
"html-keyboard-response","129","171907","0.0-11.0-3.39","55d86f3569dbc30012b6869f","bdp_rwlrn","Mon Mar 13 2023 15:03:17 GMT-0400 (Eastern Daylight Time)","402148","Untrustworthy,Trustworthy","","null","","","","feedback","","<div class='respPicDiv'><img src='img/responseButtonOffersNo0_wht.png' class='respPic'></div><div class='trialDiv'><img src='Fruit/mango.png'><br><font class='baseline'><strong>Mega Mangos</strong><p><strong><font class='posOutcome'>You WON</font><p>You bet: 4</strong></font> &nbsp; &nbsp; &nbsp; &nbsp; &nbsp; &nbsp;<font class='posOutcome'>you receive: <strong>8</strong></font></div>","null","14","Mega Mangos","Fruit/mango.png","Won","0.2,0.65","10","0.2","252","40","",""
"html-keyboard-response","130","173046","0.0-11.0-1.40","55d86f3569dbc30012b6869f","bdp_rwlrn","Mon Mar 13 2023 15:03:17 GMT-0400 (Eastern Daylight Time)","402148","Untrustworthy,Trustworthy","","1136","","","","decision","","<div class='trialDiv'><img src='Fruit/orange.png'><br><font class='baseline'><strong>Odds are Orange</strong><p>Choose number of points to bet.</font><div class='respPicDiv'><img src='img/responseButtonOffersNo0L.png' class='respPic'></div></div>","5","14","Odds are Orange","Fruit/orange.png","Won","0.65,0.35","14","0.65","257","41","",""
"html-keyboard-response","131","173299","0.0-11.0-2.40","55d86f3569dbc30012b6869f","bdp_rwlrn","Mon Mar 13 2023 15:03:17 GMT-0400 (Eastern Daylight Time)","402148","Untrustworthy,Trustworthy","","null","","","","decisionFB","","<div class='trialDiv'><img src='Fruit/orange.png'><br><font class='baseline'><strong>Odds are Orange</strong><p>Choose number of points to bet.</font><div class='respPicDiv'><img src='img/responseButtonOffersNo0L5.png' class='respPic'></div></div>","null","14","Odds are Orange","Fruit/orange.png","Won","0.65,0.35","14","0.65","252","41","",""
"html-keyboard-response","132","174303","0.0-11.0-3.40","55d86f3569dbc30012b6869f","bdp_rwlrn","Mon Mar 13 2023 15:03:17 GMT-0400 (Eastern Daylight Time)","402148","Untrustworthy,Trustworthy","","null","","","","feedback","","<div class='respPicDiv'><img src='img/responseButtonOffersNo0_wht.png' class='respPic'></div><div class='trialDiv'><img src='Fruit/orange.png'><br><font class='baseline'><strong>Odds are Orange</strong><p><strong><font class='posOutcome'>You WON</font><p>You bet: 5</strong></font> &nbsp; &nbsp; &nbsp; &nbsp; &nbsp; &nbsp;<font class='posOutcome'>you receive: <strong>10</strong></font></div>","null","14","Odds are Orange","Fruit/orange.png","Won","0.65,0.35","14","0.65","262","41","",""
"html-keyboard-response","133","174793","0.0-11.0-1.41","55d86f3569dbc30012b6869f","bdp_rwlrn","Mon Mar 13 2023 15:03:17 GMT-0400 (Eastern Daylight Time)","402148","Untrustworthy,Trustworthy","","487","","","","decision","","<div class='trialDiv'><img src='Fruit/watermelon.png'><br><font class='baseline'><strong>Watermelon Win$</strong><p>Choose number of points to bet.</font><div class='respPicDiv'><img src='img/responseButtonOffersNo0L.png' class='respPic'></div></div>","5","14","Watermelon Win$","Fruit/watermelon.png","Won","0.8,0.35","13","0.8","267","42","",""
"html-keyboard-response","134","175046","0.0-11.0-2.41","55d86f3569dbc30012b6869f","bdp_rwlrn","Mon Mar 13 2023 15:03:17 GMT-0400 (Eastern Daylight Time)","402148","Untrustworthy,Trustworthy","","null","","","","decisionFB","","<div class='trialDiv'><img src='Fruit/watermelon.png'><br><font class='baseline'><strong>Watermelon Win$</strong><p>Choose number of points to bet.</font><div class='respPicDiv'><img src='img/responseButtonOffersNo0L5.png' class='respPic'></div></div>","null","14","Watermelon Win$","Fruit/watermelon.png","Won","0.8,0.35","13","0.8","262","42","",""
"html-keyboard-response","135","176049","0.0-11.0-3.41","55d86f3569dbc30012b6869f","bdp_rwlrn","Mon Mar 13 2023 15:03:17 GMT-0400 (Eastern Daylight Time)","402148","Untrustworthy,Trustworthy","","null","","","","feedback","","<div class='respPicDiv'><img src='img/responseButtonOffersNo0_wht.png' class='respPic'></div><div class='trialDiv'><img src='Fruit/watermelon.png'><br><font class='baseline'><strong>Watermelon Win$</strong><p><strong><font class='posOutcome'>You WON</font><p>You bet: 5</strong></font> &nbsp; &nbsp; &nbsp; &nbsp; &nbsp; &nbsp;<font class='posOutcome'>you receive: <strong>10</strong></font></div>","null","14","Watermelon Win$","Fruit/watermelon.png","Won","0.8,0.35","13","0.8","272","42","",""
"html-keyboard-response","136","176990","0.0-11.0-1.42","55d86f3569dbc30012b6869f","bdp_rwlrn","Mon Mar 13 2023 15:03:17 GMT-0400 (Eastern Daylight Time)","402148","Untrustworthy,Trustworthy","","937","","","","decision","","<div class='trialDiv'><img src='Fruit/mango.png'><br><font class='baseline'><strong>Mega Mangos</strong><p>Choose number of points to bet.</font><div class='respPicDiv'><img src='img/responseButtonOffersNo0L.png' class='respPic'></div></div>","4","15","Mega Mangos","Fruit/mango.png","Won","0.2,0.65","10","0.2","277","43","",""
"html-keyboard-response","137","177243","0.0-11.0-2.42","55d86f3569dbc30012b6869f","bdp_rwlrn","Mon Mar 13 2023 15:03:17 GMT-0400 (Eastern Daylight Time)","402148","Untrustworthy,Trustworthy","","null","","","","decisionFB","","<div class='trialDiv'><img src='Fruit/mango.png'><br><font class='baseline'><strong>Mega Mangos</strong><p>Choose number of points to bet.</font><div class='respPicDiv'><img src='img/responseButtonOffersNo0L4.png' class='respPic'></div></div>","null","15","Mega Mangos","Fruit/mango.png","Won","0.2,0.65","10","0.2","273","43","",""
"html-keyboard-response","138","178247","0.0-11.0-3.42","55d86f3569dbc30012b6869f","bdp_rwlrn","Mon Mar 13 2023 15:03:17 GMT-0400 (Eastern Daylight Time)","402148","Untrustworthy,Trustworthy","","null","","","","feedback","","<div class='respPicDiv'><img src='img/responseButtonOffersNo0_wht.png' class='respPic'></div><div class='trialDiv'><img src='Fruit/mango.png'><br><font class='baseline'><strong>Mega Mangos</strong><p><strong><font class='posOutcome'>You WON</font><p>You bet: 4</strong></font> &nbsp; &nbsp; &nbsp; &nbsp; &nbsp; &nbsp;<font class='posOutcome'>you receive: <strong>8</strong></font></div>","null","15","Mega Mangos","Fruit/mango.png","Won","0.2,0.65","10","0.2","281","43","",""
"html-keyboard-response","139","178998","0.0-11.0-1.43","55d86f3569dbc30012b6869f","bdp_rwlrn","Mon Mar 13 2023 15:03:17 GMT-0400 (Eastern Daylight Time)","402148","Untrustworthy,Trustworthy","","749","","","","decision","","<div class='trialDiv'><img src='Fruit/orange.png'><br><font class='baseline'><strong>Odds are Orange</strong><p>Choose number of points to bet.</font><div class='respPicDiv'><img src='img/responseButtonOffersNo0L.png' class='respPic'></div></div>","5","15","Odds are Orange","Fruit/orange.png","Lost","0.65,0.35","14","0.65","286","44","",""
"html-keyboard-response","140","179251","0.0-11.0-2.43","55d86f3569dbc30012b6869f","bdp_rwlrn","Mon Mar 13 2023 15:03:17 GMT-0400 (Eastern Daylight Time)","402148","Untrustworthy,Trustworthy","","null","","","","decisionFB","","<div class='trialDiv'><img src='Fruit/orange.png'><br><font class='baseline'><strong>Odds are Orange</strong><p>Choose number of points to bet.</font><div class='respPicDiv'><img src='img/responseButtonOffersNo0L5.png' class='respPic'></div></div>","null","15","Odds are Orange","Fruit/orange.png","Lost","0.65,0.35","14","0.65","281","44","",""
"html-keyboard-response","141","180255","0.0-11.0-3.43","55d86f3569dbc30012b6869f","bdp_rwlrn","Mon Mar 13 2023 15:03:17 GMT-0400 (Eastern Daylight Time)","402148","Untrustworthy,Trustworthy","","null","","","","feedback","","<div class='respPicDiv'><img src='img/responseButtonOffersNo0_wht.png' class='respPic'></div><div class='trialDiv'><img src='Fruit/orange.png'><br><font class='baseline'><strong>Odds are Orange</strong><p><strong><font class='negOutcome'>You LOST</font><p>You bet: 5</strong></font> &nbsp; &nbsp; &nbsp; &nbsp; &nbsp; &nbsp;<font class='negOutcome'>You receive: <strong>0</strong></font></div>","null","15","Odds are Orange","Fruit/orange.png","Lost","0.65,0.35","14","0.65","281","44","",""
"html-keyboard-response","142","180689","0.0-11.0-1.44","55d86f3569dbc30012b6869f","bdp_rwlrn","Mon Mar 13 2023 15:03:17 GMT-0400 (Eastern Daylight Time)","402148","Untrustworthy,Trustworthy","","431","","","","decision","","<div class='trialDiv'><img src='Fruit/watermelon.png'><br><font class='baseline'><strong>Watermelon Win$</strong><p>Choose number of points to bet.</font><div class='respPicDiv'><img src='img/responseButtonOffersNo0L.png' class='respPic'></div></div>","5","15","Watermelon Win$","Fruit/watermelon.png","Lost","0.8,0.35","13","0.8","286","45","",""
"html-keyboard-response","143","180942","0.0-11.0-2.44","55d86f3569dbc30012b6869f","bdp_rwlrn","Mon Mar 13 2023 15:03:17 GMT-0400 (Eastern Daylight Time)","402148","Untrustworthy,Trustworthy","","null","","","","decisionFB","","<div class='trialDiv'><img src='Fruit/watermelon.png'><br><font class='baseline'><strong>Watermelon Win$</strong><p>Choose number of points to bet.</font><div class='respPicDiv'><img src='img/responseButtonOffersNo0L5.png' class='respPic'></div></div>","null","15","Watermelon Win$","Fruit/watermelon.png","Lost","0.8,0.35","13","0.8","281","45","",""
"html-keyboard-response","144","181946","0.0-11.0-3.44","55d86f3569dbc30012b6869f","bdp_rwlrn","Mon Mar 13 2023 15:03:17 GMT-0400 (Eastern Daylight Time)","402148","Untrustworthy,Trustworthy","","null","","","","feedback","","<div class='respPicDiv'><img src='img/responseButtonOffersNo0_wht.png' class='respPic'></div><div class='trialDiv'><img src='Fruit/watermelon.png'><br><font class='baseline'><strong>Watermelon Win$</strong><p><strong><font class='negOutcome'>You LOST</font><p>You bet: 5</strong></font> &nbsp; &nbsp; &nbsp; &nbsp; &nbsp; &nbsp;<font class='negOutcome'>You receive: <strong>0</strong></font></div>","null","15","Watermelon Win$","Fruit/watermelon.png","Lost","0.8,0.35","13","0.8","281","45","",""
"html-keyboard-response","145","182547","0.0-11.0-1.45","55d86f3569dbc30012b6869f","bdp_rwlrn","Mon Mar 13 2023 15:03:17 GMT-0400 (Eastern Daylight Time)","402148","Untrustworthy,Trustworthy","","598","","","","decision","","<div class='trialDiv'><img src='Fruit/orange.png'><br><font class='baseline'><strong>Odds are Orange</strong><p>Choose number of points to bet.</font><div class='respPicDiv'><img src='img/responseButtonOffersNo0L.png' class='respPic'></div></div>","1","16","Odds are Orange","Fruit/orange.png","Won","0.65,0.35","14","0.65","286","46","",""
"html-keyboard-response","146","182801","0.0-11.0-2.45","55d86f3569dbc30012b6869f","bdp_rwlrn","Mon Mar 13 2023 15:03:17 GMT-0400 (Eastern Daylight Time)","402148","Untrustworthy,Trustworthy","","null","","","","decisionFB","","<div class='trialDiv'><img src='Fruit/orange.png'><br><font class='baseline'><strong>Odds are Orange</strong><p>Choose number of points to bet.</font><div class='respPicDiv'><img src='img/responseButtonOffersNo0L1.png' class='respPic'></div></div>","null","16","Odds are Orange","Fruit/orange.png","Won","0.65,0.35","14","0.65","285","46","",""
"html-keyboard-response","147","183805","0.0-11.0-3.45","55d86f3569dbc30012b6869f","bdp_rwlrn","Mon Mar 13 2023 15:03:17 GMT-0400 (Eastern Daylight Time)","402148","Untrustworthy,Trustworthy","","null","","","","feedback","","<div class='respPicDiv'><img src='img/responseButtonOffersNo0_wht.png' class='respPic'></div><div class='trialDiv'><img src='Fruit/orange.png'><br><font class='baseline'><strong>Odds are Orange</strong><p><strong><font class='posOutcome'>You WON</font><p>You bet: 1</strong></font> &nbsp; &nbsp; &nbsp; &nbsp; &nbsp; &nbsp;<font class='posOutcome'>you receive: <strong>2</strong></font></div>","null","16","Odds are Orange","Fruit/orange.png","Won","0.65,0.35","14","0.65","287","46","",""
"html-keyboard-response","148","185037","0.0-11.0-1.46","55d86f3569dbc30012b6869f","bdp_rwlrn","Mon Mar 13 2023 15:03:17 GMT-0400 (Eastern Daylight Time)","402148","Untrustworthy,Trustworthy","","1229","","","","decision","","<div class='trialDiv'><img src='Fruit/mango.png'><br><font class='baseline'><strong>Mega Mangos</strong><p>Choose number of points to bet.</font><div class='respPicDiv'><img src='img/responseButtonOffersNo0L.png' class='respPic'></div></div>","4","16","Mega Mangos","Fruit/mango.png","Won","0.2,0.65","10","0.2","292","47","",""
"html-keyboard-response","149","185291","0.0-11.0-2.46","55d86f3569dbc30012b6869f","bdp_rwlrn","Mon Mar 13 2023 15:03:17 GMT-0400 (Eastern Daylight Time)","402148","Untrustworthy,Trustworthy","","null","","","","decisionFB","","<div class='trialDiv'><img src='Fruit/mango.png'><br><font class='baseline'><strong>Mega Mangos</strong><p>Choose number of points to bet.</font><div class='respPicDiv'><img src='img/responseButtonOffersNo0L4.png' class='respPic'></div></div>","null","16","Mega Mangos","Fruit/mango.png","Won","0.2,0.65","10","0.2","288","47","",""
"html-keyboard-response","150","186294","0.0-11.0-3.46","55d86f3569dbc30012b6869f","bdp_rwlrn","Mon Mar 13 2023 15:03:17 GMT-0400 (Eastern Daylight Time)","402148","Untrustworthy,Trustworthy","","null","","","","feedback","","<div class='respPicDiv'><img src='img/responseButtonOffersNo0_wht.png' class='respPic'></div><div class='trialDiv'><img src='Fruit/mango.png'><br><font class='baseline'><strong>Mega Mangos</strong><p><strong><font class='posOutcome'>You WON</font><p>You bet: 4</strong></font> &nbsp; &nbsp; &nbsp; &nbsp; &nbsp; &nbsp;<font class='posOutcome'>you receive: <strong>8</strong></font></div>","null","16","Mega Mangos","Fruit/mango.png","Won","0.2,0.65","10","0.2","296","47","",""
"html-keyboard-response","151","186902","0.0-11.0-1.47","55d86f3569dbc30012b6869f","bdp_rwlrn","Mon Mar 13 2023 15:03:17 GMT-0400 (Eastern Daylight Time)","402148","Untrustworthy,Trustworthy","","605","","","","decision","","<div class='trialDiv'><img src='Fruit/watermelon.png'><br><font class='baseline'><strong>Watermelon Win$</strong><p>Choose number of points to bet.</font><div class='respPicDiv'><img src='img/responseButtonOffersNo0L.png' class='respPic'></div></div>","5","16","Watermelon Win$","Fruit/watermelon.png","Lost","0.8,0.35","13","0.8","301","48","",""
"html-keyboard-response","152","187155","0.0-11.0-2.47","55d86f3569dbc30012b6869f","bdp_rwlrn","Mon Mar 13 2023 15:03:17 GMT-0400 (Eastern Daylight Time)","402148","Untrustworthy,Trustworthy","","null","","","","decisionFB","","<div class='trialDiv'><img src='Fruit/watermelon.png'><br><font class='baseline'><strong>Watermelon Win$</strong><p>Choose number of points to bet.</font><div class='respPicDiv'><img src='img/responseButtonOffersNo0L5.png' class='respPic'></div></div>","null","16","Watermelon Win$","Fruit/watermelon.png","Lost","0.8,0.35","13","0.8","296","48","",""
"html-keyboard-response","153","188159","0.0-11.0-3.47","55d86f3569dbc30012b6869f","bdp_rwlrn","Mon Mar 13 2023 15:03:17 GMT-0400 (Eastern Daylight Time)","402148","Untrustworthy,Trustworthy","","null","","","","feedback","","<div class='respPicDiv'><img src='img/responseButtonOffersNo0_wht.png' class='respPic'></div><div class='trialDiv'><img src='Fruit/watermelon.png'><br><font class='baseline'><strong>Watermelon Win$</strong><p><strong><font class='negOutcome'>You LOST</font><p>You bet: 5</strong></font> &nbsp; &nbsp; &nbsp; &nbsp; &nbsp; &nbsp;<font class='negOutcome'>You receive: <strong>0</strong></font></div>","null","16","Watermelon Win$","Fruit/watermelon.png","Lost","0.8,0.35","13","0.8","296","48","",""
"html-keyboard-response","154","188982","0.0-11.0-1.48","55d86f3569dbc30012b6869f","bdp_rwlrn","Mon Mar 13 2023 15:03:17 GMT-0400 (Eastern Daylight Time)","402148","Untrustworthy,Trustworthy","","819","","","","decision","","<div class='trialDiv'><img src='Fruit/orange.png'><br><font class='baseline'><strong>Odds are Orange</strong><p>Choose number of points to bet.</font><div class='respPicDiv'><img src='img/responseButtonOffersNo0L.png' class='respPic'></div></div>","4","17","Odds are Orange","Fruit/orange.png","Lost","0.65,0.35","14","0.65","301","49","",""
"html-keyboard-response","155","189235","0.0-11.0-2.48","55d86f3569dbc30012b6869f","bdp_rwlrn","Mon Mar 13 2023 15:03:17 GMT-0400 (Eastern Daylight Time)","402148","Untrustworthy,Trustworthy","","null","","","","decisionFB","","<div class='trialDiv'><img src='Fruit/orange.png'><br><font class='baseline'><strong>Odds are Orange</strong><p>Choose number of points to bet.</font><div class='respPicDiv'><img src='img/responseButtonOffersNo0L4.png' class='respPic'></div></div>","null","17","Odds are Orange","Fruit/orange.png","Lost","0.65,0.35","14","0.65","297","49","",""
"html-keyboard-response","156","190239","0.0-11.0-3.48","55d86f3569dbc30012b6869f","bdp_rwlrn","Mon Mar 13 2023 15:03:17 GMT-0400 (Eastern Daylight Time)","402148","Untrustworthy,Trustworthy","","null","","","","feedback","","<div class='respPicDiv'><img src='img/responseButtonOffersNo0_wht.png' class='respPic'></div><div class='trialDiv'><img src='Fruit/orange.png'><br><font class='baseline'><strong>Odds are Orange</strong><p><strong><font class='negOutcome'>You LOST</font><p>You bet: 4</strong></font> &nbsp; &nbsp; &nbsp; &nbsp; &nbsp; &nbsp;<font class='negOutcome'>You receive: <strong>0</strong></font></div>","null","17","Odds are Orange","Fruit/orange.png","Lost","0.65,0.35","14","0.65","297","49","",""
"html-keyboard-response","157","190998","0.0-11.0-1.49","55d86f3569dbc30012b6869f","bdp_rwlrn","Mon Mar 13 2023 15:03:17 GMT-0400 (Eastern Daylight Time)","402148","Untrustworthy,Trustworthy","","756","","","","decision","","<div class='trialDiv'><img src='Fruit/watermelon.png'><br><font class='baseline'><strong>Watermelon Win$</strong><p>Choose number of points to bet.</font><div class='respPicDiv'><img src='img/responseButtonOffersNo0L.png' class='respPic'></div></div>","3","17","Watermelon Win$","Fruit/watermelon.png","Won","0.8,0.35","13","0.8","302","50","",""
"html-keyboard-response","158","191250","0.0-11.0-2.49","55d86f3569dbc30012b6869f","bdp_rwlrn","Mon Mar 13 2023 15:03:17 GMT-0400 (Eastern Daylight Time)","402148","Untrustworthy,Trustworthy","","null","","","","decisionFB","","<div class='trialDiv'><img src='Fruit/watermelon.png'><br><font class='baseline'><strong>Watermelon Win$</strong><p>Choose number of points to bet.</font><div class='respPicDiv'><img src='img/responseButtonOffersNo0L3.png' class='respPic'></div></div>","null","17","Watermelon Win$","Fruit/watermelon.png","Won","0.8,0.35","13","0.8","299","50","",""
"html-keyboard-response","159","192253","0.0-11.0-3.49","55d86f3569dbc30012b6869f","bdp_rwlrn","Mon Mar 13 2023 15:03:17 GMT-0400 (Eastern Daylight Time)","402148","Untrustworthy,Trustworthy","","null","","","","feedback","","<div class='respPicDiv'><img src='img/responseButtonOffersNo0_wht.png' class='respPic'></div><div class='trialDiv'><img src='Fruit/watermelon.png'><br><font class='baseline'><strong>Watermelon Win$</strong><p><strong><font class='posOutcome'>You WON</font><p>You bet: 3</strong></font> &nbsp; &nbsp; &nbsp; &nbsp; &nbsp; &nbsp;<font class='posOutcome'>you receive: <strong>6</strong></font></div>","null","17","Watermelon Win$","Fruit/watermelon.png","Won","0.8,0.35","13","0.8","305","50","",""
"html-keyboard-response","160","193423","0.0-11.0-1.50","55d86f3569dbc30012b6869f","bdp_rwlrn","Mon Mar 13 2023 15:03:17 GMT-0400 (Eastern Daylight Time)","402148","Untrustworthy,Trustworthy","","1166","","","","decision","","<div class='trialDiv'><img src='Fruit/mango.png'><br><font class='baseline'><strong>Mega Mangos</strong><p>Choose number of points to bet.</font><div class='respPicDiv'><img src='img/responseButtonOffersNo0L.png' class='respPic'></div></div>","4","17","Mega Mangos","Fruit/mango.png","Won","0.2,0.65","10","0.2","310","51","",""
"html-keyboard-response","161","193676","0.0-11.0-2.50","55d86f3569dbc30012b6869f","bdp_rwlrn","Mon Mar 13 2023 15:03:17 GMT-0400 (Eastern Daylight Time)","402148","Untrustworthy,Trustworthy","","null","","","","decisionFB","","<div class='trialDiv'><img src='Fruit/mango.png'><br><font class='baseline'><strong>Mega Mangos</strong><p>Choose number of points to bet.</font><div class='respPicDiv'><img src='img/responseButtonOffersNo0L4.png' class='respPic'></div></div>","null","17","Mega Mangos","Fruit/mango.png","Won","0.2,0.65","10","0.2","306","51","",""
"html-keyboard-response","162","194680","0.0-11.0-3.50","55d86f3569dbc30012b6869f","bdp_rwlrn","Mon Mar 13 2023 15:03:17 GMT-0400 (Eastern Daylight Time)","402148","Untrustworthy,Trustworthy","","null","","","","feedback","","<div class='respPicDiv'><img src='img/responseButtonOffersNo0_wht.png' class='respPic'></div><div class='trialDiv'><img src='Fruit/mango.png'><br><font class='baseline'><strong>Mega Mangos</strong><p><strong><font class='posOutcome'>You WON</font><p>You bet: 4</strong></font> &nbsp; &nbsp; &nbsp; &nbsp; &nbsp; &nbsp;<font class='posOutcome'>you receive: <strong>8</strong></font></div>","null","17","Mega Mangos","Fruit/mango.png","Won","0.2,0.65","10","0.2","314","51","",""
