"event","trial","time","trialtype","subject_id","task","startTime","totalTime","labels","trial_type","trial_index","time_elapsed","internal_node_id","view_history","rt","success","stimulus","key_press","ltround","name","fileID","outcome","lottotype","lottoswpt","lottocurrpshare","point_total","round","faceID","face"
"focus","0","0","focusevent","6320e37620d067c7d322246a","bdp_rwlrn","Sat Apr 08 2023 11:07:17 GMT-0400 (Eastern Daylight Time)","504959","Trustworthy,Untrustworthy","","","","","","","","","","","","","","","","","","","",""
"","","","","6320e37620d067c7d322246a","bdp_rwlrn","Sat Apr 08 2023 11:07:17 GMT-0400 (Eastern Daylight Time)","504959","Trustworthy,Untrustworthy","pavlovia","0","9","0.0-0.0","","","","","","","","","","","","","","","",""
"","","","","6320e37620d067c7d322246a","bdp_rwlrn","Sat Apr 08 2023 11:07:17 GMT-0400 (Eastern Daylight Time)","504959","Trustworthy,Untrustworthy","instructions","1","6246","0.0-1.0","[{""page_index"":0,""viewing_time"":6236}]","6236","","","","","","","","","","","","","",""
"fullscreenexit","2","10251","fullscreenexit","6320e37620d067c7d322246a","bdp_rwlrn","Sat Apr 08 2023 11:07:17 GMT-0400 (Eastern Daylight Time)","504959","Trustworthy,Untrustworthy","","","","","","","","","","","","","","","","","","","",""
"","","","","6320e37620d067c7d322246a","bdp_rwlrn","Sat Apr 08 2023 11:07:17 GMT-0400 (Eastern Daylight Time)","504959","Trustworthy,Untrustworthy","fullscreen","2","11234","0.0-2.0","","","true","","","","","","","","","","","","",""
"","","","fullscreenfail","6320e37620d067c7d322246a","bdp_rwlrn","Sat Apr 08 2023 11:07:17 GMT-0400 (Eastern Daylight Time)","504959","Trustworthy,Untrustworthy","image-keyboard-response","3","14989","0.0-3.0-0.0","","3753","","","32","","","","","","","","","","",""
"","","","","6320e37620d067c7d322246a","bdp_rwlrn","Sat Apr 08 2023 11:07:17 GMT-0400 (Eastern Daylight Time)","504959","Trustworthy,Untrustworthy","instructions","4","117356","0.0-4.0","[{""page_index"":0,""viewing_time"":19280},{""page_index"":1,""viewing_time"":18725},{""page_index"":2,""viewing_time"":16034},{""page_index"":3,""viewing_time"":9589},{""page_index"":4,""viewing_time"":30331},{""page_index"":5,""viewing_time"":8157}]","102116","","","","","","","","","","","","","",""
"","","","","6320e37620d067c7d322246a","bdp_rwlrn","Sat Apr 08 2023 11:07:17 GMT-0400 (Eastern Daylight Time)","504959","Trustworthy,Untrustworthy","html-keyboard-response","5","124515","0.0-5.0","","7157","","<div class='header' style='text-align:left; position: absolute; top: 5%; left: 5%;'><small>Task 1 of 5</small></div><div class='instruxDiv'><p><strong>1) What is the maximum number of points you can choose to bet on a lottery?</strong></p><p>a) 0</p><p>b) 1</p><p>c) 5</p>","C","","","","","","","","","","",""
"","","","","6320e37620d067c7d322246a","bdp_rwlrn","Sat Apr 08 2023 11:07:17 GMT-0400 (Eastern Daylight Time)","504959","Trustworthy,Untrustworthy","html-keyboard-response","6","126530","0.0-6.0","","1913","","<div class='header' style='text-align:left; position: absolute; top: 5%; left: 5%;'><small>Task 1 of 5</small></div><div class='instruxDiv'><p><strong>1) What is the maximum number of points you can choose to bet on a lottery?</strong></p><p>a) 1</p><p>b) 1</p><p style='color:#00FF00'>c) 5</p><h3 style='color:#00FF00'>Correct!</h3><h3 class='center-content'>The correct response is c).</h3><h3 class='center-content'>The maximum number of points you can choose to bet on a lottery is 5 points.</h3><p><em>Press SPACEBAR to continue</em></p></div>"," ","","","","","","","","","","",""
"","","","","6320e37620d067c7d322246a","bdp_rwlrn","Sat Apr 08 2023 11:07:17 GMT-0400 (Eastern Daylight Time)","504959","Trustworthy,Untrustworthy","html-keyboard-response","7","133940","0.0-7.0","","7310","","<div class='header' style='text-align:left; position: absolute; top: 5%; left: 5%;'><small>Task 1 of 5</small></div><div class='instruxDiv'><p><strong>2) How many points can you win each round?</strong></p><p>a) 10 points</p><p>b) Double what you bet</p><p>c) Quadruple what you bet</p>","B","","","","","","","","","","",""
"","","","","6320e37620d067c7d322246a","bdp_rwlrn","Sat Apr 08 2023 11:07:17 GMT-0400 (Eastern Daylight Time)","504959","Trustworthy,Untrustworthy","html-keyboard-response","8","135304","0.0-8.0","","1264","","<div class='header' style='text-align:left; position: absolute; top: 5%; left: 5%;'><small>Task 1 of 5</small></div><div class='instruxDiv'><p><strong>2) How many points can you win each round?</strong></p><p>a) 10 points</p><p style='color:#00FF00'>b) Double what you bet</p><p>c) Quadruple what you bet</p><h3 style='color:#00FF00'>Correct!</h3><h3 class='center-content'>The correct response is b).</h3><h3 class='center-content'>You can win double the amount of points you bet.</h3><p><em>Press SPACEBAR to continue</em></p></div>"," ","","","","","","","","","","",""
"","","","","6320e37620d067c7d322246a","bdp_rwlrn","Sat Apr 08 2023 11:07:17 GMT-0400 (Eastern Daylight Time)","504959","Trustworthy,Untrustworthy","html-keyboard-response","9","140406","0.0-9.0","","null","","<div class='header' style='text-align:left; position: absolute; top: 5%; left: 5%;'><small>Task 1 of 5</small></div><div class='instruxDiv'><p>Thank you for completing the quiz<p>These are the actual lotteries you will be playing in the next block:<p><div class='tc' align='center'><img class='introPic' src='Fruit/cherrie.png'><br><strong>Cherry Chances</strong></div><div class='bl' align='center'><img class='introPic' src='Fruit/Kiwi.png'><br><strong>Kiwi Kash</strong></div><div class='br' align='center'><img class='introPic' src='Fruit/grapes.png'><br><strong>Great Grapes</strong></div></div><p>Across <strong>66 rounds</strong> you will play each lottery <strong>22 times</strong> (in random order).<p style='align:center; color:white'><font <em>Press SPACEBAR to continue</em></p>","null","","","","","","","","","","",""
"","","","","6320e37620d067c7d322246a","bdp_rwlrn","Sat Apr 08 2023 11:07:17 GMT-0400 (Eastern Daylight Time)","504959","Trustworthy,Untrustworthy","instructions","10","159859","0.0-10.0","[{""page_index"":0,""viewing_time"":16184},{""page_index"":1,""viewing_time"":3269}]","19453","","","","","","","","","","","","","",""
"","","","decision","6320e37620d067c7d322246a","bdp_rwlrn","Sat Apr 08 2023 11:07:17 GMT-0400 (Eastern Daylight Time)","504959","Trustworthy,Untrustworthy","html-keyboard-response","11","163138","0.0-11.0-1.0","","3176","","<div class='trialDiv'><img src='Fruit/grapes.png'><br><font class='baseline'><strong>Great Grapes</strong><p>Choose number of points to bet.</font><div class='respPicDiv'><img src='img/responseButtonOffersNo0L.png' class='respPic'></div></div>","3","1","Great Grapes","Fruit/grapes.png","Won","0.65,0.2","8","0.65","5","1","",""
"","","","decisionFB","6320e37620d067c7d322246a","bdp_rwlrn","Sat Apr 08 2023 11:07:17 GMT-0400 (Eastern Daylight Time)","504959","Trustworthy,Untrustworthy","html-keyboard-response","12","163389","0.0-11.0-2.0","","null","","<div class='trialDiv'><img src='Fruit/grapes.png'><br><font class='baseline'><strong>Great Grapes</strong><p>Choose number of points to bet.</font><div class='respPicDiv'><img src='img/responseButtonOffersNo0L3.png' class='respPic'></div></div>","null","1","Great Grapes","Fruit/grapes.png","Won","0.65,0.2","8","0.65","2","1","",""
"","","","feedback","6320e37620d067c7d322246a","bdp_rwlrn","Sat Apr 08 2023 11:07:17 GMT-0400 (Eastern Daylight Time)","504959","Trustworthy,Untrustworthy","html-keyboard-response","13","164390","0.0-11.0-3.0","","null","","<div class='respPicDiv'><img src='img/responseButtonOffersNo0_wht.png' class='respPic'></div><div class='trialDiv'><img src='Fruit/grapes.png'><br><font class='baseline'><strong>Great Grapes</strong><p><strong><font class='posOutcome'>You WON</font><p>You bet: 3</strong></font> &nbsp; &nbsp; &nbsp; &nbsp; &nbsp; &nbsp;<font class='posOutcome'>you receive: <strong>6</strong></font></div>","null","1","Great Grapes","Fruit/grapes.png","Won","0.65,0.2","8","0.65","8","1","",""
"","","","decision","6320e37620d067c7d322246a","bdp_rwlrn","Sat Apr 08 2023 11:07:17 GMT-0400 (Eastern Daylight Time)","504959","Trustworthy,Untrustworthy","html-keyboard-response","14","166141","0.0-11.0-1.1","","1751","","<div class='trialDiv'><img src='Fruit/Kiwi.png'><br><font class='baseline'><strong>Kiwi Kash</strong><p>Choose number of points to bet.</font><div class='respPicDiv'><img src='img/responseButtonOffersNo0L.png' class='respPic'></div></div>","3","1","Kiwi Kash","Fruit/Kiwi.png","Lost","0.2,0.8","13","0.2","13","2","",""
"","","","decisionFB","6320e37620d067c7d322246a","bdp_rwlrn","Sat Apr 08 2023 11:07:17 GMT-0400 (Eastern Daylight Time)","504959","Trustworthy,Untrustworthy","html-keyboard-response","15","166392","0.0-11.0-2.1","","null","","<div class='trialDiv'><img src='Fruit/Kiwi.png'><br><font class='baseline'><strong>Kiwi Kash</strong><p>Choose number of points to bet.</font><div class='respPicDiv'><img src='img/responseButtonOffersNo0L3.png' class='respPic'></div></div>","null","1","Kiwi Kash","Fruit/Kiwi.png","Lost","0.2,0.8","13","0.2","10","2","",""
"","","","feedback","6320e37620d067c7d322246a","bdp_rwlrn","Sat Apr 08 2023 11:07:17 GMT-0400 (Eastern Daylight Time)","504959","Trustworthy,Untrustworthy","html-keyboard-response","16","167392","0.0-11.0-3.1","","null","","<div class='respPicDiv'><img src='img/responseButtonOffersNo0_wht.png' class='respPic'></div><div class='trialDiv'><img src='Fruit/Kiwi.png'><br><font class='baseline'><strong>Kiwi Kash</strong><p><strong><font class='negOutcome'>You LOST</font><p>You bet: 3</strong></font> &nbsp; &nbsp; &nbsp; &nbsp; &nbsp; &nbsp;<font class='negOutcome'>You receive: <strong>0</strong></font></div>","null","1","Kiwi Kash","Fruit/Kiwi.png","Lost","0.2,0.8","13","0.2","10","2","",""
"","","","decision","6320e37620d067c7d322246a","bdp_rwlrn","Sat Apr 08 2023 11:07:17 GMT-0400 (Eastern Daylight Time)","504959","Trustworthy,Untrustworthy","html-keyboard-response","17","167433","0.0-11.0-1.2","","40","","<div class='trialDiv'><img src='Fruit/cherrie.png'><br><font class='baseline'><strong>Cherry Chances</strong><p>Choose number of points to bet.</font><div class='respPicDiv'><img src='img/responseButtonOffersNo0L.png' class='respPic'></div></div>","3","1","Cherry Chances","Fruit/cherrie.png","Won","0.35,0.8","10","0.35","15","3","",""
"","","","decisionFB","6320e37620d067c7d322246a","bdp_rwlrn","Sat Apr 08 2023 11:07:17 GMT-0400 (Eastern Daylight Time)","504959","Trustworthy,Untrustworthy","html-keyboard-response","18","167684","0.0-11.0-2.2","","null","","<div class='trialDiv'><img src='Fruit/cherrie.png'><br><font class='baseline'><strong>Cherry Chances</strong><p>Choose number of points to bet.</font><div class='respPicDiv'><img src='img/responseButtonOffersNo0L3.png' class='respPic'></div></div>","null","1","Cherry Chances","Fruit/cherrie.png","Won","0.35,0.8","10","0.35","12","3","",""
"","","","feedback","6320e37620d067c7d322246a","bdp_rwlrn","Sat Apr 08 2023 11:07:17 GMT-0400 (Eastern Daylight Time)","504959","Trustworthy,Untrustworthy","html-keyboard-response","19","168684","0.0-11.0-3.2","","null","","<div class='respPicDiv'><img src='img/responseButtonOffersNo0_wht.png' class='respPic'></div><div class='trialDiv'><img src='Fruit/cherrie.png'><br><font class='baseline'><strong>Cherry Chances</strong><p><strong><font class='posOutcome'>You WON</font><p>You bet: 3</strong></font> &nbsp; &nbsp; &nbsp; &nbsp; &nbsp; &nbsp;<font class='posOutcome'>you receive: <strong>6</strong></font></div>","null","1","Cherry Chances","Fruit/cherrie.png","Won","0.35,0.8","10","0.35","18","3","",""
"","","","decision","6320e37620d067c7d322246a","bdp_rwlrn","Sat Apr 08 2023 11:07:17 GMT-0400 (Eastern Daylight Time)","504959","Trustworthy,Untrustworthy","html-keyboard-response","20","169976","0.0-11.0-1.3","","1291","","<div class='trialDiv'><img src='Fruit/grapes.png'><br><font class='baseline'><strong>Great Grapes</strong><p>Choose number of points to bet.</font><div class='respPicDiv'><img src='img/responseButtonOffersNo0L.png' class='respPic'></div></div>","5","2","Great Grapes","Fruit/grapes.png","Lost","0.65,0.2","8","0.65","23","4","",""
"","","","decisionFB","6320e37620d067c7d322246a","bdp_rwlrn","Sat Apr 08 2023 11:07:17 GMT-0400 (Eastern Daylight Time)","504959","Trustworthy,Untrustworthy","html-keyboard-response","21","170227","0.0-11.0-2.3","","null","","<div class='trialDiv'><img src='Fruit/grapes.png'><br><font class='baseline'><strong>Great Grapes</strong><p>Choose number of points to bet.</font><div class='respPicDiv'><img src='img/responseButtonOffersNo0L5.png' class='respPic'></div></div>","null","2","Great Grapes","Fruit/grapes.png","Lost","0.65,0.2","8","0.65","18","4","",""
"","","","feedback","6320e37620d067c7d322246a","bdp_rwlrn","Sat Apr 08 2023 11:07:17 GMT-0400 (Eastern Daylight Time)","504959","Trustworthy,Untrustworthy","html-keyboard-response","22","171228","0.0-11.0-3.3","","null","","<div class='respPicDiv'><img src='img/responseButtonOffersNo0_wht.png' class='respPic'></div><div class='trialDiv'><img src='Fruit/grapes.png'><br><font class='baseline'><strong>Great Grapes</strong><p><strong><font class='negOutcome'>You LOST</font><p>You bet: 5</strong></font> &nbsp; &nbsp; &nbsp; &nbsp; &nbsp; &nbsp;<font class='negOutcome'>You receive: <strong>0</strong></font></div>","null","2","Great Grapes","Fruit/grapes.png","Lost","0.65,0.2","8","0.65","18","4","",""
"","","","decision","6320e37620d067c7d322246a","bdp_rwlrn","Sat Apr 08 2023 11:07:17 GMT-0400 (Eastern Daylight Time)","504959","Trustworthy,Untrustworthy","html-keyboard-response","23","171269","0.0-11.0-1.4","","41","","<div class='trialDiv'><img src='Fruit/Kiwi.png'><br><font class='baseline'><strong>Kiwi Kash</strong><p>Choose number of points to bet.</font><div class='respPicDiv'><img src='img/responseButtonOffersNo0L.png' class='respPic'></div></div>","5","2","Kiwi Kash","Fruit/Kiwi.png","Lost","0.2,0.8","13","0.2","23","5","",""
"","","","decisionFB","6320e37620d067c7d322246a","bdp_rwlrn","Sat Apr 08 2023 11:07:17 GMT-0400 (Eastern Daylight Time)","504959","Trustworthy,Untrustworthy","html-keyboard-response","24","171519","0.0-11.0-2.4","","null","","<div class='trialDiv'><img src='Fruit/Kiwi.png'><br><font class='baseline'><strong>Kiwi Kash</strong><p>Choose number of points to bet.</font><div class='respPicDiv'><img src='img/responseButtonOffersNo0L5.png' class='respPic'></div></div>","null","2","Kiwi Kash","Fruit/Kiwi.png","Lost","0.2,0.8","13","0.2","18","5","",""
"","","","feedback","6320e37620d067c7d322246a","bdp_rwlrn","Sat Apr 08 2023 11:07:17 GMT-0400 (Eastern Daylight Time)","504959","Trustworthy,Untrustworthy","html-keyboard-response","25","172521","0.0-11.0-3.4","","null","","<div class='respPicDiv'><img src='img/responseButtonOffersNo0_wht.png' class='respPic'></div><div class='trialDiv'><img src='Fruit/Kiwi.png'><br><font class='baseline'><strong>Kiwi Kash</strong><p><strong><font class='negOutcome'>You LOST</font><p>You bet: 5</strong></font> &nbsp; &nbsp; &nbsp; &nbsp; &nbsp; &nbsp;<font class='negOutcome'>You receive: <strong>0</strong></font></div>","null","2","Kiwi Kash","Fruit/Kiwi.png","Lost","0.2,0.8","13","0.2","18","5","",""
"","","","decision","6320e37620d067c7d322246a","bdp_rwlrn","Sat Apr 08 2023 11:07:17 GMT-0400 (Eastern Daylight Time)","504959","Trustworthy,Untrustworthy","html-keyboard-response","26","173450","0.0-11.0-1.5","","929","","<div class='trialDiv'><img src='Fruit/cherrie.png'><br><font class='baseline'><strong>Cherry Chances</strong><p>Choose number of points to bet.</font><div class='respPicDiv'><img src='img/responseButtonOffersNo0L.png' class='respPic'></div></div>","3","2","Cherry Chances","Fruit/cherrie.png","Lost","0.35,0.8","10","0.35","23","6","",""
"","","","decisionFB","6320e37620d067c7d322246a","bdp_rwlrn","Sat Apr 08 2023 11:07:17 GMT-0400 (Eastern Daylight Time)","504959","Trustworthy,Untrustworthy","html-keyboard-response","27","173701","0.0-11.0-2.5","","null","","<div class='trialDiv'><img src='Fruit/cherrie.png'><br><font class='baseline'><strong>Cherry Chances</strong><p>Choose number of points to bet.</font><div class='respPicDiv'><img src='img/responseButtonOffersNo0L3.png' class='respPic'></div></div>","null","2","Cherry Chances","Fruit/cherrie.png","Lost","0.35,0.8","10","0.35","20","6","",""
"","","","feedback","6320e37620d067c7d322246a","bdp_rwlrn","Sat Apr 08 2023 11:07:17 GMT-0400 (Eastern Daylight Time)","504959","Trustworthy,Untrustworthy","html-keyboard-response","28","174701","0.0-11.0-3.5","","null","","<div class='respPicDiv'><img src='img/responseButtonOffersNo0_wht.png' class='respPic'></div><div class='trialDiv'><img src='Fruit/cherrie.png'><br><font class='baseline'><strong>Cherry Chances</strong><p><strong><font class='negOutcome'>You LOST</font><p>You bet: 3</strong></font> &nbsp; &nbsp; &nbsp; &nbsp; &nbsp; &nbsp;<font class='negOutcome'>You receive: <strong>0</strong></font></div>","null","2","Cherry Chances","Fruit/cherrie.png","Lost","0.35,0.8","10","0.35","20","6","",""
"","","","decision","6320e37620d067c7d322246a","bdp_rwlrn","Sat Apr 08 2023 11:07:17 GMT-0400 (Eastern Daylight Time)","504959","Trustworthy,Untrustworthy","html-keyboard-response","29","177380","0.0-11.0-1.6","","2679","","<div class='trialDiv'><img src='Fruit/grapes.png'><br><font class='baseline'><strong>Great Grapes</strong><p>Choose number of points to bet.</font><div class='respPicDiv'><img src='img/responseButtonOffersNo0L.png' class='respPic'></div></div>","5","3","Great Grapes","Fruit/grapes.png","Lost","0.65,0.2","8","0.65","25","7","",""
"","","","decisionFB","6320e37620d067c7d322246a","bdp_rwlrn","Sat Apr 08 2023 11:07:17 GMT-0400 (Eastern Daylight Time)","504959","Trustworthy,Untrustworthy","html-keyboard-response","30","177631","0.0-11.0-2.6","","null","","<div class='trialDiv'><img src='Fruit/grapes.png'><br><font class='baseline'><strong>Great Grapes</strong><p>Choose number of points to bet.</font><div class='respPicDiv'><img src='img/responseButtonOffersNo0L5.png' class='respPic'></div></div>","null","3","Great Grapes","Fruit/grapes.png","Lost","0.65,0.2","8","0.65","20","7","",""
"","","","feedback","6320e37620d067c7d322246a","bdp_rwlrn","Sat Apr 08 2023 11:07:17 GMT-0400 (Eastern Daylight Time)","504959","Trustworthy,Untrustworthy","html-keyboard-response","31","178631","0.0-11.0-3.6","","null","","<div class='respPicDiv'><img src='img/responseButtonOffersNo0_wht.png' class='respPic'></div><div class='trialDiv'><img src='Fruit/grapes.png'><br><font class='baseline'><strong>Great Grapes</strong><p><strong><font class='negOutcome'>You LOST</font><p>You bet: 5</strong></font> &nbsp; &nbsp; &nbsp; &nbsp; &nbsp; &nbsp;<font class='negOutcome'>You receive: <strong>0</strong></font></div>","null","3","Great Grapes","Fruit/grapes.png","Lost","0.65,0.2","8","0.65","20","7","",""
"","","","decision","6320e37620d067c7d322246a","bdp_rwlrn","Sat Apr 08 2023 11:07:17 GMT-0400 (Eastern Daylight Time)","504959","Trustworthy,Untrustworthy","html-keyboard-response","32","179502","0.0-11.0-1.7","","870","","<div class='trialDiv'><img src='Fruit/cherrie.png'><br><font class='baseline'><strong>Cherry Chances</strong><p>Choose number of points to bet.</font><div class='respPicDiv'><img src='img/responseButtonOffersNo0L.png' class='respPic'></div></div>","3","3","Cherry Chances","Fruit/cherrie.png","Lost","0.35,0.8","10","0.35","25","8","",""
"","","","decisionFB","6320e37620d067c7d322246a","bdp_rwlrn","Sat Apr 08 2023 11:07:17 GMT-0400 (Eastern Daylight Time)","504959","Trustworthy,Untrustworthy","html-keyboard-response","33","179753","0.0-11.0-2.7","","null","","<div class='trialDiv'><img src='Fruit/cherrie.png'><br><font class='baseline'><strong>Cherry Chances</strong><p>Choose number of points to bet.</font><div class='respPicDiv'><img src='img/responseButtonOffersNo0L3.png' class='respPic'></div></div>","null","3","Cherry Chances","Fruit/cherrie.png","Lost","0.35,0.8","10","0.35","22","8","",""
"","","","feedback","6320e37620d067c7d322246a","bdp_rwlrn","Sat Apr 08 2023 11:07:17 GMT-0400 (Eastern Daylight Time)","504959","Trustworthy,Untrustworthy","html-keyboard-response","34","180753","0.0-11.0-3.7","","null","","<div class='respPicDiv'><img src='img/responseButtonOffersNo0_wht.png' class='respPic'></div><div class='trialDiv'><img src='Fruit/cherrie.png'><br><font class='baseline'><strong>Cherry Chances</strong><p><strong><font class='negOutcome'>You LOST</font><p>You bet: 3</strong></font> &nbsp; &nbsp; &nbsp; &nbsp; &nbsp; &nbsp;<font class='negOutcome'>You receive: <strong>0</strong></font></div>","null","3","Cherry Chances","Fruit/cherrie.png","Lost","0.35,0.8","10","0.35","22","8","",""
"","","","decision","6320e37620d067c7d322246a","bdp_rwlrn","Sat Apr 08 2023 11:07:17 GMT-0400 (Eastern Daylight Time)","504959","Trustworthy,Untrustworthy","html-keyboard-response","35","182444","0.0-11.0-1.8","","1690","","<div class='trialDiv'><img src='Fruit/Kiwi.png'><br><font class='baseline'><strong>Kiwi Kash</strong><p>Choose number of points to bet.</font><div class='respPicDiv'><img src='img/responseButtonOffersNo0L.png' class='respPic'></div></div>","5","3","Kiwi Kash","Fruit/Kiwi.png","Won","0.2,0.8","13","0.2","27","9","",""
"","","","decisionFB","6320e37620d067c7d322246a","bdp_rwlrn","Sat Apr 08 2023 11:07:17 GMT-0400 (Eastern Daylight Time)","504959","Trustworthy,Untrustworthy","html-keyboard-response","36","182694","0.0-11.0-2.8","","null","","<div class='trialDiv'><img src='Fruit/Kiwi.png'><br><font class='baseline'><strong>Kiwi Kash</strong><p>Choose number of points to bet.</font><div class='respPicDiv'><img src='img/responseButtonOffersNo0L5.png' class='respPic'></div></div>","null","3","Kiwi Kash","Fruit/Kiwi.png","Won","0.2,0.8","13","0.2","22","9","",""
"","","","feedback","6320e37620d067c7d322246a","bdp_rwlrn","Sat Apr 08 2023 11:07:17 GMT-0400 (Eastern Daylight Time)","504959","Trustworthy,Untrustworthy","html-keyboard-response","37","183696","0.0-11.0-3.8","","null","","<div class='respPicDiv'><img src='img/responseButtonOffersNo0_wht.png' class='respPic'></div><div class='trialDiv'><img src='Fruit/Kiwi.png'><br><font class='baseline'><strong>Kiwi Kash</strong><p><strong><font class='posOutcome'>You WON</font><p>You bet: 5</strong></font> &nbsp; &nbsp; &nbsp; &nbsp; &nbsp; &nbsp;<font class='posOutcome'>you receive: <strong>10</strong></font></div>","null","3","Kiwi Kash","Fruit/Kiwi.png","Won","0.2,0.8","13","0.2","32","9","",""
"","","","decision","6320e37620d067c7d322246a","bdp_rwlrn","Sat Apr 08 2023 11:07:17 GMT-0400 (Eastern Daylight Time)","504959","Trustworthy,Untrustworthy","html-keyboard-response","38","184585","0.0-11.0-1.9","","889","","<div class='trialDiv'><img src='Fruit/grapes.png'><br><font class='baseline'><strong>Great Grapes</strong><p>Choose number of points to bet.</font><div class='respPicDiv'><img src='img/responseButtonOffersNo0L.png' class='respPic'></div></div>","1","4","Great Grapes","Fruit/grapes.png","Lost","0.65,0.2","8","0.65","37","10","",""
"","","","decisionFB","6320e37620d067c7d322246a","bdp_rwlrn","Sat Apr 08 2023 11:07:17 GMT-0400 (Eastern Daylight Time)","504959","Trustworthy,Untrustworthy","html-keyboard-response","39","184836","0.0-11.0-2.9","","null","","<div class='trialDiv'><img src='Fruit/grapes.png'><br><font class='baseline'><strong>Great Grapes</strong><p>Choose number of points to bet.</font><div class='respPicDiv'><img src='img/responseButtonOffersNo0L1.png' class='respPic'></div></div>","null","4","Great Grapes","Fruit/grapes.png","Lost","0.65,0.2","8","0.65","36","10","",""
"","","","feedback","6320e37620d067c7d322246a","bdp_rwlrn","Sat Apr 08 2023 11:07:17 GMT-0400 (Eastern Daylight Time)","504959","Trustworthy,Untrustworthy","html-keyboard-response","40","185837","0.0-11.0-3.9","","null","","<div class='respPicDiv'><img src='img/responseButtonOffersNo0_wht.png' class='respPic'></div><div class='trialDiv'><img src='Fruit/grapes.png'><br><font class='baseline'><strong>Great Grapes</strong><p><strong><font class='negOutcome'>You LOST</font><p>You bet: 1</strong></font> &nbsp; &nbsp; &nbsp; &nbsp; &nbsp; &nbsp;<font class='negOutcome'>You receive: <strong>0</strong></font></div>","null","4","Great Grapes","Fruit/grapes.png","Lost","0.65,0.2","8","0.65","36","10","",""
"","","","decision","6320e37620d067c7d322246a","bdp_rwlrn","Sat Apr 08 2023 11:07:17 GMT-0400 (Eastern Daylight Time)","504959","Trustworthy,Untrustworthy","html-keyboard-response","41","186289","0.0-11.0-1.10","","452","","<div class='trialDiv'><img src='Fruit/Kiwi.png'><br><font class='baseline'><strong>Kiwi Kash</strong><p>Choose number of points to bet.</font><div class='respPicDiv'><img src='img/responseButtonOffersNo0L.png' class='respPic'></div></div>","1","4","Kiwi Kash","Fruit/Kiwi.png","Won","0.2,0.8","13","0.2","41","11","",""
"","","","decisionFB","6320e37620d067c7d322246a","bdp_rwlrn","Sat Apr 08 2023 11:07:17 GMT-0400 (Eastern Daylight Time)","504959","Trustworthy,Untrustworthy","html-keyboard-response","42","186540","0.0-11.0-2.10","","null","","<div class='trialDiv'><img src='Fruit/Kiwi.png'><br><font class='baseline'><strong>Kiwi Kash</strong><p>Choose number of points to bet.</font><div class='respPicDiv'><img src='img/responseButtonOffersNo0L1.png' class='respPic'></div></div>","null","4","Kiwi Kash","Fruit/Kiwi.png","Won","0.2,0.8","13","0.2","40","11","",""
"","","","feedback","6320e37620d067c7d322246a","bdp_rwlrn","Sat Apr 08 2023 11:07:17 GMT-0400 (Eastern Daylight Time)","504959","Trustworthy,Untrustworthy","html-keyboard-response","43","187541","0.0-11.0-3.10","","null","","<div class='respPicDiv'><img src='img/responseButtonOffersNo0_wht.png' class='respPic'></div><div class='trialDiv'><img src='Fruit/Kiwi.png'><br><font class='baseline'><strong>Kiwi Kash</strong><p><strong><font class='posOutcome'>You WON</font><p>You bet: 1</strong></font> &nbsp; &nbsp; &nbsp; &nbsp; &nbsp; &nbsp;<font class='posOutcome'>you receive: <strong>2</strong></font></div>","null","4","Kiwi Kash","Fruit/Kiwi.png","Won","0.2,0.8","13","0.2","42","11","",""
"","","","decision","6320e37620d067c7d322246a","bdp_rwlrn","Sat Apr 08 2023 11:07:17 GMT-0400 (Eastern Daylight Time)","504959","Trustworthy,Untrustworthy","html-keyboard-response","44","188912","0.0-11.0-1.11","","1371","","<div class='trialDiv'><img src='Fruit/cherrie.png'><br><font class='baseline'><strong>Cherry Chances</strong><p>Choose number of points to bet.</font><div class='respPicDiv'><img src='img/responseButtonOffersNo0L.png' class='respPic'></div></div>","1","4","Cherry Chances","Fruit/cherrie.png","Lost","0.35,0.8","10","0.35","47","12","",""
"","","","decisionFB","6320e37620d067c7d322246a","bdp_rwlrn","Sat Apr 08 2023 11:07:17 GMT-0400 (Eastern Daylight Time)","504959","Trustworthy,Untrustworthy","html-keyboard-response","45","189163","0.0-11.0-2.11","","null","","<div class='trialDiv'><img src='Fruit/cherrie.png'><br><font class='baseline'><strong>Cherry Chances</strong><p>Choose number of points to bet.</font><div class='respPicDiv'><img src='img/responseButtonOffersNo0L1.png' class='respPic'></div></div>","null","4","Cherry Chances","Fruit/cherrie.png","Lost","0.35,0.8","10","0.35","46","12","",""
"","","","feedback","6320e37620d067c7d322246a","bdp_rwlrn","Sat Apr 08 2023 11:07:17 GMT-0400 (Eastern Daylight Time)","504959","Trustworthy,Untrustworthy","html-keyboard-response","46","190163","0.0-11.0-3.11","","null","","<div class='respPicDiv'><img src='img/responseButtonOffersNo0_wht.png' class='respPic'></div><div class='trialDiv'><img src='Fruit/cherrie.png'><br><font class='baseline'><strong>Cherry Chances</strong><p><strong><font class='negOutcome'>You LOST</font><p>You bet: 1</strong></font> &nbsp; &nbsp; &nbsp; &nbsp; &nbsp; &nbsp;<font class='negOutcome'>You receive: <strong>0</strong></font></div>","null","4","Cherry Chances","Fruit/cherrie.png","Lost","0.35,0.8","10","0.35","46","12","",""
"","","","decision","6320e37620d067c7d322246a","bdp_rwlrn","Sat Apr 08 2023 11:07:17 GMT-0400 (Eastern Daylight Time)","504959","Trustworthy,Untrustworthy","html-keyboard-response","47","191077","0.0-11.0-1.12","","914","","<div class='trialDiv'><img src='Fruit/Kiwi.png'><br><font class='baseline'><strong>Kiwi Kash</strong><p>Choose number of points to bet.</font><div class='respPicDiv'><img src='img/responseButtonOffersNo0L.png' class='respPic'></div></div>","1","5","Kiwi Kash","Fruit/Kiwi.png","Lost","0.2,0.8","13","0.2","51","13","",""
"","","","decisionFB","6320e37620d067c7d322246a","bdp_rwlrn","Sat Apr 08 2023 11:07:17 GMT-0400 (Eastern Daylight Time)","504959","Trustworthy,Untrustworthy","html-keyboard-response","48","191328","0.0-11.0-2.12","","null","","<div class='trialDiv'><img src='Fruit/Kiwi.png'><br><font class='baseline'><strong>Kiwi Kash</strong><p>Choose number of points to bet.</font><div class='respPicDiv'><img src='img/responseButtonOffersNo0L1.png' class='respPic'></div></div>","null","5","Kiwi Kash","Fruit/Kiwi.png","Lost","0.2,0.8","13","0.2","50","13","",""
"","","","feedback","6320e37620d067c7d322246a","bdp_rwlrn","Sat Apr 08 2023 11:07:17 GMT-0400 (Eastern Daylight Time)","504959","Trustworthy,Untrustworthy","html-keyboard-response","49","192329","0.0-11.0-3.12","","null","","<div class='respPicDiv'><img src='img/responseButtonOffersNo0_wht.png' class='respPic'></div><div class='trialDiv'><img src='Fruit/Kiwi.png'><br><font class='baseline'><strong>Kiwi Kash</strong><p><strong><font class='negOutcome'>You LOST</font><p>You bet: 1</strong></font> &nbsp; &nbsp; &nbsp; &nbsp; &nbsp; &nbsp;<font class='negOutcome'>You receive: <strong>0</strong></font></div>","null","5","Kiwi Kash","Fruit/Kiwi.png","Lost","0.2,0.8","13","0.2","50","13","",""
"","","","decision","6320e37620d067c7d322246a","bdp_rwlrn","Sat Apr 08 2023 11:07:17 GMT-0400 (Eastern Daylight Time)","504959","Trustworthy,Untrustworthy","html-keyboard-response","50","193002","0.0-11.0-1.13","","673","","<div class='trialDiv'><img src='Fruit/grapes.png'><br><font class='baseline'><strong>Great Grapes</strong><p>Choose number of points to bet.</font><div class='respPicDiv'><img src='img/responseButtonOffersNo0L.png' class='respPic'></div></div>","5","5","Great Grapes","Fruit/grapes.png","Won","0.65,0.2","8","0.65","55","14","",""
"","","","decisionFB","6320e37620d067c7d322246a","bdp_rwlrn","Sat Apr 08 2023 11:07:17 GMT-0400 (Eastern Daylight Time)","504959","Trustworthy,Untrustworthy","html-keyboard-response","51","193253","0.0-11.0-2.13","","null","","<div class='trialDiv'><img src='Fruit/grapes.png'><br><font class='baseline'><strong>Great Grapes</strong><p>Choose number of points to bet.</font><div class='respPicDiv'><img src='img/responseButtonOffersNo0L5.png' class='respPic'></div></div>","null","5","Great Grapes","Fruit/grapes.png","Won","0.65,0.2","8","0.65","50","14","",""
"","","","feedback","6320e37620d067c7d322246a","bdp_rwlrn","Sat Apr 08 2023 11:07:17 GMT-0400 (Eastern Daylight Time)","504959","Trustworthy,Untrustworthy","html-keyboard-response","52","194253","0.0-11.0-3.13","","null","","<div class='respPicDiv'><img src='img/responseButtonOffersNo0_wht.png' class='respPic'></div><div class='trialDiv'><img src='Fruit/grapes.png'><br><font class='baseline'><strong>Great Grapes</strong><p><strong><font class='posOutcome'>You WON</font><p>You bet: 5</strong></font> &nbsp; &nbsp; &nbsp; &nbsp; &nbsp; &nbsp;<font class='posOutcome'>you receive: <strong>10</strong></font></div>","null","5","Great Grapes","Fruit/grapes.png","Won","0.65,0.2","8","0.65","60","14","",""
"","","","decision","6320e37620d067c7d322246a","bdp_rwlrn","Sat Apr 08 2023 11:07:17 GMT-0400 (Eastern Daylight Time)","504959","Trustworthy,Untrustworthy","html-keyboard-response","53","195178","0.0-11.0-1.14","","925","","<div class='trialDiv'><img src='Fruit/cherrie.png'><br><font class='baseline'><strong>Cherry Chances</strong><p>Choose number of points to bet.</font><div class='respPicDiv'><img src='img/responseButtonOffersNo0L.png' class='respPic'></div></div>","1","5","Cherry Chances","Fruit/cherrie.png","Won","0.35,0.8","10","0.35","65","15","",""
"","","","decisionFB","6320e37620d067c7d322246a","bdp_rwlrn","Sat Apr 08 2023 11:07:17 GMT-0400 (Eastern Daylight Time)","504959","Trustworthy,Untrustworthy","html-keyboard-response","54","195429","0.0-11.0-2.14","","null","","<div class='trialDiv'><img src='Fruit/cherrie.png'><br><font class='baseline'><strong>Cherry Chances</strong><p>Choose number of points to bet.</font><div class='respPicDiv'><img src='img/responseButtonOffersNo0L1.png' class='respPic'></div></div>","null","5","Cherry Chances","Fruit/cherrie.png","Won","0.35,0.8","10","0.35","64","15","",""
"","","","feedback","6320e37620d067c7d322246a","bdp_rwlrn","Sat Apr 08 2023 11:07:17 GMT-0400 (Eastern Daylight Time)","504959","Trustworthy,Untrustworthy","html-keyboard-response","55","196430","0.0-11.0-3.14","","null","","<div class='respPicDiv'><img src='img/responseButtonOffersNo0_wht.png' class='respPic'></div><div class='trialDiv'><img src='Fruit/cherrie.png'><br><font class='baseline'><strong>Cherry Chances</strong><p><strong><font class='posOutcome'>You WON</font><p>You bet: 1</strong></font> &nbsp; &nbsp; &nbsp; &nbsp; &nbsp; &nbsp;<font class='posOutcome'>you receive: <strong>2</strong></font></div>","null","5","Cherry Chances","Fruit/cherrie.png","Won","0.35,0.8","10","0.35","66","15","",""
"","","","decision","6320e37620d067c7d322246a","bdp_rwlrn","Sat Apr 08 2023 11:07:17 GMT-0400 (Eastern Daylight Time)","504959","Trustworthy,Untrustworthy","html-keyboard-response","56","197149","0.0-11.0-1.15","","718","","<div class='trialDiv'><img src='Fruit/grapes.png'><br><font class='baseline'><strong>Great Grapes</strong><p>Choose number of points to bet.</font><div class='respPicDiv'><img src='img/responseButtonOffersNo0L.png' class='respPic'></div></div>","5","6","Great Grapes","Fruit/grapes.png","Won","0.65,0.2","8","0.65","71","16","",""
"","","","decisionFB","6320e37620d067c7d322246a","bdp_rwlrn","Sat Apr 08 2023 11:07:17 GMT-0400 (Eastern Daylight Time)","504959","Trustworthy,Untrustworthy","html-keyboard-response","57","197399","0.0-11.0-2.15","","null","","<div class='trialDiv'><img src='Fruit/grapes.png'><br><font class='baseline'><strong>Great Grapes</strong><p>Choose number of points to bet.</font><div class='respPicDiv'><img src='img/responseButtonOffersNo0L5.png' class='respPic'></div></div>","null","6","Great Grapes","Fruit/grapes.png","Won","0.65,0.2","8","0.65","66","16","",""
"","","","feedback","6320e37620d067c7d322246a","bdp_rwlrn","Sat Apr 08 2023 11:07:17 GMT-0400 (Eastern Daylight Time)","504959","Trustworthy,Untrustworthy","html-keyboard-response","58","198400","0.0-11.0-3.15","","null","","<div class='respPicDiv'><img src='img/responseButtonOffersNo0_wht.png' class='respPic'></div><div class='trialDiv'><img src='Fruit/grapes.png'><br><font class='baseline'><strong>Great Grapes</strong><p><strong><font class='posOutcome'>You WON</font><p>You bet: 5</strong></font> &nbsp; &nbsp; &nbsp; &nbsp; &nbsp; &nbsp;<font class='posOutcome'>you receive: <strong>10</strong></font></div>","null","6","Great Grapes","Fruit/grapes.png","Won","0.65,0.2","8","0.65","76","16","",""
"","","","decision","6320e37620d067c7d322246a","bdp_rwlrn","Sat Apr 08 2023 11:07:17 GMT-0400 (Eastern Daylight Time)","504959","Trustworthy,Untrustworthy","html-keyboard-response","59","199154","0.0-11.0-1.16","","754","","<div class='trialDiv'><img src='Fruit/Kiwi.png'><br><font class='baseline'><strong>Kiwi Kash</strong><p>Choose number of points to bet.</font><div class='respPicDiv'><img src='img/responseButtonOffersNo0L.png' class='respPic'></div></div>","1","6","Kiwi Kash","Fruit/Kiwi.png","Won","0.2,0.8","13","0.2","81","17","",""
"","","","decisionFB","6320e37620d067c7d322246a","bdp_rwlrn","Sat Apr 08 2023 11:07:17 GMT-0400 (Eastern Daylight Time)","504959","Trustworthy,Untrustworthy","html-keyboard-response","60","199405","0.0-11.0-2.16","","null","","<div class='trialDiv'><img src='Fruit/Kiwi.png'><br><font class='baseline'><strong>Kiwi Kash</strong><p>Choose number of points to bet.</font><div class='respPicDiv'><img src='img/responseButtonOffersNo0L1.png' class='respPic'></div></div>","null","6","Kiwi Kash","Fruit/Kiwi.png","Won","0.2,0.8","13","0.2","80","17","",""
"","","","feedback","6320e37620d067c7d322246a","bdp_rwlrn","Sat Apr 08 2023 11:07:17 GMT-0400 (Eastern Daylight Time)","504959","Trustworthy,Untrustworthy","html-keyboard-response","61","200406","0.0-11.0-3.16","","null","","<div class='respPicDiv'><img src='img/responseButtonOffersNo0_wht.png' class='respPic'></div><div class='trialDiv'><img src='Fruit/Kiwi.png'><br><font class='baseline'><strong>Kiwi Kash</strong><p><strong><font class='posOutcome'>You WON</font><p>You bet: 1</strong></font> &nbsp; &nbsp; &nbsp; &nbsp; &nbsp; &nbsp;<font class='posOutcome'>you receive: <strong>2</strong></font></div>","null","6","Kiwi Kash","Fruit/Kiwi.png","Won","0.2,0.8","13","0.2","82","17","",""
"","","","decision","6320e37620d067c7d322246a","bdp_rwlrn","Sat Apr 08 2023 11:07:17 GMT-0400 (Eastern Daylight Time)","504959","Trustworthy,Untrustworthy","html-keyboard-response","62","201384","0.0-11.0-1.17","","978","","<div class='trialDiv'><img src='Fruit/cherrie.png'><br><font class='baseline'><strong>Cherry Chances</strong><p>Choose number of points to bet.</font><div class='respPicDiv'><img src='img/responseButtonOffersNo0L.png' class='respPic'></div></div>","1","6","Cherry Chances","Fruit/cherrie.png","Won","0.35,0.8","10","0.35","87","18","",""
"","","","decisionFB","6320e37620d067c7d322246a","bdp_rwlrn","Sat Apr 08 2023 11:07:17 GMT-0400 (Eastern Daylight Time)","504959","Trustworthy,Untrustworthy","html-keyboard-response","63","201635","0.0-11.0-2.17","","null","","<div class='trialDiv'><img src='Fruit/cherrie.png'><br><font class='baseline'><strong>Cherry Chances</strong><p>Choose number of points to bet.</font><div class='respPicDiv'><img src='img/responseButtonOffersNo0L1.png' class='respPic'></div></div>","null","6","Cherry Chances","Fruit/cherrie.png","Won","0.35,0.8","10","0.35","86","18","",""
"","","","feedback","6320e37620d067c7d322246a","bdp_rwlrn","Sat Apr 08 2023 11:07:17 GMT-0400 (Eastern Daylight Time)","504959","Trustworthy,Untrustworthy","html-keyboard-response","64","202635","0.0-11.0-3.17","","null","","<div class='respPicDiv'><img src='img/responseButtonOffersNo0_wht.png' class='respPic'></div><div class='trialDiv'><img src='Fruit/cherrie.png'><br><font class='baseline'><strong>Cherry Chances</strong><p><strong><font class='posOutcome'>You WON</font><p>You bet: 1</strong></font> &nbsp; &nbsp; &nbsp; &nbsp; &nbsp; &nbsp;<font class='posOutcome'>you receive: <strong>2</strong></font></div>","null","6","Cherry Chances","Fruit/cherrie.png","Won","0.35,0.8","10","0.35","88","18","",""
"","","","decision","6320e37620d067c7d322246a","bdp_rwlrn","Sat Apr 08 2023 11:07:17 GMT-0400 (Eastern Daylight Time)","504959","Trustworthy,Untrustworthy","html-keyboard-response","65","203020","0.0-11.0-1.18","","383","","<div class='trialDiv'><img src='Fruit/Kiwi.png'><br><font class='baseline'><strong>Kiwi Kash</strong><p>Choose number of points to bet.</font><div class='respPicDiv'><img src='img/responseButtonOffersNo0L.png' class='respPic'></div></div>","5","7","Kiwi Kash","Fruit/Kiwi.png","Lost","0.2,0.8","13","0.2","93","19","",""
"","","","decisionFB","6320e37620d067c7d322246a","bdp_rwlrn","Sat Apr 08 2023 11:07:17 GMT-0400 (Eastern Daylight Time)","504959","Trustworthy,Untrustworthy","html-keyboard-response","66","203271","0.0-11.0-2.18","","null","","<div class='trialDiv'><img src='Fruit/Kiwi.png'><br><font class='baseline'><strong>Kiwi Kash</strong><p>Choose number of points to bet.</font><div class='respPicDiv'><img src='img/responseButtonOffersNo0L5.png' class='respPic'></div></div>","null","7","Kiwi Kash","Fruit/Kiwi.png","Lost","0.2,0.8","13","0.2","88","19","",""
"","","","feedback","6320e37620d067c7d322246a","bdp_rwlrn","Sat Apr 08 2023 11:07:17 GMT-0400 (Eastern Daylight Time)","504959","Trustworthy,Untrustworthy","html-keyboard-response","67","204272","0.0-11.0-3.18","","null","","<div class='respPicDiv'><img src='img/responseButtonOffersNo0_wht.png' class='respPic'></div><div class='trialDiv'><img src='Fruit/Kiwi.png'><br><font class='baseline'><strong>Kiwi Kash</strong><p><strong><font class='negOutcome'>You LOST</font><p>You bet: 5</strong></font> &nbsp; &nbsp; &nbsp; &nbsp; &nbsp; &nbsp;<font class='negOutcome'>You receive: <strong>0</strong></font></div>","null","7","Kiwi Kash","Fruit/Kiwi.png","Lost","0.2,0.8","13","0.2","88","19","",""
"","","","decision","6320e37620d067c7d322246a","bdp_rwlrn","Sat Apr 08 2023 11:07:17 GMT-0400 (Eastern Daylight Time)","504959","Trustworthy,Untrustworthy","html-keyboard-response","68","205169","0.0-11.0-1.19","","897","","<div class='trialDiv'><img src='Fruit/grapes.png'><br><font class='baseline'><strong>Great Grapes</strong><p>Choose number of points to bet.</font><div class='respPicDiv'><img src='img/responseButtonOffersNo0L.png' class='respPic'></div></div>","1","7","Great Grapes","Fruit/grapes.png","Lost","0.65,0.2","8","0.65","93","20","",""
"","","","decisionFB","6320e37620d067c7d322246a","bdp_rwlrn","Sat Apr 08 2023 11:07:17 GMT-0400 (Eastern Daylight Time)","504959","Trustworthy,Untrustworthy","html-keyboard-response","69","205420","0.0-11.0-2.19","","null","","<div class='trialDiv'><img src='Fruit/grapes.png'><br><font class='baseline'><strong>Great Grapes</strong><p>Choose number of points to bet.</font><div class='respPicDiv'><img src='img/responseButtonOffersNo0L1.png' class='respPic'></div></div>","null","7","Great Grapes","Fruit/grapes.png","Lost","0.65,0.2","8","0.65","92","20","",""
"","","","feedback","6320e37620d067c7d322246a","bdp_rwlrn","Sat Apr 08 2023 11:07:17 GMT-0400 (Eastern Daylight Time)","504959","Trustworthy,Untrustworthy","html-keyboard-response","70","206421","0.0-11.0-3.19","","null","","<div class='respPicDiv'><img src='img/responseButtonOffersNo0_wht.png' class='respPic'></div><div class='trialDiv'><img src='Fruit/grapes.png'><br><font class='baseline'><strong>Great Grapes</strong><p><strong><font class='negOutcome'>You LOST</font><p>You bet: 1</strong></font> &nbsp; &nbsp; &nbsp; &nbsp; &nbsp; &nbsp;<font class='negOutcome'>You receive: <strong>0</strong></font></div>","null","7","Great Grapes","Fruit/grapes.png","Lost","0.65,0.2","8","0.65","92","20","",""
"","","","decision","6320e37620d067c7d322246a","bdp_rwlrn","Sat Apr 08 2023 11:07:17 GMT-0400 (Eastern Daylight Time)","504959","Trustworthy,Untrustworthy","html-keyboard-response","71","206619","0.0-11.0-1.20","","198","","<div class='trialDiv'><img src='Fruit/cherrie.png'><br><font class='baseline'><strong>Cherry Chances</strong><p>Choose number of points to bet.</font><div class='respPicDiv'><img src='img/responseButtonOffersNo0L.png' class='respPic'></div></div>","1","7","Cherry Chances","Fruit/cherrie.png","Won","0.35,0.8","10","0.35","97","21","",""
"","","","decisionFB","6320e37620d067c7d322246a","bdp_rwlrn","Sat Apr 08 2023 11:07:17 GMT-0400 (Eastern Daylight Time)","504959","Trustworthy,Untrustworthy","html-keyboard-response","72","206870","0.0-11.0-2.20","","null","","<div class='trialDiv'><img src='Fruit/cherrie.png'><br><font class='baseline'><strong>Cherry Chances</strong><p>Choose number of points to bet.</font><div class='respPicDiv'><img src='img/responseButtonOffersNo0L1.png' class='respPic'></div></div>","null","7","Cherry Chances","Fruit/cherrie.png","Won","0.35,0.8","10","0.35","96","21","",""
"","","","feedback","6320e37620d067c7d322246a","bdp_rwlrn","Sat Apr 08 2023 11:07:17 GMT-0400 (Eastern Daylight Time)","504959","Trustworthy,Untrustworthy","html-keyboard-response","73","207870","0.0-11.0-3.20","","null","","<div class='respPicDiv'><img src='img/responseButtonOffersNo0_wht.png' class='respPic'></div><div class='trialDiv'><img src='Fruit/cherrie.png'><br><font class='baseline'><strong>Cherry Chances</strong><p><strong><font class='posOutcome'>You WON</font><p>You bet: 1</strong></font> &nbsp; &nbsp; &nbsp; &nbsp; &nbsp; &nbsp;<font class='posOutcome'>you receive: <strong>2</strong></font></div>","null","7","Cherry Chances","Fruit/cherrie.png","Won","0.35,0.8","10","0.35","98","21","",""
"","","","decision","6320e37620d067c7d322246a","bdp_rwlrn","Sat Apr 08 2023 11:07:17 GMT-0400 (Eastern Daylight Time)","504959","Trustworthy,Untrustworthy","html-keyboard-response","74","208704","0.0-11.0-1.21","","834","","<div class='trialDiv'><img src='Fruit/Kiwi.png'><br><font class='baseline'><strong>Kiwi Kash</strong><p>Choose number of points to bet.</font><div class='respPicDiv'><img src='img/responseButtonOffersNo0L.png' class='respPic'></div></div>","5","8","Kiwi Kash","Fruit/Kiwi.png","Lost","0.2,0.8","13","0.2","103","22","",""
"","","","decisionFB","6320e37620d067c7d322246a","bdp_rwlrn","Sat Apr 08 2023 11:07:17 GMT-0400 (Eastern Daylight Time)","504959","Trustworthy,Untrustworthy","html-keyboard-response","75","208955","0.0-11.0-2.21","","null","","<div class='trialDiv'><img src='Fruit/Kiwi.png'><br><font class='baseline'><strong>Kiwi Kash</strong><p>Choose number of points to bet.</font><div class='respPicDiv'><img src='img/responseButtonOffersNo0L5.png' class='respPic'></div></div>","null","8","Kiwi Kash","Fruit/Kiwi.png","Lost","0.2,0.8","13","0.2","98","22","",""
"","","","feedback","6320e37620d067c7d322246a","bdp_rwlrn","Sat Apr 08 2023 11:07:17 GMT-0400 (Eastern Daylight Time)","504959","Trustworthy,Untrustworthy","html-keyboard-response","76","209955","0.0-11.0-3.21","","null","","<div class='respPicDiv'><img src='img/responseButtonOffersNo0_wht.png' class='respPic'></div><div class='trialDiv'><img src='Fruit/Kiwi.png'><br><font class='baseline'><strong>Kiwi Kash</strong><p><strong><font class='negOutcome'>You LOST</font><p>You bet: 5</strong></font> &nbsp; &nbsp; &nbsp; &nbsp; &nbsp; &nbsp;<font class='negOutcome'>You receive: <strong>0</strong></font></div>","null","8","Kiwi Kash","Fruit/Kiwi.png","Lost","0.2,0.8","13","0.2","98","22","",""
"","","","decision","6320e37620d067c7d322246a","bdp_rwlrn","Sat Apr 08 2023 11:07:17 GMT-0400 (Eastern Daylight Time)","504959","Trustworthy,Untrustworthy","html-keyboard-response","77","210474","0.0-11.0-1.22","","519","","<div class='trialDiv'><img src='Fruit/grapes.png'><br><font class='baseline'><strong>Great Grapes</strong><p>Choose number of points to bet.</font><div class='respPicDiv'><img src='img/responseButtonOffersNo0L.png' class='respPic'></div></div>","5","8","Great Grapes","Fruit/grapes.png","Lost","0.65,0.2","8","0.65","103","23","",""
"","","","decisionFB","6320e37620d067c7d322246a","bdp_rwlrn","Sat Apr 08 2023 11:07:17 GMT-0400 (Eastern Daylight Time)","504959","Trustworthy,Untrustworthy","html-keyboard-response","78","210725","0.0-11.0-2.22","","null","","<div class='trialDiv'><img src='Fruit/grapes.png'><br><font class='baseline'><strong>Great Grapes</strong><p>Choose number of points to bet.</font><div class='respPicDiv'><img src='img/responseButtonOffersNo0L5.png' class='respPic'></div></div>","null","8","Great Grapes","Fruit/grapes.png","Lost","0.65,0.2","8","0.65","98","23","",""
"","","","feedback","6320e37620d067c7d322246a","bdp_rwlrn","Sat Apr 08 2023 11:07:17 GMT-0400 (Eastern Daylight Time)","504959","Trustworthy,Untrustworthy","html-keyboard-response","79","211727","0.0-11.0-3.22","","null","","<div class='respPicDiv'><img src='img/responseButtonOffersNo0_wht.png' class='respPic'></div><div class='trialDiv'><img src='Fruit/grapes.png'><br><font class='baseline'><strong>Great Grapes</strong><p><strong><font class='negOutcome'>You LOST</font><p>You bet: 5</strong></font> &nbsp; &nbsp; &nbsp; &nbsp; &nbsp; &nbsp;<font class='negOutcome'>You receive: <strong>0</strong></font></div>","null","8","Great Grapes","Fruit/grapes.png","Lost","0.65,0.2","8","0.65","98","23","",""
"","","","decision","6320e37620d067c7d322246a","bdp_rwlrn","Sat Apr 08 2023 11:07:17 GMT-0400 (Eastern Daylight Time)","504959","Trustworthy,Untrustworthy","html-keyboard-response","80","212204","0.0-11.0-1.23","","477","","<div class='trialDiv'><img src='Fruit/cherrie.png'><br><font class='baseline'><strong>Cherry Chances</strong><p>Choose number of points to bet.</font><div class='respPicDiv'><img src='img/responseButtonOffersNo0L.png' class='respPic'></div></div>","1","8","Cherry Chances","Fruit/cherrie.png","Won","0.35,0.8","10","0.35","103","24","",""
"","","","decisionFB","6320e37620d067c7d322246a","bdp_rwlrn","Sat Apr 08 2023 11:07:17 GMT-0400 (Eastern Daylight Time)","504959","Trustworthy,Untrustworthy","html-keyboard-response","81","212454","0.0-11.0-2.23","","null","","<div class='trialDiv'><img src='Fruit/cherrie.png'><br><font class='baseline'><strong>Cherry Chances</strong><p>Choose number of points to bet.</font><div class='respPicDiv'><img src='img/responseButtonOffersNo0L1.png' class='respPic'></div></div>","null","8","Cherry Chances","Fruit/cherrie.png","Won","0.35,0.8","10","0.35","102","24","",""
"","","","feedback","6320e37620d067c7d322246a","bdp_rwlrn","Sat Apr 08 2023 11:07:17 GMT-0400 (Eastern Daylight Time)","504959","Trustworthy,Untrustworthy","html-keyboard-response","82","213455","0.0-11.0-3.23","","null","","<div class='respPicDiv'><img src='img/responseButtonOffersNo0_wht.png' class='respPic'></div><div class='trialDiv'><img src='Fruit/cherrie.png'><br><font class='baseline'><strong>Cherry Chances</strong><p><strong><font class='posOutcome'>You WON</font><p>You bet: 1</strong></font> &nbsp; &nbsp; &nbsp; &nbsp; &nbsp; &nbsp;<font class='posOutcome'>you receive: <strong>2</strong></font></div>","null","8","Cherry Chances","Fruit/cherrie.png","Won","0.35,0.8","10","0.35","104","24","",""
"","","","decision","6320e37620d067c7d322246a","bdp_rwlrn","Sat Apr 08 2023 11:07:17 GMT-0400 (Eastern Daylight Time)","504959","Trustworthy,Untrustworthy","html-keyboard-response","83","214765","0.0-11.0-1.24","","1310","","<div class='trialDiv'><img src='Fruit/grapes.png'><br><font class='baseline'><strong>Great Grapes</strong><p>Choose number of points to bet.</font><div class='respPicDiv'><img src='img/responseButtonOffersNo0L.png' class='respPic'></div></div>","5","9","Great Grapes","Fruit/grapes.png","Won","0.65,0.2","8","0.65","109","25","",""
"","","","decisionFB","6320e37620d067c7d322246a","bdp_rwlrn","Sat Apr 08 2023 11:07:17 GMT-0400 (Eastern Daylight Time)","504959","Trustworthy,Untrustworthy","html-keyboard-response","84","215016","0.0-11.0-2.24","","null","","<div class='trialDiv'><img src='Fruit/grapes.png'><br><font class='baseline'><strong>Great Grapes</strong><p>Choose number of points to bet.</font><div class='respPicDiv'><img src='img/responseButtonOffersNo0L5.png' class='respPic'></div></div>","null","9","Great Grapes","Fruit/grapes.png","Won","0.65,0.2","8","0.65","104","25","",""
"","","","feedback","6320e37620d067c7d322246a","bdp_rwlrn","Sat Apr 08 2023 11:07:17 GMT-0400 (Eastern Daylight Time)","504959","Trustworthy,Untrustworthy","html-keyboard-response","85","216016","0.0-11.0-3.24","","null","","<div class='respPicDiv'><img src='img/responseButtonOffersNo0_wht.png' class='respPic'></div><div class='trialDiv'><img src='Fruit/grapes.png'><br><font class='baseline'><strong>Great Grapes</strong><p><strong><font class='posOutcome'>You WON</font><p>You bet: 5</strong></font> &nbsp; &nbsp; &nbsp; &nbsp; &nbsp; &nbsp;<font class='posOutcome'>you receive: <strong>10</strong></font></div>","null","9","Great Grapes","Fruit/grapes.png","Won","0.65,0.2","8","0.65","114","25","",""
"","","","decision","6320e37620d067c7d322246a","bdp_rwlrn","Sat Apr 08 2023 11:07:17 GMT-0400 (Eastern Daylight Time)","504959","Trustworthy,Untrustworthy","html-keyboard-response","86","216695","0.0-11.0-1.25","","679","","<div class='trialDiv'><img src='Fruit/Kiwi.png'><br><font class='baseline'><strong>Kiwi Kash</strong><p>Choose number of points to bet.</font><div class='respPicDiv'><img src='img/responseButtonOffersNo0L.png' class='respPic'></div></div>","1","9","Kiwi Kash","Fruit/Kiwi.png","Won","0.2,0.8","13","0.2","119","26","",""
"","","","decisionFB","6320e37620d067c7d322246a","bdp_rwlrn","Sat Apr 08 2023 11:07:17 GMT-0400 (Eastern Daylight Time)","504959","Trustworthy,Untrustworthy","html-keyboard-response","87","216946","0.0-11.0-2.25","","null","","<div class='trialDiv'><img src='Fruit/Kiwi.png'><br><font class='baseline'><strong>Kiwi Kash</strong><p>Choose number of points to bet.</font><div class='respPicDiv'><img src='img/responseButtonOffersNo0L1.png' class='respPic'></div></div>","null","9","Kiwi Kash","Fruit/Kiwi.png","Won","0.2,0.8","13","0.2","118","26","",""
"","","","feedback","6320e37620d067c7d322246a","bdp_rwlrn","Sat Apr 08 2023 11:07:17 GMT-0400 (Eastern Daylight Time)","504959","Trustworthy,Untrustworthy","html-keyboard-response","88","217946","0.0-11.0-3.25","","null","","<div class='respPicDiv'><img src='img/responseButtonOffersNo0_wht.png' class='respPic'></div><div class='trialDiv'><img src='Fruit/Kiwi.png'><br><font class='baseline'><strong>Kiwi Kash</strong><p><strong><font class='posOutcome'>You WON</font><p>You bet: 1</strong></font> &nbsp; &nbsp; &nbsp; &nbsp; &nbsp; &nbsp;<font class='posOutcome'>you receive: <strong>2</strong></font></div>","null","9","Kiwi Kash","Fruit/Kiwi.png","Won","0.2,0.8","13","0.2","120","26","",""
"","","","decision","6320e37620d067c7d322246a","bdp_rwlrn","Sat Apr 08 2023 11:07:17 GMT-0400 (Eastern Daylight Time)","504959","Trustworthy,Untrustworthy","html-keyboard-response","89","218705","0.0-11.0-1.26","","758","","<div class='trialDiv'><img src='Fruit/cherrie.png'><br><font class='baseline'><strong>Cherry Chances</strong><p>Choose number of points to bet.</font><div class='respPicDiv'><img src='img/responseButtonOffersNo0L.png' class='respPic'></div></div>","1","9","Cherry Chances","Fruit/cherrie.png","Lost","0.35,0.8","10","0.35","125","27","",""
"","","","decisionFB","6320e37620d067c7d322246a","bdp_rwlrn","Sat Apr 08 2023 11:07:17 GMT-0400 (Eastern Daylight Time)","504959","Trustworthy,Untrustworthy","html-keyboard-response","90","218956","0.0-11.0-2.26","","null","","<div class='trialDiv'><img src='Fruit/cherrie.png'><br><font class='baseline'><strong>Cherry Chances</strong><p>Choose number of points to bet.</font><div class='respPicDiv'><img src='img/responseButtonOffersNo0L1.png' class='respPic'></div></div>","null","9","Cherry Chances","Fruit/cherrie.png","Lost","0.35,0.8","10","0.35","124","27","",""
"","","","feedback","6320e37620d067c7d322246a","bdp_rwlrn","Sat Apr 08 2023 11:07:17 GMT-0400 (Eastern Daylight Time)","504959","Trustworthy,Untrustworthy","html-keyboard-response","91","219957","0.0-11.0-3.26","","null","","<div class='respPicDiv'><img src='img/responseButtonOffersNo0_wht.png' class='respPic'></div><div class='trialDiv'><img src='Fruit/cherrie.png'><br><font class='baseline'><strong>Cherry Chances</strong><p><strong><font class='negOutcome'>You LOST</font><p>You bet: 1</strong></font> &nbsp; &nbsp; &nbsp; &nbsp; &nbsp; &nbsp;<font class='negOutcome'>You receive: <strong>0</strong></font></div>","null","9","Cherry Chances","Fruit/cherrie.png","Lost","0.35,0.8","10","0.35","124","27","",""
"","","","decision","6320e37620d067c7d322246a","bdp_rwlrn","Sat Apr 08 2023 11:07:17 GMT-0400 (Eastern Daylight Time)","504959","Trustworthy,Untrustworthy","html-keyboard-response","92","220857","0.0-11.0-1.27","","899","","<div class='trialDiv'><img src='Fruit/grapes.png'><br><font class='baseline'><strong>Great Grapes</strong><p>Choose number of points to bet.</font><div class='respPicDiv'><img src='img/responseButtonOffersNo0L.png' class='respPic'></div></div>","5","10","Great Grapes","Fruit/grapes.png","Lost","0.65,0.2","8","0.65","129","28","",""
"","","","decisionFB","6320e37620d067c7d322246a","bdp_rwlrn","Sat Apr 08 2023 11:07:17 GMT-0400 (Eastern Daylight Time)","504959","Trustworthy,Untrustworthy","html-keyboard-response","93","221107","0.0-11.0-2.27","","null","","<div class='trialDiv'><img src='Fruit/grapes.png'><br><font class='baseline'><strong>Great Grapes</strong><p>Choose number of points to bet.</font><div class='respPicDiv'><img src='img/responseButtonOffersNo0L5.png' class='respPic'></div></div>","null","10","Great Grapes","Fruit/grapes.png","Lost","0.65,0.2","8","0.65","124","28","",""
"","","","feedback","6320e37620d067c7d322246a","bdp_rwlrn","Sat Apr 08 2023 11:07:17 GMT-0400 (Eastern Daylight Time)","504959","Trustworthy,Untrustworthy","html-keyboard-response","94","222108","0.0-11.0-3.27","","null","","<div class='respPicDiv'><img src='img/responseButtonOffersNo0_wht.png' class='respPic'></div><div class='trialDiv'><img src='Fruit/grapes.png'><br><font class='baseline'><strong>Great Grapes</strong><p><strong><font class='negOutcome'>You LOST</font><p>You bet: 5</strong></font> &nbsp; &nbsp; &nbsp; &nbsp; &nbsp; &nbsp;<font class='negOutcome'>You receive: <strong>0</strong></font></div>","null","10","Great Grapes","Fruit/grapes.png","Lost","0.65,0.2","8","0.65","124","28","",""
"","","","decision","6320e37620d067c7d322246a","bdp_rwlrn","Sat Apr 08 2023 11:07:17 GMT-0400 (Eastern Daylight Time)","504959","Trustworthy,Untrustworthy","html-keyboard-response","95","222391","0.0-11.0-1.28","","282","","<div class='trialDiv'><img src='Fruit/cherrie.png'><br><font class='baseline'><strong>Cherry Chances</strong><p>Choose number of points to bet.</font><div class='respPicDiv'><img src='img/responseButtonOffersNo0L.png' class='respPic'></div></div>","1","10","Cherry Chances","Fruit/cherrie.png","Won","0.35,0.8","10","0.35","129","29","",""
"","","","decisionFB","6320e37620d067c7d322246a","bdp_rwlrn","Sat Apr 08 2023 11:07:17 GMT-0400 (Eastern Daylight Time)","504959","Trustworthy,Untrustworthy","html-keyboard-response","96","222642","0.0-11.0-2.28","","null","","<div class='trialDiv'><img src='Fruit/cherrie.png'><br><font class='baseline'><strong>Cherry Chances</strong><p>Choose number of points to bet.</font><div class='respPicDiv'><img src='img/responseButtonOffersNo0L1.png' class='respPic'></div></div>","null","10","Cherry Chances","Fruit/cherrie.png","Won","0.35,0.8","10","0.35","128","29","",""
"","","","feedback","6320e37620d067c7d322246a","bdp_rwlrn","Sat Apr 08 2023 11:07:17 GMT-0400 (Eastern Daylight Time)","504959","Trustworthy,Untrustworthy","html-keyboard-response","97","223642","0.0-11.0-3.28","","null","","<div class='respPicDiv'><img src='img/responseButtonOffersNo0_wht.png' class='respPic'></div><div class='trialDiv'><img src='Fruit/cherrie.png'><br><font class='baseline'><strong>Cherry Chances</strong><p><strong><font class='posOutcome'>You WON</font><p>You bet: 1</strong></font> &nbsp; &nbsp; &nbsp; &nbsp; &nbsp; &nbsp;<font class='posOutcome'>you receive: <strong>2</strong></font></div>","null","10","Cherry Chances","Fruit/cherrie.png","Won","0.35,0.8","10","0.35","130","29","",""
"","","","decision","6320e37620d067c7d322246a","bdp_rwlrn","Sat Apr 08 2023 11:07:17 GMT-0400 (Eastern Daylight Time)","504959","Trustworthy,Untrustworthy","html-keyboard-response","98","224546","0.0-11.0-1.29","","903","","<div class='trialDiv'><img src='Fruit/Kiwi.png'><br><font class='baseline'><strong>Kiwi Kash</strong><p>Choose number of points to bet.</font><div class='respPicDiv'><img src='img/responseButtonOffersNo0L.png' class='respPic'></div></div>","1","10","Kiwi Kash","Fruit/Kiwi.png","Lost","0.2,0.8","13","0.2","135","30","",""
"","","","decisionFB","6320e37620d067c7d322246a","bdp_rwlrn","Sat Apr 08 2023 11:07:17 GMT-0400 (Eastern Daylight Time)","504959","Trustworthy,Untrustworthy","html-keyboard-response","99","224797","0.0-11.0-2.29","","null","","<div class='trialDiv'><img src='Fruit/Kiwi.png'><br><font class='baseline'><strong>Kiwi Kash</strong><p>Choose number of points to bet.</font><div class='respPicDiv'><img src='img/responseButtonOffersNo0L1.png' class='respPic'></div></div>","null","10","Kiwi Kash","Fruit/Kiwi.png","Lost","0.2,0.8","13","0.2","134","30","",""
"","","","feedback","6320e37620d067c7d322246a","bdp_rwlrn","Sat Apr 08 2023 11:07:17 GMT-0400 (Eastern Daylight Time)","504959","Trustworthy,Untrustworthy","html-keyboard-response","100","225798","0.0-11.0-3.29","","null","","<div class='respPicDiv'><img src='img/responseButtonOffersNo0_wht.png' class='respPic'></div><div class='trialDiv'><img src='Fruit/Kiwi.png'><br><font class='baseline'><strong>Kiwi Kash</strong><p><strong><font class='negOutcome'>You LOST</font><p>You bet: 1</strong></font> &nbsp; &nbsp; &nbsp; &nbsp; &nbsp; &nbsp;<font class='negOutcome'>You receive: <strong>0</strong></font></div>","null","10","Kiwi Kash","Fruit/Kiwi.png","Lost","0.2,0.8","13","0.2","134","30","",""
"","","","decision","6320e37620d067c7d322246a","bdp_rwlrn","Sat Apr 08 2023 11:07:17 GMT-0400 (Eastern Daylight Time)","504959","Trustworthy,Untrustworthy","html-keyboard-response","101","226566","0.0-11.0-1.30","","768","","<div class='trialDiv'><img src='Fruit/cherrie.png'><br><font class='baseline'><strong>Cherry Chances</strong><p>Choose number of points to bet.</font><div class='respPicDiv'><img src='img/responseButtonOffersNo0L.png' class='respPic'></div></div>","1","11","Cherry Chances","Fruit/cherrie.png","Won","0.35,0.8","10","0.35","139","31","",""
"","","","decisionFB","6320e37620d067c7d322246a","bdp_rwlrn","Sat Apr 08 2023 11:07:17 GMT-0400 (Eastern Daylight Time)","504959","Trustworthy,Untrustworthy","html-keyboard-response","102","226817","0.0-11.0-2.30","","null","","<div class='trialDiv'><img src='Fruit/cherrie.png'><br><font class='baseline'><strong>Cherry Chances</strong><p>Choose number of points to bet.</font><div class='respPicDiv'><img src='img/responseButtonOffersNo0L1.png' class='respPic'></div></div>","null","11","Cherry Chances","Fruit/cherrie.png","Won","0.35,0.8","10","0.35","138","31","",""
"","","","feedback","6320e37620d067c7d322246a","bdp_rwlrn","Sat Apr 08 2023 11:07:17 GMT-0400 (Eastern Daylight Time)","504959","Trustworthy,Untrustworthy","html-keyboard-response","103","227818","0.0-11.0-3.30","","null","","<div class='respPicDiv'><img src='img/responseButtonOffersNo0_wht.png' class='respPic'></div><div class='trialDiv'><img src='Fruit/cherrie.png'><br><font class='baseline'><strong>Cherry Chances</strong><p><strong><font class='posOutcome'>You WON</font><p>You bet: 1</strong></font> &nbsp; &nbsp; &nbsp; &nbsp; &nbsp; &nbsp;<font class='posOutcome'>you receive: <strong>2</strong></font></div>","null","11","Cherry Chances","Fruit/cherrie.png","Won","0.35,0.8","10","0.35","140","31","",""
"","","","decision","6320e37620d067c7d322246a","bdp_rwlrn","Sat Apr 08 2023 11:07:17 GMT-0400 (Eastern Daylight Time)","504959","Trustworthy,Untrustworthy","html-keyboard-response","104","228202","0.0-11.0-1.31","","384","","<div class='trialDiv'><img src='Fruit/grapes.png'><br><font class='baseline'><strong>Great Grapes</strong><p>Choose number of points to bet.</font><div class='respPicDiv'><img src='img/responseButtonOffersNo0L.png' class='respPic'></div></div>","5","11","Great Grapes","Fruit/grapes.png","Lost","0.65,0.2","8","0.65","145","32","",""
"","","","decisionFB","6320e37620d067c7d322246a","bdp_rwlrn","Sat Apr 08 2023 11:07:17 GMT-0400 (Eastern Daylight Time)","504959","Trustworthy,Untrustworthy","html-keyboard-response","105","228453","0.0-11.0-2.31","","null","","<div class='trialDiv'><img src='Fruit/grapes.png'><br><font class='baseline'><strong>Great Grapes</strong><p>Choose number of points to bet.</font><div class='respPicDiv'><img src='img/responseButtonOffersNo0L5.png' class='respPic'></div></div>","null","11","Great Grapes","Fruit/grapes.png","Lost","0.65,0.2","8","0.65","140","32","",""
"","","","feedback","6320e37620d067c7d322246a","bdp_rwlrn","Sat Apr 08 2023 11:07:17 GMT-0400 (Eastern Daylight Time)","504959","Trustworthy,Untrustworthy","html-keyboard-response","106","229453","0.0-11.0-3.31","","null","","<div class='respPicDiv'><img src='img/responseButtonOffersNo0_wht.png' class='respPic'></div><div class='trialDiv'><img src='Fruit/grapes.png'><br><font class='baseline'><strong>Great Grapes</strong><p><strong><font class='negOutcome'>You LOST</font><p>You bet: 5</strong></font> &nbsp; &nbsp; &nbsp; &nbsp; &nbsp; &nbsp;<font class='negOutcome'>You receive: <strong>0</strong></font></div>","null","11","Great Grapes","Fruit/grapes.png","Lost","0.65,0.2","8","0.65","140","32","",""
"","","","decision","6320e37620d067c7d322246a","bdp_rwlrn","Sat Apr 08 2023 11:07:17 GMT-0400 (Eastern Daylight Time)","504959","Trustworthy,Untrustworthy","html-keyboard-response","107","229936","0.0-11.0-1.32","","483","","<div class='trialDiv'><img src='Fruit/Kiwi.png'><br><font class='baseline'><strong>Kiwi Kash</strong><p>Choose number of points to bet.</font><div class='respPicDiv'><img src='img/responseButtonOffersNo0L.png' class='respPic'></div></div>","1","11","Kiwi Kash","Fruit/Kiwi.png","Lost","0.2,0.8","13","0.2","145","33","",""
"","","","decisionFB","6320e37620d067c7d322246a","bdp_rwlrn","Sat Apr 08 2023 11:07:17 GMT-0400 (Eastern Daylight Time)","504959","Trustworthy,Untrustworthy","html-keyboard-response","108","230186","0.0-11.0-2.32","","null","","<div class='trialDiv'><img src='Fruit/Kiwi.png'><br><font class='baseline'><strong>Kiwi Kash</strong><p>Choose number of points to bet.</font><div class='respPicDiv'><img src='img/responseButtonOffersNo0L1.png' class='respPic'></div></div>","null","11","Kiwi Kash","Fruit/Kiwi.png","Lost","0.2,0.8","13","0.2","144","33","",""
"","","","feedback","6320e37620d067c7d322246a","bdp_rwlrn","Sat Apr 08 2023 11:07:17 GMT-0400 (Eastern Daylight Time)","504959","Trustworthy,Untrustworthy","html-keyboard-response","109","231187","0.0-11.0-3.32","","null","","<div class='respPicDiv'><img src='img/responseButtonOffersNo0_wht.png' class='respPic'></div><div class='trialDiv'><img src='Fruit/Kiwi.png'><br><font class='baseline'><strong>Kiwi Kash</strong><p><strong><font class='negOutcome'>You LOST</font><p>You bet: 1</strong></font> &nbsp; &nbsp; &nbsp; &nbsp; &nbsp; &nbsp;<font class='negOutcome'>You receive: <strong>0</strong></font></div>","null","11","Kiwi Kash","Fruit/Kiwi.png","Lost","0.2,0.8","13","0.2","144","33","",""
"","","","decision","6320e37620d067c7d322246a","bdp_rwlrn","Sat Apr 08 2023 11:07:17 GMT-0400 (Eastern Daylight Time)","504959","Trustworthy,Untrustworthy","html-keyboard-response","110","231420","0.0-11.0-1.33","","233","","<div class='trialDiv'><img src='Fruit/cherrie.png'><br><font class='baseline'><strong>Cherry Chances</strong><p>Choose number of points to bet.</font><div class='respPicDiv'><img src='img/responseButtonOffersNo0L.png' class='respPic'></div></div>","1","12","Cherry Chances","Fruit/cherrie.png","Won","0.35,0.8","10","0.35","149","34","",""
"","","","decisionFB","6320e37620d067c7d322246a","bdp_rwlrn","Sat Apr 08 2023 11:07:17 GMT-0400 (Eastern Daylight Time)","504959","Trustworthy,Untrustworthy","html-keyboard-response","111","231670","0.0-11.0-2.33","","null","","<div class='trialDiv'><img src='Fruit/cherrie.png'><br><font class='baseline'><strong>Cherry Chances</strong><p>Choose number of points to bet.</font><div class='respPicDiv'><img src='img/responseButtonOffersNo0L1.png' class='respPic'></div></div>","null","12","Cherry Chances","Fruit/cherrie.png","Won","0.35,0.8","10","0.35","148","34","",""
"","","","feedback","6320e37620d067c7d322246a","bdp_rwlrn","Sat Apr 08 2023 11:07:17 GMT-0400 (Eastern Daylight Time)","504959","Trustworthy,Untrustworthy","html-keyboard-response","112","232671","0.0-11.0-3.33","","null","","<div class='respPicDiv'><img src='img/responseButtonOffersNo0_wht.png' class='respPic'></div><div class='trialDiv'><img src='Fruit/cherrie.png'><br><font class='baseline'><strong>Cherry Chances</strong><p><strong><font class='posOutcome'>You WON</font><p>You bet: 1</strong></font> &nbsp; &nbsp; &nbsp; &nbsp; &nbsp; &nbsp;<font class='posOutcome'>you receive: <strong>2</strong></font></div>","null","12","Cherry Chances","Fruit/cherrie.png","Won","0.35,0.8","10","0.35","150","34","",""
"","","","decision","6320e37620d067c7d322246a","bdp_rwlrn","Sat Apr 08 2023 11:07:17 GMT-0400 (Eastern Daylight Time)","504959","Trustworthy,Untrustworthy","html-keyboard-response","113","233118","0.0-11.0-1.34","","446","","<div class='trialDiv'><img src='Fruit/Kiwi.png'><br><font class='baseline'><strong>Kiwi Kash</strong><p>Choose number of points to bet.</font><div class='respPicDiv'><img src='img/responseButtonOffersNo0L.png' class='respPic'></div></div>","5","12","Kiwi Kash","Fruit/Kiwi.png","Lost","0.2,0.8","13","0.2","155","35","",""
"","","","decisionFB","6320e37620d067c7d322246a","bdp_rwlrn","Sat Apr 08 2023 11:07:17 GMT-0400 (Eastern Daylight Time)","504959","Trustworthy,Untrustworthy","html-keyboard-response","114","233369","0.0-11.0-2.34","","null","","<div class='trialDiv'><img src='Fruit/Kiwi.png'><br><font class='baseline'><strong>Kiwi Kash</strong><p>Choose number of points to bet.</font><div class='respPicDiv'><img src='img/responseButtonOffersNo0L5.png' class='respPic'></div></div>","null","12","Kiwi Kash","Fruit/Kiwi.png","Lost","0.2,0.8","13","0.2","150","35","",""
"","","","feedback","6320e37620d067c7d322246a","bdp_rwlrn","Sat Apr 08 2023 11:07:17 GMT-0400 (Eastern Daylight Time)","504959","Trustworthy,Untrustworthy","html-keyboard-response","115","234370","0.0-11.0-3.34","","null","","<div class='respPicDiv'><img src='img/responseButtonOffersNo0_wht.png' class='respPic'></div><div class='trialDiv'><img src='Fruit/Kiwi.png'><br><font class='baseline'><strong>Kiwi Kash</strong><p><strong><font class='negOutcome'>You LOST</font><p>You bet: 5</strong></font> &nbsp; &nbsp; &nbsp; &nbsp; &nbsp; &nbsp;<font class='negOutcome'>You receive: <strong>0</strong></font></div>","null","12","Kiwi Kash","Fruit/Kiwi.png","Lost","0.2,0.8","13","0.2","150","35","",""
"","","","decision","6320e37620d067c7d322246a","bdp_rwlrn","Sat Apr 08 2023 11:07:17 GMT-0400 (Eastern Daylight Time)","504959","Trustworthy,Untrustworthy","html-keyboard-response","116","234613","0.0-11.0-1.35","","242","","<div class='trialDiv'><img src='Fruit/grapes.png'><br><font class='baseline'><strong>Great Grapes</strong><p>Choose number of points to bet.</font><div class='respPicDiv'><img src='img/responseButtonOffersNo0L.png' class='respPic'></div></div>","1","12","Great Grapes","Fruit/grapes.png","Lost","0.65,0.2","8","0.65","155","36","",""
"","","","decisionFB","6320e37620d067c7d322246a","bdp_rwlrn","Sat Apr 08 2023 11:07:17 GMT-0400 (Eastern Daylight Time)","504959","Trustworthy,Untrustworthy","html-keyboard-response","117","234864","0.0-11.0-2.35","","null","","<div class='trialDiv'><img src='Fruit/grapes.png'><br><font class='baseline'><strong>Great Grapes</strong><p>Choose number of points to bet.</font><div class='respPicDiv'><img src='img/responseButtonOffersNo0L1.png' class='respPic'></div></div>","null","12","Great Grapes","Fruit/grapes.png","Lost","0.65,0.2","8","0.65","154","36","",""
"","","","feedback","6320e37620d067c7d322246a","bdp_rwlrn","Sat Apr 08 2023 11:07:17 GMT-0400 (Eastern Daylight Time)","504959","Trustworthy,Untrustworthy","html-keyboard-response","118","235865","0.0-11.0-3.35","","null","","<div class='respPicDiv'><img src='img/responseButtonOffersNo0_wht.png' class='respPic'></div><div class='trialDiv'><img src='Fruit/grapes.png'><br><font class='baseline'><strong>Great Grapes</strong><p><strong><font class='negOutcome'>You LOST</font><p>You bet: 1</strong></font> &nbsp; &nbsp; &nbsp; &nbsp; &nbsp; &nbsp;<font class='negOutcome'>You receive: <strong>0</strong></font></div>","null","12","Great Grapes","Fruit/grapes.png","Lost","0.65,0.2","8","0.65","154","36","",""
"","","","decision","6320e37620d067c7d322246a","bdp_rwlrn","Sat Apr 08 2023 11:07:17 GMT-0400 (Eastern Daylight Time)","504959","Trustworthy,Untrustworthy","html-keyboard-response","119","236558","0.0-11.0-1.36","","693","","<div class='trialDiv'><img src='Fruit/Kiwi.png'><br><font class='baseline'><strong>Kiwi Kash</strong><p>Choose number of points to bet.</font><div class='respPicDiv'><img src='img/responseButtonOffersNo0L.png' class='respPic'></div></div>","1","13","Kiwi Kash","Fruit/Kiwi.png","Won","0.2,0.8","13","0.2","159","37","",""
"","","","decisionFB","6320e37620d067c7d322246a","bdp_rwlrn","Sat Apr 08 2023 11:07:17 GMT-0400 (Eastern Daylight Time)","504959","Trustworthy,Untrustworthy","html-keyboard-response","120","236809","0.0-11.0-2.36","","null","","<div class='trialDiv'><img src='Fruit/Kiwi.png'><br><font class='baseline'><strong>Kiwi Kash</strong><p>Choose number of points to bet.</font><div class='respPicDiv'><img src='img/responseButtonOffersNo0L1.png' class='respPic'></div></div>","null","13","Kiwi Kash","Fruit/Kiwi.png","Won","0.2,0.8","13","0.2","158","37","",""
"","","","feedback","6320e37620d067c7d322246a","bdp_rwlrn","Sat Apr 08 2023 11:07:17 GMT-0400 (Eastern Daylight Time)","504959","Trustworthy,Untrustworthy","html-keyboard-response","121","237810","0.0-11.0-3.36","","null","","<div class='respPicDiv'><img src='img/responseButtonOffersNo0_wht.png' class='respPic'></div><div class='trialDiv'><img src='Fruit/Kiwi.png'><br><font class='baseline'><strong>Kiwi Kash</strong><p><strong><font class='posOutcome'>You WON</font><p>You bet: 1</strong></font> &nbsp; &nbsp; &nbsp; &nbsp; &nbsp; &nbsp;<font class='posOutcome'>you receive: <strong>2</strong></font></div>","null","13","Kiwi Kash","Fruit/Kiwi.png","Won","0.2,0.8","13","0.2","160","37","",""
"","","","decision","6320e37620d067c7d322246a","bdp_rwlrn","Sat Apr 08 2023 11:07:17 GMT-0400 (Eastern Daylight Time)","504959","Trustworthy,Untrustworthy","html-keyboard-response","122","239084","0.0-11.0-1.37","","1274","","<div class='trialDiv'><img src='Fruit/cherrie.png'><br><font class='baseline'><strong>Cherry Chances</strong><p>Choose number of points to bet.</font><div class='respPicDiv'><img src='img/responseButtonOffersNo0L.png' class='respPic'></div></div>","1","13","Cherry Chances","Fruit/cherrie.png","Won","0.35,0.8","10","0.35","165","38","",""
"","","","decisionFB","6320e37620d067c7d322246a","bdp_rwlrn","Sat Apr 08 2023 11:07:17 GMT-0400 (Eastern Daylight Time)","504959","Trustworthy,Untrustworthy","html-keyboard-response","123","239335","0.0-11.0-2.37","","null","","<div class='trialDiv'><img src='Fruit/cherrie.png'><br><font class='baseline'><strong>Cherry Chances</strong><p>Choose number of points to bet.</font><div class='respPicDiv'><img src='img/responseButtonOffersNo0L1.png' class='respPic'></div></div>","null","13","Cherry Chances","Fruit/cherrie.png","Won","0.35,0.8","10","0.35","164","38","",""
"","","","feedback","6320e37620d067c7d322246a","bdp_rwlrn","Sat Apr 08 2023 11:07:17 GMT-0400 (Eastern Daylight Time)","504959","Trustworthy,Untrustworthy","html-keyboard-response","124","240336","0.0-11.0-3.37","","null","","<div class='respPicDiv'><img src='img/responseButtonOffersNo0_wht.png' class='respPic'></div><div class='trialDiv'><img src='Fruit/cherrie.png'><br><font class='baseline'><strong>Cherry Chances</strong><p><strong><font class='posOutcome'>You WON</font><p>You bet: 1</strong></font> &nbsp; &nbsp; &nbsp; &nbsp; &nbsp; &nbsp;<font class='posOutcome'>you receive: <strong>2</strong></font></div>","null","13","Cherry Chances","Fruit/cherrie.png","Won","0.35,0.8","10","0.35","166","38","",""
"","","","decision","6320e37620d067c7d322246a","bdp_rwlrn","Sat Apr 08 2023 11:07:17 GMT-0400 (Eastern Daylight Time)","504959","Trustworthy,Untrustworthy","html-keyboard-response","125","241084","0.0-11.0-1.38","","747","","<div class='trialDiv'><img src='Fruit/grapes.png'><br><font class='baseline'><strong>Great Grapes</strong><p>Choose number of points to bet.</font><div class='respPicDiv'><img src='img/responseButtonOffersNo0L.png' class='respPic'></div></div>","5","13","Great Grapes","Fruit/grapes.png","Won","0.65,0.2","8","0.65","171","39","",""
"","","","decisionFB","6320e37620d067c7d322246a","bdp_rwlrn","Sat Apr 08 2023 11:07:17 GMT-0400 (Eastern Daylight Time)","504959","Trustworthy,Untrustworthy","html-keyboard-response","126","241335","0.0-11.0-2.38","","null","","<div class='trialDiv'><img src='Fruit/grapes.png'><br><font class='baseline'><strong>Great Grapes</strong><p>Choose number of points to bet.</font><div class='respPicDiv'><img src='img/responseButtonOffersNo0L5.png' class='respPic'></div></div>","null","13","Great Grapes","Fruit/grapes.png","Won","0.65,0.2","8","0.65","166","39","",""
"","","","feedback","6320e37620d067c7d322246a","bdp_rwlrn","Sat Apr 08 2023 11:07:17 GMT-0400 (Eastern Daylight Time)","504959","Trustworthy,Untrustworthy","html-keyboard-response","127","242336","0.0-11.0-3.38","","null","","<div class='respPicDiv'><img src='img/responseButtonOffersNo0_wht.png' class='respPic'></div><div class='trialDiv'><img src='Fruit/grapes.png'><br><font class='baseline'><strong>Great Grapes</strong><p><strong><font class='posOutcome'>You WON</font><p>You bet: 5</strong></font> &nbsp; &nbsp; &nbsp; &nbsp; &nbsp; &nbsp;<font class='posOutcome'>you receive: <strong>10</strong></font></div>","null","13","Great Grapes","Fruit/grapes.png","Won","0.65,0.2","8","0.65","176","39","",""
"","","","decision","6320e37620d067c7d322246a","bdp_rwlrn","Sat Apr 08 2023 11:07:17 GMT-0400 (Eastern Daylight Time)","504959","Trustworthy,Untrustworthy","html-keyboard-response","128","242815","0.0-11.0-1.39","","478","","<div class='trialDiv'><img src='Fruit/cherrie.png'><br><font class='baseline'><strong>Cherry Chances</strong><p>Choose number of points to bet.</font><div class='respPicDiv'><img src='img/responseButtonOffersNo0L.png' class='respPic'></div></div>","1","14","Cherry Chances","Fruit/cherrie.png","Won","0.35,0.8","10","0.35","181","40","",""
"","","","decisionFB","6320e37620d067c7d322246a","bdp_rwlrn","Sat Apr 08 2023 11:07:17 GMT-0400 (Eastern Daylight Time)","504959","Trustworthy,Untrustworthy","html-keyboard-response","129","243066","0.0-11.0-2.39","","null","","<div class='trialDiv'><img src='Fruit/cherrie.png'><br><font class='baseline'><strong>Cherry Chances</strong><p>Choose number of points to bet.</font><div class='respPicDiv'><img src='img/responseButtonOffersNo0L1.png' class='respPic'></div></div>","null","14","Cherry Chances","Fruit/cherrie.png","Won","0.35,0.8","10","0.35","180","40","",""
"","","","feedback","6320e37620d067c7d322246a","bdp_rwlrn","Sat Apr 08 2023 11:07:17 GMT-0400 (Eastern Daylight Time)","504959","Trustworthy,Untrustworthy","html-keyboard-response","130","244067","0.0-11.0-3.39","","null","","<div class='respPicDiv'><img src='img/responseButtonOffersNo0_wht.png' class='respPic'></div><div class='trialDiv'><img src='Fruit/cherrie.png'><br><font class='baseline'><strong>Cherry Chances</strong><p><strong><font class='posOutcome'>You WON</font><p>You bet: 1</strong></font> &nbsp; &nbsp; &nbsp; &nbsp; &nbsp; &nbsp;<font class='posOutcome'>you receive: <strong>2</strong></font></div>","null","14","Cherry Chances","Fruit/cherrie.png","Won","0.35,0.8","10","0.35","182","40","",""
"","","","decision","6320e37620d067c7d322246a","bdp_rwlrn","Sat Apr 08 2023 11:07:17 GMT-0400 (Eastern Daylight Time)","504959","Trustworthy,Untrustworthy","html-keyboard-response","131","245151","0.0-11.0-1.40","","1084","","<div class='trialDiv'><img src='Fruit/grapes.png'><br><font class='baseline'><strong>Great Grapes</strong><p>Choose number of points to bet.</font><div class='respPicDiv'><img src='img/responseButtonOffersNo0L.png' class='respPic'></div></div>","5","14","Great Grapes","Fruit/grapes.png","Won","0.65,0.2","8","0.65","187","41","",""
"","","","decisionFB","6320e37620d067c7d322246a","bdp_rwlrn","Sat Apr 08 2023 11:07:17 GMT-0400 (Eastern Daylight Time)","504959","Trustworthy,Untrustworthy","html-keyboard-response","132","245402","0.0-11.0-2.40","","null","","<div class='trialDiv'><img src='Fruit/grapes.png'><br><font class='baseline'><strong>Great Grapes</strong><p>Choose number of points to bet.</font><div class='respPicDiv'><img src='img/responseButtonOffersNo0L5.png' class='respPic'></div></div>","null","14","Great Grapes","Fruit/grapes.png","Won","0.65,0.2","8","0.65","182","41","",""
"","","","feedback","6320e37620d067c7d322246a","bdp_rwlrn","Sat Apr 08 2023 11:07:17 GMT-0400 (Eastern Daylight Time)","504959","Trustworthy,Untrustworthy","html-keyboard-response","133","246403","0.0-11.0-3.40","","null","","<div class='respPicDiv'><img src='img/responseButtonOffersNo0_wht.png' class='respPic'></div><div class='trialDiv'><img src='Fruit/grapes.png'><br><font class='baseline'><strong>Great Grapes</strong><p><strong><font class='posOutcome'>You WON</font><p>You bet: 5</strong></font> &nbsp; &nbsp; &nbsp; &nbsp; &nbsp; &nbsp;<font class='posOutcome'>you receive: <strong>10</strong></font></div>","null","14","Great Grapes","Fruit/grapes.png","Won","0.65,0.2","8","0.65","192","41","",""
"","","","decision","6320e37620d067c7d322246a","bdp_rwlrn","Sat Apr 08 2023 11:07:17 GMT-0400 (Eastern Daylight Time)","504959","Trustworthy,Untrustworthy","html-keyboard-response","134","247046","0.0-11.0-1.41","","643","","<div class='trialDiv'><img src='Fruit/Kiwi.png'><br><font class='baseline'><strong>Kiwi Kash</strong><p>Choose number of points to bet.</font><div class='respPicDiv'><img src='img/responseButtonOffersNo0L.png' class='respPic'></div></div>","1","14","Kiwi Kash","Fruit/Kiwi.png","Won","0.2,0.8","13","0.2","197","42","",""
"","","","decisionFB","6320e37620d067c7d322246a","bdp_rwlrn","Sat Apr 08 2023 11:07:17 GMT-0400 (Eastern Daylight Time)","504959","Trustworthy,Untrustworthy","html-keyboard-response","135","247297","0.0-11.0-2.41","","null","","<div class='trialDiv'><img src='Fruit/Kiwi.png'><br><font class='baseline'><strong>Kiwi Kash</strong><p>Choose number of points to bet.</font><div class='respPicDiv'><img src='img/responseButtonOffersNo0L1.png' class='respPic'></div></div>","null","14","Kiwi Kash","Fruit/Kiwi.png","Won","0.2,0.8","13","0.2","196","42","",""
"","","","feedback","6320e37620d067c7d322246a","bdp_rwlrn","Sat Apr 08 2023 11:07:17 GMT-0400 (Eastern Daylight Time)","504959","Trustworthy,Untrustworthy","html-keyboard-response","136","248298","0.0-11.0-3.41","","null","","<div class='respPicDiv'><img src='img/responseButtonOffersNo0_wht.png' class='respPic'></div><div class='trialDiv'><img src='Fruit/Kiwi.png'><br><font class='baseline'><strong>Kiwi Kash</strong><p><strong><font class='posOutcome'>You WON</font><p>You bet: 1</strong></font> &nbsp; &nbsp; &nbsp; &nbsp; &nbsp; &nbsp;<font class='posOutcome'>you receive: <strong>2</strong></font></div>","null","14","Kiwi Kash","Fruit/Kiwi.png","Won","0.2,0.8","13","0.2","198","42","",""
"","","","decision","6320e37620d067c7d322246a","bdp_rwlrn","Sat Apr 08 2023 11:07:17 GMT-0400 (Eastern Daylight Time)","504959","Trustworthy,Untrustworthy","html-keyboard-response","137","248861","0.0-11.0-1.42","","563","","<div class='trialDiv'><img src='Fruit/cherrie.png'><br><font class='baseline'><strong>Cherry Chances</strong><p>Choose number of points to bet.</font><div class='respPicDiv'><img src='img/responseButtonOffersNo0L.png' class='respPic'></div></div>","1","15","Cherry Chances","Fruit/cherrie.png","Won","0.35,0.8","10","0.35","203","43","",""
"","","","decisionFB","6320e37620d067c7d322246a","bdp_rwlrn","Sat Apr 08 2023 11:07:17 GMT-0400 (Eastern Daylight Time)","504959","Trustworthy,Untrustworthy","html-keyboard-response","138","249112","0.0-11.0-2.42","","null","","<div class='trialDiv'><img src='Fruit/cherrie.png'><br><font class='baseline'><strong>Cherry Chances</strong><p>Choose number of points to bet.</font><div class='respPicDiv'><img src='img/responseButtonOffersNo0L1.png' class='respPic'></div></div>","null","15","Cherry Chances","Fruit/cherrie.png","Won","0.35,0.8","10","0.35","202","43","",""
"","","","feedback","6320e37620d067c7d322246a","bdp_rwlrn","Sat Apr 08 2023 11:07:17 GMT-0400 (Eastern Daylight Time)","504959","Trustworthy,Untrustworthy","html-keyboard-response","139","250113","0.0-11.0-3.42","","null","","<div class='respPicDiv'><img src='img/responseButtonOffersNo0_wht.png' class='respPic'></div><div class='trialDiv'><img src='Fruit/cherrie.png'><br><font class='baseline'><strong>Cherry Chances</strong><p><strong><font class='posOutcome'>You WON</font><p>You bet: 1</strong></font> &nbsp; &nbsp; &nbsp; &nbsp; &nbsp; &nbsp;<font class='posOutcome'>you receive: <strong>2</strong></font></div>","null","15","Cherry Chances","Fruit/cherrie.png","Won","0.35,0.8","10","0.35","204","43","",""
"","","","decision","6320e37620d067c7d322246a","bdp_rwlrn","Sat Apr 08 2023 11:07:17 GMT-0400 (Eastern Daylight Time)","504959","Trustworthy,Untrustworthy","html-keyboard-response","140","250856","0.0-11.0-1.43","","743","","<div class='trialDiv'><img src='Fruit/Kiwi.png'><br><font class='baseline'><strong>Kiwi Kash</strong><p>Choose number of points to bet.</font><div class='respPicDiv'><img src='img/responseButtonOffersNo0L.png' class='respPic'></div></div>","1","15","Kiwi Kash","Fruit/Kiwi.png","Won","0.2,0.8","13","0.2","209","44","",""
"","","","decisionFB","6320e37620d067c7d322246a","bdp_rwlrn","Sat Apr 08 2023 11:07:17 GMT-0400 (Eastern Daylight Time)","504959","Trustworthy,Untrustworthy","html-keyboard-response","141","251107","0.0-11.0-2.43","","null","","<div class='trialDiv'><img src='Fruit/Kiwi.png'><br><font class='baseline'><strong>Kiwi Kash</strong><p>Choose number of points to bet.</font><div class='respPicDiv'><img src='img/responseButtonOffersNo0L1.png' class='respPic'></div></div>","null","15","Kiwi Kash","Fruit/Kiwi.png","Won","0.2,0.8","13","0.2","208","44","",""
"","","","feedback","6320e37620d067c7d322246a","bdp_rwlrn","Sat Apr 08 2023 11:07:17 GMT-0400 (Eastern Daylight Time)","504959","Trustworthy,Untrustworthy","html-keyboard-response","142","252108","0.0-11.0-3.43","","null","","<div class='respPicDiv'><img src='img/responseButtonOffersNo0_wht.png' class='respPic'></div><div class='trialDiv'><img src='Fruit/Kiwi.png'><br><font class='baseline'><strong>Kiwi Kash</strong><p><strong><font class='posOutcome'>You WON</font><p>You bet: 1</strong></font> &nbsp; &nbsp; &nbsp; &nbsp; &nbsp; &nbsp;<font class='posOutcome'>you receive: <strong>2</strong></font></div>","null","15","Kiwi Kash","Fruit/Kiwi.png","Won","0.2,0.8","13","0.2","210","44","",""
"","","","decision","6320e37620d067c7d322246a","bdp_rwlrn","Sat Apr 08 2023 11:07:17 GMT-0400 (Eastern Daylight Time)","504959","Trustworthy,Untrustworthy","html-keyboard-response","143","252741","0.0-11.0-1.44","","632","","<div class='trialDiv'><img src='Fruit/grapes.png'><br><font class='baseline'><strong>Great Grapes</strong><p>Choose number of points to bet.</font><div class='respPicDiv'><img src='img/responseButtonOffersNo0L.png' class='respPic'></div></div>","5","15","Great Grapes","Fruit/grapes.png","Won","0.65,0.2","8","0.65","215","45","",""
"","","","decisionFB","6320e37620d067c7d322246a","bdp_rwlrn","Sat Apr 08 2023 11:07:17 GMT-0400 (Eastern Daylight Time)","504959","Trustworthy,Untrustworthy","html-keyboard-response","144","252992","0.0-11.0-2.44","","null","","<div class='trialDiv'><img src='Fruit/grapes.png'><br><font class='baseline'><strong>Great Grapes</strong><p>Choose number of points to bet.</font><div class='respPicDiv'><img src='img/responseButtonOffersNo0L5.png' class='respPic'></div></div>","null","15","Great Grapes","Fruit/grapes.png","Won","0.65,0.2","8","0.65","210","45","",""
"","","","feedback","6320e37620d067c7d322246a","bdp_rwlrn","Sat Apr 08 2023 11:07:17 GMT-0400 (Eastern Daylight Time)","504959","Trustworthy,Untrustworthy","html-keyboard-response","145","253993","0.0-11.0-3.44","","null","","<div class='respPicDiv'><img src='img/responseButtonOffersNo0_wht.png' class='respPic'></div><div class='trialDiv'><img src='Fruit/grapes.png'><br><font class='baseline'><strong>Great Grapes</strong><p><strong><font class='posOutcome'>You WON</font><p>You bet: 5</strong></font> &nbsp; &nbsp; &nbsp; &nbsp; &nbsp; &nbsp;<font class='posOutcome'>you receive: <strong>10</strong></font></div>","null","15","Great Grapes","Fruit/grapes.png","Won","0.65,0.2","8","0.65","220","45","",""
"","","","decision","6320e37620d067c7d322246a","bdp_rwlrn","Sat Apr 08 2023 11:07:17 GMT-0400 (Eastern Daylight Time)","504959","Trustworthy,Untrustworthy","html-keyboard-response","146","254701","0.0-11.0-1.45","","707","","<div class='trialDiv'><img src='Fruit/cherrie.png'><br><font class='baseline'><strong>Cherry Chances</strong><p>Choose number of points to bet.</font><div class='respPicDiv'><img src='img/responseButtonOffersNo0L.png' class='respPic'></div></div>","1","16","Cherry Chances","Fruit/cherrie.png","Won","0.35,0.8","10","0.35","225","46","",""
"","","","decisionFB","6320e37620d067c7d322246a","bdp_rwlrn","Sat Apr 08 2023 11:07:17 GMT-0400 (Eastern Daylight Time)","504959","Trustworthy,Untrustworthy","html-keyboard-response","147","254952","0.0-11.0-2.45","","null","","<div class='trialDiv'><img src='Fruit/cherrie.png'><br><font class='baseline'><strong>Cherry Chances</strong><p>Choose number of points to bet.</font><div class='respPicDiv'><img src='img/responseButtonOffersNo0L1.png' class='respPic'></div></div>","null","16","Cherry Chances","Fruit/cherrie.png","Won","0.35,0.8","10","0.35","224","46","",""
"","","","feedback","6320e37620d067c7d322246a","bdp_rwlrn","Sat Apr 08 2023 11:07:17 GMT-0400 (Eastern Daylight Time)","504959","Trustworthy,Untrustworthy","html-keyboard-response","148","255952","0.0-11.0-3.45","","null","","<div class='respPicDiv'><img src='img/responseButtonOffersNo0_wht.png' class='respPic'></div><div class='trialDiv'><img src='Fruit/cherrie.png'><br><font class='baseline'><strong>Cherry Chances</strong><p><strong><font class='posOutcome'>You WON</font><p>You bet: 1</strong></font> &nbsp; &nbsp; &nbsp; &nbsp; &nbsp; &nbsp;<font class='posOutcome'>you receive: <strong>2</strong></font></div>","null","16","Cherry Chances","Fruit/cherrie.png","Won","0.35,0.8","10","0.35","226","46","",""
"","","","decision","6320e37620d067c7d322246a","bdp_rwlrn","Sat Apr 08 2023 11:07:17 GMT-0400 (Eastern Daylight Time)","504959","Trustworthy,Untrustworthy","html-keyboard-response","149","256923","0.0-11.0-1.46","","969","","<div class='trialDiv'><img src='Fruit/grapes.png'><br><font class='baseline'><strong>Great Grapes</strong><p>Choose number of points to bet.</font><div class='respPicDiv'><img src='img/responseButtonOffersNo0L.png' class='respPic'></div></div>","5","16","Great Grapes","Fruit/grapes.png","Lost","0.65,0.2","8","0.65","231","47","",""
"","","","decisionFB","6320e37620d067c7d322246a","bdp_rwlrn","Sat Apr 08 2023 11:07:17 GMT-0400 (Eastern Daylight Time)","504959","Trustworthy,Untrustworthy","html-keyboard-response","150","257174","0.0-11.0-2.46","","null","","<div class='trialDiv'><img src='Fruit/grapes.png'><br><font class='baseline'><strong>Great Grapes</strong><p>Choose number of points to bet.</font><div class='respPicDiv'><img src='img/responseButtonOffersNo0L5.png' class='respPic'></div></div>","null","16","Great Grapes","Fruit/grapes.png","Lost","0.65,0.2","8","0.65","226","47","",""
"","","","feedback","6320e37620d067c7d322246a","bdp_rwlrn","Sat Apr 08 2023 11:07:17 GMT-0400 (Eastern Daylight Time)","504959","Trustworthy,Untrustworthy","html-keyboard-response","151","258175","0.0-11.0-3.46","","null","","<div class='respPicDiv'><img src='img/responseButtonOffersNo0_wht.png' class='respPic'></div><div class='trialDiv'><img src='Fruit/grapes.png'><br><font class='baseline'><strong>Great Grapes</strong><p><strong><font class='negOutcome'>You LOST</font><p>You bet: 5</strong></font> &nbsp; &nbsp; &nbsp; &nbsp; &nbsp; &nbsp;<font class='negOutcome'>You receive: <strong>0</strong></font></div>","null","16","Great Grapes","Fruit/grapes.png","Lost","0.65,0.2","8","0.65","226","47","",""
"","","","decision","6320e37620d067c7d322246a","bdp_rwlrn","Sat Apr 08 2023 11:07:17 GMT-0400 (Eastern Daylight Time)","504959","Trustworthy,Untrustworthy","html-keyboard-response","152","258827","0.0-11.0-1.47","","652","","<div class='trialDiv'><img src='Fruit/Kiwi.png'><br><font class='baseline'><strong>Kiwi Kash</strong><p>Choose number of points to bet.</font><div class='respPicDiv'><img src='img/responseButtonOffersNo0L.png' class='respPic'></div></div>","1","16","Kiwi Kash","Fruit/Kiwi.png","Won","0.2,0.8","13","0.2","231","48","",""
"","","","decisionFB","6320e37620d067c7d322246a","bdp_rwlrn","Sat Apr 08 2023 11:07:17 GMT-0400 (Eastern Daylight Time)","504959","Trustworthy,Untrustworthy","html-keyboard-response","153","259078","0.0-11.0-2.47","","null","","<div class='trialDiv'><img src='Fruit/Kiwi.png'><br><font class='baseline'><strong>Kiwi Kash</strong><p>Choose number of points to bet.</font><div class='respPicDiv'><img src='img/responseButtonOffersNo0L1.png' class='respPic'></div></div>","null","16","Kiwi Kash","Fruit/Kiwi.png","Won","0.2,0.8","13","0.2","230","48","",""
"","","","feedback","6320e37620d067c7d322246a","bdp_rwlrn","Sat Apr 08 2023 11:07:17 GMT-0400 (Eastern Daylight Time)","504959","Trustworthy,Untrustworthy","html-keyboard-response","154","260079","0.0-11.0-3.47","","null","","<div class='respPicDiv'><img src='img/responseButtonOffersNo0_wht.png' class='respPic'></div><div class='trialDiv'><img src='Fruit/Kiwi.png'><br><font class='baseline'><strong>Kiwi Kash</strong><p><strong><font class='posOutcome'>You WON</font><p>You bet: 1</strong></font> &nbsp; &nbsp; &nbsp; &nbsp; &nbsp; &nbsp;<font class='posOutcome'>you receive: <strong>2</strong></font></div>","null","16","Kiwi Kash","Fruit/Kiwi.png","Won","0.2,0.8","13","0.2","232","48","",""
"","","","decision","6320e37620d067c7d322246a","bdp_rwlrn","Sat Apr 08 2023 11:07:17 GMT-0400 (Eastern Daylight Time)","504959","Trustworthy,Untrustworthy","html-keyboard-response","155","261475","0.0-11.0-1.48","","1396","","<div class='trialDiv'><img src='Fruit/grapes.png'><br><font class='baseline'><strong>Great Grapes</strong><p>Choose number of points to bet.</font><div class='respPicDiv'><img src='img/responseButtonOffersNo0L.png' class='respPic'></div></div>","5","17","Great Grapes","Fruit/grapes.png","Won","0.65,0.2","8","0.65","237","49","",""
"","","","decisionFB","6320e37620d067c7d322246a","bdp_rwlrn","Sat Apr 08 2023 11:07:17 GMT-0400 (Eastern Daylight Time)","504959","Trustworthy,Untrustworthy","html-keyboard-response","156","261726","0.0-11.0-2.48","","null","","<div class='trialDiv'><img src='Fruit/grapes.png'><br><font class='baseline'><strong>Great Grapes</strong><p>Choose number of points to bet.</font><div class='respPicDiv'><img src='img/responseButtonOffersNo0L5.png' class='respPic'></div></div>","null","17","Great Grapes","Fruit/grapes.png","Won","0.65,0.2","8","0.65","232","49","",""
"","","","feedback","6320e37620d067c7d322246a","bdp_rwlrn","Sat Apr 08 2023 11:07:17 GMT-0400 (Eastern Daylight Time)","504959","Trustworthy,Untrustworthy","html-keyboard-response","157","262727","0.0-11.0-3.48","","null","","<div class='respPicDiv'><img src='img/responseButtonOffersNo0_wht.png' class='respPic'></div><div class='trialDiv'><img src='Fruit/grapes.png'><br><font class='baseline'><strong>Great Grapes</strong><p><strong><font class='posOutcome'>You WON</font><p>You bet: 5</strong></font> &nbsp; &nbsp; &nbsp; &nbsp; &nbsp; &nbsp;<font class='posOutcome'>you receive: <strong>10</strong></font></div>","null","17","Great Grapes","Fruit/grapes.png","Won","0.65,0.2","8","0.65","242","49","",""
"","","","decision","6320e37620d067c7d322246a","bdp_rwlrn","Sat Apr 08 2023 11:07:17 GMT-0400 (Eastern Daylight Time)","504959","Trustworthy,Untrustworthy","html-keyboard-response","158","264804","0.0-11.0-1.49","","2077","","<div class='trialDiv'><img src='Fruit/Kiwi.png'><br><font class='baseline'><strong>Kiwi Kash</strong><p>Choose number of points to bet.</font><div class='respPicDiv'><img src='img/responseButtonOffersNo0L.png' class='respPic'></div></div>","5","17","Kiwi Kash","Fruit/Kiwi.png","Lost","0.2,0.8","13","0.2","247","50","",""
"","","","decisionFB","6320e37620d067c7d322246a","bdp_rwlrn","Sat Apr 08 2023 11:07:17 GMT-0400 (Eastern Daylight Time)","504959","Trustworthy,Untrustworthy","html-keyboard-response","159","265054","0.0-11.0-2.49","","null","","<div class='trialDiv'><img src='Fruit/Kiwi.png'><br><font class='baseline'><strong>Kiwi Kash</strong><p>Choose number of points to bet.</font><div class='respPicDiv'><img src='img/responseButtonOffersNo0L5.png' class='respPic'></div></div>","null","17","Kiwi Kash","Fruit/Kiwi.png","Lost","0.2,0.8","13","0.2","242","50","",""
"","","","feedback","6320e37620d067c7d322246a","bdp_rwlrn","Sat Apr 08 2023 11:07:17 GMT-0400 (Eastern Daylight Time)","504959","Trustworthy,Untrustworthy","html-keyboard-response","160","266055","0.0-11.0-3.49","","null","","<div class='respPicDiv'><img src='img/responseButtonOffersNo0_wht.png' class='respPic'></div><div class='trialDiv'><img src='Fruit/Kiwi.png'><br><font class='baseline'><strong>Kiwi Kash</strong><p><strong><font class='negOutcome'>You LOST</font><p>You bet: 5</strong></font> &nbsp; &nbsp; &nbsp; &nbsp; &nbsp; &nbsp;<font class='negOutcome'>You receive: <strong>0</strong></font></div>","null","17","Kiwi Kash","Fruit/Kiwi.png","Lost","0.2,0.8","13","0.2","242","50","",""
"","","","decision","6320e37620d067c7d322246a","bdp_rwlrn","Sat Apr 08 2023 11:07:17 GMT-0400 (Eastern Daylight Time)","504959","Trustworthy,Untrustworthy","html-keyboard-response","161","266348","0.0-11.0-1.50","","292","","<div class='trialDiv'><img src='Fruit/cherrie.png'><br><font class='baseline'><strong>Cherry Chances</strong><p>Choose number of points to bet.</font><div class='respPicDiv'><img src='img/responseButtonOffersNo0L.png' class='respPic'></div></div>","1","17","Cherry Chances","Fruit/cherrie.png","Won","0.35,0.8","10","0.35","247","51","",""
"","","","decisionFB","6320e37620d067c7d322246a","bdp_rwlrn","Sat Apr 08 2023 11:07:17 GMT-0400 (Eastern Daylight Time)","504959","Trustworthy,Untrustworthy","html-keyboard-response","162","266598","0.0-11.0-2.50","","null","","<div class='trialDiv'><img src='Fruit/cherrie.png'><br><font class='baseline'><strong>Cherry Chances</strong><p>Choose number of points to bet.</font><div class='respPicDiv'><img src='img/responseButtonOffersNo0L1.png' class='respPic'></div></div>","null","17","Cherry Chances","Fruit/cherrie.png","Won","0.35,0.8","10","0.35","246","51","",""
"","","","feedback","6320e37620d067c7d322246a","bdp_rwlrn","Sat Apr 08 2023 11:07:17 GMT-0400 (Eastern Daylight Time)","504959","Trustworthy,Untrustworthy","html-keyboard-response","163","267600","0.0-11.0-3.50","","null","","<div class='respPicDiv'><img src='img/responseButtonOffersNo0_wht.png' class='respPic'></div><div class='trialDiv'><img src='Fruit/cherrie.png'><br><font class='baseline'><strong>Cherry Chances</strong><p><strong><font class='posOutcome'>You WON</font><p>You bet: 1</strong></font> &nbsp; &nbsp; &nbsp; &nbsp; &nbsp; &nbsp;<font class='posOutcome'>you receive: <strong>2</strong></font></div>","null","17","Cherry Chances","Fruit/cherrie.png","Won","0.35,0.8","10","0.35","248","51","",""
"","","","decision","6320e37620d067c7d322246a","bdp_rwlrn","Sat Apr 08 2023 11:07:17 GMT-0400 (Eastern Daylight Time)","504959","Trustworthy,Untrustworthy","html-keyboard-response","164","268242","0.0-11.0-1.51","","642","","<div class='trialDiv'><img src='Fruit/grapes.png'><br><font class='baseline'><strong>Great Grapes</strong><p>Choose number of points to bet.</font><div class='respPicDiv'><img src='img/responseButtonOffersNo0L.png' class='respPic'></div></div>","5","18","Great Grapes","Fruit/grapes.png","Lost","0.65,0.2","8","0.65","253","52","",""
