"event","trial","time","trialtype","subject_id","task","startTime","totalTime","labels","numBlurs","trial_type","trial_index","time_elapsed","internal_node_id","view_history","rt","success","stimulus","key_press","ltround","name","fileID","outcome","lottotype","lottoswpt","lottocurrpshare","point_total","round","faceID","face"
"focus","0","0","focusevent","636570d91a49a6d6cbcbc854","bdp_rwlrn","Mon Mar 13 2023 21:38:44 GMT-0500 (GMT-05:00)","755416","Trustworthy,Untrustworthy","","","","","","","","","","","","","","","","","","","","",""
"blur","0","0","blurevent","636570d91a49a6d6cbcbc854","bdp_rwlrn","Mon Mar 13 2023 21:38:44 GMT-0500 (GMT-05:00)","755416","Trustworthy,Untrustworthy","1","","","","","","","","","","","","","","","","","","","",""
"","","","","636570d91a49a6d6cbcbc854","bdp_rwlrn","Mon Mar 13 2023 21:38:44 GMT-0500 (GMT-05:00)","755416","Trustworthy,Untrustworthy","","pavlovia","0","6","0.0-0.0","","","","","","","","","","","","","","","",""
"focus","1","2398","focusevent","636570d91a49a6d6cbcbc854","bdp_rwlrn","Mon Mar 13 2023 21:38:44 GMT-0500 (GMT-05:00)","755416","Trustworthy,Untrustworthy","","","","","","","","","","","","","","","","","","","","",""
"","","","","636570d91a49a6d6cbcbc854","bdp_rwlrn","Mon Mar 13 2023 21:38:44 GMT-0500 (GMT-05:00)","755416","Trustworthy,Untrustworthy","","instructions","1","21818","0.0-1.0","[{""page_index"":0,""viewing_time"":21809}]","21810","","","","","","","","","","","","","",""
"fullscreenexit","2","29435","fullscreenexit","636570d91a49a6d6cbcbc854","bdp_rwlrn","Mon Mar 13 2023 21:38:44 GMT-0500 (GMT-05:00)","755416","Trustworthy,Untrustworthy","","","","","","","","","","","","","","","","","","","","",""
"","","","","636570d91a49a6d6cbcbc854","bdp_rwlrn","Mon Mar 13 2023 21:38:44 GMT-0500 (GMT-05:00)","755416","Trustworthy,Untrustworthy","","fullscreen","2","30190","0.0-2.0","","","true","","","","","","","","","","","","",""
"","","","fullscreenfail","636570d91a49a6d6cbcbc854","bdp_rwlrn","Mon Mar 13 2023 21:38:44 GMT-0500 (GMT-05:00)","755416","Trustworthy,Untrustworthy","","image-keyboard-response","3","59680","0.0-3.0-0.0","","29486","","","32","","","","","","","","","","",""
"","","","","636570d91a49a6d6cbcbc854","bdp_rwlrn","Mon Mar 13 2023 21:38:44 GMT-0500 (GMT-05:00)","755416","Trustworthy,Untrustworthy","","instructions","4","288510","0.0-4.0","[{""page_index"":0,""viewing_time"":29888},{""page_index"":1,""viewing_time"":38014},{""page_index"":2,""viewing_time"":41152},{""page_index"":3,""viewing_time"":27696},{""page_index"":4,""viewing_time"":62256},{""page_index"":5,""viewing_time"":29559}]","228565","","","","","","","","","","","","","",""
"","","","","636570d91a49a6d6cbcbc854","bdp_rwlrn","Mon Mar 13 2023 21:38:44 GMT-0500 (GMT-05:00)","755416","Trustworthy,Untrustworthy","","html-keyboard-response","5","295774","0.0-5.0","","7262","","<div class='header' style='text-align:left; position: absolute; top: 5%; left: 5%;'><small>Task 1 of 5</small></div><div class='instruxDiv'><p><strong>1) What is the maximum number of points you can choose to bet on a lottery?</strong></p><p>a) 0</p><p>b) 1</p><p>c) 5</p>","C","","","","","","","","","","",""
"","","","","636570d91a49a6d6cbcbc854","bdp_rwlrn","Mon Mar 13 2023 21:38:44 GMT-0500 (GMT-05:00)","755416","Trustworthy,Untrustworthy","","html-keyboard-response","6","305581","0.0-6.0","","9702","","<div class='header' style='text-align:left; position: absolute; top: 5%; left: 5%;'><small>Task 1 of 5</small></div><div class='instruxDiv'><p><strong>1) What is the maximum number of points you can choose to bet on a lottery?</strong></p><p>a) 1</p><p>b) 1</p><p style='color:#00FF00'>c) 5</p><h3 style='color:#00FF00'>Correct!</h3><h3 class='center-content'>The correct response is c).</h3><h3 class='center-content'>The maximum number of points you can choose to bet on a lottery is 5 points.</h3><p><em>Press SPACEBAR to continue</em></p></div>"," ","","","","","","","","","","",""
"","","","","636570d91a49a6d6cbcbc854","bdp_rwlrn","Mon Mar 13 2023 21:38:44 GMT-0500 (GMT-05:00)","755416","Trustworthy,Untrustworthy","","html-keyboard-response","7","320021","0.0-7.0","","14334","","<div class='header' style='text-align:left; position: absolute; top: 5%; left: 5%;'><small>Task 1 of 5</small></div><div class='instruxDiv'><p><strong>2) How many points can you win each round?</strong></p><p>a) 10 points</p><p>b) Double what you bet</p><p>c) Quadruple what you bet</p>","B","","","","","","","","","","",""
"","","","","636570d91a49a6d6cbcbc854","bdp_rwlrn","Mon Mar 13 2023 21:38:44 GMT-0500 (GMT-05:00)","755416","Trustworthy,Untrustworthy","","html-keyboard-response","8","326637","0.0-8.0","","6502","","<div class='header' style='text-align:left; position: absolute; top: 5%; left: 5%;'><small>Task 1 of 5</small></div><div class='instruxDiv'><p><strong>2) How many points can you win each round?</strong></p><p>a) 10 points</p><p style='color:#00FF00'>b) Double what you bet</p><p>c) Quadruple what you bet</p><h3 style='color:#00FF00'>Correct!</h3><h3 class='center-content'>The correct response is b).</h3><h3 class='center-content'>You can win double the amount of points you bet.</h3><p><em>Press SPACEBAR to continue</em></p></div>"," ","","","","","","","","","","",""
"","","","","636570d91a49a6d6cbcbc854","bdp_rwlrn","Mon Mar 13 2023 21:38:44 GMT-0500 (GMT-05:00)","755416","Trustworthy,Untrustworthy","","html-keyboard-response","9","331749","0.0-9.0","","null","","<div class='header' style='text-align:left; position: absolute; top: 5%; left: 5%;'><small>Task 1 of 5</small></div><div class='instruxDiv'><p>Thank you for completing the quiz<p>These are the actual lotteries you will be playing in the next block:<p><div class='tc' align='center'><img class='introPic' src='Fruit/bananas.png'><br><strong>Banana Bonanza</strong></div><div class='bl' align='center'><img class='introPic' src='Fruit/mango.png'><br><strong>Mega Mangos</strong></div><div class='br' align='center'><img class='introPic' src='Fruit/watermelon.png'><br><strong>Watermelon Win$</strong></div></div><p>Across <strong>66 rounds</strong> you will play each lottery <strong>22 times</strong> (in random order).<p style='align:center; color:white'><font <em>Press SPACEBAR to continue</em></p>","null","","","","","","","","","","",""
"","","","","636570d91a49a6d6cbcbc854","bdp_rwlrn","Mon Mar 13 2023 21:38:44 GMT-0500 (GMT-05:00)","755416","Trustworthy,Untrustworthy","","instructions","10","376485","0.0-10.0","[{""page_index"":0,""viewing_time"":16879},{""page_index"":1,""viewing_time"":27856}]","44735","","","","","","","","","","","","","",""
"","","","decision","636570d91a49a6d6cbcbc854","bdp_rwlrn","Mon Mar 13 2023 21:38:44 GMT-0500 (GMT-05:00)","755416","Trustworthy,Untrustworthy","","html-keyboard-response","11","378133","0.0-11.0-1.0","","1531","","<div class='trialDiv'><img src='Fruit/bananas.png'><br><font class='baseline'><strong>Banana Bonanza</strong><p>Choose number of points to bet.</font><div class='respPicDiv'><img src='img/responseButtonOffersNo0L.png' class='respPic'></div></div>","3","1","Banana Bonanza","Fruit/bananas.png","Won","0.8,0.35","12","0.8","5","1","",""
"","","","decisionFB","636570d91a49a6d6cbcbc854","bdp_rwlrn","Mon Mar 13 2023 21:38:44 GMT-0500 (GMT-05:00)","755416","Trustworthy,Untrustworthy","","html-keyboard-response","12","378395","0.0-11.0-2.0","","null","","<div class='trialDiv'><img src='Fruit/bananas.png'><br><font class='baseline'><strong>Banana Bonanza</strong><p>Choose number of points to bet.</font><div class='respPicDiv'><img src='img/responseButtonOffersNo0L3.png' class='respPic'></div></div>","null","1","Banana Bonanza","Fruit/bananas.png","Won","0.8,0.35","12","0.8","2","1","",""
"","","","feedback","636570d91a49a6d6cbcbc854","bdp_rwlrn","Mon Mar 13 2023 21:38:44 GMT-0500 (GMT-05:00)","755416","Trustworthy,Untrustworthy","","html-keyboard-response","13","379397","0.0-11.0-3.0","","null","","<div class='respPicDiv'><img src='img/responseButtonOffersNo0_wht.png' class='respPic'></div><div class='trialDiv'><img src='Fruit/bananas.png'><br><font class='baseline'><strong>Banana Bonanza</strong><p><strong><font class='posOutcome'>You WON</font><p>You bet: 3</strong></font> &nbsp; &nbsp; &nbsp; &nbsp; &nbsp; &nbsp;<font class='posOutcome'>you receive: <strong>6</strong></font></div>","null","1","Banana Bonanza","Fruit/bananas.png","Won","0.8,0.35","12","0.8","8","1","",""
"","","","decision","636570d91a49a6d6cbcbc854","bdp_rwlrn","Mon Mar 13 2023 21:38:44 GMT-0500 (GMT-05:00)","755416","Trustworthy,Untrustworthy","","html-keyboard-response","14","380557","0.0-11.0-1.1","","1158","","<div class='trialDiv'><img src='Fruit/watermelon.png'><br><font class='baseline'><strong>Watermelon Win$</strong><p>Choose number of points to bet.</font><div class='respPicDiv'><img src='img/responseButtonOffersNo0L.png' class='respPic'></div></div>","2","1","Watermelon Win$","Fruit/watermelon.png","Lost","0.2,0.8","8","0.2","13","2","",""
"","","","decisionFB","636570d91a49a6d6cbcbc854","bdp_rwlrn","Mon Mar 13 2023 21:38:44 GMT-0500 (GMT-05:00)","755416","Trustworthy,Untrustworthy","","html-keyboard-response","15","380814","0.0-11.0-2.1","","null","","<div class='trialDiv'><img src='Fruit/watermelon.png'><br><font class='baseline'><strong>Watermelon Win$</strong><p>Choose number of points to bet.</font><div class='respPicDiv'><img src='img/responseButtonOffersNo0L2.png' class='respPic'></div></div>","null","1","Watermelon Win$","Fruit/watermelon.png","Lost","0.2,0.8","8","0.2","11","2","",""
"","","","feedback","636570d91a49a6d6cbcbc854","bdp_rwlrn","Mon Mar 13 2023 21:38:44 GMT-0500 (GMT-05:00)","755416","Trustworthy,Untrustworthy","","html-keyboard-response","16","381817","0.0-11.0-3.1","","null","","<div class='respPicDiv'><img src='img/responseButtonOffersNo0_wht.png' class='respPic'></div><div class='trialDiv'><img src='Fruit/watermelon.png'><br><font class='baseline'><strong>Watermelon Win$</strong><p><strong><font class='negOutcome'>You LOST</font><p>You bet: 2</strong></font> &nbsp; &nbsp; &nbsp; &nbsp; &nbsp; &nbsp;<font class='negOutcome'>You receive: <strong>0</strong></font></div>","null","1","Watermelon Win$","Fruit/watermelon.png","Lost","0.2,0.8","8","0.2","11","2","",""
"","","","decision","636570d91a49a6d6cbcbc854","bdp_rwlrn","Mon Mar 13 2023 21:38:44 GMT-0500 (GMT-05:00)","755416","Trustworthy,Untrustworthy","","html-keyboard-response","17","382780","0.0-11.0-1.2","","962","","<div class='trialDiv'><img src='Fruit/mango.png'><br><font class='baseline'><strong>Mega Mangos</strong><p>Choose number of points to bet.</font><div class='respPicDiv'><img src='img/responseButtonOffersNo0L.png' class='respPic'></div></div>","3","1","Mega Mangos","Fruit/mango.png","Lost","0.2,0.65","9","0.2","16","3","",""
"","","","decisionFB","636570d91a49a6d6cbcbc854","bdp_rwlrn","Mon Mar 13 2023 21:38:44 GMT-0500 (GMT-05:00)","755416","Trustworthy,Untrustworthy","","html-keyboard-response","18","383036","0.0-11.0-2.2","","null","","<div class='trialDiv'><img src='Fruit/mango.png'><br><font class='baseline'><strong>Mega Mangos</strong><p>Choose number of points to bet.</font><div class='respPicDiv'><img src='img/responseButtonOffersNo0L3.png' class='respPic'></div></div>","null","1","Mega Mangos","Fruit/mango.png","Lost","0.2,0.65","9","0.2","13","3","",""
"","","","feedback","636570d91a49a6d6cbcbc854","bdp_rwlrn","Mon Mar 13 2023 21:38:44 GMT-0500 (GMT-05:00)","755416","Trustworthy,Untrustworthy","","html-keyboard-response","19","384045","0.0-11.0-3.2","","null","","<div class='respPicDiv'><img src='img/responseButtonOffersNo0_wht.png' class='respPic'></div><div class='trialDiv'><img src='Fruit/mango.png'><br><font class='baseline'><strong>Mega Mangos</strong><p><strong><font class='negOutcome'>You LOST</font><p>You bet: 3</strong></font> &nbsp; &nbsp; &nbsp; &nbsp; &nbsp; &nbsp;<font class='negOutcome'>You receive: <strong>0</strong></font></div>","null","1","Mega Mangos","Fruit/mango.png","Lost","0.2,0.65","9","0.2","13","3","",""
"","","","decision","636570d91a49a6d6cbcbc854","bdp_rwlrn","Mon Mar 13 2023 21:38:44 GMT-0500 (GMT-05:00)","755416","Trustworthy,Untrustworthy","","html-keyboard-response","20","384701","0.0-11.0-1.3","","654","","<div class='trialDiv'><img src='Fruit/watermelon.png'><br><font class='baseline'><strong>Watermelon Win$</strong><p>Choose number of points to bet.</font><div class='respPicDiv'><img src='img/responseButtonOffersNo0L.png' class='respPic'></div></div>","4","2","Watermelon Win$","Fruit/watermelon.png","Lost","0.2,0.8","8","0.2","18","4","",""
"","","","decisionFB","636570d91a49a6d6cbcbc854","bdp_rwlrn","Mon Mar 13 2023 21:38:44 GMT-0500 (GMT-05:00)","755416","Trustworthy,Untrustworthy","","html-keyboard-response","21","384954","0.0-11.0-2.3","","null","","<div class='trialDiv'><img src='Fruit/watermelon.png'><br><font class='baseline'><strong>Watermelon Win$</strong><p>Choose number of points to bet.</font><div class='respPicDiv'><img src='img/responseButtonOffersNo0L4.png' class='respPic'></div></div>","null","2","Watermelon Win$","Fruit/watermelon.png","Lost","0.2,0.8","8","0.2","14","4","",""
"","","","feedback","636570d91a49a6d6cbcbc854","bdp_rwlrn","Mon Mar 13 2023 21:38:44 GMT-0500 (GMT-05:00)","755416","Trustworthy,Untrustworthy","","html-keyboard-response","22","385959","0.0-11.0-3.3","","null","","<div class='respPicDiv'><img src='img/responseButtonOffersNo0_wht.png' class='respPic'></div><div class='trialDiv'><img src='Fruit/watermelon.png'><br><font class='baseline'><strong>Watermelon Win$</strong><p><strong><font class='negOutcome'>You LOST</font><p>You bet: 4</strong></font> &nbsp; &nbsp; &nbsp; &nbsp; &nbsp; &nbsp;<font class='negOutcome'>You receive: <strong>0</strong></font></div>","null","2","Watermelon Win$","Fruit/watermelon.png","Lost","0.2,0.8","8","0.2","14","4","",""
"","","","decision","636570d91a49a6d6cbcbc854","bdp_rwlrn","Mon Mar 13 2023 21:38:44 GMT-0500 (GMT-05:00)","755416","Trustworthy,Untrustworthy","","html-keyboard-response","23","386805","0.0-11.0-1.4","","844","","<div class='trialDiv'><img src='Fruit/mango.png'><br><font class='baseline'><strong>Mega Mangos</strong><p>Choose number of points to bet.</font><div class='respPicDiv'><img src='img/responseButtonOffersNo0L.png' class='respPic'></div></div>","1","2","Mega Mangos","Fruit/mango.png","Lost","0.2,0.65","9","0.2","19","5","",""
"","","","decisionFB","636570d91a49a6d6cbcbc854","bdp_rwlrn","Mon Mar 13 2023 21:38:44 GMT-0500 (GMT-05:00)","755416","Trustworthy,Untrustworthy","","html-keyboard-response","24","387058","0.0-11.0-2.4","","null","","<div class='trialDiv'><img src='Fruit/mango.png'><br><font class='baseline'><strong>Mega Mangos</strong><p>Choose number of points to bet.</font><div class='respPicDiv'><img src='img/responseButtonOffersNo0L1.png' class='respPic'></div></div>","null","2","Mega Mangos","Fruit/mango.png","Lost","0.2,0.65","9","0.2","18","5","",""
"","","","feedback","636570d91a49a6d6cbcbc854","bdp_rwlrn","Mon Mar 13 2023 21:38:44 GMT-0500 (GMT-05:00)","755416","Trustworthy,Untrustworthy","","html-keyboard-response","25","388065","0.0-11.0-3.4","","null","","<div class='respPicDiv'><img src='img/responseButtonOffersNo0_wht.png' class='respPic'></div><div class='trialDiv'><img src='Fruit/mango.png'><br><font class='baseline'><strong>Mega Mangos</strong><p><strong><font class='negOutcome'>You LOST</font><p>You bet: 1</strong></font> &nbsp; &nbsp; &nbsp; &nbsp; &nbsp; &nbsp;<font class='negOutcome'>You receive: <strong>0</strong></font></div>","null","2","Mega Mangos","Fruit/mango.png","Lost","0.2,0.65","9","0.2","18","5","",""
"","","","decision","636570d91a49a6d6cbcbc854","bdp_rwlrn","Mon Mar 13 2023 21:38:44 GMT-0500 (GMT-05:00)","755416","Trustworthy,Untrustworthy","","html-keyboard-response","26","389293","0.0-11.0-1.5","","1227","","<div class='trialDiv'><img src='Fruit/bananas.png'><br><font class='baseline'><strong>Banana Bonanza</strong><p>Choose number of points to bet.</font><div class='respPicDiv'><img src='img/responseButtonOffersNo0L.png' class='respPic'></div></div>","2","2","Banana Bonanza","Fruit/bananas.png","Lost","0.8,0.35","12","0.8","23","6","",""
"","","","decisionFB","636570d91a49a6d6cbcbc854","bdp_rwlrn","Mon Mar 13 2023 21:38:44 GMT-0500 (GMT-05:00)","755416","Trustworthy,Untrustworthy","","html-keyboard-response","27","389548","0.0-11.0-2.5","","null","","<div class='trialDiv'><img src='Fruit/bananas.png'><br><font class='baseline'><strong>Banana Bonanza</strong><p>Choose number of points to bet.</font><div class='respPicDiv'><img src='img/responseButtonOffersNo0L2.png' class='respPic'></div></div>","null","2","Banana Bonanza","Fruit/bananas.png","Lost","0.8,0.35","12","0.8","21","6","",""
"","","","feedback","636570d91a49a6d6cbcbc854","bdp_rwlrn","Mon Mar 13 2023 21:38:44 GMT-0500 (GMT-05:00)","755416","Trustworthy,Untrustworthy","","html-keyboard-response","28","390552","0.0-11.0-3.5","","null","","<div class='respPicDiv'><img src='img/responseButtonOffersNo0_wht.png' class='respPic'></div><div class='trialDiv'><img src='Fruit/bananas.png'><br><font class='baseline'><strong>Banana Bonanza</strong><p><strong><font class='negOutcome'>You LOST</font><p>You bet: 2</strong></font> &nbsp; &nbsp; &nbsp; &nbsp; &nbsp; &nbsp;<font class='negOutcome'>You receive: <strong>0</strong></font></div>","null","2","Banana Bonanza","Fruit/bananas.png","Lost","0.8,0.35","12","0.8","21","6","",""
"","","","decision","636570d91a49a6d6cbcbc854","bdp_rwlrn","Mon Mar 13 2023 21:38:44 GMT-0500 (GMT-05:00)","755416","Trustworthy,Untrustworthy","","html-keyboard-response","29","391428","0.0-11.0-1.6","","876","","<div class='trialDiv'><img src='Fruit/mango.png'><br><font class='baseline'><strong>Mega Mangos</strong><p>Choose number of points to bet.</font><div class='respPicDiv'><img src='img/responseButtonOffersNo0L.png' class='respPic'></div></div>","3","3","Mega Mangos","Fruit/mango.png","Lost","0.2,0.65","9","0.2","26","7","",""
"","","","decisionFB","636570d91a49a6d6cbcbc854","bdp_rwlrn","Mon Mar 13 2023 21:38:44 GMT-0500 (GMT-05:00)","755416","Trustworthy,Untrustworthy","","html-keyboard-response","30","391680","0.0-11.0-2.6","","null","","<div class='trialDiv'><img src='Fruit/mango.png'><br><font class='baseline'><strong>Mega Mangos</strong><p>Choose number of points to bet.</font><div class='respPicDiv'><img src='img/responseButtonOffersNo0L3.png' class='respPic'></div></div>","null","3","Mega Mangos","Fruit/mango.png","Lost","0.2,0.65","9","0.2","23","7","",""
"","","","feedback","636570d91a49a6d6cbcbc854","bdp_rwlrn","Mon Mar 13 2023 21:38:44 GMT-0500 (GMT-05:00)","755416","Trustworthy,Untrustworthy","","html-keyboard-response","31","392685","0.0-11.0-3.6","","null","","<div class='respPicDiv'><img src='img/responseButtonOffersNo0_wht.png' class='respPic'></div><div class='trialDiv'><img src='Fruit/mango.png'><br><font class='baseline'><strong>Mega Mangos</strong><p><strong><font class='negOutcome'>You LOST</font><p>You bet: 3</strong></font> &nbsp; &nbsp; &nbsp; &nbsp; &nbsp; &nbsp;<font class='negOutcome'>You receive: <strong>0</strong></font></div>","null","3","Mega Mangos","Fruit/mango.png","Lost","0.2,0.65","9","0.2","23","7","",""
"","","","decision","636570d91a49a6d6cbcbc854","bdp_rwlrn","Mon Mar 13 2023 21:38:44 GMT-0500 (GMT-05:00)","755416","Trustworthy,Untrustworthy","","html-keyboard-response","32","393492","0.0-11.0-1.7","","807","","<div class='trialDiv'><img src='Fruit/watermelon.png'><br><font class='baseline'><strong>Watermelon Win$</strong><p>Choose number of points to bet.</font><div class='respPicDiv'><img src='img/responseButtonOffersNo0L.png' class='respPic'></div></div>","4","3","Watermelon Win$","Fruit/watermelon.png","Lost","0.2,0.8","8","0.2","28","8","",""
"","","","decisionFB","636570d91a49a6d6cbcbc854","bdp_rwlrn","Mon Mar 13 2023 21:38:44 GMT-0500 (GMT-05:00)","755416","Trustworthy,Untrustworthy","","html-keyboard-response","33","393755","0.0-11.0-2.7","","null","","<div class='trialDiv'><img src='Fruit/watermelon.png'><br><font class='baseline'><strong>Watermelon Win$</strong><p>Choose number of points to bet.</font><div class='respPicDiv'><img src='img/responseButtonOffersNo0L4.png' class='respPic'></div></div>","null","3","Watermelon Win$","Fruit/watermelon.png","Lost","0.2,0.8","8","0.2","24","8","",""
"","","","feedback","636570d91a49a6d6cbcbc854","bdp_rwlrn","Mon Mar 13 2023 21:38:44 GMT-0500 (GMT-05:00)","755416","Trustworthy,Untrustworthy","","html-keyboard-response","34","394761","0.0-11.0-3.7","","null","","<div class='respPicDiv'><img src='img/responseButtonOffersNo0_wht.png' class='respPic'></div><div class='trialDiv'><img src='Fruit/watermelon.png'><br><font class='baseline'><strong>Watermelon Win$</strong><p><strong><font class='negOutcome'>You LOST</font><p>You bet: 4</strong></font> &nbsp; &nbsp; &nbsp; &nbsp; &nbsp; &nbsp;<font class='negOutcome'>You receive: <strong>0</strong></font></div>","null","3","Watermelon Win$","Fruit/watermelon.png","Lost","0.2,0.8","8","0.2","24","8","",""
"","","","decision","636570d91a49a6d6cbcbc854","bdp_rwlrn","Mon Mar 13 2023 21:38:44 GMT-0500 (GMT-05:00)","755416","Trustworthy,Untrustworthy","","html-keyboard-response","35","395572","0.0-11.0-1.8","","811","","<div class='trialDiv'><img src='Fruit/bananas.png'><br><font class='baseline'><strong>Banana Bonanza</strong><p>Choose number of points to bet.</font><div class='respPicDiv'><img src='img/responseButtonOffersNo0L.png' class='respPic'></div></div>","2","3","Banana Bonanza","Fruit/bananas.png","Won","0.8,0.35","12","0.8","29","9","",""
"","","","decisionFB","636570d91a49a6d6cbcbc854","bdp_rwlrn","Mon Mar 13 2023 21:38:44 GMT-0500 (GMT-05:00)","755416","Trustworthy,Untrustworthy","","html-keyboard-response","36","395827","0.0-11.0-2.8","","null","","<div class='trialDiv'><img src='Fruit/bananas.png'><br><font class='baseline'><strong>Banana Bonanza</strong><p>Choose number of points to bet.</font><div class='respPicDiv'><img src='img/responseButtonOffersNo0L2.png' class='respPic'></div></div>","null","3","Banana Bonanza","Fruit/bananas.png","Won","0.8,0.35","12","0.8","27","9","",""
"","","","feedback","636570d91a49a6d6cbcbc854","bdp_rwlrn","Mon Mar 13 2023 21:38:44 GMT-0500 (GMT-05:00)","755416","Trustworthy,Untrustworthy","","html-keyboard-response","37","396830","0.0-11.0-3.8","","null","","<div class='respPicDiv'><img src='img/responseButtonOffersNo0_wht.png' class='respPic'></div><div class='trialDiv'><img src='Fruit/bananas.png'><br><font class='baseline'><strong>Banana Bonanza</strong><p><strong><font class='posOutcome'>You WON</font><p>You bet: 2</strong></font> &nbsp; &nbsp; &nbsp; &nbsp; &nbsp; &nbsp;<font class='posOutcome'>you receive: <strong>4</strong></font></div>","null","3","Banana Bonanza","Fruit/bananas.png","Won","0.8,0.35","12","0.8","31","9","",""
"","","","decision","636570d91a49a6d6cbcbc854","bdp_rwlrn","Mon Mar 13 2023 21:38:44 GMT-0500 (GMT-05:00)","755416","Trustworthy,Untrustworthy","","html-keyboard-response","38","397925","0.0-11.0-1.9","","1094","","<div class='trialDiv'><img src='Fruit/mango.png'><br><font class='baseline'><strong>Mega Mangos</strong><p>Choose number of points to bet.</font><div class='respPicDiv'><img src='img/responseButtonOffersNo0L.png' class='respPic'></div></div>","3","4","Mega Mangos","Fruit/mango.png","Lost","0.2,0.65","9","0.2","36","10","",""
"","","","decisionFB","636570d91a49a6d6cbcbc854","bdp_rwlrn","Mon Mar 13 2023 21:38:44 GMT-0500 (GMT-05:00)","755416","Trustworthy,Untrustworthy","","html-keyboard-response","39","398185","0.0-11.0-2.9","","null","","<div class='trialDiv'><img src='Fruit/mango.png'><br><font class='baseline'><strong>Mega Mangos</strong><p>Choose number of points to bet.</font><div class='respPicDiv'><img src='img/responseButtonOffersNo0L3.png' class='respPic'></div></div>","null","4","Mega Mangos","Fruit/mango.png","Lost","0.2,0.65","9","0.2","33","10","",""
"","","","feedback","636570d91a49a6d6cbcbc854","bdp_rwlrn","Mon Mar 13 2023 21:38:44 GMT-0500 (GMT-05:00)","755416","Trustworthy,Untrustworthy","","html-keyboard-response","40","399187","0.0-11.0-3.9","","null","","<div class='respPicDiv'><img src='img/responseButtonOffersNo0_wht.png' class='respPic'></div><div class='trialDiv'><img src='Fruit/mango.png'><br><font class='baseline'><strong>Mega Mangos</strong><p><strong><font class='negOutcome'>You LOST</font><p>You bet: 3</strong></font> &nbsp; &nbsp; &nbsp; &nbsp; &nbsp; &nbsp;<font class='negOutcome'>You receive: <strong>0</strong></font></div>","null","4","Mega Mangos","Fruit/mango.png","Lost","0.2,0.65","9","0.2","33","10","",""
"","","","decision","636570d91a49a6d6cbcbc854","bdp_rwlrn","Mon Mar 13 2023 21:38:44 GMT-0500 (GMT-05:00)","755416","Trustworthy,Untrustworthy","","html-keyboard-response","41","400204","0.0-11.0-1.10","","1016","","<div class='trialDiv'><img src='Fruit/bananas.png'><br><font class='baseline'><strong>Banana Bonanza</strong><p>Choose number of points to bet.</font><div class='respPicDiv'><img src='img/responseButtonOffersNo0L.png' class='respPic'></div></div>","2","4","Banana Bonanza","Fruit/bananas.png","Lost","0.8,0.35","12","0.8","38","11","",""
"","","","decisionFB","636570d91a49a6d6cbcbc854","bdp_rwlrn","Mon Mar 13 2023 21:38:44 GMT-0500 (GMT-05:00)","755416","Trustworthy,Untrustworthy","","html-keyboard-response","42","400463","0.0-11.0-2.10","","null","","<div class='trialDiv'><img src='Fruit/bananas.png'><br><font class='baseline'><strong>Banana Bonanza</strong><p>Choose number of points to bet.</font><div class='respPicDiv'><img src='img/responseButtonOffersNo0L2.png' class='respPic'></div></div>","null","4","Banana Bonanza","Fruit/bananas.png","Lost","0.8,0.35","12","0.8","36","11","",""
"","","","feedback","636570d91a49a6d6cbcbc854","bdp_rwlrn","Mon Mar 13 2023 21:38:44 GMT-0500 (GMT-05:00)","755416","Trustworthy,Untrustworthy","","html-keyboard-response","43","401467","0.0-11.0-3.10","","null","","<div class='respPicDiv'><img src='img/responseButtonOffersNo0_wht.png' class='respPic'></div><div class='trialDiv'><img src='Fruit/bananas.png'><br><font class='baseline'><strong>Banana Bonanza</strong><p><strong><font class='negOutcome'>You LOST</font><p>You bet: 2</strong></font> &nbsp; &nbsp; &nbsp; &nbsp; &nbsp; &nbsp;<font class='negOutcome'>You receive: <strong>0</strong></font></div>","null","4","Banana Bonanza","Fruit/bananas.png","Lost","0.8,0.35","12","0.8","36","11","",""
"","","","decision","636570d91a49a6d6cbcbc854","bdp_rwlrn","Mon Mar 13 2023 21:38:44 GMT-0500 (GMT-05:00)","755416","Trustworthy,Untrustworthy","","html-keyboard-response","44","402228","0.0-11.0-1.11","","761","","<div class='trialDiv'><img src='Fruit/watermelon.png'><br><font class='baseline'><strong>Watermelon Win$</strong><p>Choose number of points to bet.</font><div class='respPicDiv'><img src='img/responseButtonOffersNo0L.png' class='respPic'></div></div>","3","4","Watermelon Win$","Fruit/watermelon.png","Lost","0.2,0.8","8","0.2","41","12","",""
"","","","decisionFB","636570d91a49a6d6cbcbc854","bdp_rwlrn","Mon Mar 13 2023 21:38:44 GMT-0500 (GMT-05:00)","755416","Trustworthy,Untrustworthy","","html-keyboard-response","45","402481","0.0-11.0-2.11","","null","","<div class='trialDiv'><img src='Fruit/watermelon.png'><br><font class='baseline'><strong>Watermelon Win$</strong><p>Choose number of points to bet.</font><div class='respPicDiv'><img src='img/responseButtonOffersNo0L3.png' class='respPic'></div></div>","null","4","Watermelon Win$","Fruit/watermelon.png","Lost","0.2,0.8","8","0.2","38","12","",""
"","","","feedback","636570d91a49a6d6cbcbc854","bdp_rwlrn","Mon Mar 13 2023 21:38:44 GMT-0500 (GMT-05:00)","755416","Trustworthy,Untrustworthy","","html-keyboard-response","46","403485","0.0-11.0-3.11","","null","","<div class='respPicDiv'><img src='img/responseButtonOffersNo0_wht.png' class='respPic'></div><div class='trialDiv'><img src='Fruit/watermelon.png'><br><font class='baseline'><strong>Watermelon Win$</strong><p><strong><font class='negOutcome'>You LOST</font><p>You bet: 3</strong></font> &nbsp; &nbsp; &nbsp; &nbsp; &nbsp; &nbsp;<font class='negOutcome'>You receive: <strong>0</strong></font></div>","null","4","Watermelon Win$","Fruit/watermelon.png","Lost","0.2,0.8","8","0.2","38","12","",""
"","","","decision","636570d91a49a6d6cbcbc854","bdp_rwlrn","Mon Mar 13 2023 21:38:44 GMT-0500 (GMT-05:00)","755416","Trustworthy,Untrustworthy","","html-keyboard-response","47","403980","0.0-11.0-1.12","","494","","<div class='trialDiv'><img src='Fruit/mango.png'><br><font class='baseline'><strong>Mega Mangos</strong><p>Choose number of points to bet.</font><div class='respPicDiv'><img src='img/responseButtonOffersNo0L.png' class='respPic'></div></div>","1","5","Mega Mangos","Fruit/mango.png","Lost","0.2,0.65","9","0.2","43","13","",""
"","","","decisionFB","636570d91a49a6d6cbcbc854","bdp_rwlrn","Mon Mar 13 2023 21:38:44 GMT-0500 (GMT-05:00)","755416","Trustworthy,Untrustworthy","","html-keyboard-response","48","404247","0.0-11.0-2.12","","null","","<div class='trialDiv'><img src='Fruit/mango.png'><br><font class='baseline'><strong>Mega Mangos</strong><p>Choose number of points to bet.</font><div class='respPicDiv'><img src='img/responseButtonOffersNo0L1.png' class='respPic'></div></div>","null","5","Mega Mangos","Fruit/mango.png","Lost","0.2,0.65","9","0.2","42","13","",""
"","","","feedback","636570d91a49a6d6cbcbc854","bdp_rwlrn","Mon Mar 13 2023 21:38:44 GMT-0500 (GMT-05:00)","755416","Trustworthy,Untrustworthy","","html-keyboard-response","49","405251","0.0-11.0-3.12","","null","","<div class='respPicDiv'><img src='img/responseButtonOffersNo0_wht.png' class='respPic'></div><div class='trialDiv'><img src='Fruit/mango.png'><br><font class='baseline'><strong>Mega Mangos</strong><p><strong><font class='negOutcome'>You LOST</font><p>You bet: 1</strong></font> &nbsp; &nbsp; &nbsp; &nbsp; &nbsp; &nbsp;<font class='negOutcome'>You receive: <strong>0</strong></font></div>","null","5","Mega Mangos","Fruit/mango.png","Lost","0.2,0.65","9","0.2","42","13","",""
"","","","decision","636570d91a49a6d6cbcbc854","bdp_rwlrn","Mon Mar 13 2023 21:38:44 GMT-0500 (GMT-05:00)","755416","Trustworthy,Untrustworthy","","html-keyboard-response","50","405901","0.0-11.0-1.13","","648","","<div class='trialDiv'><img src='Fruit/watermelon.png'><br><font class='baseline'><strong>Watermelon Win$</strong><p>Choose number of points to bet.</font><div class='respPicDiv'><img src='img/responseButtonOffersNo0L.png' class='respPic'></div></div>","3","5","Watermelon Win$","Fruit/watermelon.png","Lost","0.2,0.8","8","0.2","47","14","",""
"","","","decisionFB","636570d91a49a6d6cbcbc854","bdp_rwlrn","Mon Mar 13 2023 21:38:44 GMT-0500 (GMT-05:00)","755416","Trustworthy,Untrustworthy","","html-keyboard-response","51","406154","0.0-11.0-2.13","","null","","<div class='trialDiv'><img src='Fruit/watermelon.png'><br><font class='baseline'><strong>Watermelon Win$</strong><p>Choose number of points to bet.</font><div class='respPicDiv'><img src='img/responseButtonOffersNo0L3.png' class='respPic'></div></div>","null","5","Watermelon Win$","Fruit/watermelon.png","Lost","0.2,0.8","8","0.2","44","14","",""
"","","","feedback","636570d91a49a6d6cbcbc854","bdp_rwlrn","Mon Mar 13 2023 21:38:44 GMT-0500 (GMT-05:00)","755416","Trustworthy,Untrustworthy","","html-keyboard-response","52","407159","0.0-11.0-3.13","","null","","<div class='respPicDiv'><img src='img/responseButtonOffersNo0_wht.png' class='respPic'></div><div class='trialDiv'><img src='Fruit/watermelon.png'><br><font class='baseline'><strong>Watermelon Win$</strong><p><strong><font class='negOutcome'>You LOST</font><p>You bet: 3</strong></font> &nbsp; &nbsp; &nbsp; &nbsp; &nbsp; &nbsp;<font class='negOutcome'>You receive: <strong>0</strong></font></div>","null","5","Watermelon Win$","Fruit/watermelon.png","Lost","0.2,0.8","8","0.2","44","14","",""
"","","","decision","636570d91a49a6d6cbcbc854","bdp_rwlrn","Mon Mar 13 2023 21:38:44 GMT-0500 (GMT-05:00)","755416","Trustworthy,Untrustworthy","","html-keyboard-response","53","408037","0.0-11.0-1.14","","877","","<div class='trialDiv'><img src='Fruit/bananas.png'><br><font class='baseline'><strong>Banana Bonanza</strong><p>Choose number of points to bet.</font><div class='respPicDiv'><img src='img/responseButtonOffersNo0L.png' class='respPic'></div></div>","4","5","Banana Bonanza","Fruit/bananas.png","Won","0.8,0.35","12","0.8","49","15","",""
"","","","decisionFB","636570d91a49a6d6cbcbc854","bdp_rwlrn","Mon Mar 13 2023 21:38:44 GMT-0500 (GMT-05:00)","755416","Trustworthy,Untrustworthy","","html-keyboard-response","54","408289","0.0-11.0-2.14","","null","","<div class='trialDiv'><img src='Fruit/bananas.png'><br><font class='baseline'><strong>Banana Bonanza</strong><p>Choose number of points to bet.</font><div class='respPicDiv'><img src='img/responseButtonOffersNo0L4.png' class='respPic'></div></div>","null","5","Banana Bonanza","Fruit/bananas.png","Won","0.8,0.35","12","0.8","45","15","",""
"","","","feedback","636570d91a49a6d6cbcbc854","bdp_rwlrn","Mon Mar 13 2023 21:38:44 GMT-0500 (GMT-05:00)","755416","Trustworthy,Untrustworthy","","html-keyboard-response","55","409294","0.0-11.0-3.14","","null","","<div class='respPicDiv'><img src='img/responseButtonOffersNo0_wht.png' class='respPic'></div><div class='trialDiv'><img src='Fruit/bananas.png'><br><font class='baseline'><strong>Banana Bonanza</strong><p><strong><font class='posOutcome'>You WON</font><p>You bet: 4</strong></font> &nbsp; &nbsp; &nbsp; &nbsp; &nbsp; &nbsp;<font class='posOutcome'>you receive: <strong>8</strong></font></div>","null","5","Banana Bonanza","Fruit/bananas.png","Won","0.8,0.35","12","0.8","53","15","",""
"","","","decision","636570d91a49a6d6cbcbc854","bdp_rwlrn","Mon Mar 13 2023 21:38:44 GMT-0500 (GMT-05:00)","755416","Trustworthy,Untrustworthy","","html-keyboard-response","56","410269","0.0-11.0-1.15","","973","","<div class='trialDiv'><img src='Fruit/mango.png'><br><font class='baseline'><strong>Mega Mangos</strong><p>Choose number of points to bet.</font><div class='respPicDiv'><img src='img/responseButtonOffersNo0L.png' class='respPic'></div></div>","4","6","Mega Mangos","Fruit/mango.png","Lost","0.2,0.65","9","0.2","58","16","",""
"","","","decisionFB","636570d91a49a6d6cbcbc854","bdp_rwlrn","Mon Mar 13 2023 21:38:44 GMT-0500 (GMT-05:00)","755416","Trustworthy,Untrustworthy","","html-keyboard-response","57","410519","0.0-11.0-2.15","","null","","<div class='trialDiv'><img src='Fruit/mango.png'><br><font class='baseline'><strong>Mega Mangos</strong><p>Choose number of points to bet.</font><div class='respPicDiv'><img src='img/responseButtonOffersNo0L4.png' class='respPic'></div></div>","null","6","Mega Mangos","Fruit/mango.png","Lost","0.2,0.65","9","0.2","54","16","",""
"","","","feedback","636570d91a49a6d6cbcbc854","bdp_rwlrn","Mon Mar 13 2023 21:38:44 GMT-0500 (GMT-05:00)","755416","Trustworthy,Untrustworthy","","html-keyboard-response","58","411522","0.0-11.0-3.15","","null","","<div class='respPicDiv'><img src='img/responseButtonOffersNo0_wht.png' class='respPic'></div><div class='trialDiv'><img src='Fruit/mango.png'><br><font class='baseline'><strong>Mega Mangos</strong><p><strong><font class='negOutcome'>You LOST</font><p>You bet: 4</strong></font> &nbsp; &nbsp; &nbsp; &nbsp; &nbsp; &nbsp;<font class='negOutcome'>You receive: <strong>0</strong></font></div>","null","6","Mega Mangos","Fruit/mango.png","Lost","0.2,0.65","9","0.2","54","16","",""
"","","","decision","636570d91a49a6d6cbcbc854","bdp_rwlrn","Mon Mar 13 2023 21:38:44 GMT-0500 (GMT-05:00)","755416","Trustworthy,Untrustworthy","","html-keyboard-response","59","412101","0.0-11.0-1.16","","578","","<div class='trialDiv'><img src='Fruit/watermelon.png'><br><font class='baseline'><strong>Watermelon Win$</strong><p>Choose number of points to bet.</font><div class='respPicDiv'><img src='img/responseButtonOffersNo0L.png' class='respPic'></div></div>","4","6","Watermelon Win$","Fruit/watermelon.png","Lost","0.2,0.8","8","0.2","59","17","",""
"","","","decisionFB","636570d91a49a6d6cbcbc854","bdp_rwlrn","Mon Mar 13 2023 21:38:44 GMT-0500 (GMT-05:00)","755416","Trustworthy,Untrustworthy","","html-keyboard-response","60","412364","0.0-11.0-2.16","","null","","<div class='trialDiv'><img src='Fruit/watermelon.png'><br><font class='baseline'><strong>Watermelon Win$</strong><p>Choose number of points to bet.</font><div class='respPicDiv'><img src='img/responseButtonOffersNo0L4.png' class='respPic'></div></div>","null","6","Watermelon Win$","Fruit/watermelon.png","Lost","0.2,0.8","8","0.2","55","17","",""
"","","","feedback","636570d91a49a6d6cbcbc854","bdp_rwlrn","Mon Mar 13 2023 21:38:44 GMT-0500 (GMT-05:00)","755416","Trustworthy,Untrustworthy","","html-keyboard-response","61","413377","0.0-11.0-3.16","","null","","<div class='respPicDiv'><img src='img/responseButtonOffersNo0_wht.png' class='respPic'></div><div class='trialDiv'><img src='Fruit/watermelon.png'><br><font class='baseline'><strong>Watermelon Win$</strong><p><strong><font class='negOutcome'>You LOST</font><p>You bet: 4</strong></font> &nbsp; &nbsp; &nbsp; &nbsp; &nbsp; &nbsp;<font class='negOutcome'>You receive: <strong>0</strong></font></div>","null","6","Watermelon Win$","Fruit/watermelon.png","Lost","0.2,0.8","8","0.2","55","17","",""
"","","","decision","636570d91a49a6d6cbcbc854","bdp_rwlrn","Mon Mar 13 2023 21:38:44 GMT-0500 (GMT-05:00)","755416","Trustworthy,Untrustworthy","","html-keyboard-response","62","414508","0.0-11.0-1.17","","1129","","<div class='trialDiv'><img src='Fruit/bananas.png'><br><font class='baseline'><strong>Banana Bonanza</strong><p>Choose number of points to bet.</font><div class='respPicDiv'><img src='img/responseButtonOffersNo0L.png' class='respPic'></div></div>","1","6","Banana Bonanza","Fruit/bananas.png","Won","0.8,0.35","12","0.8","60","18","",""
"","","","decisionFB","636570d91a49a6d6cbcbc854","bdp_rwlrn","Mon Mar 13 2023 21:38:44 GMT-0500 (GMT-05:00)","755416","Trustworthy,Untrustworthy","","html-keyboard-response","63","414761","0.0-11.0-2.17","","null","","<div class='trialDiv'><img src='Fruit/bananas.png'><br><font class='baseline'><strong>Banana Bonanza</strong><p>Choose number of points to bet.</font><div class='respPicDiv'><img src='img/responseButtonOffersNo0L1.png' class='respPic'></div></div>","null","6","Banana Bonanza","Fruit/bananas.png","Won","0.8,0.35","12","0.8","59","18","",""
"","","","feedback","636570d91a49a6d6cbcbc854","bdp_rwlrn","Mon Mar 13 2023 21:38:44 GMT-0500 (GMT-05:00)","755416","Trustworthy,Untrustworthy","","html-keyboard-response","64","415776","0.0-11.0-3.17","","null","","<div class='respPicDiv'><img src='img/responseButtonOffersNo0_wht.png' class='respPic'></div><div class='trialDiv'><img src='Fruit/bananas.png'><br><font class='baseline'><strong>Banana Bonanza</strong><p><strong><font class='posOutcome'>You WON</font><p>You bet: 1</strong></font> &nbsp; &nbsp; &nbsp; &nbsp; &nbsp; &nbsp;<font class='posOutcome'>you receive: <strong>2</strong></font></div>","null","6","Banana Bonanza","Fruit/bananas.png","Won","0.8,0.35","12","0.8","61","18","",""
"","","","decision","636570d91a49a6d6cbcbc854","bdp_rwlrn","Mon Mar 13 2023 21:38:44 GMT-0500 (GMT-05:00)","755416","Trustworthy,Untrustworthy","","html-keyboard-response","65","416909","0.0-11.0-1.18","","1131","","<div class='trialDiv'><img src='Fruit/watermelon.png'><br><font class='baseline'><strong>Watermelon Win$</strong><p>Choose number of points to bet.</font><div class='respPicDiv'><img src='img/responseButtonOffersNo0L.png' class='respPic'></div></div>","3","7","Watermelon Win$","Fruit/watermelon.png","Lost","0.2,0.8","8","0.2","66","19","",""
"","","","decisionFB","636570d91a49a6d6cbcbc854","bdp_rwlrn","Mon Mar 13 2023 21:38:44 GMT-0500 (GMT-05:00)","755416","Trustworthy,Untrustworthy","","html-keyboard-response","66","417167","0.0-11.0-2.18","","null","","<div class='trialDiv'><img src='Fruit/watermelon.png'><br><font class='baseline'><strong>Watermelon Win$</strong><p>Choose number of points to bet.</font><div class='respPicDiv'><img src='img/responseButtonOffersNo0L3.png' class='respPic'></div></div>","null","7","Watermelon Win$","Fruit/watermelon.png","Lost","0.2,0.8","8","0.2","63","19","",""
"","","","feedback","636570d91a49a6d6cbcbc854","bdp_rwlrn","Mon Mar 13 2023 21:38:44 GMT-0500 (GMT-05:00)","755416","Trustworthy,Untrustworthy","","html-keyboard-response","67","418171","0.0-11.0-3.18","","null","","<div class='respPicDiv'><img src='img/responseButtonOffersNo0_wht.png' class='respPic'></div><div class='trialDiv'><img src='Fruit/watermelon.png'><br><font class='baseline'><strong>Watermelon Win$</strong><p><strong><font class='negOutcome'>You LOST</font><p>You bet: 3</strong></font> &nbsp; &nbsp; &nbsp; &nbsp; &nbsp; &nbsp;<font class='negOutcome'>You receive: <strong>0</strong></font></div>","null","7","Watermelon Win$","Fruit/watermelon.png","Lost","0.2,0.8","8","0.2","63","19","",""
"","","","decision","636570d91a49a6d6cbcbc854","bdp_rwlrn","Mon Mar 13 2023 21:38:44 GMT-0500 (GMT-05:00)","755416","Trustworthy,Untrustworthy","","html-keyboard-response","68","418581","0.0-11.0-1.19","","409","","<div class='trialDiv'><img src='Fruit/bananas.png'><br><font class='baseline'><strong>Banana Bonanza</strong><p>Choose number of points to bet.</font><div class='respPicDiv'><img src='img/responseButtonOffersNo0L.png' class='respPic'></div></div>","2","7","Banana Bonanza","Fruit/bananas.png","Won","0.8,0.35","12","0.8","68","20","",""
"","","","decisionFB","636570d91a49a6d6cbcbc854","bdp_rwlrn","Mon Mar 13 2023 21:38:44 GMT-0500 (GMT-05:00)","755416","Trustworthy,Untrustworthy","","html-keyboard-response","69","418839","0.0-11.0-2.19","","null","","<div class='trialDiv'><img src='Fruit/bananas.png'><br><font class='baseline'><strong>Banana Bonanza</strong><p>Choose number of points to bet.</font><div class='respPicDiv'><img src='img/responseButtonOffersNo0L2.png' class='respPic'></div></div>","null","7","Banana Bonanza","Fruit/bananas.png","Won","0.8,0.35","12","0.8","66","20","",""
"","","","feedback","636570d91a49a6d6cbcbc854","bdp_rwlrn","Mon Mar 13 2023 21:38:44 GMT-0500 (GMT-05:00)","755416","Trustworthy,Untrustworthy","","html-keyboard-response","70","419843","0.0-11.0-3.19","","null","","<div class='respPicDiv'><img src='img/responseButtonOffersNo0_wht.png' class='respPic'></div><div class='trialDiv'><img src='Fruit/bananas.png'><br><font class='baseline'><strong>Banana Bonanza</strong><p><strong><font class='posOutcome'>You WON</font><p>You bet: 2</strong></font> &nbsp; &nbsp; &nbsp; &nbsp; &nbsp; &nbsp;<font class='posOutcome'>you receive: <strong>4</strong></font></div>","null","7","Banana Bonanza","Fruit/bananas.png","Won","0.8,0.35","12","0.8","70","20","",""
"","","","decision","636570d91a49a6d6cbcbc854","bdp_rwlrn","Mon Mar 13 2023 21:38:44 GMT-0500 (GMT-05:00)","755416","Trustworthy,Untrustworthy","","html-keyboard-response","71","420541","0.0-11.0-1.20","","696","","<div class='trialDiv'><img src='Fruit/mango.png'><br><font class='baseline'><strong>Mega Mangos</strong><p>Choose number of points to bet.</font><div class='respPicDiv'><img src='img/responseButtonOffersNo0L.png' class='respPic'></div></div>","4","7","Mega Mangos","Fruit/mango.png","Lost","0.2,0.65","9","0.2","75","21","",""
"","","","decisionFB","636570d91a49a6d6cbcbc854","bdp_rwlrn","Mon Mar 13 2023 21:38:44 GMT-0500 (GMT-05:00)","755416","Trustworthy,Untrustworthy","","html-keyboard-response","72","420801","0.0-11.0-2.20","","null","","<div class='trialDiv'><img src='Fruit/mango.png'><br><font class='baseline'><strong>Mega Mangos</strong><p>Choose number of points to bet.</font><div class='respPicDiv'><img src='img/responseButtonOffersNo0L4.png' class='respPic'></div></div>","null","7","Mega Mangos","Fruit/mango.png","Lost","0.2,0.65","9","0.2","71","21","",""
"","","","feedback","636570d91a49a6d6cbcbc854","bdp_rwlrn","Mon Mar 13 2023 21:38:44 GMT-0500 (GMT-05:00)","755416","Trustworthy,Untrustworthy","","html-keyboard-response","73","421801","0.0-11.0-3.20","","null","","<div class='respPicDiv'><img src='img/responseButtonOffersNo0_wht.png' class='respPic'></div><div class='trialDiv'><img src='Fruit/mango.png'><br><font class='baseline'><strong>Mega Mangos</strong><p><strong><font class='negOutcome'>You LOST</font><p>You bet: 4</strong></font> &nbsp; &nbsp; &nbsp; &nbsp; &nbsp; &nbsp;<font class='negOutcome'>You receive: <strong>0</strong></font></div>","null","7","Mega Mangos","Fruit/mango.png","Lost","0.2,0.65","9","0.2","71","21","",""
"","","","decision","636570d91a49a6d6cbcbc854","bdp_rwlrn","Mon Mar 13 2023 21:38:44 GMT-0500 (GMT-05:00)","755416","Trustworthy,Untrustworthy","","html-keyboard-response","74","422492","0.0-11.0-1.21","","690","","<div class='trialDiv'><img src='Fruit/watermelon.png'><br><font class='baseline'><strong>Watermelon Win$</strong><p>Choose number of points to bet.</font><div class='respPicDiv'><img src='img/responseButtonOffersNo0L.png' class='respPic'></div></div>","2","8","Watermelon Win$","Fruit/watermelon.png","Lost","0.2,0.8","8","0.2","76","22","",""
"","","","decisionFB","636570d91a49a6d6cbcbc854","bdp_rwlrn","Mon Mar 13 2023 21:38:44 GMT-0500 (GMT-05:00)","755416","Trustworthy,Untrustworthy","","html-keyboard-response","75","422750","0.0-11.0-2.21","","null","","<div class='trialDiv'><img src='Fruit/watermelon.png'><br><font class='baseline'><strong>Watermelon Win$</strong><p>Choose number of points to bet.</font><div class='respPicDiv'><img src='img/responseButtonOffersNo0L2.png' class='respPic'></div></div>","null","8","Watermelon Win$","Fruit/watermelon.png","Lost","0.2,0.8","8","0.2","74","22","",""
"","","","feedback","636570d91a49a6d6cbcbc854","bdp_rwlrn","Mon Mar 13 2023 21:38:44 GMT-0500 (GMT-05:00)","755416","Trustworthy,Untrustworthy","","html-keyboard-response","76","423757","0.0-11.0-3.21","","null","","<div class='respPicDiv'><img src='img/responseButtonOffersNo0_wht.png' class='respPic'></div><div class='trialDiv'><img src='Fruit/watermelon.png'><br><font class='baseline'><strong>Watermelon Win$</strong><p><strong><font class='negOutcome'>You LOST</font><p>You bet: 2</strong></font> &nbsp; &nbsp; &nbsp; &nbsp; &nbsp; &nbsp;<font class='negOutcome'>You receive: <strong>0</strong></font></div>","null","8","Watermelon Win$","Fruit/watermelon.png","Lost","0.2,0.8","8","0.2","74","22","",""
"","","","decision","636570d91a49a6d6cbcbc854","bdp_rwlrn","Mon Mar 13 2023 21:38:44 GMT-0500 (GMT-05:00)","755416","Trustworthy,Untrustworthy","","html-keyboard-response","77","424436","0.0-11.0-1.22","","678","","<div class='trialDiv'><img src='Fruit/bananas.png'><br><font class='baseline'><strong>Banana Bonanza</strong><p>Choose number of points to bet.</font><div class='respPicDiv'><img src='img/responseButtonOffersNo0L.png' class='respPic'></div></div>","1","8","Banana Bonanza","Fruit/bananas.png","Won","0.8,0.35","12","0.8","79","23","",""
"","","","decisionFB","636570d91a49a6d6cbcbc854","bdp_rwlrn","Mon Mar 13 2023 21:38:44 GMT-0500 (GMT-05:00)","755416","Trustworthy,Untrustworthy","","html-keyboard-response","78","424699","0.0-11.0-2.22","","null","","<div class='trialDiv'><img src='Fruit/bananas.png'><br><font class='baseline'><strong>Banana Bonanza</strong><p>Choose number of points to bet.</font><div class='respPicDiv'><img src='img/responseButtonOffersNo0L1.png' class='respPic'></div></div>","null","8","Banana Bonanza","Fruit/bananas.png","Won","0.8,0.35","12","0.8","78","23","",""
"","","","feedback","636570d91a49a6d6cbcbc854","bdp_rwlrn","Mon Mar 13 2023 21:38:44 GMT-0500 (GMT-05:00)","755416","Trustworthy,Untrustworthy","","html-keyboard-response","79","425715","0.0-11.0-3.22","","null","","<div class='respPicDiv'><img src='img/responseButtonOffersNo0_wht.png' class='respPic'></div><div class='trialDiv'><img src='Fruit/bananas.png'><br><font class='baseline'><strong>Banana Bonanza</strong><p><strong><font class='posOutcome'>You WON</font><p>You bet: 1</strong></font> &nbsp; &nbsp; &nbsp; &nbsp; &nbsp; &nbsp;<font class='posOutcome'>you receive: <strong>2</strong></font></div>","null","8","Banana Bonanza","Fruit/bananas.png","Won","0.8,0.35","12","0.8","80","23","",""
"","","","decision","636570d91a49a6d6cbcbc854","bdp_rwlrn","Mon Mar 13 2023 21:38:44 GMT-0500 (GMT-05:00)","755416","Trustworthy,Untrustworthy","","html-keyboard-response","80","426421","0.0-11.0-1.23","","704","","<div class='trialDiv'><img src='Fruit/mango.png'><br><font class='baseline'><strong>Mega Mangos</strong><p>Choose number of points to bet.</font><div class='respPicDiv'><img src='img/responseButtonOffersNo0L.png' class='respPic'></div></div>","3","8","Mega Mangos","Fruit/mango.png","Won","0.2,0.65","9","0.2","85","24","",""
"","","","decisionFB","636570d91a49a6d6cbcbc854","bdp_rwlrn","Mon Mar 13 2023 21:38:44 GMT-0500 (GMT-05:00)","755416","Trustworthy,Untrustworthy","","html-keyboard-response","81","426683","0.0-11.0-2.23","","null","","<div class='trialDiv'><img src='Fruit/mango.png'><br><font class='baseline'><strong>Mega Mangos</strong><p>Choose number of points to bet.</font><div class='respPicDiv'><img src='img/responseButtonOffersNo0L3.png' class='respPic'></div></div>","null","8","Mega Mangos","Fruit/mango.png","Won","0.2,0.65","9","0.2","82","24","",""
"","","","feedback","636570d91a49a6d6cbcbc854","bdp_rwlrn","Mon Mar 13 2023 21:38:44 GMT-0500 (GMT-05:00)","755416","Trustworthy,Untrustworthy","","html-keyboard-response","82","427689","0.0-11.0-3.23","","null","","<div class='respPicDiv'><img src='img/responseButtonOffersNo0_wht.png' class='respPic'></div><div class='trialDiv'><img src='Fruit/mango.png'><br><font class='baseline'><strong>Mega Mangos</strong><p><strong><font class='posOutcome'>You WON</font><p>You bet: 3</strong></font> &nbsp; &nbsp; &nbsp; &nbsp; &nbsp; &nbsp;<font class='posOutcome'>you receive: <strong>6</strong></font></div>","null","8","Mega Mangos","Fruit/mango.png","Won","0.2,0.65","9","0.2","88","24","",""
"","","","decision","636570d91a49a6d6cbcbc854","bdp_rwlrn","Mon Mar 13 2023 21:38:44 GMT-0500 (GMT-05:00)","755416","Trustworthy,Untrustworthy","","html-keyboard-response","83","428437","0.0-11.0-1.24","","747","","<div class='trialDiv'><img src='Fruit/watermelon.png'><br><font class='baseline'><strong>Watermelon Win$</strong><p>Choose number of points to bet.</font><div class='respPicDiv'><img src='img/responseButtonOffersNo0L.png' class='respPic'></div></div>","4","9","Watermelon Win$","Fruit/watermelon.png","Lost","0.2,0.8","8","0.2","93","25","",""
"","","","decisionFB","636570d91a49a6d6cbcbc854","bdp_rwlrn","Mon Mar 13 2023 21:38:44 GMT-0500 (GMT-05:00)","755416","Trustworthy,Untrustworthy","","html-keyboard-response","84","428691","0.0-11.0-2.24","","null","","<div class='trialDiv'><img src='Fruit/watermelon.png'><br><font class='baseline'><strong>Watermelon Win$</strong><p>Choose number of points to bet.</font><div class='respPicDiv'><img src='img/responseButtonOffersNo0L4.png' class='respPic'></div></div>","null","9","Watermelon Win$","Fruit/watermelon.png","Lost","0.2,0.8","8","0.2","89","25","",""
"","","","feedback","636570d91a49a6d6cbcbc854","bdp_rwlrn","Mon Mar 13 2023 21:38:44 GMT-0500 (GMT-05:00)","755416","Trustworthy,Untrustworthy","","html-keyboard-response","85","429705","0.0-11.0-3.24","","null","","<div class='respPicDiv'><img src='img/responseButtonOffersNo0_wht.png' class='respPic'></div><div class='trialDiv'><img src='Fruit/watermelon.png'><br><font class='baseline'><strong>Watermelon Win$</strong><p><strong><font class='negOutcome'>You LOST</font><p>You bet: 4</strong></font> &nbsp; &nbsp; &nbsp; &nbsp; &nbsp; &nbsp;<font class='negOutcome'>You receive: <strong>0</strong></font></div>","null","9","Watermelon Win$","Fruit/watermelon.png","Lost","0.2,0.8","8","0.2","89","25","",""
"","","","decision","636570d91a49a6d6cbcbc854","bdp_rwlrn","Mon Mar 13 2023 21:38:44 GMT-0500 (GMT-05:00)","755416","Trustworthy,Untrustworthy","","html-keyboard-response","86","430436","0.0-11.0-1.25","","730","","<div class='trialDiv'><img src='Fruit/mango.png'><br><font class='baseline'><strong>Mega Mangos</strong><p>Choose number of points to bet.</font><div class='respPicDiv'><img src='img/responseButtonOffersNo0L.png' class='respPic'></div></div>","3","9","Mega Mangos","Fruit/mango.png","Won","0.2,0.65","9","0.2","94","26","",""
"","","","decisionFB","636570d91a49a6d6cbcbc854","bdp_rwlrn","Mon Mar 13 2023 21:38:44 GMT-0500 (GMT-05:00)","755416","Trustworthy,Untrustworthy","","html-keyboard-response","87","430700","0.0-11.0-2.25","","null","","<div class='trialDiv'><img src='Fruit/mango.png'><br><font class='baseline'><strong>Mega Mangos</strong><p>Choose number of points to bet.</font><div class='respPicDiv'><img src='img/responseButtonOffersNo0L3.png' class='respPic'></div></div>","null","9","Mega Mangos","Fruit/mango.png","Won","0.2,0.65","9","0.2","91","26","",""
"","","","feedback","636570d91a49a6d6cbcbc854","bdp_rwlrn","Mon Mar 13 2023 21:38:44 GMT-0500 (GMT-05:00)","755416","Trustworthy,Untrustworthy","","html-keyboard-response","88","431704","0.0-11.0-3.25","","null","","<div class='respPicDiv'><img src='img/responseButtonOffersNo0_wht.png' class='respPic'></div><div class='trialDiv'><img src='Fruit/mango.png'><br><font class='baseline'><strong>Mega Mangos</strong><p><strong><font class='posOutcome'>You WON</font><p>You bet: 3</strong></font> &nbsp; &nbsp; &nbsp; &nbsp; &nbsp; &nbsp;<font class='posOutcome'>you receive: <strong>6</strong></font></div>","null","9","Mega Mangos","Fruit/mango.png","Won","0.2,0.65","9","0.2","97","26","",""
"","","","decision","636570d91a49a6d6cbcbc854","bdp_rwlrn","Mon Mar 13 2023 21:38:44 GMT-0500 (GMT-05:00)","755416","Trustworthy,Untrustworthy","","html-keyboard-response","89","433068","0.0-11.0-1.26","","1363","","<div class='trialDiv'><img src='Fruit/bananas.png'><br><font class='baseline'><strong>Banana Bonanza</strong><p>Choose number of points to bet.</font><div class='respPicDiv'><img src='img/responseButtonOffersNo0L.png' class='respPic'></div></div>","1","9","Banana Bonanza","Fruit/bananas.png","Won","0.8,0.35","12","0.8","102","27","",""
"","","","decisionFB","636570d91a49a6d6cbcbc854","bdp_rwlrn","Mon Mar 13 2023 21:38:44 GMT-0500 (GMT-05:00)","755416","Trustworthy,Untrustworthy","","html-keyboard-response","90","433328","0.0-11.0-2.26","","null","","<div class='trialDiv'><img src='Fruit/bananas.png'><br><font class='baseline'><strong>Banana Bonanza</strong><p>Choose number of points to bet.</font><div class='respPicDiv'><img src='img/responseButtonOffersNo0L1.png' class='respPic'></div></div>","null","9","Banana Bonanza","Fruit/bananas.png","Won","0.8,0.35","12","0.8","101","27","",""
"","","","feedback","636570d91a49a6d6cbcbc854","bdp_rwlrn","Mon Mar 13 2023 21:38:44 GMT-0500 (GMT-05:00)","755416","Trustworthy,Untrustworthy","","html-keyboard-response","91","434333","0.0-11.0-3.26","","null","","<div class='respPicDiv'><img src='img/responseButtonOffersNo0_wht.png' class='respPic'></div><div class='trialDiv'><img src='Fruit/bananas.png'><br><font class='baseline'><strong>Banana Bonanza</strong><p><strong><font class='posOutcome'>You WON</font><p>You bet: 1</strong></font> &nbsp; &nbsp; &nbsp; &nbsp; &nbsp; &nbsp;<font class='posOutcome'>you receive: <strong>2</strong></font></div>","null","9","Banana Bonanza","Fruit/bananas.png","Won","0.8,0.35","12","0.8","103","27","",""
"","","","decision","636570d91a49a6d6cbcbc854","bdp_rwlrn","Mon Mar 13 2023 21:38:44 GMT-0500 (GMT-05:00)","755416","Trustworthy,Untrustworthy","","html-keyboard-response","92","435084","0.0-11.0-1.27","","749","","<div class='trialDiv'><img src='Fruit/watermelon.png'><br><font class='baseline'><strong>Watermelon Win$</strong><p>Choose number of points to bet.</font><div class='respPicDiv'><img src='img/responseButtonOffersNo0L.png' class='respPic'></div></div>","4","10","Watermelon Win$","Fruit/watermelon.png","Won","0.2,0.8","8","0.2","108","28","",""
"","","","decisionFB","636570d91a49a6d6cbcbc854","bdp_rwlrn","Mon Mar 13 2023 21:38:44 GMT-0500 (GMT-05:00)","755416","Trustworthy,Untrustworthy","","html-keyboard-response","93","435335","0.0-11.0-2.27","","null","","<div class='trialDiv'><img src='Fruit/watermelon.png'><br><font class='baseline'><strong>Watermelon Win$</strong><p>Choose number of points to bet.</font><div class='respPicDiv'><img src='img/responseButtonOffersNo0L4.png' class='respPic'></div></div>","null","10","Watermelon Win$","Fruit/watermelon.png","Won","0.2,0.8","8","0.2","104","28","",""
"","","","feedback","636570d91a49a6d6cbcbc854","bdp_rwlrn","Mon Mar 13 2023 21:38:44 GMT-0500 (GMT-05:00)","755416","Trustworthy,Untrustworthy","","html-keyboard-response","94","436339","0.0-11.0-3.27","","null","","<div class='respPicDiv'><img src='img/responseButtonOffersNo0_wht.png' class='respPic'></div><div class='trialDiv'><img src='Fruit/watermelon.png'><br><font class='baseline'><strong>Watermelon Win$</strong><p><strong><font class='posOutcome'>You WON</font><p>You bet: 4</strong></font> &nbsp; &nbsp; &nbsp; &nbsp; &nbsp; &nbsp;<font class='posOutcome'>you receive: <strong>8</strong></font></div>","null","10","Watermelon Win$","Fruit/watermelon.png","Won","0.2,0.8","8","0.2","112","28","",""
"","","","decision","636570d91a49a6d6cbcbc854","bdp_rwlrn","Mon Mar 13 2023 21:38:44 GMT-0500 (GMT-05:00)","755416","Trustworthy,Untrustworthy","","html-keyboard-response","95","437052","0.0-11.0-1.28","","712","","<div class='trialDiv'><img src='Fruit/bananas.png'><br><font class='baseline'><strong>Banana Bonanza</strong><p>Choose number of points to bet.</font><div class='respPicDiv'><img src='img/responseButtonOffersNo0L.png' class='respPic'></div></div>","1","10","Banana Bonanza","Fruit/bananas.png","Won","0.8,0.35","12","0.8","117","29","",""
"","","","decisionFB","636570d91a49a6d6cbcbc854","bdp_rwlrn","Mon Mar 13 2023 21:38:44 GMT-0500 (GMT-05:00)","755416","Trustworthy,Untrustworthy","","html-keyboard-response","96","437311","0.0-11.0-2.28","","null","","<div class='trialDiv'><img src='Fruit/bananas.png'><br><font class='baseline'><strong>Banana Bonanza</strong><p>Choose number of points to bet.</font><div class='respPicDiv'><img src='img/responseButtonOffersNo0L1.png' class='respPic'></div></div>","null","10","Banana Bonanza","Fruit/bananas.png","Won","0.8,0.35","12","0.8","116","29","",""
"","","","feedback","636570d91a49a6d6cbcbc854","bdp_rwlrn","Mon Mar 13 2023 21:38:44 GMT-0500 (GMT-05:00)","755416","Trustworthy,Untrustworthy","","html-keyboard-response","97","438314","0.0-11.0-3.28","","null","","<div class='respPicDiv'><img src='img/responseButtonOffersNo0_wht.png' class='respPic'></div><div class='trialDiv'><img src='Fruit/bananas.png'><br><font class='baseline'><strong>Banana Bonanza</strong><p><strong><font class='posOutcome'>You WON</font><p>You bet: 1</strong></font> &nbsp; &nbsp; &nbsp; &nbsp; &nbsp; &nbsp;<font class='posOutcome'>you receive: <strong>2</strong></font></div>","null","10","Banana Bonanza","Fruit/bananas.png","Won","0.8,0.35","12","0.8","118","29","",""
"","","","decision","636570d91a49a6d6cbcbc854","bdp_rwlrn","Mon Mar 13 2023 21:38:44 GMT-0500 (GMT-05:00)","755416","Trustworthy,Untrustworthy","","html-keyboard-response","98","439052","0.0-11.0-1.29","","737","","<div class='trialDiv'><img src='Fruit/mango.png'><br><font class='baseline'><strong>Mega Mangos</strong><p>Choose number of points to bet.</font><div class='respPicDiv'><img src='img/responseButtonOffersNo0L.png' class='respPic'></div></div>","4","10","Mega Mangos","Fruit/mango.png","Lost","0.2,0.65","9","0.2","123","30","",""
"","","","decisionFB","636570d91a49a6d6cbcbc854","bdp_rwlrn","Mon Mar 13 2023 21:38:44 GMT-0500 (GMT-05:00)","755416","Trustworthy,Untrustworthy","","html-keyboard-response","99","439315","0.0-11.0-2.29","","null","","<div class='trialDiv'><img src='Fruit/mango.png'><br><font class='baseline'><strong>Mega Mangos</strong><p>Choose number of points to bet.</font><div class='respPicDiv'><img src='img/responseButtonOffersNo0L4.png' class='respPic'></div></div>","null","10","Mega Mangos","Fruit/mango.png","Lost","0.2,0.65","9","0.2","119","30","",""
"","","","feedback","636570d91a49a6d6cbcbc854","bdp_rwlrn","Mon Mar 13 2023 21:38:44 GMT-0500 (GMT-05:00)","755416","Trustworthy,Untrustworthy","","html-keyboard-response","100","440319","0.0-11.0-3.29","","null","","<div class='respPicDiv'><img src='img/responseButtonOffersNo0_wht.png' class='respPic'></div><div class='trialDiv'><img src='Fruit/mango.png'><br><font class='baseline'><strong>Mega Mangos</strong><p><strong><font class='negOutcome'>You LOST</font><p>You bet: 4</strong></font> &nbsp; &nbsp; &nbsp; &nbsp; &nbsp; &nbsp;<font class='negOutcome'>You receive: <strong>0</strong></font></div>","null","10","Mega Mangos","Fruit/mango.png","Lost","0.2,0.65","9","0.2","119","30","",""
"","","","decision","636570d91a49a6d6cbcbc854","bdp_rwlrn","Mon Mar 13 2023 21:38:44 GMT-0500 (GMT-05:00)","755416","Trustworthy,Untrustworthy","","html-keyboard-response","101","441156","0.0-11.0-1.30","","836","","<div class='trialDiv'><img src='Fruit/watermelon.png'><br><font class='baseline'><strong>Watermelon Win$</strong><p>Choose number of points to bet.</font><div class='respPicDiv'><img src='img/responseButtonOffersNo0L.png' class='respPic'></div></div>","3","11","Watermelon Win$","Fruit/watermelon.png","Won","0.2,0.8","8","0.2","124","31","",""
"","","","decisionFB","636570d91a49a6d6cbcbc854","bdp_rwlrn","Mon Mar 13 2023 21:38:44 GMT-0500 (GMT-05:00)","755416","Trustworthy,Untrustworthy","","html-keyboard-response","102","441420","0.0-11.0-2.30","","null","","<div class='trialDiv'><img src='Fruit/watermelon.png'><br><font class='baseline'><strong>Watermelon Win$</strong><p>Choose number of points to bet.</font><div class='respPicDiv'><img src='img/responseButtonOffersNo0L3.png' class='respPic'></div></div>","null","11","Watermelon Win$","Fruit/watermelon.png","Won","0.2,0.8","8","0.2","121","31","",""
"","","","feedback","636570d91a49a6d6cbcbc854","bdp_rwlrn","Mon Mar 13 2023 21:38:44 GMT-0500 (GMT-05:00)","755416","Trustworthy,Untrustworthy","","html-keyboard-response","103","442434","0.0-11.0-3.30","","null","","<div class='respPicDiv'><img src='img/responseButtonOffersNo0_wht.png' class='respPic'></div><div class='trialDiv'><img src='Fruit/watermelon.png'><br><font class='baseline'><strong>Watermelon Win$</strong><p><strong><font class='posOutcome'>You WON</font><p>You bet: 3</strong></font> &nbsp; &nbsp; &nbsp; &nbsp; &nbsp; &nbsp;<font class='posOutcome'>you receive: <strong>6</strong></font></div>","null","11","Watermelon Win$","Fruit/watermelon.png","Won","0.2,0.8","8","0.2","127","31","",""
"","","","decision","636570d91a49a6d6cbcbc854","bdp_rwlrn","Mon Mar 13 2023 21:38:44 GMT-0500 (GMT-05:00)","755416","Trustworthy,Untrustworthy","","html-keyboard-response","104","443092","0.0-11.0-1.31","","658","","<div class='trialDiv'><img src='Fruit/mango.png'><br><font class='baseline'><strong>Mega Mangos</strong><p>Choose number of points to bet.</font><div class='respPicDiv'><img src='img/responseButtonOffersNo0L.png' class='respPic'></div></div>","2","11","Mega Mangos","Fruit/mango.png","Lost","0.2,0.65","9","0.2","132","32","",""
"","","","decisionFB","636570d91a49a6d6cbcbc854","bdp_rwlrn","Mon Mar 13 2023 21:38:44 GMT-0500 (GMT-05:00)","755416","Trustworthy,Untrustworthy","","html-keyboard-response","105","443357","0.0-11.0-2.31","","null","","<div class='trialDiv'><img src='Fruit/mango.png'><br><font class='baseline'><strong>Mega Mangos</strong><p>Choose number of points to bet.</font><div class='respPicDiv'><img src='img/responseButtonOffersNo0L2.png' class='respPic'></div></div>","null","11","Mega Mangos","Fruit/mango.png","Lost","0.2,0.65","9","0.2","130","32","",""
"","","","feedback","636570d91a49a6d6cbcbc854","bdp_rwlrn","Mon Mar 13 2023 21:38:44 GMT-0500 (GMT-05:00)","755416","Trustworthy,Untrustworthy","","html-keyboard-response","106","444363","0.0-11.0-3.31","","null","","<div class='respPicDiv'><img src='img/responseButtonOffersNo0_wht.png' class='respPic'></div><div class='trialDiv'><img src='Fruit/mango.png'><br><font class='baseline'><strong>Mega Mangos</strong><p><strong><font class='negOutcome'>You LOST</font><p>You bet: 2</strong></font> &nbsp; &nbsp; &nbsp; &nbsp; &nbsp; &nbsp;<font class='negOutcome'>You receive: <strong>0</strong></font></div>","null","11","Mega Mangos","Fruit/mango.png","Lost","0.2,0.65","9","0.2","130","32","",""
"","","","decision","636570d91a49a6d6cbcbc854","bdp_rwlrn","Mon Mar 13 2023 21:38:44 GMT-0500 (GMT-05:00)","755416","Trustworthy,Untrustworthy","","html-keyboard-response","107","444893","0.0-11.0-1.32","","530","","<div class='trialDiv'><img src='Fruit/bananas.png'><br><font class='baseline'><strong>Banana Bonanza</strong><p>Choose number of points to bet.</font><div class='respPicDiv'><img src='img/responseButtonOffersNo0L.png' class='respPic'></div></div>","4","11","Banana Bonanza","Fruit/bananas.png","Won","0.8,0.35","12","0.8","135","33","",""
"","","","decisionFB","636570d91a49a6d6cbcbc854","bdp_rwlrn","Mon Mar 13 2023 21:38:44 GMT-0500 (GMT-05:00)","755416","Trustworthy,Untrustworthy","","html-keyboard-response","108","445158","0.0-11.0-2.32","","null","","<div class='trialDiv'><img src='Fruit/bananas.png'><br><font class='baseline'><strong>Banana Bonanza</strong><p>Choose number of points to bet.</font><div class='respPicDiv'><img src='img/responseButtonOffersNo0L4.png' class='respPic'></div></div>","null","11","Banana Bonanza","Fruit/bananas.png","Won","0.8,0.35","12","0.8","131","33","",""
"","","","feedback","636570d91a49a6d6cbcbc854","bdp_rwlrn","Mon Mar 13 2023 21:38:44 GMT-0500 (GMT-05:00)","755416","Trustworthy,Untrustworthy","","html-keyboard-response","109","446159","0.0-11.0-3.32","","null","","<div class='respPicDiv'><img src='img/responseButtonOffersNo0_wht.png' class='respPic'></div><div class='trialDiv'><img src='Fruit/bananas.png'><br><font class='baseline'><strong>Banana Bonanza</strong><p><strong><font class='posOutcome'>You WON</font><p>You bet: 4</strong></font> &nbsp; &nbsp; &nbsp; &nbsp; &nbsp; &nbsp;<font class='posOutcome'>you receive: <strong>8</strong></font></div>","null","11","Banana Bonanza","Fruit/bananas.png","Won","0.8,0.35","12","0.8","139","33","",""
"","","","decision","636570d91a49a6d6cbcbc854","bdp_rwlrn","Mon Mar 13 2023 21:38:44 GMT-0500 (GMT-05:00)","755416","Trustworthy,Untrustworthy","","html-keyboard-response","110","446876","0.0-11.0-1.33","","717","","<div class='trialDiv'><img src='Fruit/mango.png'><br><font class='baseline'><strong>Mega Mangos</strong><p>Choose number of points to bet.</font><div class='respPicDiv'><img src='img/responseButtonOffersNo0L.png' class='respPic'></div></div>","1","12","Mega Mangos","Fruit/mango.png","Won","0.2,0.65","9","0.2","144","34","",""
"","","","decisionFB","636570d91a49a6d6cbcbc854","bdp_rwlrn","Mon Mar 13 2023 21:38:44 GMT-0500 (GMT-05:00)","755416","Trustworthy,Untrustworthy","","html-keyboard-response","111","447133","0.0-11.0-2.33","","null","","<div class='trialDiv'><img src='Fruit/mango.png'><br><font class='baseline'><strong>Mega Mangos</strong><p>Choose number of points to bet.</font><div class='respPicDiv'><img src='img/responseButtonOffersNo0L1.png' class='respPic'></div></div>","null","12","Mega Mangos","Fruit/mango.png","Won","0.2,0.65","9","0.2","143","34","",""
"","","","feedback","636570d91a49a6d6cbcbc854","bdp_rwlrn","Mon Mar 13 2023 21:38:44 GMT-0500 (GMT-05:00)","755416","Trustworthy,Untrustworthy","","html-keyboard-response","112","448139","0.0-11.0-3.33","","null","","<div class='respPicDiv'><img src='img/responseButtonOffersNo0_wht.png' class='respPic'></div><div class='trialDiv'><img src='Fruit/mango.png'><br><font class='baseline'><strong>Mega Mangos</strong><p><strong><font class='posOutcome'>You WON</font><p>You bet: 1</strong></font> &nbsp; &nbsp; &nbsp; &nbsp; &nbsp; &nbsp;<font class='posOutcome'>you receive: <strong>2</strong></font></div>","null","12","Mega Mangos","Fruit/mango.png","Won","0.2,0.65","9","0.2","145","34","",""
"","","","decision","636570d91a49a6d6cbcbc854","bdp_rwlrn","Mon Mar 13 2023 21:38:44 GMT-0500 (GMT-05:00)","755416","Trustworthy,Untrustworthy","","html-keyboard-response","113","448908","0.0-11.0-1.34","","769","","<div class='trialDiv'><img src='Fruit/watermelon.png'><br><font class='baseline'><strong>Watermelon Win$</strong><p>Choose number of points to bet.</font><div class='respPicDiv'><img src='img/responseButtonOffersNo0L.png' class='respPic'></div></div>","1","12","Watermelon Win$","Fruit/watermelon.png","Won","0.2,0.8","8","0.2","150","35","",""
"","","","decisionFB","636570d91a49a6d6cbcbc854","bdp_rwlrn","Mon Mar 13 2023 21:38:44 GMT-0500 (GMT-05:00)","755416","Trustworthy,Untrustworthy","","html-keyboard-response","114","449174","0.0-11.0-2.34","","null","","<div class='trialDiv'><img src='Fruit/watermelon.png'><br><font class='baseline'><strong>Watermelon Win$</strong><p>Choose number of points to bet.</font><div class='respPicDiv'><img src='img/responseButtonOffersNo0L1.png' class='respPic'></div></div>","null","12","Watermelon Win$","Fruit/watermelon.png","Won","0.2,0.8","8","0.2","149","35","",""
"","","","feedback","636570d91a49a6d6cbcbc854","bdp_rwlrn","Mon Mar 13 2023 21:38:44 GMT-0500 (GMT-05:00)","755416","Trustworthy,Untrustworthy","","html-keyboard-response","115","450177","0.0-11.0-3.34","","null","","<div class='respPicDiv'><img src='img/responseButtonOffersNo0_wht.png' class='respPic'></div><div class='trialDiv'><img src='Fruit/watermelon.png'><br><font class='baseline'><strong>Watermelon Win$</strong><p><strong><font class='posOutcome'>You WON</font><p>You bet: 1</strong></font> &nbsp; &nbsp; &nbsp; &nbsp; &nbsp; &nbsp;<font class='posOutcome'>you receive: <strong>2</strong></font></div>","null","12","Watermelon Win$","Fruit/watermelon.png","Won","0.2,0.8","8","0.2","151","35","",""
"","","","decision","636570d91a49a6d6cbcbc854","bdp_rwlrn","Mon Mar 13 2023 21:38:44 GMT-0500 (GMT-05:00)","755416","Trustworthy,Untrustworthy","","html-keyboard-response","116","451092","0.0-11.0-1.35","","915","","<div class='trialDiv'><img src='Fruit/bananas.png'><br><font class='baseline'><strong>Banana Bonanza</strong><p>Choose number of points to bet.</font><div class='respPicDiv'><img src='img/responseButtonOffersNo0L.png' class='respPic'></div></div>","2","12","Banana Bonanza","Fruit/bananas.png","Lost","0.8,0.35","12","0.8","156","36","",""
"","","","decisionFB","636570d91a49a6d6cbcbc854","bdp_rwlrn","Mon Mar 13 2023 21:38:44 GMT-0500 (GMT-05:00)","755416","Trustworthy,Untrustworthy","","html-keyboard-response","117","451352","0.0-11.0-2.35","","null","","<div class='trialDiv'><img src='Fruit/bananas.png'><br><font class='baseline'><strong>Banana Bonanza</strong><p>Choose number of points to bet.</font><div class='respPicDiv'><img src='img/responseButtonOffersNo0L2.png' class='respPic'></div></div>","null","12","Banana Bonanza","Fruit/bananas.png","Lost","0.8,0.35","12","0.8","154","36","",""
"","","","feedback","636570d91a49a6d6cbcbc854","bdp_rwlrn","Mon Mar 13 2023 21:38:44 GMT-0500 (GMT-05:00)","755416","Trustworthy,Untrustworthy","","html-keyboard-response","118","452355","0.0-11.0-3.35","","null","","<div class='respPicDiv'><img src='img/responseButtonOffersNo0_wht.png' class='respPic'></div><div class='trialDiv'><img src='Fruit/bananas.png'><br><font class='baseline'><strong>Banana Bonanza</strong><p><strong><font class='negOutcome'>You LOST</font><p>You bet: 2</strong></font> &nbsp; &nbsp; &nbsp; &nbsp; &nbsp; &nbsp;<font class='negOutcome'>You receive: <strong>0</strong></font></div>","null","12","Banana Bonanza","Fruit/bananas.png","Lost","0.8,0.35","12","0.8","154","36","",""
"","","","decision","636570d91a49a6d6cbcbc854","bdp_rwlrn","Mon Mar 13 2023 21:38:44 GMT-0500 (GMT-05:00)","755416","Trustworthy,Untrustworthy","","html-keyboard-response","119","452989","0.0-11.0-1.36","","633","","<div class='trialDiv'><img src='Fruit/watermelon.png'><br><font class='baseline'><strong>Watermelon Win$</strong><p>Choose number of points to bet.</font><div class='respPicDiv'><img src='img/responseButtonOffersNo0L.png' class='respPic'></div></div>","1","13","Watermelon Win$","Fruit/watermelon.png","Lost","0.2,0.8","8","0.2","159","37","",""
"","","","decisionFB","636570d91a49a6d6cbcbc854","bdp_rwlrn","Mon Mar 13 2023 21:38:44 GMT-0500 (GMT-05:00)","755416","Trustworthy,Untrustworthy","","html-keyboard-response","120","453243","0.0-11.0-2.36","","null","","<div class='trialDiv'><img src='Fruit/watermelon.png'><br><font class='baseline'><strong>Watermelon Win$</strong><p>Choose number of points to bet.</font><div class='respPicDiv'><img src='img/responseButtonOffersNo0L1.png' class='respPic'></div></div>","null","13","Watermelon Win$","Fruit/watermelon.png","Lost","0.2,0.8","8","0.2","158","37","",""
"","","","feedback","636570d91a49a6d6cbcbc854","bdp_rwlrn","Mon Mar 13 2023 21:38:44 GMT-0500 (GMT-05:00)","755416","Trustworthy,Untrustworthy","","html-keyboard-response","121","454248","0.0-11.0-3.36","","null","","<div class='respPicDiv'><img src='img/responseButtonOffersNo0_wht.png' class='respPic'></div><div class='trialDiv'><img src='Fruit/watermelon.png'><br><font class='baseline'><strong>Watermelon Win$</strong><p><strong><font class='negOutcome'>You LOST</font><p>You bet: 1</strong></font> &nbsp; &nbsp; &nbsp; &nbsp; &nbsp; &nbsp;<font class='negOutcome'>You receive: <strong>0</strong></font></div>","null","13","Watermelon Win$","Fruit/watermelon.png","Lost","0.2,0.8","8","0.2","158","37","",""
"","","","decision","636570d91a49a6d6cbcbc854","bdp_rwlrn","Mon Mar 13 2023 21:38:44 GMT-0500 (GMT-05:00)","755416","Trustworthy,Untrustworthy","","html-keyboard-response","122","454956","0.0-11.0-1.37","","707","","<div class='trialDiv'><img src='Fruit/mango.png'><br><font class='baseline'><strong>Mega Mangos</strong><p>Choose number of points to bet.</font><div class='respPicDiv'><img src='img/responseButtonOffersNo0L.png' class='respPic'></div></div>","4","13","Mega Mangos","Fruit/mango.png","Won","0.2,0.65","9","0.2","163","38","",""
"","","","decisionFB","636570d91a49a6d6cbcbc854","bdp_rwlrn","Mon Mar 13 2023 21:38:44 GMT-0500 (GMT-05:00)","755416","Trustworthy,Untrustworthy","","html-keyboard-response","123","455222","0.0-11.0-2.37","","null","","<div class='trialDiv'><img src='Fruit/mango.png'><br><font class='baseline'><strong>Mega Mangos</strong><p>Choose number of points to bet.</font><div class='respPicDiv'><img src='img/responseButtonOffersNo0L4.png' class='respPic'></div></div>","null","13","Mega Mangos","Fruit/mango.png","Won","0.2,0.65","9","0.2","159","38","",""
"","","","feedback","636570d91a49a6d6cbcbc854","bdp_rwlrn","Mon Mar 13 2023 21:38:44 GMT-0500 (GMT-05:00)","755416","Trustworthy,Untrustworthy","","html-keyboard-response","124","456228","0.0-11.0-3.37","","null","","<div class='respPicDiv'><img src='img/responseButtonOffersNo0_wht.png' class='respPic'></div><div class='trialDiv'><img src='Fruit/mango.png'><br><font class='baseline'><strong>Mega Mangos</strong><p><strong><font class='posOutcome'>You WON</font><p>You bet: 4</strong></font> &nbsp; &nbsp; &nbsp; &nbsp; &nbsp; &nbsp;<font class='posOutcome'>you receive: <strong>8</strong></font></div>","null","13","Mega Mangos","Fruit/mango.png","Won","0.2,0.65","9","0.2","167","38","",""
"","","","decision","636570d91a49a6d6cbcbc854","bdp_rwlrn","Mon Mar 13 2023 21:38:44 GMT-0500 (GMT-05:00)","755416","Trustworthy,Untrustworthy","","html-keyboard-response","125","457364","0.0-11.0-1.38","","1135","","<div class='trialDiv'><img src='Fruit/bananas.png'><br><font class='baseline'><strong>Banana Bonanza</strong><p>Choose number of points to bet.</font><div class='respPicDiv'><img src='img/responseButtonOffersNo0L.png' class='respPic'></div></div>","4","13","Banana Bonanza","Fruit/bananas.png","Won","0.8,0.35","12","0.8","172","39","",""
"","","","decisionFB","636570d91a49a6d6cbcbc854","bdp_rwlrn","Mon Mar 13 2023 21:38:44 GMT-0500 (GMT-05:00)","755416","Trustworthy,Untrustworthy","","html-keyboard-response","126","457630","0.0-11.0-2.38","","null","","<div class='trialDiv'><img src='Fruit/bananas.png'><br><font class='baseline'><strong>Banana Bonanza</strong><p>Choose number of points to bet.</font><div class='respPicDiv'><img src='img/responseButtonOffersNo0L4.png' class='respPic'></div></div>","null","13","Banana Bonanza","Fruit/bananas.png","Won","0.8,0.35","12","0.8","168","39","",""
"","","","feedback","636570d91a49a6d6cbcbc854","bdp_rwlrn","Mon Mar 13 2023 21:38:44 GMT-0500 (GMT-05:00)","755416","Trustworthy,Untrustworthy","","html-keyboard-response","127","458635","0.0-11.0-3.38","","null","","<div class='respPicDiv'><img src='img/responseButtonOffersNo0_wht.png' class='respPic'></div><div class='trialDiv'><img src='Fruit/bananas.png'><br><font class='baseline'><strong>Banana Bonanza</strong><p><strong><font class='posOutcome'>You WON</font><p>You bet: 4</strong></font> &nbsp; &nbsp; &nbsp; &nbsp; &nbsp; &nbsp;<font class='posOutcome'>you receive: <strong>8</strong></font></div>","null","13","Banana Bonanza","Fruit/bananas.png","Won","0.8,0.35","12","0.8","176","39","",""
"","","","decision","636570d91a49a6d6cbcbc854","bdp_rwlrn","Mon Mar 13 2023 21:38:44 GMT-0500 (GMT-05:00)","755416","Trustworthy,Untrustworthy","","html-keyboard-response","128","459548","0.0-11.0-1.39","","912","","<div class='trialDiv'><img src='Fruit/mango.png'><br><font class='baseline'><strong>Mega Mangos</strong><p>Choose number of points to bet.</font><div class='respPicDiv'><img src='img/responseButtonOffersNo0L.png' class='respPic'></div></div>","1","14","Mega Mangos","Fruit/mango.png","Won","0.2,0.65","9","0.2","181","40","",""
"","","","decisionFB","636570d91a49a6d6cbcbc854","bdp_rwlrn","Mon Mar 13 2023 21:38:44 GMT-0500 (GMT-05:00)","755416","Trustworthy,Untrustworthy","","html-keyboard-response","129","459801","0.0-11.0-2.39","","null","","<div class='trialDiv'><img src='Fruit/mango.png'><br><font class='baseline'><strong>Mega Mangos</strong><p>Choose number of points to bet.</font><div class='respPicDiv'><img src='img/responseButtonOffersNo0L1.png' class='respPic'></div></div>","null","14","Mega Mangos","Fruit/mango.png","Won","0.2,0.65","9","0.2","180","40","",""
"","","","feedback","636570d91a49a6d6cbcbc854","bdp_rwlrn","Mon Mar 13 2023 21:38:44 GMT-0500 (GMT-05:00)","755416","Trustworthy,Untrustworthy","","html-keyboard-response","130","460807","0.0-11.0-3.39","","null","","<div class='respPicDiv'><img src='img/responseButtonOffersNo0_wht.png' class='respPic'></div><div class='trialDiv'><img src='Fruit/mango.png'><br><font class='baseline'><strong>Mega Mangos</strong><p><strong><font class='posOutcome'>You WON</font><p>You bet: 1</strong></font> &nbsp; &nbsp; &nbsp; &nbsp; &nbsp; &nbsp;<font class='posOutcome'>you receive: <strong>2</strong></font></div>","null","14","Mega Mangos","Fruit/mango.png","Won","0.2,0.65","9","0.2","182","40","",""
"","","","decision","636570d91a49a6d6cbcbc854","bdp_rwlrn","Mon Mar 13 2023 21:38:44 GMT-0500 (GMT-05:00)","755416","Trustworthy,Untrustworthy","","html-keyboard-response","131","461268","0.0-11.0-1.40","","459","","<div class='trialDiv'><img src='Fruit/bananas.png'><br><font class='baseline'><strong>Banana Bonanza</strong><p>Choose number of points to bet.</font><div class='respPicDiv'><img src='img/responseButtonOffersNo0L.png' class='respPic'></div></div>","5","14","Banana Bonanza","Fruit/bananas.png","Won","0.8,0.35","12","0.8","187","41","",""
"","","","decisionFB","636570d91a49a6d6cbcbc854","bdp_rwlrn","Mon Mar 13 2023 21:38:44 GMT-0500 (GMT-05:00)","755416","Trustworthy,Untrustworthy","","html-keyboard-response","132","461522","0.0-11.0-2.40","","null","","<div class='trialDiv'><img src='Fruit/bananas.png'><br><font class='baseline'><strong>Banana Bonanza</strong><p>Choose number of points to bet.</font><div class='respPicDiv'><img src='img/responseButtonOffersNo0L5.png' class='respPic'></div></div>","null","14","Banana Bonanza","Fruit/bananas.png","Won","0.8,0.35","12","0.8","182","41","",""
"","","","feedback","636570d91a49a6d6cbcbc854","bdp_rwlrn","Mon Mar 13 2023 21:38:44 GMT-0500 (GMT-05:00)","755416","Trustworthy,Untrustworthy","","html-keyboard-response","133","462525","0.0-11.0-3.40","","null","","<div class='respPicDiv'><img src='img/responseButtonOffersNo0_wht.png' class='respPic'></div><div class='trialDiv'><img src='Fruit/bananas.png'><br><font class='baseline'><strong>Banana Bonanza</strong><p><strong><font class='posOutcome'>You WON</font><p>You bet: 5</strong></font> &nbsp; &nbsp; &nbsp; &nbsp; &nbsp; &nbsp;<font class='posOutcome'>you receive: <strong>10</strong></font></div>","null","14","Banana Bonanza","Fruit/bananas.png","Won","0.8,0.35","12","0.8","192","41","",""
"","","","decision","636570d91a49a6d6cbcbc854","bdp_rwlrn","Mon Mar 13 2023 21:38:44 GMT-0500 (GMT-05:00)","755416","Trustworthy,Untrustworthy","","html-keyboard-response","134","463084","0.0-11.0-1.41","","558","","<div class='trialDiv'><img src='Fruit/watermelon.png'><br><font class='baseline'><strong>Watermelon Win$</strong><p>Choose number of points to bet.</font><div class='respPicDiv'><img src='img/responseButtonOffersNo0L.png' class='respPic'></div></div>","5","14","Watermelon Win$","Fruit/watermelon.png","Won","0.2,0.8","8","0.2","197","42","",""
"","","","decisionFB","636570d91a49a6d6cbcbc854","bdp_rwlrn","Mon Mar 13 2023 21:38:44 GMT-0500 (GMT-05:00)","755416","Trustworthy,Untrustworthy","","html-keyboard-response","135","463340","0.0-11.0-2.41","","null","","<div class='trialDiv'><img src='Fruit/watermelon.png'><br><font class='baseline'><strong>Watermelon Win$</strong><p>Choose number of points to bet.</font><div class='respPicDiv'><img src='img/responseButtonOffersNo0L5.png' class='respPic'></div></div>","null","14","Watermelon Win$","Fruit/watermelon.png","Won","0.2,0.8","8","0.2","192","42","",""
"","","","feedback","636570d91a49a6d6cbcbc854","bdp_rwlrn","Mon Mar 13 2023 21:38:44 GMT-0500 (GMT-05:00)","755416","Trustworthy,Untrustworthy","","html-keyboard-response","136","464347","0.0-11.0-3.41","","null","","<div class='respPicDiv'><img src='img/responseButtonOffersNo0_wht.png' class='respPic'></div><div class='trialDiv'><img src='Fruit/watermelon.png'><br><font class='baseline'><strong>Watermelon Win$</strong><p><strong><font class='posOutcome'>You WON</font><p>You bet: 5</strong></font> &nbsp; &nbsp; &nbsp; &nbsp; &nbsp; &nbsp;<font class='posOutcome'>you receive: <strong>10</strong></font></div>","null","14","Watermelon Win$","Fruit/watermelon.png","Won","0.2,0.8","8","0.2","202","42","",""
"","","","decision","636570d91a49a6d6cbcbc854","bdp_rwlrn","Mon Mar 13 2023 21:38:44 GMT-0500 (GMT-05:00)","755416","Trustworthy,Untrustworthy","","html-keyboard-response","137","465236","0.0-11.0-1.42","","888","","<div class='trialDiv'><img src='Fruit/mango.png'><br><font class='baseline'><strong>Mega Mangos</strong><p>Choose number of points to bet.</font><div class='respPicDiv'><img src='img/responseButtonOffersNo0L.png' class='respPic'></div></div>","1","15","Mega Mangos","Fruit/mango.png","Won","0.2,0.65","9","0.2","207","43","",""
"","","","decisionFB","636570d91a49a6d6cbcbc854","bdp_rwlrn","Mon Mar 13 2023 21:38:44 GMT-0500 (GMT-05:00)","755416","Trustworthy,Untrustworthy","","html-keyboard-response","138","465492","0.0-11.0-2.42","","null","","<div class='trialDiv'><img src='Fruit/mango.png'><br><font class='baseline'><strong>Mega Mangos</strong><p>Choose number of points to bet.</font><div class='respPicDiv'><img src='img/responseButtonOffersNo0L1.png' class='respPic'></div></div>","null","15","Mega Mangos","Fruit/mango.png","Won","0.2,0.65","9","0.2","206","43","",""
"","","","feedback","636570d91a49a6d6cbcbc854","bdp_rwlrn","Mon Mar 13 2023 21:38:44 GMT-0500 (GMT-05:00)","755416","Trustworthy,Untrustworthy","","html-keyboard-response","139","466496","0.0-11.0-3.42","","null","","<div class='respPicDiv'><img src='img/responseButtonOffersNo0_wht.png' class='respPic'></div><div class='trialDiv'><img src='Fruit/mango.png'><br><font class='baseline'><strong>Mega Mangos</strong><p><strong><font class='posOutcome'>You WON</font><p>You bet: 1</strong></font> &nbsp; &nbsp; &nbsp; &nbsp; &nbsp; &nbsp;<font class='posOutcome'>you receive: <strong>2</strong></font></div>","null","15","Mega Mangos","Fruit/mango.png","Won","0.2,0.65","9","0.2","208","43","",""
"","","","decision","636570d91a49a6d6cbcbc854","bdp_rwlrn","Mon Mar 13 2023 21:38:44 GMT-0500 (GMT-05:00)","755416","Trustworthy,Untrustworthy","","html-keyboard-response","140","467220","0.0-11.0-1.43","","723","","<div class='trialDiv'><img src='Fruit/bananas.png'><br><font class='baseline'><strong>Banana Bonanza</strong><p>Choose number of points to bet.</font><div class='respPicDiv'><img src='img/responseButtonOffersNo0L.png' class='respPic'></div></div>","4","15","Banana Bonanza","Fruit/bananas.png","Won","0.8,0.35","12","0.8","213","44","",""
"","","","decisionFB","636570d91a49a6d6cbcbc854","bdp_rwlrn","Mon Mar 13 2023 21:38:44 GMT-0500 (GMT-05:00)","755416","Trustworthy,Untrustworthy","","html-keyboard-response","141","467486","0.0-11.0-2.43","","null","","<div class='trialDiv'><img src='Fruit/bananas.png'><br><font class='baseline'><strong>Banana Bonanza</strong><p>Choose number of points to bet.</font><div class='respPicDiv'><img src='img/responseButtonOffersNo0L4.png' class='respPic'></div></div>","null","15","Banana Bonanza","Fruit/bananas.png","Won","0.8,0.35","12","0.8","209","44","",""
"","","","feedback","636570d91a49a6d6cbcbc854","bdp_rwlrn","Mon Mar 13 2023 21:38:44 GMT-0500 (GMT-05:00)","755416","Trustworthy,Untrustworthy","","html-keyboard-response","142","468488","0.0-11.0-3.43","","null","","<div class='respPicDiv'><img src='img/responseButtonOffersNo0_wht.png' class='respPic'></div><div class='trialDiv'><img src='Fruit/bananas.png'><br><font class='baseline'><strong>Banana Bonanza</strong><p><strong><font class='posOutcome'>You WON</font><p>You bet: 4</strong></font> &nbsp; &nbsp; &nbsp; &nbsp; &nbsp; &nbsp;<font class='posOutcome'>you receive: <strong>8</strong></font></div>","null","15","Banana Bonanza","Fruit/bananas.png","Won","0.8,0.35","12","0.8","217","44","",""
"","","","decision","636570d91a49a6d6cbcbc854","bdp_rwlrn","Mon Mar 13 2023 21:38:44 GMT-0500 (GMT-05:00)","755416","Trustworthy,Untrustworthy","","html-keyboard-response","143","469156","0.0-11.0-1.44","","667","","<div class='trialDiv'><img src='Fruit/watermelon.png'><br><font class='baseline'><strong>Watermelon Win$</strong><p>Choose number of points to bet.</font><div class='respPicDiv'><img src='img/responseButtonOffersNo0L.png' class='respPic'></div></div>","5","15","Watermelon Win$","Fruit/watermelon.png","Lost","0.2,0.8","8","0.2","222","45","",""
"","","","decisionFB","636570d91a49a6d6cbcbc854","bdp_rwlrn","Mon Mar 13 2023 21:38:44 GMT-0500 (GMT-05:00)","755416","Trustworthy,Untrustworthy","","html-keyboard-response","144","469409","0.0-11.0-2.44","","null","","<div class='trialDiv'><img src='Fruit/watermelon.png'><br><font class='baseline'><strong>Watermelon Win$</strong><p>Choose number of points to bet.</font><div class='respPicDiv'><img src='img/responseButtonOffersNo0L5.png' class='respPic'></div></div>","null","15","Watermelon Win$","Fruit/watermelon.png","Lost","0.2,0.8","8","0.2","217","45","",""
"","","","feedback","636570d91a49a6d6cbcbc854","bdp_rwlrn","Mon Mar 13 2023 21:38:44 GMT-0500 (GMT-05:00)","755416","Trustworthy,Untrustworthy","","html-keyboard-response","145","470416","0.0-11.0-3.44","","null","","<div class='respPicDiv'><img src='img/responseButtonOffersNo0_wht.png' class='respPic'></div><div class='trialDiv'><img src='Fruit/watermelon.png'><br><font class='baseline'><strong>Watermelon Win$</strong><p><strong><font class='negOutcome'>You LOST</font><p>You bet: 5</strong></font> &nbsp; &nbsp; &nbsp; &nbsp; &nbsp; &nbsp;<font class='negOutcome'>You receive: <strong>0</strong></font></div>","null","15","Watermelon Win$","Fruit/watermelon.png","Lost","0.2,0.8","8","0.2","217","45","",""
"","","","decision","636570d91a49a6d6cbcbc854","bdp_rwlrn","Mon Mar 13 2023 21:38:44 GMT-0500 (GMT-05:00)","755416","Trustworthy,Untrustworthy","","html-keyboard-response","146","471396","0.0-11.0-1.45","","980","","<div class='trialDiv'><img src='Fruit/mango.png'><br><font class='baseline'><strong>Mega Mangos</strong><p>Choose number of points to bet.</font><div class='respPicDiv'><img src='img/responseButtonOffersNo0L.png' class='respPic'></div></div>","4","16","Mega Mangos","Fruit/mango.png","Won","0.2,0.65","9","0.2","222","46","",""
"","","","decisionFB","636570d91a49a6d6cbcbc854","bdp_rwlrn","Mon Mar 13 2023 21:38:44 GMT-0500 (GMT-05:00)","755416","Trustworthy,Untrustworthy","","html-keyboard-response","147","471657","0.0-11.0-2.45","","null","","<div class='trialDiv'><img src='Fruit/mango.png'><br><font class='baseline'><strong>Mega Mangos</strong><p>Choose number of points to bet.</font><div class='respPicDiv'><img src='img/responseButtonOffersNo0L4.png' class='respPic'></div></div>","null","16","Mega Mangos","Fruit/mango.png","Won","0.2,0.65","9","0.2","218","46","",""
"","","","feedback","636570d91a49a6d6cbcbc854","bdp_rwlrn","Mon Mar 13 2023 21:38:44 GMT-0500 (GMT-05:00)","755416","Trustworthy,Untrustworthy","","html-keyboard-response","148","472660","0.0-11.0-3.45","","null","","<div class='respPicDiv'><img src='img/responseButtonOffersNo0_wht.png' class='respPic'></div><div class='trialDiv'><img src='Fruit/mango.png'><br><font class='baseline'><strong>Mega Mangos</strong><p><strong><font class='posOutcome'>You WON</font><p>You bet: 4</strong></font> &nbsp; &nbsp; &nbsp; &nbsp; &nbsp; &nbsp;<font class='posOutcome'>you receive: <strong>8</strong></font></div>","null","16","Mega Mangos","Fruit/mango.png","Won","0.2,0.65","9","0.2","226","46","",""
"","","","decision","636570d91a49a6d6cbcbc854","bdp_rwlrn","Mon Mar 13 2023 21:38:44 GMT-0500 (GMT-05:00)","755416","Trustworthy,Untrustworthy","","html-keyboard-response","149","473364","0.0-11.0-1.46","","703","","<div class='trialDiv'><img src='Fruit/bananas.png'><br><font class='baseline'><strong>Banana Bonanza</strong><p>Choose number of points to bet.</font><div class='respPicDiv'><img src='img/responseButtonOffersNo0L.png' class='respPic'></div></div>","2","16","Banana Bonanza","Fruit/bananas.png","Lost","0.8,0.35","12","0.8","231","47","",""
"","","","decisionFB","636570d91a49a6d6cbcbc854","bdp_rwlrn","Mon Mar 13 2023 21:38:44 GMT-0500 (GMT-05:00)","755416","Trustworthy,Untrustworthy","","html-keyboard-response","150","473616","0.0-11.0-2.46","","null","","<div class='trialDiv'><img src='Fruit/bananas.png'><br><font class='baseline'><strong>Banana Bonanza</strong><p>Choose number of points to bet.</font><div class='respPicDiv'><img src='img/responseButtonOffersNo0L2.png' class='respPic'></div></div>","null","16","Banana Bonanza","Fruit/bananas.png","Lost","0.8,0.35","12","0.8","229","47","",""
"","","","feedback","636570d91a49a6d6cbcbc854","bdp_rwlrn","Mon Mar 13 2023 21:38:44 GMT-0500 (GMT-05:00)","755416","Trustworthy,Untrustworthy","","html-keyboard-response","151","474621","0.0-11.0-3.46","","null","","<div class='respPicDiv'><img src='img/responseButtonOffersNo0_wht.png' class='respPic'></div><div class='trialDiv'><img src='Fruit/bananas.png'><br><font class='baseline'><strong>Banana Bonanza</strong><p><strong><font class='negOutcome'>You LOST</font><p>You bet: 2</strong></font> &nbsp; &nbsp; &nbsp; &nbsp; &nbsp; &nbsp;<font class='negOutcome'>You receive: <strong>0</strong></font></div>","null","16","Banana Bonanza","Fruit/bananas.png","Lost","0.8,0.35","12","0.8","229","47","",""
"","","","decision","636570d91a49a6d6cbcbc854","bdp_rwlrn","Mon Mar 13 2023 21:38:44 GMT-0500 (GMT-05:00)","755416","Trustworthy,Untrustworthy","","html-keyboard-response","152","475236","0.0-11.0-1.47","","614","","<div class='trialDiv'><img src='Fruit/watermelon.png'><br><font class='baseline'><strong>Watermelon Win$</strong><p>Choose number of points to bet.</font><div class='respPicDiv'><img src='img/responseButtonOffersNo0L.png' class='respPic'></div></div>","5","16","Watermelon Win$","Fruit/watermelon.png","Won","0.2,0.8","8","0.2","234","48","",""
"","","","decisionFB","636570d91a49a6d6cbcbc854","bdp_rwlrn","Mon Mar 13 2023 21:38:44 GMT-0500 (GMT-05:00)","755416","Trustworthy,Untrustworthy","","html-keyboard-response","153","475500","0.0-11.0-2.47","","null","","<div class='trialDiv'><img src='Fruit/watermelon.png'><br><font class='baseline'><strong>Watermelon Win$</strong><p>Choose number of points to bet.</font><div class='respPicDiv'><img src='img/responseButtonOffersNo0L5.png' class='respPic'></div></div>","null","16","Watermelon Win$","Fruit/watermelon.png","Won","0.2,0.8","8","0.2","229","48","",""
"","","","feedback","636570d91a49a6d6cbcbc854","bdp_rwlrn","Mon Mar 13 2023 21:38:44 GMT-0500 (GMT-05:00)","755416","Trustworthy,Untrustworthy","","html-keyboard-response","154","476503","0.0-11.0-3.47","","null","","<div class='respPicDiv'><img src='img/responseButtonOffersNo0_wht.png' class='respPic'></div><div class='trialDiv'><img src='Fruit/watermelon.png'><br><font class='baseline'><strong>Watermelon Win$</strong><p><strong><font class='posOutcome'>You WON</font><p>You bet: 5</strong></font> &nbsp; &nbsp; &nbsp; &nbsp; &nbsp; &nbsp;<font class='posOutcome'>you receive: <strong>10</strong></font></div>","null","16","Watermelon Win$","Fruit/watermelon.png","Won","0.2,0.8","8","0.2","239","48","",""
"","","","decision","636570d91a49a6d6cbcbc854","bdp_rwlrn","Mon Mar 13 2023 21:38:44 GMT-0500 (GMT-05:00)","755416","Trustworthy,Untrustworthy","","html-keyboard-response","155","477300","0.0-11.0-1.48","","796","","<div class='trialDiv'><img src='Fruit/mango.png'><br><font class='baseline'><strong>Mega Mangos</strong><p>Choose number of points to bet.</font><div class='respPicDiv'><img src='img/responseButtonOffersNo0L.png' class='respPic'></div></div>","4","17","Mega Mangos","Fruit/mango.png","Lost","0.2,0.65","9","0.2","244","49","",""
"","","","decisionFB","636570d91a49a6d6cbcbc854","bdp_rwlrn","Mon Mar 13 2023 21:38:44 GMT-0500 (GMT-05:00)","755416","Trustworthy,Untrustworthy","","html-keyboard-response","156","477556","0.0-11.0-2.48","","null","","<div class='trialDiv'><img src='Fruit/mango.png'><br><font class='baseline'><strong>Mega Mangos</strong><p>Choose number of points to bet.</font><div class='respPicDiv'><img src='img/responseButtonOffersNo0L4.png' class='respPic'></div></div>","null","17","Mega Mangos","Fruit/mango.png","Lost","0.2,0.65","9","0.2","240","49","",""
"","","","feedback","636570d91a49a6d6cbcbc854","bdp_rwlrn","Mon Mar 13 2023 21:38:44 GMT-0500 (GMT-05:00)","755416","Trustworthy,Untrustworthy","","html-keyboard-response","157","478565","0.0-11.0-3.48","","null","","<div class='respPicDiv'><img src='img/responseButtonOffersNo0_wht.png' class='respPic'></div><div class='trialDiv'><img src='Fruit/mango.png'><br><font class='baseline'><strong>Mega Mangos</strong><p><strong><font class='negOutcome'>You LOST</font><p>You bet: 4</strong></font> &nbsp; &nbsp; &nbsp; &nbsp; &nbsp; &nbsp;<font class='negOutcome'>You receive: <strong>0</strong></font></div>","null","17","Mega Mangos","Fruit/mango.png","Lost","0.2,0.65","9","0.2","240","49","",""
"","","","decision","636570d91a49a6d6cbcbc854","bdp_rwlrn","Mon Mar 13 2023 21:38:44 GMT-0500 (GMT-05:00)","755416","Trustworthy,Untrustworthy","","html-keyboard-response","158","479420","0.0-11.0-1.49","","854","","<div class='trialDiv'><img src='Fruit/bananas.png'><br><font class='baseline'><strong>Banana Bonanza</strong><p>Choose number of points to bet.</font><div class='respPicDiv'><img src='img/responseButtonOffersNo0L.png' class='respPic'></div></div>","4","17","Banana Bonanza","Fruit/bananas.png","Lost","0.8,0.35","12","0.8","245","50","",""
"","","","decisionFB","636570d91a49a6d6cbcbc854","bdp_rwlrn","Mon Mar 13 2023 21:38:44 GMT-0500 (GMT-05:00)","755416","Trustworthy,Untrustworthy","","html-keyboard-response","159","479680","0.0-11.0-2.49","","null","","<div class='trialDiv'><img src='Fruit/bananas.png'><br><font class='baseline'><strong>Banana Bonanza</strong><p>Choose number of points to bet.</font><div class='respPicDiv'><img src='img/responseButtonOffersNo0L4.png' class='respPic'></div></div>","null","17","Banana Bonanza","Fruit/bananas.png","Lost","0.8,0.35","12","0.8","241","50","",""
"","","","feedback","636570d91a49a6d6cbcbc854","bdp_rwlrn","Mon Mar 13 2023 21:38:44 GMT-0500 (GMT-05:00)","755416","Trustworthy,Untrustworthy","","html-keyboard-response","160","480683","0.0-11.0-3.49","","null","","<div class='respPicDiv'><img src='img/responseButtonOffersNo0_wht.png' class='respPic'></div><div class='trialDiv'><img src='Fruit/bananas.png'><br><font class='baseline'><strong>Banana Bonanza</strong><p><strong><font class='negOutcome'>You LOST</font><p>You bet: 4</strong></font> &nbsp; &nbsp; &nbsp; &nbsp; &nbsp; &nbsp;<font class='negOutcome'>You receive: <strong>0</strong></font></div>","null","17","Banana Bonanza","Fruit/bananas.png","Lost","0.8,0.35","12","0.8","241","50","",""
"","","","decision","636570d91a49a6d6cbcbc854","bdp_rwlrn","Mon Mar 13 2023 21:38:44 GMT-0500 (GMT-05:00)","755416","Trustworthy,Untrustworthy","","html-keyboard-response","161","481404","0.0-11.0-1.50","","720","","<div class='trialDiv'><img src='Fruit/watermelon.png'><br><font class='baseline'><strong>Watermelon Win$</strong><p>Choose number of points to bet.</font><div class='respPicDiv'><img src='img/responseButtonOffersNo0L.png' class='respPic'></div></div>","5","17","Watermelon Win$","Fruit/watermelon.png","Won","0.2,0.8","8","0.2","246","51","",""
"","","","decisionFB","636570d91a49a6d6cbcbc854","bdp_rwlrn","Mon Mar 13 2023 21:38:44 GMT-0500 (GMT-05:00)","755416","Trustworthy,Untrustworthy","","html-keyboard-response","162","481655","0.0-11.0-2.50","","null","","<div class='trialDiv'><img src='Fruit/watermelon.png'><br><font class='baseline'><strong>Watermelon Win$</strong><p>Choose number of points to bet.</font><div class='respPicDiv'><img src='img/responseButtonOffersNo0L5.png' class='respPic'></div></div>","null","17","Watermelon Win$","Fruit/watermelon.png","Won","0.2,0.8","8","0.2","241","51","",""
"","","","feedback","636570d91a49a6d6cbcbc854","bdp_rwlrn","Mon Mar 13 2023 21:38:44 GMT-0500 (GMT-05:00)","755416","Trustworthy,Untrustworthy","","html-keyboard-response","163","482659","0.0-11.0-3.50","","null","","<div class='respPicDiv'><img src='img/responseButtonOffersNo0_wht.png' class='respPic'></div><div class='trialDiv'><img src='Fruit/watermelon.png'><br><font class='baseline'><strong>Watermelon Win$</strong><p><strong><font class='posOutcome'>You WON</font><p>You bet: 5</strong></font> &nbsp; &nbsp; &nbsp; &nbsp; &nbsp; &nbsp;<font class='posOutcome'>you receive: <strong>10</strong></font></div>","null","17","Watermelon Win$","Fruit/watermelon.png","Won","0.2,0.8","8","0.2","251","51","",""
"","","","decision","636570d91a49a6d6cbcbc854","bdp_rwlrn","Mon Mar 13 2023 21:38:44 GMT-0500 (GMT-05:00)","755416","Trustworthy,Untrustworthy","","html-keyboard-response","164","483621","0.0-11.0-1.51","","961","","<div class='trialDiv'><img src='Fruit/bananas.png'><br><font class='baseline'><strong>Banana Bonanza</strong><p>Choose number of points to bet.</font><div class='respPicDiv'><img src='img/responseButtonOffersNo0L.png' class='respPic'></div></div>","2","18","Banana Bonanza","Fruit/bananas.png","Won","0.8,0.35","12","0.8","256","52","",""
