"trial_type","trial_index","time_elapsed","internal_node_id","subject_id","task","startTime","totalTime","labels","view_history","rt","event","trial","time","trialtype","success","stimulus","key_press","ltround","name","fileID","outcome","lottotype","lottoswpt","lottocurrpshare","point_total","round","faceID","face"
"pavlovia","0","2","0.0-0.0","59aae1188cef7d00011f8884","bdp_rwlrn","Tue Mar 14 2023 21:23:54 GMT-0400 (Eastern Daylight Time)","479683","Trustworthy,Untrustworthy","","","","","","","","","","","","","","","","","","","",""
"instructions","1","3809","0.0-1.0","59aae1188cef7d00011f8884","bdp_rwlrn","Tue Mar 14 2023 21:23:54 GMT-0400 (Eastern Daylight Time)","479683","Trustworthy,Untrustworthy","[{""page_index"":0,""viewing_time"":3806}]","3806","","","","","","","","","","","","","","","","","",""
"","","","","59aae1188cef7d00011f8884","bdp_rwlrn","Tue Mar 14 2023 21:23:54 GMT-0400 (Eastern Daylight Time)","479683","Trustworthy,Untrustworthy","","","fullscreenenter","2","6608","fullscreenenter","","","","","","","","","","","","","",""
"fullscreen","2","7611","0.0-2.0","59aae1188cef7d00011f8884","bdp_rwlrn","Tue Mar 14 2023 21:23:54 GMT-0400 (Eastern Daylight Time)","479683","Trustworthy,Untrustworthy","","","","","","","true","","","","","","","","","","","","",""
"instructions","3","127566","0.0-4.0","59aae1188cef7d00011f8884","bdp_rwlrn","Tue Mar 14 2023 21:23:54 GMT-0400 (Eastern Daylight Time)","479683","Trustworthy,Untrustworthy","[{""page_index"":0,""viewing_time"":10478},{""page_index"":1,""viewing_time"":42128},{""page_index"":2,""viewing_time"":9986},{""page_index"":3,""viewing_time"":17912},{""page_index"":4,""viewing_time"":16439},{""page_index"":3,""viewing_time"":432},{""page_index"":2,""viewing_time"":13529},{""page_index"":3,""viewing_time"":1891},{""page_index"":4,""viewing_time"":1407},{""page_index"":5,""viewing_time"":5752}]","119954","","","","","","","","","","","","","","","","","",""
"html-keyboard-response","4","131472","0.0-5.0","59aae1188cef7d00011f8884","bdp_rwlrn","Tue Mar 14 2023 21:23:54 GMT-0400 (Eastern Daylight Time)","479683","Trustworthy,Untrustworthy","","3905","","","","","","<div class='header' style='text-align:left; position: absolute; top: 5%; left: 5%;'><small>Task 1 of 5</small></div><div class='instruxDiv'><p><strong>1) What is the maximum number of points you can choose to bet on a lottery?</strong></p><p>a) 0</p><p>b) 1</p><p>c) 5</p>","C","","","","","","","","","","",""
"html-keyboard-response","5","133082","0.0-6.0","59aae1188cef7d00011f8884","bdp_rwlrn","Tue Mar 14 2023 21:23:54 GMT-0400 (Eastern Daylight Time)","479683","Trustworthy,Untrustworthy","","1509","","","","","","<div class='header' style='text-align:left; position: absolute; top: 5%; left: 5%;'><small>Task 1 of 5</small></div><div class='instruxDiv'><p><strong>1) What is the maximum number of points you can choose to bet on a lottery?</strong></p><p>a) 1</p><p>b) 1</p><p style='color:#00FF00'>c) 5</p><h3 style='color:#00FF00'>Correct!</h3><h3 class='center-content'>The correct response is c).</h3><h3 class='center-content'>The maximum number of points you can choose to bet on a lottery is 5 points.</h3><p><em>Press SPACEBAR to continue</em></p></div>"," ","","","","","","","","","","",""
"html-keyboard-response","6","140050","0.0-7.0","59aae1188cef7d00011f8884","bdp_rwlrn","Tue Mar 14 2023 21:23:54 GMT-0400 (Eastern Daylight Time)","479683","Trustworthy,Untrustworthy","","6866","","","","","","<div class='header' style='text-align:left; position: absolute; top: 5%; left: 5%;'><small>Task 1 of 5</small></div><div class='instruxDiv'><p><strong>2) How many points can you win each round?</strong></p><p>a) 10 points</p><p>b) Double what you bet</p><p>c) Quadruple what you bet</p>","B","","","","","","","","","","",""
"html-keyboard-response","7","141389","0.0-8.0","59aae1188cef7d00011f8884","bdp_rwlrn","Tue Mar 14 2023 21:23:54 GMT-0400 (Eastern Daylight Time)","479683","Trustworthy,Untrustworthy","","1221","","","","","","<div class='header' style='text-align:left; position: absolute; top: 5%; left: 5%;'><small>Task 1 of 5</small></div><div class='instruxDiv'><p><strong>2) How many points can you win each round?</strong></p><p>a) 10 points</p><p style='color:#00FF00'>b) Double what you bet</p><p>c) Quadruple what you bet</p><h3 style='color:#00FF00'>Correct!</h3><h3 class='center-content'>The correct response is b).</h3><h3 class='center-content'>You can win double the amount of points you bet.</h3><p><em>Press SPACEBAR to continue</em></p></div>"," ","","","","","","","","","","",""
"html-keyboard-response","8","146502","0.0-9.0","59aae1188cef7d00011f8884","bdp_rwlrn","Tue Mar 14 2023 21:23:54 GMT-0400 (Eastern Daylight Time)","479683","Trustworthy,Untrustworthy","","null","","","","","","<div class='header' style='text-align:left; position: absolute; top: 5%; left: 5%;'><small>Task 1 of 5</small></div><div class='instruxDiv'><p>Thank you for completing the quiz<p>These are the actual lotteries you will be playing in the next block:<p><div class='tc' align='center'><img class='introPic' src='Fruit/pineapple.png'><br><strong>Primo Pineapple</strong></div><div class='bl' align='center'><img class='introPic' src='Fruit/grapes.png'><br><strong>Great Grapes</strong></div><div class='br' align='center'><img class='introPic' src='Fruit/bananas.png'><br><strong>Banana Bonanza</strong></div></div><p>Across <strong>66 rounds</strong> you will play each lottery <strong>22 times</strong> (in random order).<p style='align:center; color:white'><font <em>Press SPACEBAR to continue</em></p>","null","","","","","","","","","","",""
"instructions","9","158400","0.0-10.0","59aae1188cef7d00011f8884","bdp_rwlrn","Tue Mar 14 2023 21:23:54 GMT-0400 (Eastern Daylight Time)","479683","Trustworthy,Untrustworthy","[{""page_index"":0,""viewing_time"":8476},{""page_index"":1,""viewing_time"":3422}]","11898","","","","","","","","","","","","","","","","","",""
"html-keyboard-response","10","161731","0.0-11.0-1.0","59aae1188cef7d00011f8884","bdp_rwlrn","Tue Mar 14 2023 21:23:54 GMT-0400 (Eastern Daylight Time)","479683","Trustworthy,Untrustworthy","","3229","","","","decision","","<div class='trialDiv'><img src='Fruit/pineapple.png'><br><font class='baseline'><strong>Primo Pineapple</strong><p>Choose number of points to bet.</font><div class='respPicDiv'><img src='img/responseButtonOffersNo0L.png' class='respPic'></div></div>","5","1","Primo Pineapple","Fruit/pineapple.png","Lost","0.2,0.65","14","0.2","5","1","",""
"html-keyboard-response","11","161986","0.0-11.0-2.0","59aae1188cef7d00011f8884","bdp_rwlrn","Tue Mar 14 2023 21:23:54 GMT-0400 (Eastern Daylight Time)","479683","Trustworthy,Untrustworthy","","null","","","","decisionFB","","<div class='trialDiv'><img src='Fruit/pineapple.png'><br><font class='baseline'><strong>Primo Pineapple</strong><p>Choose number of points to bet.</font><div class='respPicDiv'><img src='img/responseButtonOffersNo0L5.png' class='respPic'></div></div>","null","1","Primo Pineapple","Fruit/pineapple.png","Lost","0.2,0.65","14","0.2","0","1","",""
"html-keyboard-response","12","163000","0.0-11.0-3.0","59aae1188cef7d00011f8884","bdp_rwlrn","Tue Mar 14 2023 21:23:54 GMT-0400 (Eastern Daylight Time)","479683","Trustworthy,Untrustworthy","","null","","","","feedback","","<div class='respPicDiv'><img src='img/responseButtonOffersNo0_wht.png' class='respPic'></div><div class='trialDiv'><img src='Fruit/pineapple.png'><br><font class='baseline'><strong>Primo Pineapple</strong><p><strong><font class='negOutcome'>You LOST</font><p>You bet: 5</strong></font> &nbsp; &nbsp; &nbsp; &nbsp; &nbsp; &nbsp;<font class='negOutcome'>You receive: <strong>0</strong></font></div>","null","1","Primo Pineapple","Fruit/pineapple.png","Lost","0.2,0.65","14","0.2","0","1","",""
"html-keyboard-response","13","163753","0.0-11.0-1.1","59aae1188cef7d00011f8884","bdp_rwlrn","Tue Mar 14 2023 21:23:54 GMT-0400 (Eastern Daylight Time)","479683","Trustworthy,Untrustworthy","","752","","","","decision","","<div class='trialDiv'><img src='Fruit/grapes.png'><br><font class='baseline'><strong>Great Grapes</strong><p>Choose number of points to bet.</font><div class='respPicDiv'><img src='img/responseButtonOffersNo0L.png' class='respPic'></div></div>","5","1","Great Grapes","Fruit/grapes.png","Won","0.8,0.35","10","0.8","5","2","",""
"html-keyboard-response","14","164012","0.0-11.0-2.1","59aae1188cef7d00011f8884","bdp_rwlrn","Tue Mar 14 2023 21:23:54 GMT-0400 (Eastern Daylight Time)","479683","Trustworthy,Untrustworthy","","null","","","","decisionFB","","<div class='trialDiv'><img src='Fruit/grapes.png'><br><font class='baseline'><strong>Great Grapes</strong><p>Choose number of points to bet.</font><div class='respPicDiv'><img src='img/responseButtonOffersNo0L5.png' class='respPic'></div></div>","null","1","Great Grapes","Fruit/grapes.png","Won","0.8,0.35","10","0.8","0","2","",""
"html-keyboard-response","15","165020","0.0-11.0-3.1","59aae1188cef7d00011f8884","bdp_rwlrn","Tue Mar 14 2023 21:23:54 GMT-0400 (Eastern Daylight Time)","479683","Trustworthy,Untrustworthy","","null","","","","feedback","","<div class='respPicDiv'><img src='img/responseButtonOffersNo0_wht.png' class='respPic'></div><div class='trialDiv'><img src='Fruit/grapes.png'><br><font class='baseline'><strong>Great Grapes</strong><p><strong><font class='posOutcome'>You WON</font><p>You bet: 5</strong></font> &nbsp; &nbsp; &nbsp; &nbsp; &nbsp; &nbsp;<font class='posOutcome'>you receive: <strong>10</strong></font></div>","null","1","Great Grapes","Fruit/grapes.png","Won","0.8,0.35","10","0.8","10","2","",""
"html-keyboard-response","16","165626","0.0-11.0-1.2","59aae1188cef7d00011f8884","bdp_rwlrn","Tue Mar 14 2023 21:23:54 GMT-0400 (Eastern Daylight Time)","479683","Trustworthy,Untrustworthy","","605","","","","decision","","<div class='trialDiv'><img src='Fruit/bananas.png'><br><font class='baseline'><strong>Banana Bonanza</strong><p>Choose number of points to bet.</font><div class='respPicDiv'><img src='img/responseButtonOffersNo0L.png' class='respPic'></div></div>","5","1","Banana Bonanza","Fruit/bananas.png","Won","0.35,0.65","9","0.35","15","3","",""
"html-keyboard-response","17","165888","0.0-11.0-2.2","59aae1188cef7d00011f8884","bdp_rwlrn","Tue Mar 14 2023 21:23:54 GMT-0400 (Eastern Daylight Time)","479683","Trustworthy,Untrustworthy","","null","","","","decisionFB","","<div class='trialDiv'><img src='Fruit/bananas.png'><br><font class='baseline'><strong>Banana Bonanza</strong><p>Choose number of points to bet.</font><div class='respPicDiv'><img src='img/responseButtonOffersNo0L5.png' class='respPic'></div></div>","null","1","Banana Bonanza","Fruit/bananas.png","Won","0.35,0.65","9","0.35","10","3","",""
"html-keyboard-response","18","166898","0.0-11.0-3.2","59aae1188cef7d00011f8884","bdp_rwlrn","Tue Mar 14 2023 21:23:54 GMT-0400 (Eastern Daylight Time)","479683","Trustworthy,Untrustworthy","","null","","","","feedback","","<div class='respPicDiv'><img src='img/responseButtonOffersNo0_wht.png' class='respPic'></div><div class='trialDiv'><img src='Fruit/bananas.png'><br><font class='baseline'><strong>Banana Bonanza</strong><p><strong><font class='posOutcome'>You WON</font><p>You bet: 5</strong></font> &nbsp; &nbsp; &nbsp; &nbsp; &nbsp; &nbsp;<font class='posOutcome'>you receive: <strong>10</strong></font></div>","null","1","Banana Bonanza","Fruit/bananas.png","Won","0.35,0.65","9","0.35","20","3","",""
"html-keyboard-response","19","168054","0.0-11.0-1.3","59aae1188cef7d00011f8884","bdp_rwlrn","Tue Mar 14 2023 21:23:54 GMT-0400 (Eastern Daylight Time)","479683","Trustworthy,Untrustworthy","","1155","","","","decision","","<div class='trialDiv'><img src='Fruit/pineapple.png'><br><font class='baseline'><strong>Primo Pineapple</strong><p>Choose number of points to bet.</font><div class='respPicDiv'><img src='img/responseButtonOffersNo0L.png' class='respPic'></div></div>","3","2","Primo Pineapple","Fruit/pineapple.png","Lost","0.2,0.65","14","0.2","25","4","",""
"html-keyboard-response","20","168316","0.0-11.0-2.3","59aae1188cef7d00011f8884","bdp_rwlrn","Tue Mar 14 2023 21:23:54 GMT-0400 (Eastern Daylight Time)","479683","Trustworthy,Untrustworthy","","null","","","","decisionFB","","<div class='trialDiv'><img src='Fruit/pineapple.png'><br><font class='baseline'><strong>Primo Pineapple</strong><p>Choose number of points to bet.</font><div class='respPicDiv'><img src='img/responseButtonOffersNo0L3.png' class='respPic'></div></div>","null","2","Primo Pineapple","Fruit/pineapple.png","Lost","0.2,0.65","14","0.2","22","4","",""
"html-keyboard-response","21","169328","0.0-11.0-3.3","59aae1188cef7d00011f8884","bdp_rwlrn","Tue Mar 14 2023 21:23:54 GMT-0400 (Eastern Daylight Time)","479683","Trustworthy,Untrustworthy","","null","","","","feedback","","<div class='respPicDiv'><img src='img/responseButtonOffersNo0_wht.png' class='respPic'></div><div class='trialDiv'><img src='Fruit/pineapple.png'><br><font class='baseline'><strong>Primo Pineapple</strong><p><strong><font class='negOutcome'>You LOST</font><p>You bet: 3</strong></font> &nbsp; &nbsp; &nbsp; &nbsp; &nbsp; &nbsp;<font class='negOutcome'>You receive: <strong>0</strong></font></div>","null","2","Primo Pineapple","Fruit/pineapple.png","Lost","0.2,0.65","14","0.2","22","4","",""
"html-keyboard-response","22","170367","0.0-11.0-1.4","59aae1188cef7d00011f8884","bdp_rwlrn","Tue Mar 14 2023 21:23:54 GMT-0400 (Eastern Daylight Time)","479683","Trustworthy,Untrustworthy","","1038","","","","decision","","<div class='trialDiv'><img src='Fruit/grapes.png'><br><font class='baseline'><strong>Great Grapes</strong><p>Choose number of points to bet.</font><div class='respPicDiv'><img src='img/responseButtonOffersNo0L.png' class='respPic'></div></div>","5","2","Great Grapes","Fruit/grapes.png","Won","0.8,0.35","10","0.8","27","5","",""
"html-keyboard-response","23","170621","0.0-11.0-2.4","59aae1188cef7d00011f8884","bdp_rwlrn","Tue Mar 14 2023 21:23:54 GMT-0400 (Eastern Daylight Time)","479683","Trustworthy,Untrustworthy","","null","","","","decisionFB","","<div class='trialDiv'><img src='Fruit/grapes.png'><br><font class='baseline'><strong>Great Grapes</strong><p>Choose number of points to bet.</font><div class='respPicDiv'><img src='img/responseButtonOffersNo0L5.png' class='respPic'></div></div>","null","2","Great Grapes","Fruit/grapes.png","Won","0.8,0.35","10","0.8","22","5","",""
"html-keyboard-response","24","171633","0.0-11.0-3.4","59aae1188cef7d00011f8884","bdp_rwlrn","Tue Mar 14 2023 21:23:54 GMT-0400 (Eastern Daylight Time)","479683","Trustworthy,Untrustworthy","","null","","","","feedback","","<div class='respPicDiv'><img src='img/responseButtonOffersNo0_wht.png' class='respPic'></div><div class='trialDiv'><img src='Fruit/grapes.png'><br><font class='baseline'><strong>Great Grapes</strong><p><strong><font class='posOutcome'>You WON</font><p>You bet: 5</strong></font> &nbsp; &nbsp; &nbsp; &nbsp; &nbsp; &nbsp;<font class='posOutcome'>you receive: <strong>10</strong></font></div>","null","2","Great Grapes","Fruit/grapes.png","Won","0.8,0.35","10","0.8","32","5","",""
"html-keyboard-response","25","172132","0.0-11.0-1.5","59aae1188cef7d00011f8884","bdp_rwlrn","Tue Mar 14 2023 21:23:54 GMT-0400 (Eastern Daylight Time)","479683","Trustworthy,Untrustworthy","","498","","","","decision","","<div class='trialDiv'><img src='Fruit/bananas.png'><br><font class='baseline'><strong>Banana Bonanza</strong><p>Choose number of points to bet.</font><div class='respPicDiv'><img src='img/responseButtonOffersNo0L.png' class='respPic'></div></div>","5","2","Banana Bonanza","Fruit/bananas.png","Lost","0.35,0.65","9","0.35","37","6","",""
"html-keyboard-response","26","172392","0.0-11.0-2.5","59aae1188cef7d00011f8884","bdp_rwlrn","Tue Mar 14 2023 21:23:54 GMT-0400 (Eastern Daylight Time)","479683","Trustworthy,Untrustworthy","","null","","","","decisionFB","","<div class='trialDiv'><img src='Fruit/bananas.png'><br><font class='baseline'><strong>Banana Bonanza</strong><p>Choose number of points to bet.</font><div class='respPicDiv'><img src='img/responseButtonOffersNo0L5.png' class='respPic'></div></div>","null","2","Banana Bonanza","Fruit/bananas.png","Lost","0.35,0.65","9","0.35","32","6","",""
"html-keyboard-response","27","173398","0.0-11.0-3.5","59aae1188cef7d00011f8884","bdp_rwlrn","Tue Mar 14 2023 21:23:54 GMT-0400 (Eastern Daylight Time)","479683","Trustworthy,Untrustworthy","","null","","","","feedback","","<div class='respPicDiv'><img src='img/responseButtonOffersNo0_wht.png' class='respPic'></div><div class='trialDiv'><img src='Fruit/bananas.png'><br><font class='baseline'><strong>Banana Bonanza</strong><p><strong><font class='negOutcome'>You LOST</font><p>You bet: 5</strong></font> &nbsp; &nbsp; &nbsp; &nbsp; &nbsp; &nbsp;<font class='negOutcome'>You receive: <strong>0</strong></font></div>","null","2","Banana Bonanza","Fruit/bananas.png","Lost","0.35,0.65","9","0.35","32","6","",""
"html-keyboard-response","28","174379","0.0-11.0-1.6","59aae1188cef7d00011f8884","bdp_rwlrn","Tue Mar 14 2023 21:23:54 GMT-0400 (Eastern Daylight Time)","479683","Trustworthy,Untrustworthy","","979","","","","decision","","<div class='trialDiv'><img src='Fruit/pineapple.png'><br><font class='baseline'><strong>Primo Pineapple</strong><p>Choose number of points to bet.</font><div class='respPicDiv'><img src='img/responseButtonOffersNo0L.png' class='respPic'></div></div>","2","3","Primo Pineapple","Fruit/pineapple.png","Lost","0.2,0.65","14","0.2","37","7","",""
"html-keyboard-response","29","174640","0.0-11.0-2.6","59aae1188cef7d00011f8884","bdp_rwlrn","Tue Mar 14 2023 21:23:54 GMT-0400 (Eastern Daylight Time)","479683","Trustworthy,Untrustworthy","","null","","","","decisionFB","","<div class='trialDiv'><img src='Fruit/pineapple.png'><br><font class='baseline'><strong>Primo Pineapple</strong><p>Choose number of points to bet.</font><div class='respPicDiv'><img src='img/responseButtonOffersNo0L2.png' class='respPic'></div></div>","null","3","Primo Pineapple","Fruit/pineapple.png","Lost","0.2,0.65","14","0.2","35","7","",""
"html-keyboard-response","30","175647","0.0-11.0-3.6","59aae1188cef7d00011f8884","bdp_rwlrn","Tue Mar 14 2023 21:23:54 GMT-0400 (Eastern Daylight Time)","479683","Trustworthy,Untrustworthy","","null","","","","feedback","","<div class='respPicDiv'><img src='img/responseButtonOffersNo0_wht.png' class='respPic'></div><div class='trialDiv'><img src='Fruit/pineapple.png'><br><font class='baseline'><strong>Primo Pineapple</strong><p><strong><font class='negOutcome'>You LOST</font><p>You bet: 2</strong></font> &nbsp; &nbsp; &nbsp; &nbsp; &nbsp; &nbsp;<font class='negOutcome'>You receive: <strong>0</strong></font></div>","null","3","Primo Pineapple","Fruit/pineapple.png","Lost","0.2,0.65","14","0.2","35","7","",""
"html-keyboard-response","31","176551","0.0-11.0-1.7","59aae1188cef7d00011f8884","bdp_rwlrn","Tue Mar 14 2023 21:23:54 GMT-0400 (Eastern Daylight Time)","479683","Trustworthy,Untrustworthy","","904","","","","decision","","<div class='trialDiv'><img src='Fruit/grapes.png'><br><font class='baseline'><strong>Great Grapes</strong><p>Choose number of points to bet.</font><div class='respPicDiv'><img src='img/responseButtonOffersNo0L.png' class='respPic'></div></div>","5","3","Great Grapes","Fruit/grapes.png","Won","0.8,0.35","10","0.8","40","8","",""
"html-keyboard-response","32","176812","0.0-11.0-2.7","59aae1188cef7d00011f8884","bdp_rwlrn","Tue Mar 14 2023 21:23:54 GMT-0400 (Eastern Daylight Time)","479683","Trustworthy,Untrustworthy","","null","","","","decisionFB","","<div class='trialDiv'><img src='Fruit/grapes.png'><br><font class='baseline'><strong>Great Grapes</strong><p>Choose number of points to bet.</font><div class='respPicDiv'><img src='img/responseButtonOffersNo0L5.png' class='respPic'></div></div>","null","3","Great Grapes","Fruit/grapes.png","Won","0.8,0.35","10","0.8","35","8","",""
"html-keyboard-response","33","177821","0.0-11.0-3.7","59aae1188cef7d00011f8884","bdp_rwlrn","Tue Mar 14 2023 21:23:54 GMT-0400 (Eastern Daylight Time)","479683","Trustworthy,Untrustworthy","","null","","","","feedback","","<div class='respPicDiv'><img src='img/responseButtonOffersNo0_wht.png' class='respPic'></div><div class='trialDiv'><img src='Fruit/grapes.png'><br><font class='baseline'><strong>Great Grapes</strong><p><strong><font class='posOutcome'>You WON</font><p>You bet: 5</strong></font> &nbsp; &nbsp; &nbsp; &nbsp; &nbsp; &nbsp;<font class='posOutcome'>you receive: <strong>10</strong></font></div>","null","3","Great Grapes","Fruit/grapes.png","Won","0.8,0.35","10","0.8","45","8","",""
"html-keyboard-response","34","178773","0.0-11.0-1.8","59aae1188cef7d00011f8884","bdp_rwlrn","Tue Mar 14 2023 21:23:54 GMT-0400 (Eastern Daylight Time)","479683","Trustworthy,Untrustworthy","","951","","","","decision","","<div class='trialDiv'><img src='Fruit/bananas.png'><br><font class='baseline'><strong>Banana Bonanza</strong><p>Choose number of points to bet.</font><div class='respPicDiv'><img src='img/responseButtonOffersNo0L.png' class='respPic'></div></div>","3","3","Banana Bonanza","Fruit/bananas.png","Won","0.35,0.65","9","0.35","50","9","",""
"html-keyboard-response","35","179030","0.0-11.0-2.8","59aae1188cef7d00011f8884","bdp_rwlrn","Tue Mar 14 2023 21:23:54 GMT-0400 (Eastern Daylight Time)","479683","Trustworthy,Untrustworthy","","null","","","","decisionFB","","<div class='trialDiv'><img src='Fruit/bananas.png'><br><font class='baseline'><strong>Banana Bonanza</strong><p>Choose number of points to bet.</font><div class='respPicDiv'><img src='img/responseButtonOffersNo0L3.png' class='respPic'></div></div>","null","3","Banana Bonanza","Fruit/bananas.png","Won","0.35,0.65","9","0.35","47","9","",""
"html-keyboard-response","36","180039","0.0-11.0-3.8","59aae1188cef7d00011f8884","bdp_rwlrn","Tue Mar 14 2023 21:23:54 GMT-0400 (Eastern Daylight Time)","479683","Trustworthy,Untrustworthy","","null","","","","feedback","","<div class='respPicDiv'><img src='img/responseButtonOffersNo0_wht.png' class='respPic'></div><div class='trialDiv'><img src='Fruit/bananas.png'><br><font class='baseline'><strong>Banana Bonanza</strong><p><strong><font class='posOutcome'>You WON</font><p>You bet: 3</strong></font> &nbsp; &nbsp; &nbsp; &nbsp; &nbsp; &nbsp;<font class='posOutcome'>you receive: <strong>6</strong></font></div>","null","3","Banana Bonanza","Fruit/bananas.png","Won","0.35,0.65","9","0.35","53","9","",""
"html-keyboard-response","37","181045","0.0-11.0-1.9","59aae1188cef7d00011f8884","bdp_rwlrn","Tue Mar 14 2023 21:23:54 GMT-0400 (Eastern Daylight Time)","479683","Trustworthy,Untrustworthy","","1006","","","","decision","","<div class='trialDiv'><img src='Fruit/pineapple.png'><br><font class='baseline'><strong>Primo Pineapple</strong><p>Choose number of points to bet.</font><div class='respPicDiv'><img src='img/responseButtonOffersNo0L.png' class='respPic'></div></div>","1","4","Primo Pineapple","Fruit/pineapple.png","Lost","0.2,0.65","14","0.2","58","10","",""
"html-keyboard-response","38","181300","0.0-11.0-2.9","59aae1188cef7d00011f8884","bdp_rwlrn","Tue Mar 14 2023 21:23:54 GMT-0400 (Eastern Daylight Time)","479683","Trustworthy,Untrustworthy","","null","","","","decisionFB","","<div class='trialDiv'><img src='Fruit/pineapple.png'><br><font class='baseline'><strong>Primo Pineapple</strong><p>Choose number of points to bet.</font><div class='respPicDiv'><img src='img/responseButtonOffersNo0L1.png' class='respPic'></div></div>","null","4","Primo Pineapple","Fruit/pineapple.png","Lost","0.2,0.65","14","0.2","57","10","",""
"html-keyboard-response","39","182310","0.0-11.0-3.9","59aae1188cef7d00011f8884","bdp_rwlrn","Tue Mar 14 2023 21:23:54 GMT-0400 (Eastern Daylight Time)","479683","Trustworthy,Untrustworthy","","null","","","","feedback","","<div class='respPicDiv'><img src='img/responseButtonOffersNo0_wht.png' class='respPic'></div><div class='trialDiv'><img src='Fruit/pineapple.png'><br><font class='baseline'><strong>Primo Pineapple</strong><p><strong><font class='negOutcome'>You LOST</font><p>You bet: 1</strong></font> &nbsp; &nbsp; &nbsp; &nbsp; &nbsp; &nbsp;<font class='negOutcome'>You receive: <strong>0</strong></font></div>","null","4","Primo Pineapple","Fruit/pineapple.png","Lost","0.2,0.65","14","0.2","57","10","",""
"html-keyboard-response","40","183854","0.0-11.0-1.10","59aae1188cef7d00011f8884","bdp_rwlrn","Tue Mar 14 2023 21:23:54 GMT-0400 (Eastern Daylight Time)","479683","Trustworthy,Untrustworthy","","1543","","","","decision","","<div class='trialDiv'><img src='Fruit/grapes.png'><br><font class='baseline'><strong>Great Grapes</strong><p>Choose number of points to bet.</font><div class='respPicDiv'><img src='img/responseButtonOffersNo0L.png' class='respPic'></div></div>","5","4","Great Grapes","Fruit/grapes.png","Lost","0.8,0.35","10","0.8","62","11","",""
"html-keyboard-response","41","184106","0.0-11.0-2.10","59aae1188cef7d00011f8884","bdp_rwlrn","Tue Mar 14 2023 21:23:54 GMT-0400 (Eastern Daylight Time)","479683","Trustworthy,Untrustworthy","","null","","","","decisionFB","","<div class='trialDiv'><img src='Fruit/grapes.png'><br><font class='baseline'><strong>Great Grapes</strong><p>Choose number of points to bet.</font><div class='respPicDiv'><img src='img/responseButtonOffersNo0L5.png' class='respPic'></div></div>","null","4","Great Grapes","Fruit/grapes.png","Lost","0.8,0.35","10","0.8","57","11","",""
"html-keyboard-response","42","185119","0.0-11.0-3.10","59aae1188cef7d00011f8884","bdp_rwlrn","Tue Mar 14 2023 21:23:54 GMT-0400 (Eastern Daylight Time)","479683","Trustworthy,Untrustworthy","","null","","","","feedback","","<div class='respPicDiv'><img src='img/responseButtonOffersNo0_wht.png' class='respPic'></div><div class='trialDiv'><img src='Fruit/grapes.png'><br><font class='baseline'><strong>Great Grapes</strong><p><strong><font class='negOutcome'>You LOST</font><p>You bet: 5</strong></font> &nbsp; &nbsp; &nbsp; &nbsp; &nbsp; &nbsp;<font class='negOutcome'>You receive: <strong>0</strong></font></div>","null","4","Great Grapes","Fruit/grapes.png","Lost","0.8,0.35","10","0.8","57","11","",""
"html-keyboard-response","43","185843","0.0-11.0-1.11","59aae1188cef7d00011f8884","bdp_rwlrn","Tue Mar 14 2023 21:23:54 GMT-0400 (Eastern Daylight Time)","479683","Trustworthy,Untrustworthy","","724","","","","decision","","<div class='trialDiv'><img src='Fruit/bananas.png'><br><font class='baseline'><strong>Banana Bonanza</strong><p>Choose number of points to bet.</font><div class='respPicDiv'><img src='img/responseButtonOffersNo0L.png' class='respPic'></div></div>","5","4","Banana Bonanza","Fruit/bananas.png","Lost","0.35,0.65","9","0.35","62","12","",""
"html-keyboard-response","44","186102","0.0-11.0-2.11","59aae1188cef7d00011f8884","bdp_rwlrn","Tue Mar 14 2023 21:23:54 GMT-0400 (Eastern Daylight Time)","479683","Trustworthy,Untrustworthy","","null","","","","decisionFB","","<div class='trialDiv'><img src='Fruit/bananas.png'><br><font class='baseline'><strong>Banana Bonanza</strong><p>Choose number of points to bet.</font><div class='respPicDiv'><img src='img/responseButtonOffersNo0L5.png' class='respPic'></div></div>","null","4","Banana Bonanza","Fruit/bananas.png","Lost","0.35,0.65","9","0.35","57","12","",""
"html-keyboard-response","45","187114","0.0-11.0-3.11","59aae1188cef7d00011f8884","bdp_rwlrn","Tue Mar 14 2023 21:23:54 GMT-0400 (Eastern Daylight Time)","479683","Trustworthy,Untrustworthy","","null","","","","feedback","","<div class='respPicDiv'><img src='img/responseButtonOffersNo0_wht.png' class='respPic'></div><div class='trialDiv'><img src='Fruit/bananas.png'><br><font class='baseline'><strong>Banana Bonanza</strong><p><strong><font class='negOutcome'>You LOST</font><p>You bet: 5</strong></font> &nbsp; &nbsp; &nbsp; &nbsp; &nbsp; &nbsp;<font class='negOutcome'>You receive: <strong>0</strong></font></div>","null","4","Banana Bonanza","Fruit/bananas.png","Lost","0.35,0.65","9","0.35","57","12","",""
"html-keyboard-response","46","188588","0.0-11.0-1.12","59aae1188cef7d00011f8884","bdp_rwlrn","Tue Mar 14 2023 21:23:54 GMT-0400 (Eastern Daylight Time)","479683","Trustworthy,Untrustworthy","","1473","","","","decision","","<div class='trialDiv'><img src='Fruit/pineapple.png'><br><font class='baseline'><strong>Primo Pineapple</strong><p>Choose number of points to bet.</font><div class='respPicDiv'><img src='img/responseButtonOffersNo0L.png' class='respPic'></div></div>","2","5","Primo Pineapple","Fruit/pineapple.png","Won","0.2,0.65","14","0.2","62","13","",""
"html-keyboard-response","47","188842","0.0-11.0-2.12","59aae1188cef7d00011f8884","bdp_rwlrn","Tue Mar 14 2023 21:23:54 GMT-0400 (Eastern Daylight Time)","479683","Trustworthy,Untrustworthy","","null","","","","decisionFB","","<div class='trialDiv'><img src='Fruit/pineapple.png'><br><font class='baseline'><strong>Primo Pineapple</strong><p>Choose number of points to bet.</font><div class='respPicDiv'><img src='img/responseButtonOffersNo0L2.png' class='respPic'></div></div>","null","5","Primo Pineapple","Fruit/pineapple.png","Won","0.2,0.65","14","0.2","60","13","",""
"html-keyboard-response","48","189856","0.0-11.0-3.12","59aae1188cef7d00011f8884","bdp_rwlrn","Tue Mar 14 2023 21:23:54 GMT-0400 (Eastern Daylight Time)","479683","Trustworthy,Untrustworthy","","null","","","","feedback","","<div class='respPicDiv'><img src='img/responseButtonOffersNo0_wht.png' class='respPic'></div><div class='trialDiv'><img src='Fruit/pineapple.png'><br><font class='baseline'><strong>Primo Pineapple</strong><p><strong><font class='posOutcome'>You WON</font><p>You bet: 2</strong></font> &nbsp; &nbsp; &nbsp; &nbsp; &nbsp; &nbsp;<font class='posOutcome'>you receive: <strong>4</strong></font></div>","null","5","Primo Pineapple","Fruit/pineapple.png","Won","0.2,0.65","14","0.2","64","13","",""
"html-keyboard-response","49","190814","0.0-11.0-1.13","59aae1188cef7d00011f8884","bdp_rwlrn","Tue Mar 14 2023 21:23:54 GMT-0400 (Eastern Daylight Time)","479683","Trustworthy,Untrustworthy","","957","","","","decision","","<div class='trialDiv'><img src='Fruit/bananas.png'><br><font class='baseline'><strong>Banana Bonanza</strong><p>Choose number of points to bet.</font><div class='respPicDiv'><img src='img/responseButtonOffersNo0L.png' class='respPic'></div></div>","3","5","Banana Bonanza","Fruit/bananas.png","Lost","0.35,0.65","9","0.35","69","14","",""
"html-keyboard-response","50","191074","0.0-11.0-2.13","59aae1188cef7d00011f8884","bdp_rwlrn","Tue Mar 14 2023 21:23:54 GMT-0400 (Eastern Daylight Time)","479683","Trustworthy,Untrustworthy","","null","","","","decisionFB","","<div class='trialDiv'><img src='Fruit/bananas.png'><br><font class='baseline'><strong>Banana Bonanza</strong><p>Choose number of points to bet.</font><div class='respPicDiv'><img src='img/responseButtonOffersNo0L3.png' class='respPic'></div></div>","null","5","Banana Bonanza","Fruit/bananas.png","Lost","0.35,0.65","9","0.35","66","14","",""
"html-keyboard-response","51","192086","0.0-11.0-3.13","59aae1188cef7d00011f8884","bdp_rwlrn","Tue Mar 14 2023 21:23:54 GMT-0400 (Eastern Daylight Time)","479683","Trustworthy,Untrustworthy","","null","","","","feedback","","<div class='respPicDiv'><img src='img/responseButtonOffersNo0_wht.png' class='respPic'></div><div class='trialDiv'><img src='Fruit/bananas.png'><br><font class='baseline'><strong>Banana Bonanza</strong><p><strong><font class='negOutcome'>You LOST</font><p>You bet: 3</strong></font> &nbsp; &nbsp; &nbsp; &nbsp; &nbsp; &nbsp;<font class='negOutcome'>You receive: <strong>0</strong></font></div>","null","5","Banana Bonanza","Fruit/bananas.png","Lost","0.35,0.65","9","0.35","66","14","",""
"html-keyboard-response","52","192348","0.0-11.0-1.14","59aae1188cef7d00011f8884","bdp_rwlrn","Tue Mar 14 2023 21:23:54 GMT-0400 (Eastern Daylight Time)","479683","Trustworthy,Untrustworthy","","261","","","","decision","","<div class='trialDiv'><img src='Fruit/grapes.png'><br><font class='baseline'><strong>Great Grapes</strong><p>Choose number of points to bet.</font><div class='respPicDiv'><img src='img/responseButtonOffersNo0L.png' class='respPic'></div></div>","3","5","Great Grapes","Fruit/grapes.png","Won","0.8,0.35","10","0.8","71","15","",""
"html-keyboard-response","53","192614","0.0-11.0-2.14","59aae1188cef7d00011f8884","bdp_rwlrn","Tue Mar 14 2023 21:23:54 GMT-0400 (Eastern Daylight Time)","479683","Trustworthy,Untrustworthy","","null","","","","decisionFB","","<div class='trialDiv'><img src='Fruit/grapes.png'><br><font class='baseline'><strong>Great Grapes</strong><p>Choose number of points to bet.</font><div class='respPicDiv'><img src='img/responseButtonOffersNo0L3.png' class='respPic'></div></div>","null","5","Great Grapes","Fruit/grapes.png","Won","0.8,0.35","10","0.8","68","15","",""
"html-keyboard-response","54","193626","0.0-11.0-3.14","59aae1188cef7d00011f8884","bdp_rwlrn","Tue Mar 14 2023 21:23:54 GMT-0400 (Eastern Daylight Time)","479683","Trustworthy,Untrustworthy","","null","","","","feedback","","<div class='respPicDiv'><img src='img/responseButtonOffersNo0_wht.png' class='respPic'></div><div class='trialDiv'><img src='Fruit/grapes.png'><br><font class='baseline'><strong>Great Grapes</strong><p><strong><font class='posOutcome'>You WON</font><p>You bet: 3</strong></font> &nbsp; &nbsp; &nbsp; &nbsp; &nbsp; &nbsp;<font class='posOutcome'>you receive: <strong>6</strong></font></div>","null","5","Great Grapes","Fruit/grapes.png","Won","0.8,0.35","10","0.8","74","15","",""
"html-keyboard-response","55","194768","0.0-11.0-1.15","59aae1188cef7d00011f8884","bdp_rwlrn","Tue Mar 14 2023 21:23:54 GMT-0400 (Eastern Daylight Time)","479683","Trustworthy,Untrustworthy","","1140","","","","decision","","<div class='trialDiv'><img src='Fruit/bananas.png'><br><font class='baseline'><strong>Banana Bonanza</strong><p>Choose number of points to bet.</font><div class='respPicDiv'><img src='img/responseButtonOffersNo0L.png' class='respPic'></div></div>","2","6","Banana Bonanza","Fruit/bananas.png","Won","0.35,0.65","9","0.35","79","16","",""
"html-keyboard-response","56","195021","0.0-11.0-2.15","59aae1188cef7d00011f8884","bdp_rwlrn","Tue Mar 14 2023 21:23:54 GMT-0400 (Eastern Daylight Time)","479683","Trustworthy,Untrustworthy","","null","","","","decisionFB","","<div class='trialDiv'><img src='Fruit/bananas.png'><br><font class='baseline'><strong>Banana Bonanza</strong><p>Choose number of points to bet.</font><div class='respPicDiv'><img src='img/responseButtonOffersNo0L2.png' class='respPic'></div></div>","null","6","Banana Bonanza","Fruit/bananas.png","Won","0.35,0.65","9","0.35","77","16","",""
"html-keyboard-response","57","196028","0.0-11.0-3.15","59aae1188cef7d00011f8884","bdp_rwlrn","Tue Mar 14 2023 21:23:54 GMT-0400 (Eastern Daylight Time)","479683","Trustworthy,Untrustworthy","","null","","","","feedback","","<div class='respPicDiv'><img src='img/responseButtonOffersNo0_wht.png' class='respPic'></div><div class='trialDiv'><img src='Fruit/bananas.png'><br><font class='baseline'><strong>Banana Bonanza</strong><p><strong><font class='posOutcome'>You WON</font><p>You bet: 2</strong></font> &nbsp; &nbsp; &nbsp; &nbsp; &nbsp; &nbsp;<font class='posOutcome'>you receive: <strong>4</strong></font></div>","null","6","Banana Bonanza","Fruit/bananas.png","Won","0.35,0.65","9","0.35","81","16","",""
"html-keyboard-response","58","197201","0.0-11.0-1.16","59aae1188cef7d00011f8884","bdp_rwlrn","Tue Mar 14 2023 21:23:54 GMT-0400 (Eastern Daylight Time)","479683","Trustworthy,Untrustworthy","","1173","","","","decision","","<div class='trialDiv'><img src='Fruit/pineapple.png'><br><font class='baseline'><strong>Primo Pineapple</strong><p>Choose number of points to bet.</font><div class='respPicDiv'><img src='img/responseButtonOffersNo0L.png' class='respPic'></div></div>","3","6","Primo Pineapple","Fruit/pineapple.png","Lost","0.2,0.65","14","0.2","86","17","",""
"html-keyboard-response","59","197464","0.0-11.0-2.16","59aae1188cef7d00011f8884","bdp_rwlrn","Tue Mar 14 2023 21:23:54 GMT-0400 (Eastern Daylight Time)","479683","Trustworthy,Untrustworthy","","null","","","","decisionFB","","<div class='trialDiv'><img src='Fruit/pineapple.png'><br><font class='baseline'><strong>Primo Pineapple</strong><p>Choose number of points to bet.</font><div class='respPicDiv'><img src='img/responseButtonOffersNo0L3.png' class='respPic'></div></div>","null","6","Primo Pineapple","Fruit/pineapple.png","Lost","0.2,0.65","14","0.2","83","17","",""
"html-keyboard-response","60","198474","0.0-11.0-3.16","59aae1188cef7d00011f8884","bdp_rwlrn","Tue Mar 14 2023 21:23:54 GMT-0400 (Eastern Daylight Time)","479683","Trustworthy,Untrustworthy","","null","","","","feedback","","<div class='respPicDiv'><img src='img/responseButtonOffersNo0_wht.png' class='respPic'></div><div class='trialDiv'><img src='Fruit/pineapple.png'><br><font class='baseline'><strong>Primo Pineapple</strong><p><strong><font class='negOutcome'>You LOST</font><p>You bet: 3</strong></font> &nbsp; &nbsp; &nbsp; &nbsp; &nbsp; &nbsp;<font class='negOutcome'>You receive: <strong>0</strong></font></div>","null","6","Primo Pineapple","Fruit/pineapple.png","Lost","0.2,0.65","14","0.2","83","17","",""
"html-keyboard-response","61","199270","0.0-11.0-1.17","59aae1188cef7d00011f8884","bdp_rwlrn","Tue Mar 14 2023 21:23:54 GMT-0400 (Eastern Daylight Time)","479683","Trustworthy,Untrustworthy","","795","","","","decision","","<div class='trialDiv'><img src='Fruit/grapes.png'><br><font class='baseline'><strong>Great Grapes</strong><p>Choose number of points to bet.</font><div class='respPicDiv'><img src='img/responseButtonOffersNo0L.png' class='respPic'></div></div>","4","6","Great Grapes","Fruit/grapes.png","Won","0.8,0.35","10","0.8","88","18","",""
"html-keyboard-response","62","199532","0.0-11.0-2.17","59aae1188cef7d00011f8884","bdp_rwlrn","Tue Mar 14 2023 21:23:54 GMT-0400 (Eastern Daylight Time)","479683","Trustworthy,Untrustworthy","","null","","","","decisionFB","","<div class='trialDiv'><img src='Fruit/grapes.png'><br><font class='baseline'><strong>Great Grapes</strong><p>Choose number of points to bet.</font><div class='respPicDiv'><img src='img/responseButtonOffersNo0L4.png' class='respPic'></div></div>","null","6","Great Grapes","Fruit/grapes.png","Won","0.8,0.35","10","0.8","84","18","",""
"html-keyboard-response","63","200541","0.0-11.0-3.17","59aae1188cef7d00011f8884","bdp_rwlrn","Tue Mar 14 2023 21:23:54 GMT-0400 (Eastern Daylight Time)","479683","Trustworthy,Untrustworthy","","null","","","","feedback","","<div class='respPicDiv'><img src='img/responseButtonOffersNo0_wht.png' class='respPic'></div><div class='trialDiv'><img src='Fruit/grapes.png'><br><font class='baseline'><strong>Great Grapes</strong><p><strong><font class='posOutcome'>You WON</font><p>You bet: 4</strong></font> &nbsp; &nbsp; &nbsp; &nbsp; &nbsp; &nbsp;<font class='posOutcome'>you receive: <strong>8</strong></font></div>","null","6","Great Grapes","Fruit/grapes.png","Won","0.8,0.35","10","0.8","92","18","",""
"html-keyboard-response","64","201392","0.0-11.0-1.18","59aae1188cef7d00011f8884","bdp_rwlrn","Tue Mar 14 2023 21:23:54 GMT-0400 (Eastern Daylight Time)","479683","Trustworthy,Untrustworthy","","850","","","","decision","","<div class='trialDiv'><img src='Fruit/bananas.png'><br><font class='baseline'><strong>Banana Bonanza</strong><p>Choose number of points to bet.</font><div class='respPicDiv'><img src='img/responseButtonOffersNo0L.png' class='respPic'></div></div>","4","7","Banana Bonanza","Fruit/bananas.png","Lost","0.35,0.65","9","0.35","97","19","",""
"html-keyboard-response","65","201645","0.0-11.0-2.18","59aae1188cef7d00011f8884","bdp_rwlrn","Tue Mar 14 2023 21:23:54 GMT-0400 (Eastern Daylight Time)","479683","Trustworthy,Untrustworthy","","null","","","","decisionFB","","<div class='trialDiv'><img src='Fruit/bananas.png'><br><font class='baseline'><strong>Banana Bonanza</strong><p>Choose number of points to bet.</font><div class='respPicDiv'><img src='img/responseButtonOffersNo0L4.png' class='respPic'></div></div>","null","7","Banana Bonanza","Fruit/bananas.png","Lost","0.35,0.65","9","0.35","93","19","",""
"html-keyboard-response","66","202656","0.0-11.0-3.18","59aae1188cef7d00011f8884","bdp_rwlrn","Tue Mar 14 2023 21:23:54 GMT-0400 (Eastern Daylight Time)","479683","Trustworthy,Untrustworthy","","null","","","","feedback","","<div class='respPicDiv'><img src='img/responseButtonOffersNo0_wht.png' class='respPic'></div><div class='trialDiv'><img src='Fruit/bananas.png'><br><font class='baseline'><strong>Banana Bonanza</strong><p><strong><font class='negOutcome'>You LOST</font><p>You bet: 4</strong></font> &nbsp; &nbsp; &nbsp; &nbsp; &nbsp; &nbsp;<font class='negOutcome'>You receive: <strong>0</strong></font></div>","null","7","Banana Bonanza","Fruit/bananas.png","Lost","0.35,0.65","9","0.35","93","19","",""
"html-keyboard-response","67","203052","0.0-11.0-1.19","59aae1188cef7d00011f8884","bdp_rwlrn","Tue Mar 14 2023 21:23:54 GMT-0400 (Eastern Daylight Time)","479683","Trustworthy,Untrustworthy","","395","","","","decision","","<div class='trialDiv'><img src='Fruit/grapes.png'><br><font class='baseline'><strong>Great Grapes</strong><p>Choose number of points to bet.</font><div class='respPicDiv'><img src='img/responseButtonOffersNo0L.png' class='respPic'></div></div>","5","7","Great Grapes","Fruit/grapes.png","Lost","0.8,0.35","10","0.8","98","20","",""
"html-keyboard-response","68","203306","0.0-11.0-2.19","59aae1188cef7d00011f8884","bdp_rwlrn","Tue Mar 14 2023 21:23:54 GMT-0400 (Eastern Daylight Time)","479683","Trustworthy,Untrustworthy","","null","","","","decisionFB","","<div class='trialDiv'><img src='Fruit/grapes.png'><br><font class='baseline'><strong>Great Grapes</strong><p>Choose number of points to bet.</font><div class='respPicDiv'><img src='img/responseButtonOffersNo0L5.png' class='respPic'></div></div>","null","7","Great Grapes","Fruit/grapes.png","Lost","0.8,0.35","10","0.8","93","20","",""
"html-keyboard-response","69","204319","0.0-11.0-3.19","59aae1188cef7d00011f8884","bdp_rwlrn","Tue Mar 14 2023 21:23:54 GMT-0400 (Eastern Daylight Time)","479683","Trustworthy,Untrustworthy","","null","","","","feedback","","<div class='respPicDiv'><img src='img/responseButtonOffersNo0_wht.png' class='respPic'></div><div class='trialDiv'><img src='Fruit/grapes.png'><br><font class='baseline'><strong>Great Grapes</strong><p><strong><font class='negOutcome'>You LOST</font><p>You bet: 5</strong></font> &nbsp; &nbsp; &nbsp; &nbsp; &nbsp; &nbsp;<font class='negOutcome'>You receive: <strong>0</strong></font></div>","null","7","Great Grapes","Fruit/grapes.png","Lost","0.8,0.35","10","0.8","93","20","",""
"html-keyboard-response","70","204929","0.0-11.0-1.20","59aae1188cef7d00011f8884","bdp_rwlrn","Tue Mar 14 2023 21:23:54 GMT-0400 (Eastern Daylight Time)","479683","Trustworthy,Untrustworthy","","609","","","","decision","","<div class='trialDiv'><img src='Fruit/pineapple.png'><br><font class='baseline'><strong>Primo Pineapple</strong><p>Choose number of points to bet.</font><div class='respPicDiv'><img src='img/responseButtonOffersNo0L.png' class='respPic'></div></div>","3","7","Primo Pineapple","Fruit/pineapple.png","Lost","0.2,0.65","14","0.2","98","21","",""
"html-keyboard-response","71","205190","0.0-11.0-2.20","59aae1188cef7d00011f8884","bdp_rwlrn","Tue Mar 14 2023 21:23:54 GMT-0400 (Eastern Daylight Time)","479683","Trustworthy,Untrustworthy","","null","","","","decisionFB","","<div class='trialDiv'><img src='Fruit/pineapple.png'><br><font class='baseline'><strong>Primo Pineapple</strong><p>Choose number of points to bet.</font><div class='respPicDiv'><img src='img/responseButtonOffersNo0L3.png' class='respPic'></div></div>","null","7","Primo Pineapple","Fruit/pineapple.png","Lost","0.2,0.65","14","0.2","95","21","",""
"html-keyboard-response","72","206200","0.0-11.0-3.20","59aae1188cef7d00011f8884","bdp_rwlrn","Tue Mar 14 2023 21:23:54 GMT-0400 (Eastern Daylight Time)","479683","Trustworthy,Untrustworthy","","null","","","","feedback","","<div class='respPicDiv'><img src='img/responseButtonOffersNo0_wht.png' class='respPic'></div><div class='trialDiv'><img src='Fruit/pineapple.png'><br><font class='baseline'><strong>Primo Pineapple</strong><p><strong><font class='negOutcome'>You LOST</font><p>You bet: 3</strong></font> &nbsp; &nbsp; &nbsp; &nbsp; &nbsp; &nbsp;<font class='negOutcome'>You receive: <strong>0</strong></font></div>","null","7","Primo Pineapple","Fruit/pineapple.png","Lost","0.2,0.65","14","0.2","95","21","",""
"html-keyboard-response","73","206811","0.0-11.0-1.21","59aae1188cef7d00011f8884","bdp_rwlrn","Tue Mar 14 2023 21:23:54 GMT-0400 (Eastern Daylight Time)","479683","Trustworthy,Untrustworthy","","611","","","","decision","","<div class='trialDiv'><img src='Fruit/grapes.png'><br><font class='baseline'><strong>Great Grapes</strong><p>Choose number of points to bet.</font><div class='respPicDiv'><img src='img/responseButtonOffersNo0L.png' class='respPic'></div></div>","5","8","Great Grapes","Fruit/grapes.png","Lost","0.8,0.35","10","0.8","100","22","",""
"html-keyboard-response","74","207069","0.0-11.0-2.21","59aae1188cef7d00011f8884","bdp_rwlrn","Tue Mar 14 2023 21:23:54 GMT-0400 (Eastern Daylight Time)","479683","Trustworthy,Untrustworthy","","null","","","","decisionFB","","<div class='trialDiv'><img src='Fruit/grapes.png'><br><font class='baseline'><strong>Great Grapes</strong><p>Choose number of points to bet.</font><div class='respPicDiv'><img src='img/responseButtonOffersNo0L5.png' class='respPic'></div></div>","null","8","Great Grapes","Fruit/grapes.png","Lost","0.8,0.35","10","0.8","95","22","",""
"html-keyboard-response","75","208075","0.0-11.0-3.21","59aae1188cef7d00011f8884","bdp_rwlrn","Tue Mar 14 2023 21:23:54 GMT-0400 (Eastern Daylight Time)","479683","Trustworthy,Untrustworthy","","null","","","","feedback","","<div class='respPicDiv'><img src='img/responseButtonOffersNo0_wht.png' class='respPic'></div><div class='trialDiv'><img src='Fruit/grapes.png'><br><font class='baseline'><strong>Great Grapes</strong><p><strong><font class='negOutcome'>You LOST</font><p>You bet: 5</strong></font> &nbsp; &nbsp; &nbsp; &nbsp; &nbsp; &nbsp;<font class='negOutcome'>You receive: <strong>0</strong></font></div>","null","8","Great Grapes","Fruit/grapes.png","Lost","0.8,0.35","10","0.8","95","22","",""
"html-keyboard-response","76","209219","0.0-11.0-1.22","59aae1188cef7d00011f8884","bdp_rwlrn","Tue Mar 14 2023 21:23:54 GMT-0400 (Eastern Daylight Time)","479683","Trustworthy,Untrustworthy","","1143","","","","decision","","<div class='trialDiv'><img src='Fruit/pineapple.png'><br><font class='baseline'><strong>Primo Pineapple</strong><p>Choose number of points to bet.</font><div class='respPicDiv'><img src='img/responseButtonOffersNo0L.png' class='respPic'></div></div>","2","8","Primo Pineapple","Fruit/pineapple.png","Lost","0.2,0.65","14","0.2","100","23","",""
"html-keyboard-response","77","209476","0.0-11.0-2.22","59aae1188cef7d00011f8884","bdp_rwlrn","Tue Mar 14 2023 21:23:54 GMT-0400 (Eastern Daylight Time)","479683","Trustworthy,Untrustworthy","","null","","","","decisionFB","","<div class='trialDiv'><img src='Fruit/pineapple.png'><br><font class='baseline'><strong>Primo Pineapple</strong><p>Choose number of points to bet.</font><div class='respPicDiv'><img src='img/responseButtonOffersNo0L2.png' class='respPic'></div></div>","null","8","Primo Pineapple","Fruit/pineapple.png","Lost","0.2,0.65","14","0.2","98","23","",""
"html-keyboard-response","78","210487","0.0-11.0-3.22","59aae1188cef7d00011f8884","bdp_rwlrn","Tue Mar 14 2023 21:23:54 GMT-0400 (Eastern Daylight Time)","479683","Trustworthy,Untrustworthy","","null","","","","feedback","","<div class='respPicDiv'><img src='img/responseButtonOffersNo0_wht.png' class='respPic'></div><div class='trialDiv'><img src='Fruit/pineapple.png'><br><font class='baseline'><strong>Primo Pineapple</strong><p><strong><font class='negOutcome'>You LOST</font><p>You bet: 2</strong></font> &nbsp; &nbsp; &nbsp; &nbsp; &nbsp; &nbsp;<font class='negOutcome'>You receive: <strong>0</strong></font></div>","null","8","Primo Pineapple","Fruit/pineapple.png","Lost","0.2,0.65","14","0.2","98","23","",""
"html-keyboard-response","79","211257","0.0-11.0-1.23","59aae1188cef7d00011f8884","bdp_rwlrn","Tue Mar 14 2023 21:23:54 GMT-0400 (Eastern Daylight Time)","479683","Trustworthy,Untrustworthy","","769","","","","decision","","<div class='trialDiv'><img src='Fruit/bananas.png'><br><font class='baseline'><strong>Banana Bonanza</strong><p>Choose number of points to bet.</font><div class='respPicDiv'><img src='img/responseButtonOffersNo0L.png' class='respPic'></div></div>","1","8","Banana Bonanza","Fruit/bananas.png","Won","0.35,0.65","9","0.35","103","24","",""
"html-keyboard-response","80","211514","0.0-11.0-2.23","59aae1188cef7d00011f8884","bdp_rwlrn","Tue Mar 14 2023 21:23:54 GMT-0400 (Eastern Daylight Time)","479683","Trustworthy,Untrustworthy","","null","","","","decisionFB","","<div class='trialDiv'><img src='Fruit/bananas.png'><br><font class='baseline'><strong>Banana Bonanza</strong><p>Choose number of points to bet.</font><div class='respPicDiv'><img src='img/responseButtonOffersNo0L1.png' class='respPic'></div></div>","null","8","Banana Bonanza","Fruit/bananas.png","Won","0.35,0.65","9","0.35","102","24","",""
"html-keyboard-response","81","212523","0.0-11.0-3.23","59aae1188cef7d00011f8884","bdp_rwlrn","Tue Mar 14 2023 21:23:54 GMT-0400 (Eastern Daylight Time)","479683","Trustworthy,Untrustworthy","","null","","","","feedback","","<div class='respPicDiv'><img src='img/responseButtonOffersNo0_wht.png' class='respPic'></div><div class='trialDiv'><img src='Fruit/bananas.png'><br><font class='baseline'><strong>Banana Bonanza</strong><p><strong><font class='posOutcome'>You WON</font><p>You bet: 1</strong></font> &nbsp; &nbsp; &nbsp; &nbsp; &nbsp; &nbsp;<font class='posOutcome'>you receive: <strong>2</strong></font></div>","null","8","Banana Bonanza","Fruit/bananas.png","Won","0.35,0.65","9","0.35","104","24","",""
"html-keyboard-response","82","213576","0.0-11.0-1.24","59aae1188cef7d00011f8884","bdp_rwlrn","Tue Mar 14 2023 21:23:54 GMT-0400 (Eastern Daylight Time)","479683","Trustworthy,Untrustworthy","","1052","","","","decision","","<div class='trialDiv'><img src='Fruit/grapes.png'><br><font class='baseline'><strong>Great Grapes</strong><p>Choose number of points to bet.</font><div class='respPicDiv'><img src='img/responseButtonOffersNo0L.png' class='respPic'></div></div>","5","9","Great Grapes","Fruit/grapes.png","Won","0.8,0.35","10","0.8","109","25","",""
"html-keyboard-response","83","213831","0.0-11.0-2.24","59aae1188cef7d00011f8884","bdp_rwlrn","Tue Mar 14 2023 21:23:54 GMT-0400 (Eastern Daylight Time)","479683","Trustworthy,Untrustworthy","","null","","","","decisionFB","","<div class='trialDiv'><img src='Fruit/grapes.png'><br><font class='baseline'><strong>Great Grapes</strong><p>Choose number of points to bet.</font><div class='respPicDiv'><img src='img/responseButtonOffersNo0L5.png' class='respPic'></div></div>","null","9","Great Grapes","Fruit/grapes.png","Won","0.8,0.35","10","0.8","104","25","",""
"html-keyboard-response","84","214840","0.0-11.0-3.24","59aae1188cef7d00011f8884","bdp_rwlrn","Tue Mar 14 2023 21:23:54 GMT-0400 (Eastern Daylight Time)","479683","Trustworthy,Untrustworthy","","null","","","","feedback","","<div class='respPicDiv'><img src='img/responseButtonOffersNo0_wht.png' class='respPic'></div><div class='trialDiv'><img src='Fruit/grapes.png'><br><font class='baseline'><strong>Great Grapes</strong><p><strong><font class='posOutcome'>You WON</font><p>You bet: 5</strong></font> &nbsp; &nbsp; &nbsp; &nbsp; &nbsp; &nbsp;<font class='posOutcome'>you receive: <strong>10</strong></font></div>","null","9","Great Grapes","Fruit/grapes.png","Won","0.8,0.35","10","0.8","114","25","",""
"html-keyboard-response","85","215743","0.0-11.0-1.25","59aae1188cef7d00011f8884","bdp_rwlrn","Tue Mar 14 2023 21:23:54 GMT-0400 (Eastern Daylight Time)","479683","Trustworthy,Untrustworthy","","903","","","","decision","","<div class='trialDiv'><img src='Fruit/pineapple.png'><br><font class='baseline'><strong>Primo Pineapple</strong><p>Choose number of points to bet.</font><div class='respPicDiv'><img src='img/responseButtonOffersNo0L.png' class='respPic'></div></div>","1","9","Primo Pineapple","Fruit/pineapple.png","Lost","0.2,0.65","14","0.2","119","26","",""
"html-keyboard-response","86","216007","0.0-11.0-2.25","59aae1188cef7d00011f8884","bdp_rwlrn","Tue Mar 14 2023 21:23:54 GMT-0400 (Eastern Daylight Time)","479683","Trustworthy,Untrustworthy","","null","","","","decisionFB","","<div class='trialDiv'><img src='Fruit/pineapple.png'><br><font class='baseline'><strong>Primo Pineapple</strong><p>Choose number of points to bet.</font><div class='respPicDiv'><img src='img/responseButtonOffersNo0L1.png' class='respPic'></div></div>","null","9","Primo Pineapple","Fruit/pineapple.png","Lost","0.2,0.65","14","0.2","118","26","",""
"html-keyboard-response","87","217017","0.0-11.0-3.25","59aae1188cef7d00011f8884","bdp_rwlrn","Tue Mar 14 2023 21:23:54 GMT-0400 (Eastern Daylight Time)","479683","Trustworthy,Untrustworthy","","null","","","","feedback","","<div class='respPicDiv'><img src='img/responseButtonOffersNo0_wht.png' class='respPic'></div><div class='trialDiv'><img src='Fruit/pineapple.png'><br><font class='baseline'><strong>Primo Pineapple</strong><p><strong><font class='negOutcome'>You LOST</font><p>You bet: 1</strong></font> &nbsp; &nbsp; &nbsp; &nbsp; &nbsp; &nbsp;<font class='negOutcome'>You receive: <strong>0</strong></font></div>","null","9","Primo Pineapple","Fruit/pineapple.png","Lost","0.2,0.65","14","0.2","118","26","",""
"html-keyboard-response","88","217332","0.0-11.0-1.26","59aae1188cef7d00011f8884","bdp_rwlrn","Tue Mar 14 2023 21:23:54 GMT-0400 (Eastern Daylight Time)","479683","Trustworthy,Untrustworthy","","314","","","","decision","","<div class='trialDiv'><img src='Fruit/bananas.png'><br><font class='baseline'><strong>Banana Bonanza</strong><p>Choose number of points to bet.</font><div class='respPicDiv'><img src='img/responseButtonOffersNo0L.png' class='respPic'></div></div>","5","9","Banana Bonanza","Fruit/bananas.png","Won","0.35,0.65","9","0.35","123","27","",""
"html-keyboard-response","89","217592","0.0-11.0-2.26","59aae1188cef7d00011f8884","bdp_rwlrn","Tue Mar 14 2023 21:23:54 GMT-0400 (Eastern Daylight Time)","479683","Trustworthy,Untrustworthy","","null","","","","decisionFB","","<div class='trialDiv'><img src='Fruit/bananas.png'><br><font class='baseline'><strong>Banana Bonanza</strong><p>Choose number of points to bet.</font><div class='respPicDiv'><img src='img/responseButtonOffersNo0L5.png' class='respPic'></div></div>","null","9","Banana Bonanza","Fruit/bananas.png","Won","0.35,0.65","9","0.35","118","27","",""
"html-keyboard-response","90","218600","0.0-11.0-3.26","59aae1188cef7d00011f8884","bdp_rwlrn","Tue Mar 14 2023 21:23:54 GMT-0400 (Eastern Daylight Time)","479683","Trustworthy,Untrustworthy","","null","","","","feedback","","<div class='respPicDiv'><img src='img/responseButtonOffersNo0_wht.png' class='respPic'></div><div class='trialDiv'><img src='Fruit/bananas.png'><br><font class='baseline'><strong>Banana Bonanza</strong><p><strong><font class='posOutcome'>You WON</font><p>You bet: 5</strong></font> &nbsp; &nbsp; &nbsp; &nbsp; &nbsp; &nbsp;<font class='posOutcome'>you receive: <strong>10</strong></font></div>","null","9","Banana Bonanza","Fruit/bananas.png","Won","0.35,0.65","9","0.35","128","27","",""
"html-keyboard-response","91","219420","0.0-11.0-1.27","59aae1188cef7d00011f8884","bdp_rwlrn","Tue Mar 14 2023 21:23:54 GMT-0400 (Eastern Daylight Time)","479683","Trustworthy,Untrustworthy","","820","","","","decision","","<div class='trialDiv'><img src='Fruit/pineapple.png'><br><font class='baseline'><strong>Primo Pineapple</strong><p>Choose number of points to bet.</font><div class='respPicDiv'><img src='img/responseButtonOffersNo0L.png' class='respPic'></div></div>","2","10","Primo Pineapple","Fruit/pineapple.png","Won","0.2,0.65","14","0.2","133","28","",""
"html-keyboard-response","92","219674","0.0-11.0-2.27","59aae1188cef7d00011f8884","bdp_rwlrn","Tue Mar 14 2023 21:23:54 GMT-0400 (Eastern Daylight Time)","479683","Trustworthy,Untrustworthy","","null","","","","decisionFB","","<div class='trialDiv'><img src='Fruit/pineapple.png'><br><font class='baseline'><strong>Primo Pineapple</strong><p>Choose number of points to bet.</font><div class='respPicDiv'><img src='img/responseButtonOffersNo0L2.png' class='respPic'></div></div>","null","10","Primo Pineapple","Fruit/pineapple.png","Won","0.2,0.65","14","0.2","131","28","",""
"html-keyboard-response","93","220688","0.0-11.0-3.27","59aae1188cef7d00011f8884","bdp_rwlrn","Tue Mar 14 2023 21:23:54 GMT-0400 (Eastern Daylight Time)","479683","Trustworthy,Untrustworthy","","null","","","","feedback","","<div class='respPicDiv'><img src='img/responseButtonOffersNo0_wht.png' class='respPic'></div><div class='trialDiv'><img src='Fruit/pineapple.png'><br><font class='baseline'><strong>Primo Pineapple</strong><p><strong><font class='posOutcome'>You WON</font><p>You bet: 2</strong></font> &nbsp; &nbsp; &nbsp; &nbsp; &nbsp; &nbsp;<font class='posOutcome'>you receive: <strong>4</strong></font></div>","null","10","Primo Pineapple","Fruit/pineapple.png","Won","0.2,0.65","14","0.2","135","28","",""
"html-keyboard-response","94","221461","0.0-11.0-1.28","59aae1188cef7d00011f8884","bdp_rwlrn","Tue Mar 14 2023 21:23:54 GMT-0400 (Eastern Daylight Time)","479683","Trustworthy,Untrustworthy","","772","","","","decision","","<div class='trialDiv'><img src='Fruit/grapes.png'><br><font class='baseline'><strong>Great Grapes</strong><p>Choose number of points to bet.</font><div class='respPicDiv'><img src='img/responseButtonOffersNo0L.png' class='respPic'></div></div>","2","10","Great Grapes","Fruit/grapes.png","Won","0.8,0.35","10","0.8","140","29","",""
"html-keyboard-response","95","221727","0.0-11.0-2.28","59aae1188cef7d00011f8884","bdp_rwlrn","Tue Mar 14 2023 21:23:54 GMT-0400 (Eastern Daylight Time)","479683","Trustworthy,Untrustworthy","","null","","","","decisionFB","","<div class='trialDiv'><img src='Fruit/grapes.png'><br><font class='baseline'><strong>Great Grapes</strong><p>Choose number of points to bet.</font><div class='respPicDiv'><img src='img/responseButtonOffersNo0L2.png' class='respPic'></div></div>","null","10","Great Grapes","Fruit/grapes.png","Won","0.8,0.35","10","0.8","138","29","",""
"html-keyboard-response","96","222740","0.0-11.0-3.28","59aae1188cef7d00011f8884","bdp_rwlrn","Tue Mar 14 2023 21:23:54 GMT-0400 (Eastern Daylight Time)","479683","Trustworthy,Untrustworthy","","null","","","","feedback","","<div class='respPicDiv'><img src='img/responseButtonOffersNo0_wht.png' class='respPic'></div><div class='trialDiv'><img src='Fruit/grapes.png'><br><font class='baseline'><strong>Great Grapes</strong><p><strong><font class='posOutcome'>You WON</font><p>You bet: 2</strong></font> &nbsp; &nbsp; &nbsp; &nbsp; &nbsp; &nbsp;<font class='posOutcome'>you receive: <strong>4</strong></font></div>","null","10","Great Grapes","Fruit/grapes.png","Won","0.8,0.35","10","0.8","142","29","",""
"html-keyboard-response","97","223456","0.0-11.0-1.29","59aae1188cef7d00011f8884","bdp_rwlrn","Tue Mar 14 2023 21:23:54 GMT-0400 (Eastern Daylight Time)","479683","Trustworthy,Untrustworthy","","716","","","","decision","","<div class='trialDiv'><img src='Fruit/bananas.png'><br><font class='baseline'><strong>Banana Bonanza</strong><p>Choose number of points to bet.</font><div class='respPicDiv'><img src='img/responseButtonOffersNo0L.png' class='respPic'></div></div>","3","10","Banana Bonanza","Fruit/bananas.png","Lost","0.35,0.65","9","0.35","147","30","",""
"html-keyboard-response","98","223718","0.0-11.0-2.29","59aae1188cef7d00011f8884","bdp_rwlrn","Tue Mar 14 2023 21:23:54 GMT-0400 (Eastern Daylight Time)","479683","Trustworthy,Untrustworthy","","null","","","","decisionFB","","<div class='trialDiv'><img src='Fruit/bananas.png'><br><font class='baseline'><strong>Banana Bonanza</strong><p>Choose number of points to bet.</font><div class='respPicDiv'><img src='img/responseButtonOffersNo0L3.png' class='respPic'></div></div>","null","10","Banana Bonanza","Fruit/bananas.png","Lost","0.35,0.65","9","0.35","144","30","",""
"html-keyboard-response","99","224731","0.0-11.0-3.29","59aae1188cef7d00011f8884","bdp_rwlrn","Tue Mar 14 2023 21:23:54 GMT-0400 (Eastern Daylight Time)","479683","Trustworthy,Untrustworthy","","null","","","","feedback","","<div class='respPicDiv'><img src='img/responseButtonOffersNo0_wht.png' class='respPic'></div><div class='trialDiv'><img src='Fruit/bananas.png'><br><font class='baseline'><strong>Banana Bonanza</strong><p><strong><font class='negOutcome'>You LOST</font><p>You bet: 3</strong></font> &nbsp; &nbsp; &nbsp; &nbsp; &nbsp; &nbsp;<font class='negOutcome'>You receive: <strong>0</strong></font></div>","null","10","Banana Bonanza","Fruit/bananas.png","Lost","0.35,0.65","9","0.35","144","30","",""
"html-keyboard-response","100","225378","0.0-11.0-1.30","59aae1188cef7d00011f8884","bdp_rwlrn","Tue Mar 14 2023 21:23:54 GMT-0400 (Eastern Daylight Time)","479683","Trustworthy,Untrustworthy","","646","","","","decision","","<div class='trialDiv'><img src='Fruit/grapes.png'><br><font class='baseline'><strong>Great Grapes</strong><p>Choose number of points to bet.</font><div class='respPicDiv'><img src='img/responseButtonOffersNo0L.png' class='respPic'></div></div>","5","11","Great Grapes","Fruit/grapes.png","Lost","0.8,0.35","10","0.8","149","31","",""
"html-keyboard-response","101","225644","0.0-11.0-2.30","59aae1188cef7d00011f8884","bdp_rwlrn","Tue Mar 14 2023 21:23:54 GMT-0400 (Eastern Daylight Time)","479683","Trustworthy,Untrustworthy","","null","","","","decisionFB","","<div class='trialDiv'><img src='Fruit/grapes.png'><br><font class='baseline'><strong>Great Grapes</strong><p>Choose number of points to bet.</font><div class='respPicDiv'><img src='img/responseButtonOffersNo0L5.png' class='respPic'></div></div>","null","11","Great Grapes","Fruit/grapes.png","Lost","0.8,0.35","10","0.8","144","31","",""
"html-keyboard-response","102","226656","0.0-11.0-3.30","59aae1188cef7d00011f8884","bdp_rwlrn","Tue Mar 14 2023 21:23:54 GMT-0400 (Eastern Daylight Time)","479683","Trustworthy,Untrustworthy","","null","","","","feedback","","<div class='respPicDiv'><img src='img/responseButtonOffersNo0_wht.png' class='respPic'></div><div class='trialDiv'><img src='Fruit/grapes.png'><br><font class='baseline'><strong>Great Grapes</strong><p><strong><font class='negOutcome'>You LOST</font><p>You bet: 5</strong></font> &nbsp; &nbsp; &nbsp; &nbsp; &nbsp; &nbsp;<font class='negOutcome'>You receive: <strong>0</strong></font></div>","null","11","Great Grapes","Fruit/grapes.png","Lost","0.8,0.35","10","0.8","144","31","",""
"html-keyboard-response","103","227308","0.0-11.0-1.31","59aae1188cef7d00011f8884","bdp_rwlrn","Tue Mar 14 2023 21:23:54 GMT-0400 (Eastern Daylight Time)","479683","Trustworthy,Untrustworthy","","652","","","","decision","","<div class='trialDiv'><img src='Fruit/pineapple.png'><br><font class='baseline'><strong>Primo Pineapple</strong><p>Choose number of points to bet.</font><div class='respPicDiv'><img src='img/responseButtonOffersNo0L.png' class='respPic'></div></div>","1","11","Primo Pineapple","Fruit/pineapple.png","Lost","0.2,0.65","14","0.2","149","32","",""
"html-keyboard-response","104","227560","0.0-11.0-2.31","59aae1188cef7d00011f8884","bdp_rwlrn","Tue Mar 14 2023 21:23:54 GMT-0400 (Eastern Daylight Time)","479683","Trustworthy,Untrustworthy","","null","","","","decisionFB","","<div class='trialDiv'><img src='Fruit/pineapple.png'><br><font class='baseline'><strong>Primo Pineapple</strong><p>Choose number of points to bet.</font><div class='respPicDiv'><img src='img/responseButtonOffersNo0L1.png' class='respPic'></div></div>","null","11","Primo Pineapple","Fruit/pineapple.png","Lost","0.2,0.65","14","0.2","148","32","",""
"html-keyboard-response","105","228570","0.0-11.0-3.31","59aae1188cef7d00011f8884","bdp_rwlrn","Tue Mar 14 2023 21:23:54 GMT-0400 (Eastern Daylight Time)","479683","Trustworthy,Untrustworthy","","null","","","","feedback","","<div class='respPicDiv'><img src='img/responseButtonOffersNo0_wht.png' class='respPic'></div><div class='trialDiv'><img src='Fruit/pineapple.png'><br><font class='baseline'><strong>Primo Pineapple</strong><p><strong><font class='negOutcome'>You LOST</font><p>You bet: 1</strong></font> &nbsp; &nbsp; &nbsp; &nbsp; &nbsp; &nbsp;<font class='negOutcome'>You receive: <strong>0</strong></font></div>","null","11","Primo Pineapple","Fruit/pineapple.png","Lost","0.2,0.65","14","0.2","148","32","",""
"html-keyboard-response","106","229473","0.0-11.0-1.32","59aae1188cef7d00011f8884","bdp_rwlrn","Tue Mar 14 2023 21:23:54 GMT-0400 (Eastern Daylight Time)","479683","Trustworthy,Untrustworthy","","903","","","","decision","","<div class='trialDiv'><img src='Fruit/bananas.png'><br><font class='baseline'><strong>Banana Bonanza</strong><p>Choose number of points to bet.</font><div class='respPicDiv'><img src='img/responseButtonOffersNo0L.png' class='respPic'></div></div>","3","11","Banana Bonanza","Fruit/bananas.png","Lost","0.35,0.65","9","0.35","153","33","",""
"html-keyboard-response","107","229725","0.0-11.0-2.32","59aae1188cef7d00011f8884","bdp_rwlrn","Tue Mar 14 2023 21:23:54 GMT-0400 (Eastern Daylight Time)","479683","Trustworthy,Untrustworthy","","null","","","","decisionFB","","<div class='trialDiv'><img src='Fruit/bananas.png'><br><font class='baseline'><strong>Banana Bonanza</strong><p>Choose number of points to bet.</font><div class='respPicDiv'><img src='img/responseButtonOffersNo0L3.png' class='respPic'></div></div>","null","11","Banana Bonanza","Fruit/bananas.png","Lost","0.35,0.65","9","0.35","150","33","",""
"html-keyboard-response","108","230734","0.0-11.0-3.32","59aae1188cef7d00011f8884","bdp_rwlrn","Tue Mar 14 2023 21:23:54 GMT-0400 (Eastern Daylight Time)","479683","Trustworthy,Untrustworthy","","null","","","","feedback","","<div class='respPicDiv'><img src='img/responseButtonOffersNo0_wht.png' class='respPic'></div><div class='trialDiv'><img src='Fruit/bananas.png'><br><font class='baseline'><strong>Banana Bonanza</strong><p><strong><font class='negOutcome'>You LOST</font><p>You bet: 3</strong></font> &nbsp; &nbsp; &nbsp; &nbsp; &nbsp; &nbsp;<font class='negOutcome'>You receive: <strong>0</strong></font></div>","null","11","Banana Bonanza","Fruit/bananas.png","Lost","0.35,0.65","9","0.35","150","33","",""
"html-keyboard-response","109","230885","0.0-11.0-1.33","59aae1188cef7d00011f8884","bdp_rwlrn","Tue Mar 14 2023 21:23:54 GMT-0400 (Eastern Daylight Time)","479683","Trustworthy,Untrustworthy","","150","","","","decision","","<div class='trialDiv'><img src='Fruit/pineapple.png'><br><font class='baseline'><strong>Primo Pineapple</strong><p>Choose number of points to bet.</font><div class='respPicDiv'><img src='img/responseButtonOffersNo0L.png' class='respPic'></div></div>","5","12","Primo Pineapple","Fruit/pineapple.png","Won","0.2,0.65","14","0.2","155","34","",""
"html-keyboard-response","110","231150","0.0-11.0-2.33","59aae1188cef7d00011f8884","bdp_rwlrn","Tue Mar 14 2023 21:23:54 GMT-0400 (Eastern Daylight Time)","479683","Trustworthy,Untrustworthy","","null","","","","decisionFB","","<div class='trialDiv'><img src='Fruit/pineapple.png'><br><font class='baseline'><strong>Primo Pineapple</strong><p>Choose number of points to bet.</font><div class='respPicDiv'><img src='img/responseButtonOffersNo0L5.png' class='respPic'></div></div>","null","12","Primo Pineapple","Fruit/pineapple.png","Won","0.2,0.65","14","0.2","150","34","",""
"html-keyboard-response","111","232161","0.0-11.0-3.33","59aae1188cef7d00011f8884","bdp_rwlrn","Tue Mar 14 2023 21:23:54 GMT-0400 (Eastern Daylight Time)","479683","Trustworthy,Untrustworthy","","null","","","","feedback","","<div class='respPicDiv'><img src='img/responseButtonOffersNo0_wht.png' class='respPic'></div><div class='trialDiv'><img src='Fruit/pineapple.png'><br><font class='baseline'><strong>Primo Pineapple</strong><p><strong><font class='posOutcome'>You WON</font><p>You bet: 5</strong></font> &nbsp; &nbsp; &nbsp; &nbsp; &nbsp; &nbsp;<font class='posOutcome'>you receive: <strong>10</strong></font></div>","null","12","Primo Pineapple","Fruit/pineapple.png","Won","0.2,0.65","14","0.2","160","34","",""
"html-keyboard-response","112","232641","0.0-11.0-1.34","59aae1188cef7d00011f8884","bdp_rwlrn","Tue Mar 14 2023 21:23:54 GMT-0400 (Eastern Daylight Time)","479683","Trustworthy,Untrustworthy","","480","","","","decision","","<div class='trialDiv'><img src='Fruit/grapes.png'><br><font class='baseline'><strong>Great Grapes</strong><p>Choose number of points to bet.</font><div class='respPicDiv'><img src='img/responseButtonOffersNo0L.png' class='respPic'></div></div>","5","12","Great Grapes","Fruit/grapes.png","Lost","0.8,0.35","10","0.8","165","35","",""
"html-keyboard-response","113","232892","0.0-11.0-2.34","59aae1188cef7d00011f8884","bdp_rwlrn","Tue Mar 14 2023 21:23:54 GMT-0400 (Eastern Daylight Time)","479683","Trustworthy,Untrustworthy","","null","","","","decisionFB","","<div class='trialDiv'><img src='Fruit/grapes.png'><br><font class='baseline'><strong>Great Grapes</strong><p>Choose number of points to bet.</font><div class='respPicDiv'><img src='img/responseButtonOffersNo0L5.png' class='respPic'></div></div>","null","12","Great Grapes","Fruit/grapes.png","Lost","0.8,0.35","10","0.8","160","35","",""
"html-keyboard-response","114","233900","0.0-11.0-3.34","59aae1188cef7d00011f8884","bdp_rwlrn","Tue Mar 14 2023 21:23:54 GMT-0400 (Eastern Daylight Time)","479683","Trustworthy,Untrustworthy","","null","","","","feedback","","<div class='respPicDiv'><img src='img/responseButtonOffersNo0_wht.png' class='respPic'></div><div class='trialDiv'><img src='Fruit/grapes.png'><br><font class='baseline'><strong>Great Grapes</strong><p><strong><font class='negOutcome'>You LOST</font><p>You bet: 5</strong></font> &nbsp; &nbsp; &nbsp; &nbsp; &nbsp; &nbsp;<font class='negOutcome'>You receive: <strong>0</strong></font></div>","null","12","Great Grapes","Fruit/grapes.png","Lost","0.8,0.35","10","0.8","160","35","",""
"html-keyboard-response","115","234263","0.0-11.0-1.35","59aae1188cef7d00011f8884","bdp_rwlrn","Tue Mar 14 2023 21:23:54 GMT-0400 (Eastern Daylight Time)","479683","Trustworthy,Untrustworthy","","362","","","","decision","","<div class='trialDiv'><img src='Fruit/bananas.png'><br><font class='baseline'><strong>Banana Bonanza</strong><p>Choose number of points to bet.</font><div class='respPicDiv'><img src='img/responseButtonOffersNo0L.png' class='respPic'></div></div>","1","12","Banana Bonanza","Fruit/bananas.png","Won","0.35,0.65","9","0.35","165","36","",""
"html-keyboard-response","116","234522","0.0-11.0-2.35","59aae1188cef7d00011f8884","bdp_rwlrn","Tue Mar 14 2023 21:23:54 GMT-0400 (Eastern Daylight Time)","479683","Trustworthy,Untrustworthy","","null","","","","decisionFB","","<div class='trialDiv'><img src='Fruit/bananas.png'><br><font class='baseline'><strong>Banana Bonanza</strong><p>Choose number of points to bet.</font><div class='respPicDiv'><img src='img/responseButtonOffersNo0L1.png' class='respPic'></div></div>","null","12","Banana Bonanza","Fruit/bananas.png","Won","0.35,0.65","9","0.35","164","36","",""
"html-keyboard-response","117","235530","0.0-11.0-3.35","59aae1188cef7d00011f8884","bdp_rwlrn","Tue Mar 14 2023 21:23:54 GMT-0400 (Eastern Daylight Time)","479683","Trustworthy,Untrustworthy","","null","","","","feedback","","<div class='respPicDiv'><img src='img/responseButtonOffersNo0_wht.png' class='respPic'></div><div class='trialDiv'><img src='Fruit/bananas.png'><br><font class='baseline'><strong>Banana Bonanza</strong><p><strong><font class='posOutcome'>You WON</font><p>You bet: 1</strong></font> &nbsp; &nbsp; &nbsp; &nbsp; &nbsp; &nbsp;<font class='posOutcome'>you receive: <strong>2</strong></font></div>","null","12","Banana Bonanza","Fruit/bananas.png","Won","0.35,0.65","9","0.35","166","36","",""
"html-keyboard-response","118","236346","0.0-11.0-1.36","59aae1188cef7d00011f8884","bdp_rwlrn","Tue Mar 14 2023 21:23:54 GMT-0400 (Eastern Daylight Time)","479683","Trustworthy,Untrustworthy","","816","","","","decision","","<div class='trialDiv'><img src='Fruit/grapes.png'><br><font class='baseline'><strong>Great Grapes</strong><p>Choose number of points to bet.</font><div class='respPicDiv'><img src='img/responseButtonOffersNo0L.png' class='respPic'></div></div>","3","13","Great Grapes","Fruit/grapes.png","Lost","0.8,0.35","10","0.8","171","37","",""
"html-keyboard-response","119","236605","0.0-11.0-2.36","59aae1188cef7d00011f8884","bdp_rwlrn","Tue Mar 14 2023 21:23:54 GMT-0400 (Eastern Daylight Time)","479683","Trustworthy,Untrustworthy","","null","","","","decisionFB","","<div class='trialDiv'><img src='Fruit/grapes.png'><br><font class='baseline'><strong>Great Grapes</strong><p>Choose number of points to bet.</font><div class='respPicDiv'><img src='img/responseButtonOffersNo0L3.png' class='respPic'></div></div>","null","13","Great Grapes","Fruit/grapes.png","Lost","0.8,0.35","10","0.8","168","37","",""
"html-keyboard-response","120","237612","0.0-11.0-3.36","59aae1188cef7d00011f8884","bdp_rwlrn","Tue Mar 14 2023 21:23:54 GMT-0400 (Eastern Daylight Time)","479683","Trustworthy,Untrustworthy","","null","","","","feedback","","<div class='respPicDiv'><img src='img/responseButtonOffersNo0_wht.png' class='respPic'></div><div class='trialDiv'><img src='Fruit/grapes.png'><br><font class='baseline'><strong>Great Grapes</strong><p><strong><font class='negOutcome'>You LOST</font><p>You bet: 3</strong></font> &nbsp; &nbsp; &nbsp; &nbsp; &nbsp; &nbsp;<font class='negOutcome'>You receive: <strong>0</strong></font></div>","null","13","Great Grapes","Fruit/grapes.png","Lost","0.8,0.35","10","0.8","168","37","",""
"html-keyboard-response","121","238018","0.0-11.0-1.37","59aae1188cef7d00011f8884","bdp_rwlrn","Tue Mar 14 2023 21:23:54 GMT-0400 (Eastern Daylight Time)","479683","Trustworthy,Untrustworthy","","405","","","","decision","","<div class='trialDiv'><img src='Fruit/pineapple.png'><br><font class='baseline'><strong>Primo Pineapple</strong><p>Choose number of points to bet.</font><div class='respPicDiv'><img src='img/responseButtonOffersNo0L.png' class='respPic'></div></div>","5","13","Primo Pineapple","Fruit/pineapple.png","Lost","0.2,0.65","14","0.2","173","38","",""
"html-keyboard-response","122","238280","0.0-11.0-2.37","59aae1188cef7d00011f8884","bdp_rwlrn","Tue Mar 14 2023 21:23:54 GMT-0400 (Eastern Daylight Time)","479683","Trustworthy,Untrustworthy","","null","","","","decisionFB","","<div class='trialDiv'><img src='Fruit/pineapple.png'><br><font class='baseline'><strong>Primo Pineapple</strong><p>Choose number of points to bet.</font><div class='respPicDiv'><img src='img/responseButtonOffersNo0L5.png' class='respPic'></div></div>","null","13","Primo Pineapple","Fruit/pineapple.png","Lost","0.2,0.65","14","0.2","168","38","",""
"html-keyboard-response","123","239291","0.0-11.0-3.37","59aae1188cef7d00011f8884","bdp_rwlrn","Tue Mar 14 2023 21:23:54 GMT-0400 (Eastern Daylight Time)","479683","Trustworthy,Untrustworthy","","null","","","","feedback","","<div class='respPicDiv'><img src='img/responseButtonOffersNo0_wht.png' class='respPic'></div><div class='trialDiv'><img src='Fruit/pineapple.png'><br><font class='baseline'><strong>Primo Pineapple</strong><p><strong><font class='negOutcome'>You LOST</font><p>You bet: 5</strong></font> &nbsp; &nbsp; &nbsp; &nbsp; &nbsp; &nbsp;<font class='negOutcome'>You receive: <strong>0</strong></font></div>","null","13","Primo Pineapple","Fruit/pineapple.png","Lost","0.2,0.65","14","0.2","168","38","",""
"html-keyboard-response","124","240209","0.0-11.0-1.38","59aae1188cef7d00011f8884","bdp_rwlrn","Tue Mar 14 2023 21:23:54 GMT-0400 (Eastern Daylight Time)","479683","Trustworthy,Untrustworthy","","918","","","","decision","","<div class='trialDiv'><img src='Fruit/bananas.png'><br><font class='baseline'><strong>Banana Bonanza</strong><p>Choose number of points to bet.</font><div class='respPicDiv'><img src='img/responseButtonOffersNo0L.png' class='respPic'></div></div>","4","13","Banana Bonanza","Fruit/bananas.png","Lost","0.35,0.65","9","0.35","173","39","",""
"html-keyboard-response","125","240469","0.0-11.0-2.38","59aae1188cef7d00011f8884","bdp_rwlrn","Tue Mar 14 2023 21:23:54 GMT-0400 (Eastern Daylight Time)","479683","Trustworthy,Untrustworthy","","null","","","","decisionFB","","<div class='trialDiv'><img src='Fruit/bananas.png'><br><font class='baseline'><strong>Banana Bonanza</strong><p>Choose number of points to bet.</font><div class='respPicDiv'><img src='img/responseButtonOffersNo0L4.png' class='respPic'></div></div>","null","13","Banana Bonanza","Fruit/bananas.png","Lost","0.35,0.65","9","0.35","169","39","",""
"html-keyboard-response","126","241479","0.0-11.0-3.38","59aae1188cef7d00011f8884","bdp_rwlrn","Tue Mar 14 2023 21:23:54 GMT-0400 (Eastern Daylight Time)","479683","Trustworthy,Untrustworthy","","null","","","","feedback","","<div class='respPicDiv'><img src='img/responseButtonOffersNo0_wht.png' class='respPic'></div><div class='trialDiv'><img src='Fruit/bananas.png'><br><font class='baseline'><strong>Banana Bonanza</strong><p><strong><font class='negOutcome'>You LOST</font><p>You bet: 4</strong></font> &nbsp; &nbsp; &nbsp; &nbsp; &nbsp; &nbsp;<font class='negOutcome'>You receive: <strong>0</strong></font></div>","null","13","Banana Bonanza","Fruit/bananas.png","Lost","0.35,0.65","9","0.35","169","39","",""
"html-keyboard-response","127","242331","0.0-11.0-1.39","59aae1188cef7d00011f8884","bdp_rwlrn","Tue Mar 14 2023 21:23:54 GMT-0400 (Eastern Daylight Time)","479683","Trustworthy,Untrustworthy","","851","","","","decision","","<div class='trialDiv'><img src='Fruit/pineapple.png'><br><font class='baseline'><strong>Primo Pineapple</strong><p>Choose number of points to bet.</font><div class='respPicDiv'><img src='img/responseButtonOffersNo0L.png' class='respPic'></div></div>","1","14","Primo Pineapple","Fruit/pineapple.png","Won","0.2,0.65","14","0.2","174","40","",""
"html-keyboard-response","128","242582","0.0-11.0-2.39","59aae1188cef7d00011f8884","bdp_rwlrn","Tue Mar 14 2023 21:23:54 GMT-0400 (Eastern Daylight Time)","479683","Trustworthy,Untrustworthy","","null","","","","decisionFB","","<div class='trialDiv'><img src='Fruit/pineapple.png'><br><font class='baseline'><strong>Primo Pineapple</strong><p>Choose number of points to bet.</font><div class='respPicDiv'><img src='img/responseButtonOffersNo0L1.png' class='respPic'></div></div>","null","14","Primo Pineapple","Fruit/pineapple.png","Won","0.2,0.65","14","0.2","173","40","",""
"html-keyboard-response","129","243594","0.0-11.0-3.39","59aae1188cef7d00011f8884","bdp_rwlrn","Tue Mar 14 2023 21:23:54 GMT-0400 (Eastern Daylight Time)","479683","Trustworthy,Untrustworthy","","null","","","","feedback","","<div class='respPicDiv'><img src='img/responseButtonOffersNo0_wht.png' class='respPic'></div><div class='trialDiv'><img src='Fruit/pineapple.png'><br><font class='baseline'><strong>Primo Pineapple</strong><p><strong><font class='posOutcome'>You WON</font><p>You bet: 1</strong></font> &nbsp; &nbsp; &nbsp; &nbsp; &nbsp; &nbsp;<font class='posOutcome'>you receive: <strong>2</strong></font></div>","null","14","Primo Pineapple","Fruit/pineapple.png","Won","0.2,0.65","14","0.2","175","40","",""
"html-keyboard-response","130","244258","0.0-11.0-1.40","59aae1188cef7d00011f8884","bdp_rwlrn","Tue Mar 14 2023 21:23:54 GMT-0400 (Eastern Daylight Time)","479683","Trustworthy,Untrustworthy","","664","","","","decision","","<div class='trialDiv'><img src='Fruit/bananas.png'><br><font class='baseline'><strong>Banana Bonanza</strong><p>Choose number of points to bet.</font><div class='respPicDiv'><img src='img/responseButtonOffersNo0L.png' class='respPic'></div></div>","3","14","Banana Bonanza","Fruit/bananas.png","Won","0.35,0.65","9","0.35","180","41","",""
"html-keyboard-response","131","244512","0.0-11.0-2.40","59aae1188cef7d00011f8884","bdp_rwlrn","Tue Mar 14 2023 21:23:54 GMT-0400 (Eastern Daylight Time)","479683","Trustworthy,Untrustworthy","","null","","","","decisionFB","","<div class='trialDiv'><img src='Fruit/bananas.png'><br><font class='baseline'><strong>Banana Bonanza</strong><p>Choose number of points to bet.</font><div class='respPicDiv'><img src='img/responseButtonOffersNo0L3.png' class='respPic'></div></div>","null","14","Banana Bonanza","Fruit/bananas.png","Won","0.35,0.65","9","0.35","177","41","",""
"html-keyboard-response","132","245523","0.0-11.0-3.40","59aae1188cef7d00011f8884","bdp_rwlrn","Tue Mar 14 2023 21:23:54 GMT-0400 (Eastern Daylight Time)","479683","Trustworthy,Untrustworthy","","null","","","","feedback","","<div class='respPicDiv'><img src='img/responseButtonOffersNo0_wht.png' class='respPic'></div><div class='trialDiv'><img src='Fruit/bananas.png'><br><font class='baseline'><strong>Banana Bonanza</strong><p><strong><font class='posOutcome'>You WON</font><p>You bet: 3</strong></font> &nbsp; &nbsp; &nbsp; &nbsp; &nbsp; &nbsp;<font class='posOutcome'>you receive: <strong>6</strong></font></div>","null","14","Banana Bonanza","Fruit/bananas.png","Won","0.35,0.65","9","0.35","183","41","",""
"html-keyboard-response","133","246033","0.0-11.0-1.41","59aae1188cef7d00011f8884","bdp_rwlrn","Tue Mar 14 2023 21:23:54 GMT-0400 (Eastern Daylight Time)","479683","Trustworthy,Untrustworthy","","510","","","","decision","","<div class='trialDiv'><img src='Fruit/grapes.png'><br><font class='baseline'><strong>Great Grapes</strong><p>Choose number of points to bet.</font><div class='respPicDiv'><img src='img/responseButtonOffersNo0L.png' class='respPic'></div></div>","2","14","Great Grapes","Fruit/grapes.png","Lost","0.8,0.35","10","0.8","188","42","",""
"html-keyboard-response","134","246288","0.0-11.0-2.41","59aae1188cef7d00011f8884","bdp_rwlrn","Tue Mar 14 2023 21:23:54 GMT-0400 (Eastern Daylight Time)","479683","Trustworthy,Untrustworthy","","null","","","","decisionFB","","<div class='trialDiv'><img src='Fruit/grapes.png'><br><font class='baseline'><strong>Great Grapes</strong><p>Choose number of points to bet.</font><div class='respPicDiv'><img src='img/responseButtonOffersNo0L2.png' class='respPic'></div></div>","null","14","Great Grapes","Fruit/grapes.png","Lost","0.8,0.35","10","0.8","186","42","",""
"html-keyboard-response","135","247299","0.0-11.0-3.41","59aae1188cef7d00011f8884","bdp_rwlrn","Tue Mar 14 2023 21:23:54 GMT-0400 (Eastern Daylight Time)","479683","Trustworthy,Untrustworthy","","null","","","","feedback","","<div class='respPicDiv'><img src='img/responseButtonOffersNo0_wht.png' class='respPic'></div><div class='trialDiv'><img src='Fruit/grapes.png'><br><font class='baseline'><strong>Great Grapes</strong><p><strong><font class='negOutcome'>You LOST</font><p>You bet: 2</strong></font> &nbsp; &nbsp; &nbsp; &nbsp; &nbsp; &nbsp;<font class='negOutcome'>You receive: <strong>0</strong></font></div>","null","14","Great Grapes","Fruit/grapes.png","Lost","0.8,0.35","10","0.8","186","42","",""
"html-keyboard-response","136","247718","0.0-11.0-1.42","59aae1188cef7d00011f8884","bdp_rwlrn","Tue Mar 14 2023 21:23:54 GMT-0400 (Eastern Daylight Time)","479683","Trustworthy,Untrustworthy","","419","","","","decision","","<div class='trialDiv'><img src='Fruit/pineapple.png'><br><font class='baseline'><strong>Primo Pineapple</strong><p>Choose number of points to bet.</font><div class='respPicDiv'><img src='img/responseButtonOffersNo0L.png' class='respPic'></div></div>","5","15","Primo Pineapple","Fruit/pineapple.png","Won","0.2,0.65","14","0.2","191","43","",""
"html-keyboard-response","137","247983","0.0-11.0-2.42","59aae1188cef7d00011f8884","bdp_rwlrn","Tue Mar 14 2023 21:23:54 GMT-0400 (Eastern Daylight Time)","479683","Trustworthy,Untrustworthy","","null","","","","decisionFB","","<div class='trialDiv'><img src='Fruit/pineapple.png'><br><font class='baseline'><strong>Primo Pineapple</strong><p>Choose number of points to bet.</font><div class='respPicDiv'><img src='img/responseButtonOffersNo0L5.png' class='respPic'></div></div>","null","15","Primo Pineapple","Fruit/pineapple.png","Won","0.2,0.65","14","0.2","186","43","",""
"html-keyboard-response","138","248996","0.0-11.0-3.42","59aae1188cef7d00011f8884","bdp_rwlrn","Tue Mar 14 2023 21:23:54 GMT-0400 (Eastern Daylight Time)","479683","Trustworthy,Untrustworthy","","null","","","","feedback","","<div class='respPicDiv'><img src='img/responseButtonOffersNo0_wht.png' class='respPic'></div><div class='trialDiv'><img src='Fruit/pineapple.png'><br><font class='baseline'><strong>Primo Pineapple</strong><p><strong><font class='posOutcome'>You WON</font><p>You bet: 5</strong></font> &nbsp; &nbsp; &nbsp; &nbsp; &nbsp; &nbsp;<font class='posOutcome'>you receive: <strong>10</strong></font></div>","null","15","Primo Pineapple","Fruit/pineapple.png","Won","0.2,0.65","14","0.2","196","43","",""
"html-keyboard-response","139","249414","0.0-11.0-1.43","59aae1188cef7d00011f8884","bdp_rwlrn","Tue Mar 14 2023 21:23:54 GMT-0400 (Eastern Daylight Time)","479683","Trustworthy,Untrustworthy","","417","","","","decision","","<div class='trialDiv'><img src='Fruit/bananas.png'><br><font class='baseline'><strong>Banana Bonanza</strong><p>Choose number of points to bet.</font><div class='respPicDiv'><img src='img/responseButtonOffersNo0L.png' class='respPic'></div></div>","5","15","Banana Bonanza","Fruit/bananas.png","Lost","0.35,0.65","9","0.35","201","44","",""
"html-keyboard-response","140","249680","0.0-11.0-2.43","59aae1188cef7d00011f8884","bdp_rwlrn","Tue Mar 14 2023 21:23:54 GMT-0400 (Eastern Daylight Time)","479683","Trustworthy,Untrustworthy","","null","","","","decisionFB","","<div class='trialDiv'><img src='Fruit/bananas.png'><br><font class='baseline'><strong>Banana Bonanza</strong><p>Choose number of points to bet.</font><div class='respPicDiv'><img src='img/responseButtonOffersNo0L5.png' class='respPic'></div></div>","null","15","Banana Bonanza","Fruit/bananas.png","Lost","0.35,0.65","9","0.35","196","44","",""
"html-keyboard-response","141","250688","0.0-11.0-3.43","59aae1188cef7d00011f8884","bdp_rwlrn","Tue Mar 14 2023 21:23:54 GMT-0400 (Eastern Daylight Time)","479683","Trustworthy,Untrustworthy","","null","","","","feedback","","<div class='respPicDiv'><img src='img/responseButtonOffersNo0_wht.png' class='respPic'></div><div class='trialDiv'><img src='Fruit/bananas.png'><br><font class='baseline'><strong>Banana Bonanza</strong><p><strong><font class='negOutcome'>You LOST</font><p>You bet: 5</strong></font> &nbsp; &nbsp; &nbsp; &nbsp; &nbsp; &nbsp;<font class='negOutcome'>You receive: <strong>0</strong></font></div>","null","15","Banana Bonanza","Fruit/bananas.png","Lost","0.35,0.65","9","0.35","196","44","",""
"html-keyboard-response","142","251078","0.0-11.0-1.44","59aae1188cef7d00011f8884","bdp_rwlrn","Tue Mar 14 2023 21:23:54 GMT-0400 (Eastern Daylight Time)","479683","Trustworthy,Untrustworthy","","390","","","","decision","","<div class='trialDiv'><img src='Fruit/grapes.png'><br><font class='baseline'><strong>Great Grapes</strong><p>Choose number of points to bet.</font><div class='respPicDiv'><img src='img/responseButtonOffersNo0L.png' class='respPic'></div></div>","1","15","Great Grapes","Fruit/grapes.png","Lost","0.8,0.35","10","0.8","201","45","",""
"html-keyboard-response","143","251340","0.0-11.0-2.44","59aae1188cef7d00011f8884","bdp_rwlrn","Tue Mar 14 2023 21:23:54 GMT-0400 (Eastern Daylight Time)","479683","Trustworthy,Untrustworthy","","null","","","","decisionFB","","<div class='trialDiv'><img src='Fruit/grapes.png'><br><font class='baseline'><strong>Great Grapes</strong><p>Choose number of points to bet.</font><div class='respPicDiv'><img src='img/responseButtonOffersNo0L1.png' class='respPic'></div></div>","null","15","Great Grapes","Fruit/grapes.png","Lost","0.8,0.35","10","0.8","200","45","",""
"html-keyboard-response","144","252350","0.0-11.0-3.44","59aae1188cef7d00011f8884","bdp_rwlrn","Tue Mar 14 2023 21:23:54 GMT-0400 (Eastern Daylight Time)","479683","Trustworthy,Untrustworthy","","null","","","","feedback","","<div class='respPicDiv'><img src='img/responseButtonOffersNo0_wht.png' class='respPic'></div><div class='trialDiv'><img src='Fruit/grapes.png'><br><font class='baseline'><strong>Great Grapes</strong><p><strong><font class='negOutcome'>You LOST</font><p>You bet: 1</strong></font> &nbsp; &nbsp; &nbsp; &nbsp; &nbsp; &nbsp;<font class='negOutcome'>You receive: <strong>0</strong></font></div>","null","15","Great Grapes","Fruit/grapes.png","Lost","0.8,0.35","10","0.8","200","45","",""
"html-keyboard-response","145","253126","0.0-11.0-1.45","59aae1188cef7d00011f8884","bdp_rwlrn","Tue Mar 14 2023 21:23:54 GMT-0400 (Eastern Daylight Time)","479683","Trustworthy,Untrustworthy","","775","","","","decision","","<div class='trialDiv'><img src='Fruit/bananas.png'><br><font class='baseline'><strong>Banana Bonanza</strong><p>Choose number of points to bet.</font><div class='respPicDiv'><img src='img/responseButtonOffersNo0L.png' class='respPic'></div></div>","2","16","Banana Bonanza","Fruit/bananas.png","Won","0.35,0.65","9","0.35","205","46","",""
"html-keyboard-response","146","253382","0.0-11.0-2.45","59aae1188cef7d00011f8884","bdp_rwlrn","Tue Mar 14 2023 21:23:54 GMT-0400 (Eastern Daylight Time)","479683","Trustworthy,Untrustworthy","","null","","","","decisionFB","","<div class='trialDiv'><img src='Fruit/bananas.png'><br><font class='baseline'><strong>Banana Bonanza</strong><p>Choose number of points to bet.</font><div class='respPicDiv'><img src='img/responseButtonOffersNo0L2.png' class='respPic'></div></div>","null","16","Banana Bonanza","Fruit/bananas.png","Won","0.35,0.65","9","0.35","203","46","",""
"html-keyboard-response","147","254393","0.0-11.0-3.45","59aae1188cef7d00011f8884","bdp_rwlrn","Tue Mar 14 2023 21:23:54 GMT-0400 (Eastern Daylight Time)","479683","Trustworthy,Untrustworthy","","null","","","","feedback","","<div class='respPicDiv'><img src='img/responseButtonOffersNo0_wht.png' class='respPic'></div><div class='trialDiv'><img src='Fruit/bananas.png'><br><font class='baseline'><strong>Banana Bonanza</strong><p><strong><font class='posOutcome'>You WON</font><p>You bet: 2</strong></font> &nbsp; &nbsp; &nbsp; &nbsp; &nbsp; &nbsp;<font class='posOutcome'>you receive: <strong>4</strong></font></div>","null","16","Banana Bonanza","Fruit/bananas.png","Won","0.35,0.65","9","0.35","207","46","",""
"html-keyboard-response","148","254788","0.0-11.0-1.46","59aae1188cef7d00011f8884","bdp_rwlrn","Tue Mar 14 2023 21:23:54 GMT-0400 (Eastern Daylight Time)","479683","Trustworthy,Untrustworthy","","394","","","","decision","","<div class='trialDiv'><img src='Fruit/pineapple.png'><br><font class='baseline'><strong>Primo Pineapple</strong><p>Choose number of points to bet.</font><div class='respPicDiv'><img src='img/responseButtonOffersNo0L.png' class='respPic'></div></div>","5","16","Primo Pineapple","Fruit/pineapple.png","Won","0.2,0.65","14","0.2","212","47","",""
"html-keyboard-response","149","255046","0.0-11.0-2.46","59aae1188cef7d00011f8884","bdp_rwlrn","Tue Mar 14 2023 21:23:54 GMT-0400 (Eastern Daylight Time)","479683","Trustworthy,Untrustworthy","","null","","","","decisionFB","","<div class='trialDiv'><img src='Fruit/pineapple.png'><br><font class='baseline'><strong>Primo Pineapple</strong><p>Choose number of points to bet.</font><div class='respPicDiv'><img src='img/responseButtonOffersNo0L5.png' class='respPic'></div></div>","null","16","Primo Pineapple","Fruit/pineapple.png","Won","0.2,0.65","14","0.2","207","47","",""
"html-keyboard-response","150","256058","0.0-11.0-3.46","59aae1188cef7d00011f8884","bdp_rwlrn","Tue Mar 14 2023 21:23:54 GMT-0400 (Eastern Daylight Time)","479683","Trustworthy,Untrustworthy","","null","","","","feedback","","<div class='respPicDiv'><img src='img/responseButtonOffersNo0_wht.png' class='respPic'></div><div class='trialDiv'><img src='Fruit/pineapple.png'><br><font class='baseline'><strong>Primo Pineapple</strong><p><strong><font class='posOutcome'>You WON</font><p>You bet: 5</strong></font> &nbsp; &nbsp; &nbsp; &nbsp; &nbsp; &nbsp;<font class='posOutcome'>you receive: <strong>10</strong></font></div>","null","16","Primo Pineapple","Fruit/pineapple.png","Won","0.2,0.65","14","0.2","217","47","",""
"html-keyboard-response","151","256703","0.0-11.0-1.47","59aae1188cef7d00011f8884","bdp_rwlrn","Tue Mar 14 2023 21:23:54 GMT-0400 (Eastern Daylight Time)","479683","Trustworthy,Untrustworthy","","645","","","","decision","","<div class='trialDiv'><img src='Fruit/grapes.png'><br><font class='baseline'><strong>Great Grapes</strong><p>Choose number of points to bet.</font><div class='respPicDiv'><img src='img/responseButtonOffersNo0L.png' class='respPic'></div></div>","1","16","Great Grapes","Fruit/grapes.png","Won","0.8,0.35","10","0.8","222","48","",""
"html-keyboard-response","152","256959","0.0-11.0-2.47","59aae1188cef7d00011f8884","bdp_rwlrn","Tue Mar 14 2023 21:23:54 GMT-0400 (Eastern Daylight Time)","479683","Trustworthy,Untrustworthy","","null","","","","decisionFB","","<div class='trialDiv'><img src='Fruit/grapes.png'><br><font class='baseline'><strong>Great Grapes</strong><p>Choose number of points to bet.</font><div class='respPicDiv'><img src='img/responseButtonOffersNo0L1.png' class='respPic'></div></div>","null","16","Great Grapes","Fruit/grapes.png","Won","0.8,0.35","10","0.8","221","48","",""
"html-keyboard-response","153","257968","0.0-11.0-3.47","59aae1188cef7d00011f8884","bdp_rwlrn","Tue Mar 14 2023 21:23:54 GMT-0400 (Eastern Daylight Time)","479683","Trustworthy,Untrustworthy","","null","","","","feedback","","<div class='respPicDiv'><img src='img/responseButtonOffersNo0_wht.png' class='respPic'></div><div class='trialDiv'><img src='Fruit/grapes.png'><br><font class='baseline'><strong>Great Grapes</strong><p><strong><font class='posOutcome'>You WON</font><p>You bet: 1</strong></font> &nbsp; &nbsp; &nbsp; &nbsp; &nbsp; &nbsp;<font class='posOutcome'>you receive: <strong>2</strong></font></div>","null","16","Great Grapes","Fruit/grapes.png","Won","0.8,0.35","10","0.8","223","48","",""
"html-keyboard-response","154","258852","0.0-11.0-1.48","59aae1188cef7d00011f8884","bdp_rwlrn","Tue Mar 14 2023 21:23:54 GMT-0400 (Eastern Daylight Time)","479683","Trustworthy,Untrustworthy","","883","","","","decision","","<div class='trialDiv'><img src='Fruit/pineapple.png'><br><font class='baseline'><strong>Primo Pineapple</strong><p>Choose number of points to bet.</font><div class='respPicDiv'><img src='img/responseButtonOffersNo0L.png' class='respPic'></div></div>","2","17","Primo Pineapple","Fruit/pineapple.png","Won","0.2,0.65","14","0.2","228","49","",""
"html-keyboard-response","155","259107","0.0-11.0-2.48","59aae1188cef7d00011f8884","bdp_rwlrn","Tue Mar 14 2023 21:23:54 GMT-0400 (Eastern Daylight Time)","479683","Trustworthy,Untrustworthy","","null","","","","decisionFB","","<div class='trialDiv'><img src='Fruit/pineapple.png'><br><font class='baseline'><strong>Primo Pineapple</strong><p>Choose number of points to bet.</font><div class='respPicDiv'><img src='img/responseButtonOffersNo0L2.png' class='respPic'></div></div>","null","17","Primo Pineapple","Fruit/pineapple.png","Won","0.2,0.65","14","0.2","226","49","",""
"html-keyboard-response","156","260120","0.0-11.0-3.48","59aae1188cef7d00011f8884","bdp_rwlrn","Tue Mar 14 2023 21:23:54 GMT-0400 (Eastern Daylight Time)","479683","Trustworthy,Untrustworthy","","null","","","","feedback","","<div class='respPicDiv'><img src='img/responseButtonOffersNo0_wht.png' class='respPic'></div><div class='trialDiv'><img src='Fruit/pineapple.png'><br><font class='baseline'><strong>Primo Pineapple</strong><p><strong><font class='posOutcome'>You WON</font><p>You bet: 2</strong></font> &nbsp; &nbsp; &nbsp; &nbsp; &nbsp; &nbsp;<font class='posOutcome'>you receive: <strong>4</strong></font></div>","null","17","Primo Pineapple","Fruit/pineapple.png","Won","0.2,0.65","14","0.2","230","49","",""
"html-keyboard-response","157","260880","0.0-11.0-1.49","59aae1188cef7d00011f8884","bdp_rwlrn","Tue Mar 14 2023 21:23:54 GMT-0400 (Eastern Daylight Time)","479683","Trustworthy,Untrustworthy","","760","","","","decision","","<div class='trialDiv'><img src='Fruit/grapes.png'><br><font class='baseline'><strong>Great Grapes</strong><p>Choose number of points to bet.</font><div class='respPicDiv'><img src='img/responseButtonOffersNo0L.png' class='respPic'></div></div>","5","17","Great Grapes","Fruit/grapes.png","Won","0.8,0.35","10","0.8","235","50","",""
"html-keyboard-response","158","261145","0.0-11.0-2.49","59aae1188cef7d00011f8884","bdp_rwlrn","Tue Mar 14 2023 21:23:54 GMT-0400 (Eastern Daylight Time)","479683","Trustworthy,Untrustworthy","","null","","","","decisionFB","","<div class='trialDiv'><img src='Fruit/grapes.png'><br><font class='baseline'><strong>Great Grapes</strong><p>Choose number of points to bet.</font><div class='respPicDiv'><img src='img/responseButtonOffersNo0L5.png' class='respPic'></div></div>","null","17","Great Grapes","Fruit/grapes.png","Won","0.8,0.35","10","0.8","230","50","",""
"html-keyboard-response","159","262157","0.0-11.0-3.49","59aae1188cef7d00011f8884","bdp_rwlrn","Tue Mar 14 2023 21:23:54 GMT-0400 (Eastern Daylight Time)","479683","Trustworthy,Untrustworthy","","null","","","","feedback","","<div class='respPicDiv'><img src='img/responseButtonOffersNo0_wht.png' class='respPic'></div><div class='trialDiv'><img src='Fruit/grapes.png'><br><font class='baseline'><strong>Great Grapes</strong><p><strong><font class='posOutcome'>You WON</font><p>You bet: 5</strong></font> &nbsp; &nbsp; &nbsp; &nbsp; &nbsp; &nbsp;<font class='posOutcome'>you receive: <strong>10</strong></font></div>","null","17","Great Grapes","Fruit/grapes.png","Won","0.8,0.35","10","0.8","240","50","",""
"html-keyboard-response","160","263588","0.0-11.0-1.50","59aae1188cef7d00011f8884","bdp_rwlrn","Tue Mar 14 2023 21:23:54 GMT-0400 (Eastern Daylight Time)","479683","Trustworthy,Untrustworthy","","1430","","","","decision","","<div class='trialDiv'><img src='Fruit/bananas.png'><br><font class='baseline'><strong>Banana Bonanza</strong><p>Choose number of points to bet.</font><div class='respPicDiv'><img src='img/responseButtonOffersNo0L.png' class='respPic'></div></div>","3","17","Banana Bonanza","Fruit/bananas.png","Won","0.35,0.65","9","0.35","245","51","",""
"html-keyboard-response","161","263846","0.0-11.0-2.50","59aae1188cef7d00011f8884","bdp_rwlrn","Tue Mar 14 2023 21:23:54 GMT-0400 (Eastern Daylight Time)","479683","Trustworthy,Untrustworthy","","null","","","","decisionFB","","<div class='trialDiv'><img src='Fruit/bananas.png'><br><font class='baseline'><strong>Banana Bonanza</strong><p>Choose number of points to bet.</font><div class='respPicDiv'><img src='img/responseButtonOffersNo0L3.png' class='respPic'></div></div>","null","17","Banana Bonanza","Fruit/bananas.png","Won","0.35,0.65","9","0.35","242","51","",""
