"trial_type","trial_index","time_elapsed","internal_node_id","subject_id","task","startTime","totalTime","labels","view_history","rt","event","trial","time","trialtype","success","stimulus","key_press","ltround","name","fileID","outcome","lottotype","lottoswpt","lottocurrpshare","point_total","round","faceID","face"
"pavlovia","0","2","0.0-0.0","6110ac49fa97e0c2c87223a2","bdp_rwlrn","Wed Mar 15 2023 23:32:03 GMT-0400 (Eastern Daylight Time)","519850","Untrustworthy,Trustworthy","","","","","","","","","","","","","","","","","","","",""
"instructions","1","2317","0.0-1.0","6110ac49fa97e0c2c87223a2","bdp_rwlrn","Wed Mar 15 2023 23:32:03 GMT-0400 (Eastern Daylight Time)","519850","Untrustworthy,Trustworthy","[{""page_index"":0,""viewing_time"":2315}]","2315","","","","","","","","","","","","","","","","","",""
"","","","","6110ac49fa97e0c2c87223a2","bdp_rwlrn","Wed Mar 15 2023 23:32:03 GMT-0400 (Eastern Daylight Time)","519850","Untrustworthy,Trustworthy","","","fullscreenenter","2","5604","fullscreenenter","","","","","","","","","","","","","",""
"fullscreen","2","6601","0.0-2.0","6110ac49fa97e0c2c87223a2","bdp_rwlrn","Wed Mar 15 2023 23:32:03 GMT-0400 (Eastern Daylight Time)","519850","Untrustworthy,Trustworthy","","","","","","","true","","","","","","","","","","","","",""
"instructions","3","71845","0.0-4.0","6110ac49fa97e0c2c87223a2","bdp_rwlrn","Wed Mar 15 2023 23:32:03 GMT-0400 (Eastern Daylight Time)","519850","Untrustworthy,Trustworthy","[{""page_index"":0,""viewing_time"":5992},{""page_index"":1,""viewing_time"":32152},{""page_index"":2,""viewing_time"":3359},{""page_index"":3,""viewing_time"":6373},{""page_index"":4,""viewing_time"":14305},{""page_index"":5,""viewing_time"":3061}]","65242","","","","","","","","","","","","","","","","","",""
"html-keyboard-response","4","74137","0.0-5.0","6110ac49fa97e0c2c87223a2","bdp_rwlrn","Wed Mar 15 2023 23:32:03 GMT-0400 (Eastern Daylight Time)","519850","Untrustworthy,Trustworthy","","2290","","","","","","<div class='header' style='text-align:left; position: absolute; top: 5%; left: 5%;'><small>Task 3 of 5</small></div><div class='instruxDiv'><p><strong>1) What is the maximum number of points you can choose to bet on a lottery?</strong></p><p>a) 0</p><p>b) 1</p><p>c) 5</p>","B","","","","","","","","","","",""
"html-keyboard-response","5","78466","0.0-6.0","6110ac49fa97e0c2c87223a2","bdp_rwlrn","Wed Mar 15 2023 23:32:03 GMT-0400 (Eastern Daylight Time)","519850","Untrustworthy,Trustworthy","","4222","","","","","","<div class='header' style='text-align:left; position: absolute; top: 5%; left: 5%;'><small>Task 3 of 5</small></div><div class='instruxDiv'><p><strong>1) What is the maximum number of points you can choose to bet on a lottery?</strong></p><p>a) 0</p><p style='color:#FF0000'>b) 1</p><p>c) 5</p><h3 style='color:#FF0000'>Incorrect!</h3><h3 class='center-content'>The correct response is c).</h3><h3 class='center-content'>The maximum number of points you can choose to bet on a lottery is 5 points.</h3><p><em>Press SPACEBAR to continue</em></p></div>"," ","","","","","","","","","","",""
"html-keyboard-response","6","82034","0.0-7.0","6110ac49fa97e0c2c87223a2","bdp_rwlrn","Wed Mar 15 2023 23:32:03 GMT-0400 (Eastern Daylight Time)","519850","Untrustworthy,Trustworthy","","3460","","","","","","<div class='header' style='text-align:left; position: absolute; top: 5%; left: 5%;'><small>Task 3 of 5</small></div><div class='instruxDiv'><p><strong>2) How many points can you win each round?</strong></p><p>a) 10 points</p><p>b) Double what you bet</p><p>c) Quadruple what you bet</p>","B","","","","","","","","","","",""
"html-keyboard-response","7","83413","0.0-8.0","6110ac49fa97e0c2c87223a2","bdp_rwlrn","Wed Mar 15 2023 23:32:03 GMT-0400 (Eastern Daylight Time)","519850","Untrustworthy,Trustworthy","","1272","","","","","","<div class='header' style='text-align:left; position: absolute; top: 5%; left: 5%;'><small>Task 3 of 5</small></div><div class='instruxDiv'><p><strong>2) How many points can you win each round?</strong></p><p>a) 10 points</p><p style='color:#00FF00'>b) Double what you bet</p><p>c) Quadruple what you bet</p><h3 style='color:#00FF00'>Correct!</h3><h3 class='center-content'>The correct response is b).</h3><h3 class='center-content'>You can win double the amount of points you bet.</h3><p><em>Press SPACEBAR to continue</em></p></div>"," ","","","","","","","","","","",""
"html-keyboard-response","8","88530","0.0-9.0","6110ac49fa97e0c2c87223a2","bdp_rwlrn","Wed Mar 15 2023 23:32:03 GMT-0400 (Eastern Daylight Time)","519850","Untrustworthy,Trustworthy","","null","","","","","","<div class='header' style='text-align:left; position: absolute; top: 5%; left: 5%;'><small>Task 3 of 5</small></div><div class='instruxDiv'><p>Thank you for completing the quiz<p>These are the actual lotteries you will be playing in the next block:<p><div class='tc' align='center'><img class='introPic' src='Fruit/papayas.png'><br><strong>Papaya Payday</strong></div><div class='bl' align='center'><img class='introPic' src='Fruit/cherrie.png'><br><strong>Cherry Chances</strong></div><div class='br' align='center'><img class='introPic' src='Fruit/mango.png'><br><strong>Mega Mangos</strong></div></div><p>Across <strong>66 rounds</strong> you will play each lottery <strong>22 times</strong> (in random order).<p style='align:center; color:white'><font <em>Press SPACEBAR to continue</em></p>","null","","","","","","","","","","",""
"instructions","9","97324","0.0-10.0","6110ac49fa97e0c2c87223a2","bdp_rwlrn","Wed Mar 15 2023 23:32:03 GMT-0400 (Eastern Daylight Time)","519850","Untrustworthy,Trustworthy","[{""page_index"":0,""viewing_time"":7930},{""page_index"":1,""viewing_time"":862}]","8793","","","","","","","","","","","","","","","","","",""
"html-keyboard-response","10","108712","0.0-11.0-1.0","6110ac49fa97e0c2c87223a2","bdp_rwlrn","Wed Mar 15 2023 23:32:03 GMT-0400 (Eastern Daylight Time)","519850","Untrustworthy,Trustworthy","","11284","","","","decision","","<div class='trialDiv'><img src='Fruit/mango.png'><br><font class='baseline'><strong>Mega Mangos</strong><p>Choose number of points to bet.</font><div class='respPicDiv'><img src='img/responseButtonOffersNo0L.png' class='respPic'></div></div>","3","1","Mega Mangos","Fruit/mango.png","Lost","0.35,0.8","10","0.35","5","1","",""
"html-keyboard-response","11","108971","0.0-11.0-2.0","6110ac49fa97e0c2c87223a2","bdp_rwlrn","Wed Mar 15 2023 23:32:03 GMT-0400 (Eastern Daylight Time)","519850","Untrustworthy,Trustworthy","","null","","","","decisionFB","","<div class='trialDiv'><img src='Fruit/mango.png'><br><font class='baseline'><strong>Mega Mangos</strong><p>Choose number of points to bet.</font><div class='respPicDiv'><img src='img/responseButtonOffersNo0L3.png' class='respPic'></div></div>","null","1","Mega Mangos","Fruit/mango.png","Lost","0.35,0.8","10","0.35","2","1","",""
"html-keyboard-response","12","109980","0.0-11.0-3.0","6110ac49fa97e0c2c87223a2","bdp_rwlrn","Wed Mar 15 2023 23:32:03 GMT-0400 (Eastern Daylight Time)","519850","Untrustworthy,Trustworthy","","null","","","","feedback","","<div class='respPicDiv'><img src='img/responseButtonOffersNo0_wht.png' class='respPic'></div><div class='trialDiv'><img src='Fruit/mango.png'><br><font class='baseline'><strong>Mega Mangos</strong><p><strong><font class='negOutcome'>You LOST</font><p>You bet: 3</strong></font> &nbsp; &nbsp; &nbsp; &nbsp; &nbsp; &nbsp;<font class='negOutcome'>You receive: <strong>0</strong></font></div>","null","1","Mega Mangos","Fruit/mango.png","Lost","0.35,0.8","10","0.35","2","1","",""
"html-keyboard-response","13","111801","0.0-11.0-1.1","6110ac49fa97e0c2c87223a2","bdp_rwlrn","Wed Mar 15 2023 23:32:03 GMT-0400 (Eastern Daylight Time)","519850","Untrustworthy,Trustworthy","","1820","","","","decision","","<div class='trialDiv'><img src='Fruit/cherrie.png'><br><font class='baseline'><strong>Cherry Chances</strong><p>Choose number of points to bet.</font><div class='respPicDiv'><img src='img/responseButtonOffersNo0L.png' class='respPic'></div></div>","2","1","Cherry Chances","Fruit/cherrie.png","Lost","0.2,0.8","9","0.2","7","2","",""
"html-keyboard-response","14","112058","0.0-11.0-2.1","6110ac49fa97e0c2c87223a2","bdp_rwlrn","Wed Mar 15 2023 23:32:03 GMT-0400 (Eastern Daylight Time)","519850","Untrustworthy,Trustworthy","","null","","","","decisionFB","","<div class='trialDiv'><img src='Fruit/cherrie.png'><br><font class='baseline'><strong>Cherry Chances</strong><p>Choose number of points to bet.</font><div class='respPicDiv'><img src='img/responseButtonOffersNo0L2.png' class='respPic'></div></div>","null","1","Cherry Chances","Fruit/cherrie.png","Lost","0.2,0.8","9","0.2","5","2","",""
"html-keyboard-response","15","113067","0.0-11.0-3.1","6110ac49fa97e0c2c87223a2","bdp_rwlrn","Wed Mar 15 2023 23:32:03 GMT-0400 (Eastern Daylight Time)","519850","Untrustworthy,Trustworthy","","null","","","","feedback","","<div class='respPicDiv'><img src='img/responseButtonOffersNo0_wht.png' class='respPic'></div><div class='trialDiv'><img src='Fruit/cherrie.png'><br><font class='baseline'><strong>Cherry Chances</strong><p><strong><font class='negOutcome'>You LOST</font><p>You bet: 2</strong></font> &nbsp; &nbsp; &nbsp; &nbsp; &nbsp; &nbsp;<font class='negOutcome'>You receive: <strong>0</strong></font></div>","null","1","Cherry Chances","Fruit/cherrie.png","Lost","0.2,0.8","9","0.2","5","2","",""
"html-keyboard-response","16","114743","0.0-11.0-1.2","6110ac49fa97e0c2c87223a2","bdp_rwlrn","Wed Mar 15 2023 23:32:03 GMT-0400 (Eastern Daylight Time)","519850","Untrustworthy,Trustworthy","","1674","","","","decision","","<div class='trialDiv'><img src='Fruit/papayas.png'><br><font class='baseline'><strong>Papaya Payday</strong><p>Choose number of points to bet.</font><div class='respPicDiv'><img src='img/responseButtonOffersNo0L.png' class='respPic'></div></div>","2","1","Papaya Payday","Fruit/papayas.png","Won","0.65,0.2","8","0.65","10","3","",""
"html-keyboard-response","17","115003","0.0-11.0-2.2","6110ac49fa97e0c2c87223a2","bdp_rwlrn","Wed Mar 15 2023 23:32:03 GMT-0400 (Eastern Daylight Time)","519850","Untrustworthy,Trustworthy","","null","","","","decisionFB","","<div class='trialDiv'><img src='Fruit/papayas.png'><br><font class='baseline'><strong>Papaya Payday</strong><p>Choose number of points to bet.</font><div class='respPicDiv'><img src='img/responseButtonOffersNo0L2.png' class='respPic'></div></div>","null","1","Papaya Payday","Fruit/papayas.png","Won","0.65,0.2","8","0.65","8","3","",""
"html-keyboard-response","18","116011","0.0-11.0-3.2","6110ac49fa97e0c2c87223a2","bdp_rwlrn","Wed Mar 15 2023 23:32:03 GMT-0400 (Eastern Daylight Time)","519850","Untrustworthy,Trustworthy","","null","","","","feedback","","<div class='respPicDiv'><img src='img/responseButtonOffersNo0_wht.png' class='respPic'></div><div class='trialDiv'><img src='Fruit/papayas.png'><br><font class='baseline'><strong>Papaya Payday</strong><p><strong><font class='posOutcome'>You WON</font><p>You bet: 2</strong></font> &nbsp; &nbsp; &nbsp; &nbsp; &nbsp; &nbsp;<font class='posOutcome'>you receive: <strong>4</strong></font></div>","null","1","Papaya Payday","Fruit/papayas.png","Won","0.65,0.2","8","0.65","12","3","",""
"html-keyboard-response","19","117911","0.0-11.0-1.3","6110ac49fa97e0c2c87223a2","bdp_rwlrn","Wed Mar 15 2023 23:32:03 GMT-0400 (Eastern Daylight Time)","519850","Untrustworthy,Trustworthy","","1898","","","","decision","","<div class='trialDiv'><img src='Fruit/cherrie.png'><br><font class='baseline'><strong>Cherry Chances</strong><p>Choose number of points to bet.</font><div class='respPicDiv'><img src='img/responseButtonOffersNo0L.png' class='respPic'></div></div>","1","2","Cherry Chances","Fruit/cherrie.png","Lost","0.2,0.8","9","0.2","17","4","",""
"html-keyboard-response","20","118168","0.0-11.0-2.3","6110ac49fa97e0c2c87223a2","bdp_rwlrn","Wed Mar 15 2023 23:32:03 GMT-0400 (Eastern Daylight Time)","519850","Untrustworthy,Trustworthy","","null","","","","decisionFB","","<div class='trialDiv'><img src='Fruit/cherrie.png'><br><font class='baseline'><strong>Cherry Chances</strong><p>Choose number of points to bet.</font><div class='respPicDiv'><img src='img/responseButtonOffersNo0L1.png' class='respPic'></div></div>","null","2","Cherry Chances","Fruit/cherrie.png","Lost","0.2,0.8","9","0.2","16","4","",""
"html-keyboard-response","21","119179","0.0-11.0-3.3","6110ac49fa97e0c2c87223a2","bdp_rwlrn","Wed Mar 15 2023 23:32:03 GMT-0400 (Eastern Daylight Time)","519850","Untrustworthy,Trustworthy","","null","","","","feedback","","<div class='respPicDiv'><img src='img/responseButtonOffersNo0_wht.png' class='respPic'></div><div class='trialDiv'><img src='Fruit/cherrie.png'><br><font class='baseline'><strong>Cherry Chances</strong><p><strong><font class='negOutcome'>You LOST</font><p>You bet: 1</strong></font> &nbsp; &nbsp; &nbsp; &nbsp; &nbsp; &nbsp;<font class='negOutcome'>You receive: <strong>0</strong></font></div>","null","2","Cherry Chances","Fruit/cherrie.png","Lost","0.2,0.8","9","0.2","16","4","",""
"html-keyboard-response","22","120266","0.0-11.0-1.4","6110ac49fa97e0c2c87223a2","bdp_rwlrn","Wed Mar 15 2023 23:32:03 GMT-0400 (Eastern Daylight Time)","519850","Untrustworthy,Trustworthy","","1084","","","","decision","","<div class='trialDiv'><img src='Fruit/papayas.png'><br><font class='baseline'><strong>Papaya Payday</strong><p>Choose number of points to bet.</font><div class='respPicDiv'><img src='img/responseButtonOffersNo0L.png' class='respPic'></div></div>","1","2","Papaya Payday","Fruit/papayas.png","Won","0.65,0.2","8","0.65","21","5","",""
"html-keyboard-response","23","120520","0.0-11.0-2.4","6110ac49fa97e0c2c87223a2","bdp_rwlrn","Wed Mar 15 2023 23:32:03 GMT-0400 (Eastern Daylight Time)","519850","Untrustworthy,Trustworthy","","null","","","","decisionFB","","<div class='trialDiv'><img src='Fruit/papayas.png'><br><font class='baseline'><strong>Papaya Payday</strong><p>Choose number of points to bet.</font><div class='respPicDiv'><img src='img/responseButtonOffersNo0L1.png' class='respPic'></div></div>","null","2","Papaya Payday","Fruit/papayas.png","Won","0.65,0.2","8","0.65","20","5","",""
"html-keyboard-response","24","121531","0.0-11.0-3.4","6110ac49fa97e0c2c87223a2","bdp_rwlrn","Wed Mar 15 2023 23:32:03 GMT-0400 (Eastern Daylight Time)","519850","Untrustworthy,Trustworthy","","null","","","","feedback","","<div class='respPicDiv'><img src='img/responseButtonOffersNo0_wht.png' class='respPic'></div><div class='trialDiv'><img src='Fruit/papayas.png'><br><font class='baseline'><strong>Papaya Payday</strong><p><strong><font class='posOutcome'>You WON</font><p>You bet: 1</strong></font> &nbsp; &nbsp; &nbsp; &nbsp; &nbsp; &nbsp;<font class='posOutcome'>you receive: <strong>2</strong></font></div>","null","2","Papaya Payday","Fruit/papayas.png","Won","0.65,0.2","8","0.65","22","5","",""
"html-keyboard-response","25","123435","0.0-11.0-1.5","6110ac49fa97e0c2c87223a2","bdp_rwlrn","Wed Mar 15 2023 23:32:03 GMT-0400 (Eastern Daylight Time)","519850","Untrustworthy,Trustworthy","","1903","","","","decision","","<div class='trialDiv'><img src='Fruit/mango.png'><br><font class='baseline'><strong>Mega Mangos</strong><p>Choose number of points to bet.</font><div class='respPicDiv'><img src='img/responseButtonOffersNo0L.png' class='respPic'></div></div>","3","2","Mega Mangos","Fruit/mango.png","Lost","0.35,0.8","10","0.35","27","6","",""
"html-keyboard-response","26","123697","0.0-11.0-2.5","6110ac49fa97e0c2c87223a2","bdp_rwlrn","Wed Mar 15 2023 23:32:03 GMT-0400 (Eastern Daylight Time)","519850","Untrustworthy,Trustworthy","","null","","","","decisionFB","","<div class='trialDiv'><img src='Fruit/mango.png'><br><font class='baseline'><strong>Mega Mangos</strong><p>Choose number of points to bet.</font><div class='respPicDiv'><img src='img/responseButtonOffersNo0L3.png' class='respPic'></div></div>","null","2","Mega Mangos","Fruit/mango.png","Lost","0.35,0.8","10","0.35","24","6","",""
"html-keyboard-response","27","124706","0.0-11.0-3.5","6110ac49fa97e0c2c87223a2","bdp_rwlrn","Wed Mar 15 2023 23:32:03 GMT-0400 (Eastern Daylight Time)","519850","Untrustworthy,Trustworthy","","null","","","","feedback","","<div class='respPicDiv'><img src='img/responseButtonOffersNo0_wht.png' class='respPic'></div><div class='trialDiv'><img src='Fruit/mango.png'><br><font class='baseline'><strong>Mega Mangos</strong><p><strong><font class='negOutcome'>You LOST</font><p>You bet: 3</strong></font> &nbsp; &nbsp; &nbsp; &nbsp; &nbsp; &nbsp;<font class='negOutcome'>You receive: <strong>0</strong></font></div>","null","2","Mega Mangos","Fruit/mango.png","Lost","0.35,0.8","10","0.35","24","6","",""
"html-keyboard-response","28","125987","0.0-11.0-1.6","6110ac49fa97e0c2c87223a2","bdp_rwlrn","Wed Mar 15 2023 23:32:03 GMT-0400 (Eastern Daylight Time)","519850","Untrustworthy,Trustworthy","","1280","","","","decision","","<div class='trialDiv'><img src='Fruit/cherrie.png'><br><font class='baseline'><strong>Cherry Chances</strong><p>Choose number of points to bet.</font><div class='respPicDiv'><img src='img/responseButtonOffersNo0L.png' class='respPic'></div></div>","3","3","Cherry Chances","Fruit/cherrie.png","Lost","0.2,0.8","9","0.2","29","7","",""
"html-keyboard-response","29","126240","0.0-11.0-2.6","6110ac49fa97e0c2c87223a2","bdp_rwlrn","Wed Mar 15 2023 23:32:03 GMT-0400 (Eastern Daylight Time)","519850","Untrustworthy,Trustworthy","","null","","","","decisionFB","","<div class='trialDiv'><img src='Fruit/cherrie.png'><br><font class='baseline'><strong>Cherry Chances</strong><p>Choose number of points to bet.</font><div class='respPicDiv'><img src='img/responseButtonOffersNo0L3.png' class='respPic'></div></div>","null","3","Cherry Chances","Fruit/cherrie.png","Lost","0.2,0.8","9","0.2","26","7","",""
"html-keyboard-response","30","127248","0.0-11.0-3.6","6110ac49fa97e0c2c87223a2","bdp_rwlrn","Wed Mar 15 2023 23:32:03 GMT-0400 (Eastern Daylight Time)","519850","Untrustworthy,Trustworthy","","null","","","","feedback","","<div class='respPicDiv'><img src='img/responseButtonOffersNo0_wht.png' class='respPic'></div><div class='trialDiv'><img src='Fruit/cherrie.png'><br><font class='baseline'><strong>Cherry Chances</strong><p><strong><font class='negOutcome'>You LOST</font><p>You bet: 3</strong></font> &nbsp; &nbsp; &nbsp; &nbsp; &nbsp; &nbsp;<font class='negOutcome'>You receive: <strong>0</strong></font></div>","null","3","Cherry Chances","Fruit/cherrie.png","Lost","0.2,0.8","9","0.2","26","7","",""
"html-keyboard-response","31","128278","0.0-11.0-1.7","6110ac49fa97e0c2c87223a2","bdp_rwlrn","Wed Mar 15 2023 23:32:03 GMT-0400 (Eastern Daylight Time)","519850","Untrustworthy,Trustworthy","","1028","","","","decision","","<div class='trialDiv'><img src='Fruit/papayas.png'><br><font class='baseline'><strong>Papaya Payday</strong><p>Choose number of points to bet.</font><div class='respPicDiv'><img src='img/responseButtonOffersNo0L.png' class='respPic'></div></div>","1","3","Papaya Payday","Fruit/papayas.png","Lost","0.65,0.2","8","0.65","31","8","",""
"html-keyboard-response","32","128538","0.0-11.0-2.7","6110ac49fa97e0c2c87223a2","bdp_rwlrn","Wed Mar 15 2023 23:32:03 GMT-0400 (Eastern Daylight Time)","519850","Untrustworthy,Trustworthy","","null","","","","decisionFB","","<div class='trialDiv'><img src='Fruit/papayas.png'><br><font class='baseline'><strong>Papaya Payday</strong><p>Choose number of points to bet.</font><div class='respPicDiv'><img src='img/responseButtonOffersNo0L1.png' class='respPic'></div></div>","null","3","Papaya Payday","Fruit/papayas.png","Lost","0.65,0.2","8","0.65","30","8","",""
"html-keyboard-response","33","129546","0.0-11.0-3.7","6110ac49fa97e0c2c87223a2","bdp_rwlrn","Wed Mar 15 2023 23:32:03 GMT-0400 (Eastern Daylight Time)","519850","Untrustworthy,Trustworthy","","null","","","","feedback","","<div class='respPicDiv'><img src='img/responseButtonOffersNo0_wht.png' class='respPic'></div><div class='trialDiv'><img src='Fruit/papayas.png'><br><font class='baseline'><strong>Papaya Payday</strong><p><strong><font class='negOutcome'>You LOST</font><p>You bet: 1</strong></font> &nbsp; &nbsp; &nbsp; &nbsp; &nbsp; &nbsp;<font class='negOutcome'>You receive: <strong>0</strong></font></div>","null","3","Papaya Payday","Fruit/papayas.png","Lost","0.65,0.2","8","0.65","30","8","",""
"html-keyboard-response","34","130444","0.0-11.0-1.8","6110ac49fa97e0c2c87223a2","bdp_rwlrn","Wed Mar 15 2023 23:32:03 GMT-0400 (Eastern Daylight Time)","519850","Untrustworthy,Trustworthy","","896","","","","decision","","<div class='trialDiv'><img src='Fruit/mango.png'><br><font class='baseline'><strong>Mega Mangos</strong><p>Choose number of points to bet.</font><div class='respPicDiv'><img src='img/responseButtonOffersNo0L.png' class='respPic'></div></div>","2","3","Mega Mangos","Fruit/mango.png","Lost","0.35,0.8","10","0.35","35","9","",""
"html-keyboard-response","35","130704","0.0-11.0-2.8","6110ac49fa97e0c2c87223a2","bdp_rwlrn","Wed Mar 15 2023 23:32:03 GMT-0400 (Eastern Daylight Time)","519850","Untrustworthy,Trustworthy","","null","","","","decisionFB","","<div class='trialDiv'><img src='Fruit/mango.png'><br><font class='baseline'><strong>Mega Mangos</strong><p>Choose number of points to bet.</font><div class='respPicDiv'><img src='img/responseButtonOffersNo0L2.png' class='respPic'></div></div>","null","3","Mega Mangos","Fruit/mango.png","Lost","0.35,0.8","10","0.35","33","9","",""
"html-keyboard-response","36","131713","0.0-11.0-3.8","6110ac49fa97e0c2c87223a2","bdp_rwlrn","Wed Mar 15 2023 23:32:03 GMT-0400 (Eastern Daylight Time)","519850","Untrustworthy,Trustworthy","","null","","","","feedback","","<div class='respPicDiv'><img src='img/responseButtonOffersNo0_wht.png' class='respPic'></div><div class='trialDiv'><img src='Fruit/mango.png'><br><font class='baseline'><strong>Mega Mangos</strong><p><strong><font class='negOutcome'>You LOST</font><p>You bet: 2</strong></font> &nbsp; &nbsp; &nbsp; &nbsp; &nbsp; &nbsp;<font class='negOutcome'>You receive: <strong>0</strong></font></div>","null","3","Mega Mangos","Fruit/mango.png","Lost","0.35,0.8","10","0.35","33","9","",""
"html-keyboard-response","37","132608","0.0-11.0-1.9","6110ac49fa97e0c2c87223a2","bdp_rwlrn","Wed Mar 15 2023 23:32:03 GMT-0400 (Eastern Daylight Time)","519850","Untrustworthy,Trustworthy","","893","","","","decision","","<div class='trialDiv'><img src='Fruit/papayas.png'><br><font class='baseline'><strong>Papaya Payday</strong><p>Choose number of points to bet.</font><div class='respPicDiv'><img src='img/responseButtonOffersNo0L.png' class='respPic'></div></div>","1","4","Papaya Payday","Fruit/papayas.png","Won","0.65,0.2","8","0.65","38","10","",""
"html-keyboard-response","38","132863","0.0-11.0-2.9","6110ac49fa97e0c2c87223a2","bdp_rwlrn","Wed Mar 15 2023 23:32:03 GMT-0400 (Eastern Daylight Time)","519850","Untrustworthy,Trustworthy","","null","","","","decisionFB","","<div class='trialDiv'><img src='Fruit/papayas.png'><br><font class='baseline'><strong>Papaya Payday</strong><p>Choose number of points to bet.</font><div class='respPicDiv'><img src='img/responseButtonOffersNo0L1.png' class='respPic'></div></div>","null","4","Papaya Payday","Fruit/papayas.png","Won","0.65,0.2","8","0.65","37","10","",""
"html-keyboard-response","39","133871","0.0-11.0-3.9","6110ac49fa97e0c2c87223a2","bdp_rwlrn","Wed Mar 15 2023 23:32:03 GMT-0400 (Eastern Daylight Time)","519850","Untrustworthy,Trustworthy","","null","","","","feedback","","<div class='respPicDiv'><img src='img/responseButtonOffersNo0_wht.png' class='respPic'></div><div class='trialDiv'><img src='Fruit/papayas.png'><br><font class='baseline'><strong>Papaya Payday</strong><p><strong><font class='posOutcome'>You WON</font><p>You bet: 1</strong></font> &nbsp; &nbsp; &nbsp; &nbsp; &nbsp; &nbsp;<font class='posOutcome'>you receive: <strong>2</strong></font></div>","null","4","Papaya Payday","Fruit/papayas.png","Won","0.65,0.2","8","0.65","39","10","",""
"html-keyboard-response","40","135324","0.0-11.0-1.10","6110ac49fa97e0c2c87223a2","bdp_rwlrn","Wed Mar 15 2023 23:32:03 GMT-0400 (Eastern Daylight Time)","519850","Untrustworthy,Trustworthy","","1451","","","","decision","","<div class='trialDiv'><img src='Fruit/cherrie.png'><br><font class='baseline'><strong>Cherry Chances</strong><p>Choose number of points to bet.</font><div class='respPicDiv'><img src='img/responseButtonOffersNo0L.png' class='respPic'></div></div>","3","4","Cherry Chances","Fruit/cherrie.png","Lost","0.2,0.8","9","0.2","44","11","",""
"html-keyboard-response","41","135583","0.0-11.0-2.10","6110ac49fa97e0c2c87223a2","bdp_rwlrn","Wed Mar 15 2023 23:32:03 GMT-0400 (Eastern Daylight Time)","519850","Untrustworthy,Trustworthy","","null","","","","decisionFB","","<div class='trialDiv'><img src='Fruit/cherrie.png'><br><font class='baseline'><strong>Cherry Chances</strong><p>Choose number of points to bet.</font><div class='respPicDiv'><img src='img/responseButtonOffersNo0L3.png' class='respPic'></div></div>","null","4","Cherry Chances","Fruit/cherrie.png","Lost","0.2,0.8","9","0.2","41","11","",""
"html-keyboard-response","42","136591","0.0-11.0-3.10","6110ac49fa97e0c2c87223a2","bdp_rwlrn","Wed Mar 15 2023 23:32:03 GMT-0400 (Eastern Daylight Time)","519850","Untrustworthy,Trustworthy","","null","","","","feedback","","<div class='respPicDiv'><img src='img/responseButtonOffersNo0_wht.png' class='respPic'></div><div class='trialDiv'><img src='Fruit/cherrie.png'><br><font class='baseline'><strong>Cherry Chances</strong><p><strong><font class='negOutcome'>You LOST</font><p>You bet: 3</strong></font> &nbsp; &nbsp; &nbsp; &nbsp; &nbsp; &nbsp;<font class='negOutcome'>You receive: <strong>0</strong></font></div>","null","4","Cherry Chances","Fruit/cherrie.png","Lost","0.2,0.8","9","0.2","41","11","",""
"html-keyboard-response","43","137377","0.0-11.0-1.11","6110ac49fa97e0c2c87223a2","bdp_rwlrn","Wed Mar 15 2023 23:32:03 GMT-0400 (Eastern Daylight Time)","519850","Untrustworthy,Trustworthy","","783","","","","decision","","<div class='trialDiv'><img src='Fruit/mango.png'><br><font class='baseline'><strong>Mega Mangos</strong><p>Choose number of points to bet.</font><div class='respPicDiv'><img src='img/responseButtonOffersNo0L.png' class='respPic'></div></div>","2","4","Mega Mangos","Fruit/mango.png","Won","0.35,0.8","10","0.35","46","12","",""
"html-keyboard-response","44","137631","0.0-11.0-2.11","6110ac49fa97e0c2c87223a2","bdp_rwlrn","Wed Mar 15 2023 23:32:03 GMT-0400 (Eastern Daylight Time)","519850","Untrustworthy,Trustworthy","","null","","","","decisionFB","","<div class='trialDiv'><img src='Fruit/mango.png'><br><font class='baseline'><strong>Mega Mangos</strong><p>Choose number of points to bet.</font><div class='respPicDiv'><img src='img/responseButtonOffersNo0L2.png' class='respPic'></div></div>","null","4","Mega Mangos","Fruit/mango.png","Won","0.35,0.8","10","0.35","44","12","",""
"html-keyboard-response","45","138642","0.0-11.0-3.11","6110ac49fa97e0c2c87223a2","bdp_rwlrn","Wed Mar 15 2023 23:32:03 GMT-0400 (Eastern Daylight Time)","519850","Untrustworthy,Trustworthy","","null","","","","feedback","","<div class='respPicDiv'><img src='img/responseButtonOffersNo0_wht.png' class='respPic'></div><div class='trialDiv'><img src='Fruit/mango.png'><br><font class='baseline'><strong>Mega Mangos</strong><p><strong><font class='posOutcome'>You WON</font><p>You bet: 2</strong></font> &nbsp; &nbsp; &nbsp; &nbsp; &nbsp; &nbsp;<font class='posOutcome'>you receive: <strong>4</strong></font></div>","null","4","Mega Mangos","Fruit/mango.png","Won","0.35,0.8","10","0.35","48","12","",""
"html-keyboard-response","46","139802","0.0-11.0-1.12","6110ac49fa97e0c2c87223a2","bdp_rwlrn","Wed Mar 15 2023 23:32:03 GMT-0400 (Eastern Daylight Time)","519850","Untrustworthy,Trustworthy","","1158","","","","decision","","<div class='trialDiv'><img src='Fruit/cherrie.png'><br><font class='baseline'><strong>Cherry Chances</strong><p>Choose number of points to bet.</font><div class='respPicDiv'><img src='img/responseButtonOffersNo0L.png' class='respPic'></div></div>","3","5","Cherry Chances","Fruit/cherrie.png","Lost","0.2,0.8","9","0.2","53","13","",""
"html-keyboard-response","47","140058","0.0-11.0-2.12","6110ac49fa97e0c2c87223a2","bdp_rwlrn","Wed Mar 15 2023 23:32:03 GMT-0400 (Eastern Daylight Time)","519850","Untrustworthy,Trustworthy","","null","","","","decisionFB","","<div class='trialDiv'><img src='Fruit/cherrie.png'><br><font class='baseline'><strong>Cherry Chances</strong><p>Choose number of points to bet.</font><div class='respPicDiv'><img src='img/responseButtonOffersNo0L3.png' class='respPic'></div></div>","null","5","Cherry Chances","Fruit/cherrie.png","Lost","0.2,0.8","9","0.2","50","13","",""
"html-keyboard-response","48","141066","0.0-11.0-3.12","6110ac49fa97e0c2c87223a2","bdp_rwlrn","Wed Mar 15 2023 23:32:03 GMT-0400 (Eastern Daylight Time)","519850","Untrustworthy,Trustworthy","","null","","","","feedback","","<div class='respPicDiv'><img src='img/responseButtonOffersNo0_wht.png' class='respPic'></div><div class='trialDiv'><img src='Fruit/cherrie.png'><br><font class='baseline'><strong>Cherry Chances</strong><p><strong><font class='negOutcome'>You LOST</font><p>You bet: 3</strong></font> &nbsp; &nbsp; &nbsp; &nbsp; &nbsp; &nbsp;<font class='negOutcome'>You receive: <strong>0</strong></font></div>","null","5","Cherry Chances","Fruit/cherrie.png","Lost","0.2,0.8","9","0.2","50","13","",""
"html-keyboard-response","49","141577","0.0-11.0-1.13","6110ac49fa97e0c2c87223a2","bdp_rwlrn","Wed Mar 15 2023 23:32:03 GMT-0400 (Eastern Daylight Time)","519850","Untrustworthy,Trustworthy","","508","","","","decision","","<div class='trialDiv'><img src='Fruit/papayas.png'><br><font class='baseline'><strong>Papaya Payday</strong><p>Choose number of points to bet.</font><div class='respPicDiv'><img src='img/responseButtonOffersNo0L.png' class='respPic'></div></div>","1","5","Papaya Payday","Fruit/papayas.png","Lost","0.65,0.2","8","0.65","55","14","",""
"html-keyboard-response","50","141834","0.0-11.0-2.13","6110ac49fa97e0c2c87223a2","bdp_rwlrn","Wed Mar 15 2023 23:32:03 GMT-0400 (Eastern Daylight Time)","519850","Untrustworthy,Trustworthy","","null","","","","decisionFB","","<div class='trialDiv'><img src='Fruit/papayas.png'><br><font class='baseline'><strong>Papaya Payday</strong><p>Choose number of points to bet.</font><div class='respPicDiv'><img src='img/responseButtonOffersNo0L1.png' class='respPic'></div></div>","null","5","Papaya Payday","Fruit/papayas.png","Lost","0.65,0.2","8","0.65","54","14","",""
"html-keyboard-response","51","142842","0.0-11.0-3.13","6110ac49fa97e0c2c87223a2","bdp_rwlrn","Wed Mar 15 2023 23:32:03 GMT-0400 (Eastern Daylight Time)","519850","Untrustworthy,Trustworthy","","null","","","","feedback","","<div class='respPicDiv'><img src='img/responseButtonOffersNo0_wht.png' class='respPic'></div><div class='trialDiv'><img src='Fruit/papayas.png'><br><font class='baseline'><strong>Papaya Payday</strong><p><strong><font class='negOutcome'>You LOST</font><p>You bet: 1</strong></font> &nbsp; &nbsp; &nbsp; &nbsp; &nbsp; &nbsp;<font class='negOutcome'>You receive: <strong>0</strong></font></div>","null","5","Papaya Payday","Fruit/papayas.png","Lost","0.65,0.2","8","0.65","54","14","",""
"html-keyboard-response","52","143395","0.0-11.0-1.14","6110ac49fa97e0c2c87223a2","bdp_rwlrn","Wed Mar 15 2023 23:32:03 GMT-0400 (Eastern Daylight Time)","519850","Untrustworthy,Trustworthy","","552","","","","decision","","<div class='trialDiv'><img src='Fruit/mango.png'><br><font class='baseline'><strong>Mega Mangos</strong><p>Choose number of points to bet.</font><div class='respPicDiv'><img src='img/responseButtonOffersNo0L.png' class='respPic'></div></div>","2","5","Mega Mangos","Fruit/mango.png","Lost","0.35,0.8","10","0.35","59","15","",""
"html-keyboard-response","53","143658","0.0-11.0-2.14","6110ac49fa97e0c2c87223a2","bdp_rwlrn","Wed Mar 15 2023 23:32:03 GMT-0400 (Eastern Daylight Time)","519850","Untrustworthy,Trustworthy","","null","","","","decisionFB","","<div class='trialDiv'><img src='Fruit/mango.png'><br><font class='baseline'><strong>Mega Mangos</strong><p>Choose number of points to bet.</font><div class='respPicDiv'><img src='img/responseButtonOffersNo0L2.png' class='respPic'></div></div>","null","5","Mega Mangos","Fruit/mango.png","Lost","0.35,0.8","10","0.35","57","15","",""
"html-keyboard-response","54","144666","0.0-11.0-3.14","6110ac49fa97e0c2c87223a2","bdp_rwlrn","Wed Mar 15 2023 23:32:03 GMT-0400 (Eastern Daylight Time)","519850","Untrustworthy,Trustworthy","","null","","","","feedback","","<div class='respPicDiv'><img src='img/responseButtonOffersNo0_wht.png' class='respPic'></div><div class='trialDiv'><img src='Fruit/mango.png'><br><font class='baseline'><strong>Mega Mangos</strong><p><strong><font class='negOutcome'>You LOST</font><p>You bet: 2</strong></font> &nbsp; &nbsp; &nbsp; &nbsp; &nbsp; &nbsp;<font class='negOutcome'>You receive: <strong>0</strong></font></div>","null","5","Mega Mangos","Fruit/mango.png","Lost","0.35,0.8","10","0.35","57","15","",""
"html-keyboard-response","55","145907","0.0-11.0-1.15","6110ac49fa97e0c2c87223a2","bdp_rwlrn","Wed Mar 15 2023 23:32:03 GMT-0400 (Eastern Daylight Time)","519850","Untrustworthy,Trustworthy","","1240","","","","decision","","<div class='trialDiv'><img src='Fruit/cherrie.png'><br><font class='baseline'><strong>Cherry Chances</strong><p>Choose number of points to bet.</font><div class='respPicDiv'><img src='img/responseButtonOffersNo0L.png' class='respPic'></div></div>","3","6","Cherry Chances","Fruit/cherrie.png","Lost","0.2,0.8","9","0.2","62","16","",""
"html-keyboard-response","56","146169","0.0-11.0-2.15","6110ac49fa97e0c2c87223a2","bdp_rwlrn","Wed Mar 15 2023 23:32:03 GMT-0400 (Eastern Daylight Time)","519850","Untrustworthy,Trustworthy","","null","","","","decisionFB","","<div class='trialDiv'><img src='Fruit/cherrie.png'><br><font class='baseline'><strong>Cherry Chances</strong><p>Choose number of points to bet.</font><div class='respPicDiv'><img src='img/responseButtonOffersNo0L3.png' class='respPic'></div></div>","null","6","Cherry Chances","Fruit/cherrie.png","Lost","0.2,0.8","9","0.2","59","16","",""
"html-keyboard-response","57","147178","0.0-11.0-3.15","6110ac49fa97e0c2c87223a2","bdp_rwlrn","Wed Mar 15 2023 23:32:03 GMT-0400 (Eastern Daylight Time)","519850","Untrustworthy,Trustworthy","","null","","","","feedback","","<div class='respPicDiv'><img src='img/responseButtonOffersNo0_wht.png' class='respPic'></div><div class='trialDiv'><img src='Fruit/cherrie.png'><br><font class='baseline'><strong>Cherry Chances</strong><p><strong><font class='negOutcome'>You LOST</font><p>You bet: 3</strong></font> &nbsp; &nbsp; &nbsp; &nbsp; &nbsp; &nbsp;<font class='negOutcome'>You receive: <strong>0</strong></font></div>","null","6","Cherry Chances","Fruit/cherrie.png","Lost","0.2,0.8","9","0.2","59","16","",""
"html-keyboard-response","58","147769","0.0-11.0-1.16","6110ac49fa97e0c2c87223a2","bdp_rwlrn","Wed Mar 15 2023 23:32:03 GMT-0400 (Eastern Daylight Time)","519850","Untrustworthy,Trustworthy","","590","","","","decision","","<div class='trialDiv'><img src='Fruit/mango.png'><br><font class='baseline'><strong>Mega Mangos</strong><p>Choose number of points to bet.</font><div class='respPicDiv'><img src='img/responseButtonOffersNo0L.png' class='respPic'></div></div>","1","6","Mega Mangos","Fruit/mango.png","Lost","0.35,0.8","10","0.35","64","17","",""
"html-keyboard-response","59","148025","0.0-11.0-2.16","6110ac49fa97e0c2c87223a2","bdp_rwlrn","Wed Mar 15 2023 23:32:03 GMT-0400 (Eastern Daylight Time)","519850","Untrustworthy,Trustworthy","","null","","","","decisionFB","","<div class='trialDiv'><img src='Fruit/mango.png'><br><font class='baseline'><strong>Mega Mangos</strong><p>Choose number of points to bet.</font><div class='respPicDiv'><img src='img/responseButtonOffersNo0L1.png' class='respPic'></div></div>","null","6","Mega Mangos","Fruit/mango.png","Lost","0.35,0.8","10","0.35","63","17","",""
"html-keyboard-response","60","149034","0.0-11.0-3.16","6110ac49fa97e0c2c87223a2","bdp_rwlrn","Wed Mar 15 2023 23:32:03 GMT-0400 (Eastern Daylight Time)","519850","Untrustworthy,Trustworthy","","null","","","","feedback","","<div class='respPicDiv'><img src='img/responseButtonOffersNo0_wht.png' class='respPic'></div><div class='trialDiv'><img src='Fruit/mango.png'><br><font class='baseline'><strong>Mega Mangos</strong><p><strong><font class='negOutcome'>You LOST</font><p>You bet: 1</strong></font> &nbsp; &nbsp; &nbsp; &nbsp; &nbsp; &nbsp;<font class='negOutcome'>You receive: <strong>0</strong></font></div>","null","6","Mega Mangos","Fruit/mango.png","Lost","0.35,0.8","10","0.35","63","17","",""
"html-keyboard-response","61","149676","0.0-11.0-1.17","6110ac49fa97e0c2c87223a2","bdp_rwlrn","Wed Mar 15 2023 23:32:03 GMT-0400 (Eastern Daylight Time)","519850","Untrustworthy,Trustworthy","","641","","","","decision","","<div class='trialDiv'><img src='Fruit/papayas.png'><br><font class='baseline'><strong>Papaya Payday</strong><p>Choose number of points to bet.</font><div class='respPicDiv'><img src='img/responseButtonOffersNo0L.png' class='respPic'></div></div>","1","6","Papaya Payday","Fruit/papayas.png","Lost","0.65,0.2","8","0.65","68","18","",""
"html-keyboard-response","62","149935","0.0-11.0-2.17","6110ac49fa97e0c2c87223a2","bdp_rwlrn","Wed Mar 15 2023 23:32:03 GMT-0400 (Eastern Daylight Time)","519850","Untrustworthy,Trustworthy","","null","","","","decisionFB","","<div class='trialDiv'><img src='Fruit/papayas.png'><br><font class='baseline'><strong>Papaya Payday</strong><p>Choose number of points to bet.</font><div class='respPicDiv'><img src='img/responseButtonOffersNo0L1.png' class='respPic'></div></div>","null","6","Papaya Payday","Fruit/papayas.png","Lost","0.65,0.2","8","0.65","67","18","",""
"html-keyboard-response","63","150944","0.0-11.0-3.17","6110ac49fa97e0c2c87223a2","bdp_rwlrn","Wed Mar 15 2023 23:32:03 GMT-0400 (Eastern Daylight Time)","519850","Untrustworthy,Trustworthy","","null","","","","feedback","","<div class='respPicDiv'><img src='img/responseButtonOffersNo0_wht.png' class='respPic'></div><div class='trialDiv'><img src='Fruit/papayas.png'><br><font class='baseline'><strong>Papaya Payday</strong><p><strong><font class='negOutcome'>You LOST</font><p>You bet: 1</strong></font> &nbsp; &nbsp; &nbsp; &nbsp; &nbsp; &nbsp;<font class='negOutcome'>You receive: <strong>0</strong></font></div>","null","6","Papaya Payday","Fruit/papayas.png","Lost","0.65,0.2","8","0.65","67","18","",""
"html-keyboard-response","64","151591","0.0-11.0-1.18","6110ac49fa97e0c2c87223a2","bdp_rwlrn","Wed Mar 15 2023 23:32:03 GMT-0400 (Eastern Daylight Time)","519850","Untrustworthy,Trustworthy","","645","","","","decision","","<div class='trialDiv'><img src='Fruit/cherrie.png'><br><font class='baseline'><strong>Cherry Chances</strong><p>Choose number of points to bet.</font><div class='respPicDiv'><img src='img/responseButtonOffersNo0L.png' class='respPic'></div></div>","1","7","Cherry Chances","Fruit/cherrie.png","Lost","0.2,0.8","9","0.2","72","19","",""
"html-keyboard-response","65","151848","0.0-11.0-2.18","6110ac49fa97e0c2c87223a2","bdp_rwlrn","Wed Mar 15 2023 23:32:03 GMT-0400 (Eastern Daylight Time)","519850","Untrustworthy,Trustworthy","","null","","","","decisionFB","","<div class='trialDiv'><img src='Fruit/cherrie.png'><br><font class='baseline'><strong>Cherry Chances</strong><p>Choose number of points to bet.</font><div class='respPicDiv'><img src='img/responseButtonOffersNo0L1.png' class='respPic'></div></div>","null","7","Cherry Chances","Fruit/cherrie.png","Lost","0.2,0.8","9","0.2","71","19","",""
"html-keyboard-response","66","152857","0.0-11.0-3.18","6110ac49fa97e0c2c87223a2","bdp_rwlrn","Wed Mar 15 2023 23:32:03 GMT-0400 (Eastern Daylight Time)","519850","Untrustworthy,Trustworthy","","null","","","","feedback","","<div class='respPicDiv'><img src='img/responseButtonOffersNo0_wht.png' class='respPic'></div><div class='trialDiv'><img src='Fruit/cherrie.png'><br><font class='baseline'><strong>Cherry Chances</strong><p><strong><font class='negOutcome'>You LOST</font><p>You bet: 1</strong></font> &nbsp; &nbsp; &nbsp; &nbsp; &nbsp; &nbsp;<font class='negOutcome'>You receive: <strong>0</strong></font></div>","null","7","Cherry Chances","Fruit/cherrie.png","Lost","0.2,0.8","9","0.2","71","19","",""
"html-keyboard-response","67","153624","0.0-11.0-1.19","6110ac49fa97e0c2c87223a2","bdp_rwlrn","Wed Mar 15 2023 23:32:03 GMT-0400 (Eastern Daylight Time)","519850","Untrustworthy,Trustworthy","","765","","","","decision","","<div class='trialDiv'><img src='Fruit/papayas.png'><br><font class='baseline'><strong>Papaya Payday</strong><p>Choose number of points to bet.</font><div class='respPicDiv'><img src='img/responseButtonOffersNo0L.png' class='respPic'></div></div>","1","7","Papaya Payday","Fruit/papayas.png","Won","0.65,0.2","8","0.65","76","20","",""
"html-keyboard-response","68","153879","0.0-11.0-2.19","6110ac49fa97e0c2c87223a2","bdp_rwlrn","Wed Mar 15 2023 23:32:03 GMT-0400 (Eastern Daylight Time)","519850","Untrustworthy,Trustworthy","","null","","","","decisionFB","","<div class='trialDiv'><img src='Fruit/papayas.png'><br><font class='baseline'><strong>Papaya Payday</strong><p>Choose number of points to bet.</font><div class='respPicDiv'><img src='img/responseButtonOffersNo0L1.png' class='respPic'></div></div>","null","7","Papaya Payday","Fruit/papayas.png","Won","0.65,0.2","8","0.65","75","20","",""
"html-keyboard-response","69","154889","0.0-11.0-3.19","6110ac49fa97e0c2c87223a2","bdp_rwlrn","Wed Mar 15 2023 23:32:03 GMT-0400 (Eastern Daylight Time)","519850","Untrustworthy,Trustworthy","","null","","","","feedback","","<div class='respPicDiv'><img src='img/responseButtonOffersNo0_wht.png' class='respPic'></div><div class='trialDiv'><img src='Fruit/papayas.png'><br><font class='baseline'><strong>Papaya Payday</strong><p><strong><font class='posOutcome'>You WON</font><p>You bet: 1</strong></font> &nbsp; &nbsp; &nbsp; &nbsp; &nbsp; &nbsp;<font class='posOutcome'>you receive: <strong>2</strong></font></div>","null","7","Papaya Payday","Fruit/papayas.png","Won","0.65,0.2","8","0.65","77","20","",""
"html-keyboard-response","70","155830","0.0-11.0-1.20","6110ac49fa97e0c2c87223a2","bdp_rwlrn","Wed Mar 15 2023 23:32:03 GMT-0400 (Eastern Daylight Time)","519850","Untrustworthy,Trustworthy","","939","","","","decision","","<div class='trialDiv'><img src='Fruit/mango.png'><br><font class='baseline'><strong>Mega Mangos</strong><p>Choose number of points to bet.</font><div class='respPicDiv'><img src='img/responseButtonOffersNo0L.png' class='respPic'></div></div>","3","7","Mega Mangos","Fruit/mango.png","Lost","0.35,0.8","10","0.35","82","21","",""
"html-keyboard-response","71","156089","0.0-11.0-2.20","6110ac49fa97e0c2c87223a2","bdp_rwlrn","Wed Mar 15 2023 23:32:03 GMT-0400 (Eastern Daylight Time)","519850","Untrustworthy,Trustworthy","","null","","","","decisionFB","","<div class='trialDiv'><img src='Fruit/mango.png'><br><font class='baseline'><strong>Mega Mangos</strong><p>Choose number of points to bet.</font><div class='respPicDiv'><img src='img/responseButtonOffersNo0L3.png' class='respPic'></div></div>","null","7","Mega Mangos","Fruit/mango.png","Lost","0.35,0.8","10","0.35","79","21","",""
"html-keyboard-response","72","157097","0.0-11.0-3.20","6110ac49fa97e0c2c87223a2","bdp_rwlrn","Wed Mar 15 2023 23:32:03 GMT-0400 (Eastern Daylight Time)","519850","Untrustworthy,Trustworthy","","null","","","","feedback","","<div class='respPicDiv'><img src='img/responseButtonOffersNo0_wht.png' class='respPic'></div><div class='trialDiv'><img src='Fruit/mango.png'><br><font class='baseline'><strong>Mega Mangos</strong><p><strong><font class='negOutcome'>You LOST</font><p>You bet: 3</strong></font> &nbsp; &nbsp; &nbsp; &nbsp; &nbsp; &nbsp;<font class='negOutcome'>You receive: <strong>0</strong></font></div>","null","7","Mega Mangos","Fruit/mango.png","Lost","0.35,0.8","10","0.35","79","21","",""
"html-keyboard-response","73","157456","0.0-11.0-1.21","6110ac49fa97e0c2c87223a2","bdp_rwlrn","Wed Mar 15 2023 23:32:03 GMT-0400 (Eastern Daylight Time)","519850","Untrustworthy,Trustworthy","","357","","","","decision","","<div class='trialDiv'><img src='Fruit/papayas.png'><br><font class='baseline'><strong>Papaya Payday</strong><p>Choose number of points to bet.</font><div class='respPicDiv'><img src='img/responseButtonOffersNo0L.png' class='respPic'></div></div>","1","8","Papaya Payday","Fruit/papayas.png","Won","0.65,0.2","8","0.65","84","22","",""
"html-keyboard-response","74","157710","0.0-11.0-2.21","6110ac49fa97e0c2c87223a2","bdp_rwlrn","Wed Mar 15 2023 23:32:03 GMT-0400 (Eastern Daylight Time)","519850","Untrustworthy,Trustworthy","","null","","","","decisionFB","","<div class='trialDiv'><img src='Fruit/papayas.png'><br><font class='baseline'><strong>Papaya Payday</strong><p>Choose number of points to bet.</font><div class='respPicDiv'><img src='img/responseButtonOffersNo0L1.png' class='respPic'></div></div>","null","8","Papaya Payday","Fruit/papayas.png","Won","0.65,0.2","8","0.65","83","22","",""
"html-keyboard-response","75","158713","0.0-11.0-3.21","6110ac49fa97e0c2c87223a2","bdp_rwlrn","Wed Mar 15 2023 23:32:03 GMT-0400 (Eastern Daylight Time)","519850","Untrustworthy,Trustworthy","","null","","","","feedback","","<div class='respPicDiv'><img src='img/responseButtonOffersNo0_wht.png' class='respPic'></div><div class='trialDiv'><img src='Fruit/papayas.png'><br><font class='baseline'><strong>Papaya Payday</strong><p><strong><font class='posOutcome'>You WON</font><p>You bet: 1</strong></font> &nbsp; &nbsp; &nbsp; &nbsp; &nbsp; &nbsp;<font class='posOutcome'>you receive: <strong>2</strong></font></div>","null","8","Papaya Payday","Fruit/papayas.png","Won","0.65,0.2","8","0.65","85","22","",""
"html-keyboard-response","76","159043","0.0-11.0-1.22","6110ac49fa97e0c2c87223a2","bdp_rwlrn","Wed Mar 15 2023 23:32:03 GMT-0400 (Eastern Daylight Time)","519850","Untrustworthy,Trustworthy","","328","","","","decision","","<div class='trialDiv'><img src='Fruit/cherrie.png'><br><font class='baseline'><strong>Cherry Chances</strong><p>Choose number of points to bet.</font><div class='respPicDiv'><img src='img/responseButtonOffersNo0L.png' class='respPic'></div></div>","2","8","Cherry Chances","Fruit/cherrie.png","Lost","0.2,0.8","9","0.2","90","23","",""
"html-keyboard-response","77","159304","0.0-11.0-2.22","6110ac49fa97e0c2c87223a2","bdp_rwlrn","Wed Mar 15 2023 23:32:03 GMT-0400 (Eastern Daylight Time)","519850","Untrustworthy,Trustworthy","","null","","","","decisionFB","","<div class='trialDiv'><img src='Fruit/cherrie.png'><br><font class='baseline'><strong>Cherry Chances</strong><p>Choose number of points to bet.</font><div class='respPicDiv'><img src='img/responseButtonOffersNo0L2.png' class='respPic'></div></div>","null","8","Cherry Chances","Fruit/cherrie.png","Lost","0.2,0.8","9","0.2","88","23","",""
"html-keyboard-response","78","160313","0.0-11.0-3.22","6110ac49fa97e0c2c87223a2","bdp_rwlrn","Wed Mar 15 2023 23:32:03 GMT-0400 (Eastern Daylight Time)","519850","Untrustworthy,Trustworthy","","null","","","","feedback","","<div class='respPicDiv'><img src='img/responseButtonOffersNo0_wht.png' class='respPic'></div><div class='trialDiv'><img src='Fruit/cherrie.png'><br><font class='baseline'><strong>Cherry Chances</strong><p><strong><font class='negOutcome'>You LOST</font><p>You bet: 2</strong></font> &nbsp; &nbsp; &nbsp; &nbsp; &nbsp; &nbsp;<font class='negOutcome'>You receive: <strong>0</strong></font></div>","null","8","Cherry Chances","Fruit/cherrie.png","Lost","0.2,0.8","9","0.2","88","23","",""
"html-keyboard-response","79","161004","0.0-11.0-1.23","6110ac49fa97e0c2c87223a2","bdp_rwlrn","Wed Mar 15 2023 23:32:03 GMT-0400 (Eastern Daylight Time)","519850","Untrustworthy,Trustworthy","","689","","","","decision","","<div class='trialDiv'><img src='Fruit/mango.png'><br><font class='baseline'><strong>Mega Mangos</strong><p>Choose number of points to bet.</font><div class='respPicDiv'><img src='img/responseButtonOffersNo0L.png' class='respPic'></div></div>","1","8","Mega Mangos","Fruit/mango.png","Lost","0.35,0.8","10","0.35","93","24","",""
"html-keyboard-response","80","161262","0.0-11.0-2.23","6110ac49fa97e0c2c87223a2","bdp_rwlrn","Wed Mar 15 2023 23:32:03 GMT-0400 (Eastern Daylight Time)","519850","Untrustworthy,Trustworthy","","null","","","","decisionFB","","<div class='trialDiv'><img src='Fruit/mango.png'><br><font class='baseline'><strong>Mega Mangos</strong><p>Choose number of points to bet.</font><div class='respPicDiv'><img src='img/responseButtonOffersNo0L1.png' class='respPic'></div></div>","null","8","Mega Mangos","Fruit/mango.png","Lost","0.35,0.8","10","0.35","92","24","",""
"html-keyboard-response","81","162270","0.0-11.0-3.23","6110ac49fa97e0c2c87223a2","bdp_rwlrn","Wed Mar 15 2023 23:32:03 GMT-0400 (Eastern Daylight Time)","519850","Untrustworthy,Trustworthy","","null","","","","feedback","","<div class='respPicDiv'><img src='img/responseButtonOffersNo0_wht.png' class='respPic'></div><div class='trialDiv'><img src='Fruit/mango.png'><br><font class='baseline'><strong>Mega Mangos</strong><p><strong><font class='negOutcome'>You LOST</font><p>You bet: 1</strong></font> &nbsp; &nbsp; &nbsp; &nbsp; &nbsp; &nbsp;<font class='negOutcome'>You receive: <strong>0</strong></font></div>","null","8","Mega Mangos","Fruit/mango.png","Lost","0.35,0.8","10","0.35","92","24","",""
"html-keyboard-response","82","164147","0.0-11.0-1.24","6110ac49fa97e0c2c87223a2","bdp_rwlrn","Wed Mar 15 2023 23:32:03 GMT-0400 (Eastern Daylight Time)","519850","Untrustworthy,Trustworthy","","1875","","","","decision","","<div class='trialDiv'><img src='Fruit/cherrie.png'><br><font class='baseline'><strong>Cherry Chances</strong><p>Choose number of points to bet.</font><div class='respPicDiv'><img src='img/responseButtonOffersNo0L.png' class='respPic'></div></div>","1","9","Cherry Chances","Fruit/cherrie.png","Won","0.2,0.8","9","0.2","97","25","",""
"html-keyboard-response","83","164409","0.0-11.0-2.24","6110ac49fa97e0c2c87223a2","bdp_rwlrn","Wed Mar 15 2023 23:32:03 GMT-0400 (Eastern Daylight Time)","519850","Untrustworthy,Trustworthy","","null","","","","decisionFB","","<div class='trialDiv'><img src='Fruit/cherrie.png'><br><font class='baseline'><strong>Cherry Chances</strong><p>Choose number of points to bet.</font><div class='respPicDiv'><img src='img/responseButtonOffersNo0L1.png' class='respPic'></div></div>","null","9","Cherry Chances","Fruit/cherrie.png","Won","0.2,0.8","9","0.2","96","25","",""
"html-keyboard-response","84","165417","0.0-11.0-3.24","6110ac49fa97e0c2c87223a2","bdp_rwlrn","Wed Mar 15 2023 23:32:03 GMT-0400 (Eastern Daylight Time)","519850","Untrustworthy,Trustworthy","","null","","","","feedback","","<div class='respPicDiv'><img src='img/responseButtonOffersNo0_wht.png' class='respPic'></div><div class='trialDiv'><img src='Fruit/cherrie.png'><br><font class='baseline'><strong>Cherry Chances</strong><p><strong><font class='posOutcome'>You WON</font><p>You bet: 1</strong></font> &nbsp; &nbsp; &nbsp; &nbsp; &nbsp; &nbsp;<font class='posOutcome'>you receive: <strong>2</strong></font></div>","null","9","Cherry Chances","Fruit/cherrie.png","Won","0.2,0.8","9","0.2","98","25","",""
"html-keyboard-response","85","167133","0.0-11.0-1.25","6110ac49fa97e0c2c87223a2","bdp_rwlrn","Wed Mar 15 2023 23:32:03 GMT-0400 (Eastern Daylight Time)","519850","Untrustworthy,Trustworthy","","1715","","","","decision","","<div class='trialDiv'><img src='Fruit/papayas.png'><br><font class='baseline'><strong>Papaya Payday</strong><p>Choose number of points to bet.</font><div class='respPicDiv'><img src='img/responseButtonOffersNo0L.png' class='respPic'></div></div>","2","9","Papaya Payday","Fruit/papayas.png","Lost","0.65,0.2","8","0.65","103","26","",""
"html-keyboard-response","86","167393","0.0-11.0-2.25","6110ac49fa97e0c2c87223a2","bdp_rwlrn","Wed Mar 15 2023 23:32:03 GMT-0400 (Eastern Daylight Time)","519850","Untrustworthy,Trustworthy","","null","","","","decisionFB","","<div class='trialDiv'><img src='Fruit/papayas.png'><br><font class='baseline'><strong>Papaya Payday</strong><p>Choose number of points to bet.</font><div class='respPicDiv'><img src='img/responseButtonOffersNo0L2.png' class='respPic'></div></div>","null","9","Papaya Payday","Fruit/papayas.png","Lost","0.65,0.2","8","0.65","101","26","",""
"html-keyboard-response","87","168399","0.0-11.0-3.25","6110ac49fa97e0c2c87223a2","bdp_rwlrn","Wed Mar 15 2023 23:32:03 GMT-0400 (Eastern Daylight Time)","519850","Untrustworthy,Trustworthy","","null","","","","feedback","","<div class='respPicDiv'><img src='img/responseButtonOffersNo0_wht.png' class='respPic'></div><div class='trialDiv'><img src='Fruit/papayas.png'><br><font class='baseline'><strong>Papaya Payday</strong><p><strong><font class='negOutcome'>You LOST</font><p>You bet: 2</strong></font> &nbsp; &nbsp; &nbsp; &nbsp; &nbsp; &nbsp;<font class='negOutcome'>You receive: <strong>0</strong></font></div>","null","9","Papaya Payday","Fruit/papayas.png","Lost","0.65,0.2","8","0.65","101","26","",""
"html-keyboard-response","88","180323","0.0-11.0-1.26","6110ac49fa97e0c2c87223a2","bdp_rwlrn","Wed Mar 15 2023 23:32:03 GMT-0400 (Eastern Daylight Time)","519850","Untrustworthy,Trustworthy","","11922","","","","decision","","<div class='trialDiv'><img src='Fruit/mango.png'><br><font class='baseline'><strong>Mega Mangos</strong><p>Choose number of points to bet.</font><div class='respPicDiv'><img src='img/responseButtonOffersNo0L.png' class='respPic'></div></div>","2","9","Mega Mangos","Fruit/mango.png","Won","0.35,0.8","10","0.35","106","27","",""
"html-keyboard-response","89","180584","0.0-11.0-2.26","6110ac49fa97e0c2c87223a2","bdp_rwlrn","Wed Mar 15 2023 23:32:03 GMT-0400 (Eastern Daylight Time)","519850","Untrustworthy,Trustworthy","","null","","","","decisionFB","","<div class='trialDiv'><img src='Fruit/mango.png'><br><font class='baseline'><strong>Mega Mangos</strong><p>Choose number of points to bet.</font><div class='respPicDiv'><img src='img/responseButtonOffersNo0L2.png' class='respPic'></div></div>","null","9","Mega Mangos","Fruit/mango.png","Won","0.35,0.8","10","0.35","104","27","",""
"html-keyboard-response","90","181592","0.0-11.0-3.26","6110ac49fa97e0c2c87223a2","bdp_rwlrn","Wed Mar 15 2023 23:32:03 GMT-0400 (Eastern Daylight Time)","519850","Untrustworthy,Trustworthy","","null","","","","feedback","","<div class='respPicDiv'><img src='img/responseButtonOffersNo0_wht.png' class='respPic'></div><div class='trialDiv'><img src='Fruit/mango.png'><br><font class='baseline'><strong>Mega Mangos</strong><p><strong><font class='posOutcome'>You WON</font><p>You bet: 2</strong></font> &nbsp; &nbsp; &nbsp; &nbsp; &nbsp; &nbsp;<font class='posOutcome'>you receive: <strong>4</strong></font></div>","null","9","Mega Mangos","Fruit/mango.png","Won","0.35,0.8","10","0.35","108","27","",""
"html-keyboard-response","91","188819","0.0-11.0-1.27","6110ac49fa97e0c2c87223a2","bdp_rwlrn","Wed Mar 15 2023 23:32:03 GMT-0400 (Eastern Daylight Time)","519850","Untrustworthy,Trustworthy","","7224","","","","decision","","<div class='trialDiv'><img src='Fruit/cherrie.png'><br><font class='baseline'><strong>Cherry Chances</strong><p>Choose number of points to bet.</font><div class='respPicDiv'><img src='img/responseButtonOffersNo0L.png' class='respPic'></div></div>","3","10","Cherry Chances","Fruit/cherrie.png","Won","0.2,0.8","9","0.2","113","28","",""
"html-keyboard-response","92","189080","0.0-11.0-2.27","6110ac49fa97e0c2c87223a2","bdp_rwlrn","Wed Mar 15 2023 23:32:03 GMT-0400 (Eastern Daylight Time)","519850","Untrustworthy,Trustworthy","","null","","","","decisionFB","","<div class='trialDiv'><img src='Fruit/cherrie.png'><br><font class='baseline'><strong>Cherry Chances</strong><p>Choose number of points to bet.</font><div class='respPicDiv'><img src='img/responseButtonOffersNo0L3.png' class='respPic'></div></div>","null","10","Cherry Chances","Fruit/cherrie.png","Won","0.2,0.8","9","0.2","110","28","",""
"html-keyboard-response","93","190088","0.0-11.0-3.27","6110ac49fa97e0c2c87223a2","bdp_rwlrn","Wed Mar 15 2023 23:32:03 GMT-0400 (Eastern Daylight Time)","519850","Untrustworthy,Trustworthy","","null","","","","feedback","","<div class='respPicDiv'><img src='img/responseButtonOffersNo0_wht.png' class='respPic'></div><div class='trialDiv'><img src='Fruit/cherrie.png'><br><font class='baseline'><strong>Cherry Chances</strong><p><strong><font class='posOutcome'>You WON</font><p>You bet: 3</strong></font> &nbsp; &nbsp; &nbsp; &nbsp; &nbsp; &nbsp;<font class='posOutcome'>you receive: <strong>6</strong></font></div>","null","10","Cherry Chances","Fruit/cherrie.png","Won","0.2,0.8","9","0.2","116","28","",""
"html-keyboard-response","94","191203","0.0-11.0-1.28","6110ac49fa97e0c2c87223a2","bdp_rwlrn","Wed Mar 15 2023 23:32:03 GMT-0400 (Eastern Daylight Time)","519850","Untrustworthy,Trustworthy","","1113","","","","decision","","<div class='trialDiv'><img src='Fruit/mango.png'><br><font class='baseline'><strong>Mega Mangos</strong><p>Choose number of points to bet.</font><div class='respPicDiv'><img src='img/responseButtonOffersNo0L.png' class='respPic'></div></div>","2","10","Mega Mangos","Fruit/mango.png","Won","0.35,0.8","10","0.35","121","29","",""
"html-keyboard-response","95","191464","0.0-11.0-2.28","6110ac49fa97e0c2c87223a2","bdp_rwlrn","Wed Mar 15 2023 23:32:03 GMT-0400 (Eastern Daylight Time)","519850","Untrustworthy,Trustworthy","","null","","","","decisionFB","","<div class='trialDiv'><img src='Fruit/mango.png'><br><font class='baseline'><strong>Mega Mangos</strong><p>Choose number of points to bet.</font><div class='respPicDiv'><img src='img/responseButtonOffersNo0L2.png' class='respPic'></div></div>","null","10","Mega Mangos","Fruit/mango.png","Won","0.35,0.8","10","0.35","119","29","",""
"html-keyboard-response","96","192472","0.0-11.0-3.28","6110ac49fa97e0c2c87223a2","bdp_rwlrn","Wed Mar 15 2023 23:32:03 GMT-0400 (Eastern Daylight Time)","519850","Untrustworthy,Trustworthy","","null","","","","feedback","","<div class='respPicDiv'><img src='img/responseButtonOffersNo0_wht.png' class='respPic'></div><div class='trialDiv'><img src='Fruit/mango.png'><br><font class='baseline'><strong>Mega Mangos</strong><p><strong><font class='posOutcome'>You WON</font><p>You bet: 2</strong></font> &nbsp; &nbsp; &nbsp; &nbsp; &nbsp; &nbsp;<font class='posOutcome'>you receive: <strong>4</strong></font></div>","null","10","Mega Mangos","Fruit/mango.png","Won","0.35,0.8","10","0.35","123","29","",""
"html-keyboard-response","97","193708","0.0-11.0-1.29","6110ac49fa97e0c2c87223a2","bdp_rwlrn","Wed Mar 15 2023 23:32:03 GMT-0400 (Eastern Daylight Time)","519850","Untrustworthy,Trustworthy","","1235","","","","decision","","<div class='trialDiv'><img src='Fruit/papayas.png'><br><font class='baseline'><strong>Papaya Payday</strong><p>Choose number of points to bet.</font><div class='respPicDiv'><img src='img/responseButtonOffersNo0L.png' class='respPic'></div></div>","3","10","Papaya Payday","Fruit/papayas.png","Lost","0.65,0.2","8","0.65","128","30","",""
"html-keyboard-response","98","193965","0.0-11.0-2.29","6110ac49fa97e0c2c87223a2","bdp_rwlrn","Wed Mar 15 2023 23:32:03 GMT-0400 (Eastern Daylight Time)","519850","Untrustworthy,Trustworthy","","null","","","","decisionFB","","<div class='trialDiv'><img src='Fruit/papayas.png'><br><font class='baseline'><strong>Papaya Payday</strong><p>Choose number of points to bet.</font><div class='respPicDiv'><img src='img/responseButtonOffersNo0L3.png' class='respPic'></div></div>","null","10","Papaya Payday","Fruit/papayas.png","Lost","0.65,0.2","8","0.65","125","30","",""
"html-keyboard-response","99","194973","0.0-11.0-3.29","6110ac49fa97e0c2c87223a2","bdp_rwlrn","Wed Mar 15 2023 23:32:03 GMT-0400 (Eastern Daylight Time)","519850","Untrustworthy,Trustworthy","","null","","","","feedback","","<div class='respPicDiv'><img src='img/responseButtonOffersNo0_wht.png' class='respPic'></div><div class='trialDiv'><img src='Fruit/papayas.png'><br><font class='baseline'><strong>Papaya Payday</strong><p><strong><font class='negOutcome'>You LOST</font><p>You bet: 3</strong></font> &nbsp; &nbsp; &nbsp; &nbsp; &nbsp; &nbsp;<font class='negOutcome'>You receive: <strong>0</strong></font></div>","null","10","Papaya Payday","Fruit/papayas.png","Lost","0.65,0.2","8","0.65","125","30","",""
"html-keyboard-response","100","196231","0.0-11.0-1.30","6110ac49fa97e0c2c87223a2","bdp_rwlrn","Wed Mar 15 2023 23:32:03 GMT-0400 (Eastern Daylight Time)","519850","Untrustworthy,Trustworthy","","1257","","","","decision","","<div class='trialDiv'><img src='Fruit/cherrie.png'><br><font class='baseline'><strong>Cherry Chances</strong><p>Choose number of points to bet.</font><div class='respPicDiv'><img src='img/responseButtonOffersNo0L.png' class='respPic'></div></div>","3","11","Cherry Chances","Fruit/cherrie.png","Won","0.2,0.8","9","0.2","130","31","",""
"html-keyboard-response","101","196487","0.0-11.0-2.30","6110ac49fa97e0c2c87223a2","bdp_rwlrn","Wed Mar 15 2023 23:32:03 GMT-0400 (Eastern Daylight Time)","519850","Untrustworthy,Trustworthy","","null","","","","decisionFB","","<div class='trialDiv'><img src='Fruit/cherrie.png'><br><font class='baseline'><strong>Cherry Chances</strong><p>Choose number of points to bet.</font><div class='respPicDiv'><img src='img/responseButtonOffersNo0L3.png' class='respPic'></div></div>","null","11","Cherry Chances","Fruit/cherrie.png","Won","0.2,0.8","9","0.2","127","31","",""
"html-keyboard-response","102","197495","0.0-11.0-3.30","6110ac49fa97e0c2c87223a2","bdp_rwlrn","Wed Mar 15 2023 23:32:03 GMT-0400 (Eastern Daylight Time)","519850","Untrustworthy,Trustworthy","","null","","","","feedback","","<div class='respPicDiv'><img src='img/responseButtonOffersNo0_wht.png' class='respPic'></div><div class='trialDiv'><img src='Fruit/cherrie.png'><br><font class='baseline'><strong>Cherry Chances</strong><p><strong><font class='posOutcome'>You WON</font><p>You bet: 3</strong></font> &nbsp; &nbsp; &nbsp; &nbsp; &nbsp; &nbsp;<font class='posOutcome'>you receive: <strong>6</strong></font></div>","null","11","Cherry Chances","Fruit/cherrie.png","Won","0.2,0.8","9","0.2","133","31","",""
"html-keyboard-response","103","198443","0.0-11.0-1.31","6110ac49fa97e0c2c87223a2","bdp_rwlrn","Wed Mar 15 2023 23:32:03 GMT-0400 (Eastern Daylight Time)","519850","Untrustworthy,Trustworthy","","946","","","","decision","","<div class='trialDiv'><img src='Fruit/papayas.png'><br><font class='baseline'><strong>Papaya Payday</strong><p>Choose number of points to bet.</font><div class='respPicDiv'><img src='img/responseButtonOffersNo0L.png' class='respPic'></div></div>","1","11","Papaya Payday","Fruit/papayas.png","Lost","0.65,0.2","8","0.65","138","32","",""
"html-keyboard-response","104","198701","0.0-11.0-2.31","6110ac49fa97e0c2c87223a2","bdp_rwlrn","Wed Mar 15 2023 23:32:03 GMT-0400 (Eastern Daylight Time)","519850","Untrustworthy,Trustworthy","","null","","","","decisionFB","","<div class='trialDiv'><img src='Fruit/papayas.png'><br><font class='baseline'><strong>Papaya Payday</strong><p>Choose number of points to bet.</font><div class='respPicDiv'><img src='img/responseButtonOffersNo0L1.png' class='respPic'></div></div>","null","11","Papaya Payday","Fruit/papayas.png","Lost","0.65,0.2","8","0.65","137","32","",""
"html-keyboard-response","105","199709","0.0-11.0-3.31","6110ac49fa97e0c2c87223a2","bdp_rwlrn","Wed Mar 15 2023 23:32:03 GMT-0400 (Eastern Daylight Time)","519850","Untrustworthy,Trustworthy","","null","","","","feedback","","<div class='respPicDiv'><img src='img/responseButtonOffersNo0_wht.png' class='respPic'></div><div class='trialDiv'><img src='Fruit/papayas.png'><br><font class='baseline'><strong>Papaya Payday</strong><p><strong><font class='negOutcome'>You LOST</font><p>You bet: 1</strong></font> &nbsp; &nbsp; &nbsp; &nbsp; &nbsp; &nbsp;<font class='negOutcome'>You receive: <strong>0</strong></font></div>","null","11","Papaya Payday","Fruit/papayas.png","Lost","0.65,0.2","8","0.65","137","32","",""
"html-keyboard-response","106","200348","0.0-11.0-1.32","6110ac49fa97e0c2c87223a2","bdp_rwlrn","Wed Mar 15 2023 23:32:03 GMT-0400 (Eastern Daylight Time)","519850","Untrustworthy,Trustworthy","","638","","","","decision","","<div class='trialDiv'><img src='Fruit/mango.png'><br><font class='baseline'><strong>Mega Mangos</strong><p>Choose number of points to bet.</font><div class='respPicDiv'><img src='img/responseButtonOffersNo0L.png' class='respPic'></div></div>","2","11","Mega Mangos","Fruit/mango.png","Won","0.35,0.8","10","0.35","142","33","",""
"html-keyboard-response","107","200605","0.0-11.0-2.32","6110ac49fa97e0c2c87223a2","bdp_rwlrn","Wed Mar 15 2023 23:32:03 GMT-0400 (Eastern Daylight Time)","519850","Untrustworthy,Trustworthy","","null","","","","decisionFB","","<div class='trialDiv'><img src='Fruit/mango.png'><br><font class='baseline'><strong>Mega Mangos</strong><p>Choose number of points to bet.</font><div class='respPicDiv'><img src='img/responseButtonOffersNo0L2.png' class='respPic'></div></div>","null","11","Mega Mangos","Fruit/mango.png","Won","0.35,0.8","10","0.35","140","33","",""
"html-keyboard-response","108","201613","0.0-11.0-3.32","6110ac49fa97e0c2c87223a2","bdp_rwlrn","Wed Mar 15 2023 23:32:03 GMT-0400 (Eastern Daylight Time)","519850","Untrustworthy,Trustworthy","","null","","","","feedback","","<div class='respPicDiv'><img src='img/responseButtonOffersNo0_wht.png' class='respPic'></div><div class='trialDiv'><img src='Fruit/mango.png'><br><font class='baseline'><strong>Mega Mangos</strong><p><strong><font class='posOutcome'>You WON</font><p>You bet: 2</strong></font> &nbsp; &nbsp; &nbsp; &nbsp; &nbsp; &nbsp;<font class='posOutcome'>you receive: <strong>4</strong></font></div>","null","11","Mega Mangos","Fruit/mango.png","Won","0.35,0.8","10","0.35","144","33","",""
"html-keyboard-response","109","202861","0.0-11.0-1.33","6110ac49fa97e0c2c87223a2","bdp_rwlrn","Wed Mar 15 2023 23:32:03 GMT-0400 (Eastern Daylight Time)","519850","Untrustworthy,Trustworthy","","1247","","","","decision","","<div class='trialDiv'><img src='Fruit/papayas.png'><br><font class='baseline'><strong>Papaya Payday</strong><p>Choose number of points to bet.</font><div class='respPicDiv'><img src='img/responseButtonOffersNo0L.png' class='respPic'></div></div>","3","12","Papaya Payday","Fruit/papayas.png","Lost","0.65,0.2","8","0.65","149","34","",""
"html-keyboard-response","110","203117","0.0-11.0-2.33","6110ac49fa97e0c2c87223a2","bdp_rwlrn","Wed Mar 15 2023 23:32:03 GMT-0400 (Eastern Daylight Time)","519850","Untrustworthy,Trustworthy","","null","","","","decisionFB","","<div class='trialDiv'><img src='Fruit/papayas.png'><br><font class='baseline'><strong>Papaya Payday</strong><p>Choose number of points to bet.</font><div class='respPicDiv'><img src='img/responseButtonOffersNo0L3.png' class='respPic'></div></div>","null","12","Papaya Payday","Fruit/papayas.png","Lost","0.65,0.2","8","0.65","146","34","",""
"html-keyboard-response","111","204124","0.0-11.0-3.33","6110ac49fa97e0c2c87223a2","bdp_rwlrn","Wed Mar 15 2023 23:32:03 GMT-0400 (Eastern Daylight Time)","519850","Untrustworthy,Trustworthy","","null","","","","feedback","","<div class='respPicDiv'><img src='img/responseButtonOffersNo0_wht.png' class='respPic'></div><div class='trialDiv'><img src='Fruit/papayas.png'><br><font class='baseline'><strong>Papaya Payday</strong><p><strong><font class='negOutcome'>You LOST</font><p>You bet: 3</strong></font> &nbsp; &nbsp; &nbsp; &nbsp; &nbsp; &nbsp;<font class='negOutcome'>You receive: <strong>0</strong></font></div>","null","12","Papaya Payday","Fruit/papayas.png","Lost","0.65,0.2","8","0.65","146","34","",""
"html-keyboard-response","112","205626","0.0-11.0-1.34","6110ac49fa97e0c2c87223a2","bdp_rwlrn","Wed Mar 15 2023 23:32:03 GMT-0400 (Eastern Daylight Time)","519850","Untrustworthy,Trustworthy","","1500","","","","decision","","<div class='trialDiv'><img src='Fruit/cherrie.png'><br><font class='baseline'><strong>Cherry Chances</strong><p>Choose number of points to bet.</font><div class='respPicDiv'><img src='img/responseButtonOffersNo0L.png' class='respPic'></div></div>","2","12","Cherry Chances","Fruit/cherrie.png","Lost","0.2,0.8","9","0.2","151","35","",""
"html-keyboard-response","113","205884","0.0-11.0-2.34","6110ac49fa97e0c2c87223a2","bdp_rwlrn","Wed Mar 15 2023 23:32:03 GMT-0400 (Eastern Daylight Time)","519850","Untrustworthy,Trustworthy","","null","","","","decisionFB","","<div class='trialDiv'><img src='Fruit/cherrie.png'><br><font class='baseline'><strong>Cherry Chances</strong><p>Choose number of points to bet.</font><div class='respPicDiv'><img src='img/responseButtonOffersNo0L2.png' class='respPic'></div></div>","null","12","Cherry Chances","Fruit/cherrie.png","Lost","0.2,0.8","9","0.2","149","35","",""
"html-keyboard-response","114","206892","0.0-11.0-3.34","6110ac49fa97e0c2c87223a2","bdp_rwlrn","Wed Mar 15 2023 23:32:03 GMT-0400 (Eastern Daylight Time)","519850","Untrustworthy,Trustworthy","","null","","","","feedback","","<div class='respPicDiv'><img src='img/responseButtonOffersNo0_wht.png' class='respPic'></div><div class='trialDiv'><img src='Fruit/cherrie.png'><br><font class='baseline'><strong>Cherry Chances</strong><p><strong><font class='negOutcome'>You LOST</font><p>You bet: 2</strong></font> &nbsp; &nbsp; &nbsp; &nbsp; &nbsp; &nbsp;<font class='negOutcome'>You receive: <strong>0</strong></font></div>","null","12","Cherry Chances","Fruit/cherrie.png","Lost","0.2,0.8","9","0.2","149","35","",""
"html-keyboard-response","115","244808","0.0-11.0-1.35","6110ac49fa97e0c2c87223a2","bdp_rwlrn","Wed Mar 15 2023 23:32:03 GMT-0400 (Eastern Daylight Time)","519850","Untrustworthy,Trustworthy","","37914","","","","decision","","<div class='trialDiv'><img src='Fruit/mango.png'><br><font class='baseline'><strong>Mega Mangos</strong><p>Choose number of points to bet.</font><div class='respPicDiv'><img src='img/responseButtonOffersNo0L.png' class='respPic'></div></div>","2","12","Mega Mangos","Fruit/mango.png","Lost","0.35,0.8","10","0.35","154","36","",""
"html-keyboard-response","116","245066","0.0-11.0-2.35","6110ac49fa97e0c2c87223a2","bdp_rwlrn","Wed Mar 15 2023 23:32:03 GMT-0400 (Eastern Daylight Time)","519850","Untrustworthy,Trustworthy","","null","","","","decisionFB","","<div class='trialDiv'><img src='Fruit/mango.png'><br><font class='baseline'><strong>Mega Mangos</strong><p>Choose number of points to bet.</font><div class='respPicDiv'><img src='img/responseButtonOffersNo0L2.png' class='respPic'></div></div>","null","12","Mega Mangos","Fruit/mango.png","Lost","0.35,0.8","10","0.35","152","36","",""
"html-keyboard-response","117","246075","0.0-11.0-3.35","6110ac49fa97e0c2c87223a2","bdp_rwlrn","Wed Mar 15 2023 23:32:03 GMT-0400 (Eastern Daylight Time)","519850","Untrustworthy,Trustworthy","","null","","","","feedback","","<div class='respPicDiv'><img src='img/responseButtonOffersNo0_wht.png' class='respPic'></div><div class='trialDiv'><img src='Fruit/mango.png'><br><font class='baseline'><strong>Mega Mangos</strong><p><strong><font class='negOutcome'>You LOST</font><p>You bet: 2</strong></font> &nbsp; &nbsp; &nbsp; &nbsp; &nbsp; &nbsp;<font class='negOutcome'>You receive: <strong>0</strong></font></div>","null","12","Mega Mangos","Fruit/mango.png","Lost","0.35,0.8","10","0.35","152","36","",""
"html-keyboard-response","118","249310","0.0-11.0-1.36","6110ac49fa97e0c2c87223a2","bdp_rwlrn","Wed Mar 15 2023 23:32:03 GMT-0400 (Eastern Daylight Time)","519850","Untrustworthy,Trustworthy","","3234","","","","decision","","<div class='trialDiv'><img src='Fruit/cherrie.png'><br><font class='baseline'><strong>Cherry Chances</strong><p>Choose number of points to bet.</font><div class='respPicDiv'><img src='img/responseButtonOffersNo0L.png' class='respPic'></div></div>","3","13","Cherry Chances","Fruit/cherrie.png","Lost","0.2,0.8","9","0.2","157","37","",""
"html-keyboard-response","119","249573","0.0-11.0-2.36","6110ac49fa97e0c2c87223a2","bdp_rwlrn","Wed Mar 15 2023 23:32:03 GMT-0400 (Eastern Daylight Time)","519850","Untrustworthy,Trustworthy","","null","","","","decisionFB","","<div class='trialDiv'><img src='Fruit/cherrie.png'><br><font class='baseline'><strong>Cherry Chances</strong><p>Choose number of points to bet.</font><div class='respPicDiv'><img src='img/responseButtonOffersNo0L3.png' class='respPic'></div></div>","null","13","Cherry Chances","Fruit/cherrie.png","Lost","0.2,0.8","9","0.2","154","37","",""
"html-keyboard-response","120","250581","0.0-11.0-3.36","6110ac49fa97e0c2c87223a2","bdp_rwlrn","Wed Mar 15 2023 23:32:03 GMT-0400 (Eastern Daylight Time)","519850","Untrustworthy,Trustworthy","","null","","","","feedback","","<div class='respPicDiv'><img src='img/responseButtonOffersNo0_wht.png' class='respPic'></div><div class='trialDiv'><img src='Fruit/cherrie.png'><br><font class='baseline'><strong>Cherry Chances</strong><p><strong><font class='negOutcome'>You LOST</font><p>You bet: 3</strong></font> &nbsp; &nbsp; &nbsp; &nbsp; &nbsp; &nbsp;<font class='negOutcome'>You receive: <strong>0</strong></font></div>","null","13","Cherry Chances","Fruit/cherrie.png","Lost","0.2,0.8","9","0.2","154","37","",""
"html-keyboard-response","121","254391","0.0-11.0-1.37","6110ac49fa97e0c2c87223a2","bdp_rwlrn","Wed Mar 15 2023 23:32:03 GMT-0400 (Eastern Daylight Time)","519850","Untrustworthy,Trustworthy","","3809","","","","decision","","<div class='trialDiv'><img src='Fruit/mango.png'><br><font class='baseline'><strong>Mega Mangos</strong><p>Choose number of points to bet.</font><div class='respPicDiv'><img src='img/responseButtonOffersNo0L.png' class='respPic'></div></div>","2","13","Mega Mangos","Fruit/mango.png","Won","0.35,0.8","10","0.35","159","38","",""
"html-keyboard-response","122","254650","0.0-11.0-2.37","6110ac49fa97e0c2c87223a2","bdp_rwlrn","Wed Mar 15 2023 23:32:03 GMT-0400 (Eastern Daylight Time)","519850","Untrustworthy,Trustworthy","","null","","","","decisionFB","","<div class='trialDiv'><img src='Fruit/mango.png'><br><font class='baseline'><strong>Mega Mangos</strong><p>Choose number of points to bet.</font><div class='respPicDiv'><img src='img/responseButtonOffersNo0L2.png' class='respPic'></div></div>","null","13","Mega Mangos","Fruit/mango.png","Won","0.35,0.8","10","0.35","157","38","",""
"html-keyboard-response","123","255660","0.0-11.0-3.37","6110ac49fa97e0c2c87223a2","bdp_rwlrn","Wed Mar 15 2023 23:32:03 GMT-0400 (Eastern Daylight Time)","519850","Untrustworthy,Trustworthy","","null","","","","feedback","","<div class='respPicDiv'><img src='img/responseButtonOffersNo0_wht.png' class='respPic'></div><div class='trialDiv'><img src='Fruit/mango.png'><br><font class='baseline'><strong>Mega Mangos</strong><p><strong><font class='posOutcome'>You WON</font><p>You bet: 2</strong></font> &nbsp; &nbsp; &nbsp; &nbsp; &nbsp; &nbsp;<font class='posOutcome'>you receive: <strong>4</strong></font></div>","null","13","Mega Mangos","Fruit/mango.png","Won","0.35,0.8","10","0.35","161","38","",""
"html-keyboard-response","124","260650","0.0-11.0-1.38","6110ac49fa97e0c2c87223a2","bdp_rwlrn","Wed Mar 15 2023 23:32:03 GMT-0400 (Eastern Daylight Time)","519850","Untrustworthy,Trustworthy","","4988","","","","decision","","<div class='trialDiv'><img src='Fruit/papayas.png'><br><font class='baseline'><strong>Papaya Payday</strong><p>Choose number of points to bet.</font><div class='respPicDiv'><img src='img/responseButtonOffersNo0L.png' class='respPic'></div></div>","2","13","Papaya Payday","Fruit/papayas.png","Lost","0.65,0.2","8","0.65","166","39","",""
"html-keyboard-response","125","260905","0.0-11.0-2.38","6110ac49fa97e0c2c87223a2","bdp_rwlrn","Wed Mar 15 2023 23:32:03 GMT-0400 (Eastern Daylight Time)","519850","Untrustworthy,Trustworthy","","null","","","","decisionFB","","<div class='trialDiv'><img src='Fruit/papayas.png'><br><font class='baseline'><strong>Papaya Payday</strong><p>Choose number of points to bet.</font><div class='respPicDiv'><img src='img/responseButtonOffersNo0L2.png' class='respPic'></div></div>","null","13","Papaya Payday","Fruit/papayas.png","Lost","0.65,0.2","8","0.65","164","39","",""
"html-keyboard-response","126","261913","0.0-11.0-3.38","6110ac49fa97e0c2c87223a2","bdp_rwlrn","Wed Mar 15 2023 23:32:03 GMT-0400 (Eastern Daylight Time)","519850","Untrustworthy,Trustworthy","","null","","","","feedback","","<div class='respPicDiv'><img src='img/responseButtonOffersNo0_wht.png' class='respPic'></div><div class='trialDiv'><img src='Fruit/papayas.png'><br><font class='baseline'><strong>Papaya Payday</strong><p><strong><font class='negOutcome'>You LOST</font><p>You bet: 2</strong></font> &nbsp; &nbsp; &nbsp; &nbsp; &nbsp; &nbsp;<font class='negOutcome'>You receive: <strong>0</strong></font></div>","null","13","Papaya Payday","Fruit/papayas.png","Lost","0.65,0.2","8","0.65","164","39","",""
"html-keyboard-response","127","262968","0.0-11.0-1.39","6110ac49fa97e0c2c87223a2","bdp_rwlrn","Wed Mar 15 2023 23:32:03 GMT-0400 (Eastern Daylight Time)","519850","Untrustworthy,Trustworthy","","1052","","","","decision","","<div class='trialDiv'><img src='Fruit/cherrie.png'><br><font class='baseline'><strong>Cherry Chances</strong><p>Choose number of points to bet.</font><div class='respPicDiv'><img src='img/responseButtonOffersNo0L.png' class='respPic'></div></div>","3","14","Cherry Chances","Fruit/cherrie.png","Won","0.2,0.8","9","0.2","169","40","",""
"html-keyboard-response","128","263226","0.0-11.0-2.39","6110ac49fa97e0c2c87223a2","bdp_rwlrn","Wed Mar 15 2023 23:32:03 GMT-0400 (Eastern Daylight Time)","519850","Untrustworthy,Trustworthy","","null","","","","decisionFB","","<div class='trialDiv'><img src='Fruit/cherrie.png'><br><font class='baseline'><strong>Cherry Chances</strong><p>Choose number of points to bet.</font><div class='respPicDiv'><img src='img/responseButtonOffersNo0L3.png' class='respPic'></div></div>","null","14","Cherry Chances","Fruit/cherrie.png","Won","0.2,0.8","9","0.2","166","40","",""
"html-keyboard-response","129","264233","0.0-11.0-3.39","6110ac49fa97e0c2c87223a2","bdp_rwlrn","Wed Mar 15 2023 23:32:03 GMT-0400 (Eastern Daylight Time)","519850","Untrustworthy,Trustworthy","","null","","","","feedback","","<div class='respPicDiv'><img src='img/responseButtonOffersNo0_wht.png' class='respPic'></div><div class='trialDiv'><img src='Fruit/cherrie.png'><br><font class='baseline'><strong>Cherry Chances</strong><p><strong><font class='posOutcome'>You WON</font><p>You bet: 3</strong></font> &nbsp; &nbsp; &nbsp; &nbsp; &nbsp; &nbsp;<font class='posOutcome'>you receive: <strong>6</strong></font></div>","null","14","Cherry Chances","Fruit/cherrie.png","Won","0.2,0.8","9","0.2","172","40","",""
"html-keyboard-response","130","266549","0.0-11.0-1.40","6110ac49fa97e0c2c87223a2","bdp_rwlrn","Wed Mar 15 2023 23:32:03 GMT-0400 (Eastern Daylight Time)","519850","Untrustworthy,Trustworthy","","2314","","","","decision","","<div class='trialDiv'><img src='Fruit/mango.png'><br><font class='baseline'><strong>Mega Mangos</strong><p>Choose number of points to bet.</font><div class='respPicDiv'><img src='img/responseButtonOffersNo0L.png' class='respPic'></div></div>","2","14","Mega Mangos","Fruit/mango.png","Won","0.35,0.8","10","0.35","177","41","",""
"html-keyboard-response","131","266804","0.0-11.0-2.40","6110ac49fa97e0c2c87223a2","bdp_rwlrn","Wed Mar 15 2023 23:32:03 GMT-0400 (Eastern Daylight Time)","519850","Untrustworthy,Trustworthy","","null","","","","decisionFB","","<div class='trialDiv'><img src='Fruit/mango.png'><br><font class='baseline'><strong>Mega Mangos</strong><p>Choose number of points to bet.</font><div class='respPicDiv'><img src='img/responseButtonOffersNo0L2.png' class='respPic'></div></div>","null","14","Mega Mangos","Fruit/mango.png","Won","0.35,0.8","10","0.35","175","41","",""
"html-keyboard-response","132","267812","0.0-11.0-3.40","6110ac49fa97e0c2c87223a2","bdp_rwlrn","Wed Mar 15 2023 23:32:03 GMT-0400 (Eastern Daylight Time)","519850","Untrustworthy,Trustworthy","","null","","","","feedback","","<div class='respPicDiv'><img src='img/responseButtonOffersNo0_wht.png' class='respPic'></div><div class='trialDiv'><img src='Fruit/mango.png'><br><font class='baseline'><strong>Mega Mangos</strong><p><strong><font class='posOutcome'>You WON</font><p>You bet: 2</strong></font> &nbsp; &nbsp; &nbsp; &nbsp; &nbsp; &nbsp;<font class='posOutcome'>you receive: <strong>4</strong></font></div>","null","14","Mega Mangos","Fruit/mango.png","Won","0.35,0.8","10","0.35","179","41","",""
"html-keyboard-response","133","269536","0.0-11.0-1.41","6110ac49fa97e0c2c87223a2","bdp_rwlrn","Wed Mar 15 2023 23:32:03 GMT-0400 (Eastern Daylight Time)","519850","Untrustworthy,Trustworthy","","1722","","","","decision","","<div class='trialDiv'><img src='Fruit/papayas.png'><br><font class='baseline'><strong>Papaya Payday</strong><p>Choose number of points to bet.</font><div class='respPicDiv'><img src='img/responseButtonOffersNo0L.png' class='respPic'></div></div>","3","14","Papaya Payday","Fruit/papayas.png","Won","0.65,0.2","8","0.65","184","42","",""
"html-keyboard-response","134","269796","0.0-11.0-2.41","6110ac49fa97e0c2c87223a2","bdp_rwlrn","Wed Mar 15 2023 23:32:03 GMT-0400 (Eastern Daylight Time)","519850","Untrustworthy,Trustworthy","","null","","","","decisionFB","","<div class='trialDiv'><img src='Fruit/papayas.png'><br><font class='baseline'><strong>Papaya Payday</strong><p>Choose number of points to bet.</font><div class='respPicDiv'><img src='img/responseButtonOffersNo0L3.png' class='respPic'></div></div>","null","14","Papaya Payday","Fruit/papayas.png","Won","0.65,0.2","8","0.65","181","42","",""
"html-keyboard-response","135","270804","0.0-11.0-3.41","6110ac49fa97e0c2c87223a2","bdp_rwlrn","Wed Mar 15 2023 23:32:03 GMT-0400 (Eastern Daylight Time)","519850","Untrustworthy,Trustworthy","","null","","","","feedback","","<div class='respPicDiv'><img src='img/responseButtonOffersNo0_wht.png' class='respPic'></div><div class='trialDiv'><img src='Fruit/papayas.png'><br><font class='baseline'><strong>Papaya Payday</strong><p><strong><font class='posOutcome'>You WON</font><p>You bet: 3</strong></font> &nbsp; &nbsp; &nbsp; &nbsp; &nbsp; &nbsp;<font class='posOutcome'>you receive: <strong>6</strong></font></div>","null","14","Papaya Payday","Fruit/papayas.png","Won","0.65,0.2","8","0.65","187","42","",""
"html-keyboard-response","136","272644","0.0-11.0-1.42","6110ac49fa97e0c2c87223a2","bdp_rwlrn","Wed Mar 15 2023 23:32:03 GMT-0400 (Eastern Daylight Time)","519850","Untrustworthy,Trustworthy","","1838","","","","decision","","<div class='trialDiv'><img src='Fruit/mango.png'><br><font class='baseline'><strong>Mega Mangos</strong><p>Choose number of points to bet.</font><div class='respPicDiv'><img src='img/responseButtonOffersNo0L.png' class='respPic'></div></div>","4","15","Mega Mangos","Fruit/mango.png","Won","0.35,0.8","10","0.35","192","43","",""
"html-keyboard-response","137","272899","0.0-11.0-2.42","6110ac49fa97e0c2c87223a2","bdp_rwlrn","Wed Mar 15 2023 23:32:03 GMT-0400 (Eastern Daylight Time)","519850","Untrustworthy,Trustworthy","","null","","","","decisionFB","","<div class='trialDiv'><img src='Fruit/mango.png'><br><font class='baseline'><strong>Mega Mangos</strong><p>Choose number of points to bet.</font><div class='respPicDiv'><img src='img/responseButtonOffersNo0L4.png' class='respPic'></div></div>","null","15","Mega Mangos","Fruit/mango.png","Won","0.35,0.8","10","0.35","188","43","",""
"html-keyboard-response","138","273908","0.0-11.0-3.42","6110ac49fa97e0c2c87223a2","bdp_rwlrn","Wed Mar 15 2023 23:32:03 GMT-0400 (Eastern Daylight Time)","519850","Untrustworthy,Trustworthy","","null","","","","feedback","","<div class='respPicDiv'><img src='img/responseButtonOffersNo0_wht.png' class='respPic'></div><div class='trialDiv'><img src='Fruit/mango.png'><br><font class='baseline'><strong>Mega Mangos</strong><p><strong><font class='posOutcome'>You WON</font><p>You bet: 4</strong></font> &nbsp; &nbsp; &nbsp; &nbsp; &nbsp; &nbsp;<font class='posOutcome'>you receive: <strong>8</strong></font></div>","null","15","Mega Mangos","Fruit/mango.png","Won","0.35,0.8","10","0.35","196","43","",""
"html-keyboard-response","139","274795","0.0-11.0-1.43","6110ac49fa97e0c2c87223a2","bdp_rwlrn","Wed Mar 15 2023 23:32:03 GMT-0400 (Eastern Daylight Time)","519850","Untrustworthy,Trustworthy","","885","","","","decision","","<div class='trialDiv'><img src='Fruit/cherrie.png'><br><font class='baseline'><strong>Cherry Chances</strong><p>Choose number of points to bet.</font><div class='respPicDiv'><img src='img/responseButtonOffersNo0L.png' class='respPic'></div></div>","3","15","Cherry Chances","Fruit/cherrie.png","Won","0.2,0.8","9","0.2","201","44","",""
"html-keyboard-response","140","275051","0.0-11.0-2.43","6110ac49fa97e0c2c87223a2","bdp_rwlrn","Wed Mar 15 2023 23:32:03 GMT-0400 (Eastern Daylight Time)","519850","Untrustworthy,Trustworthy","","null","","","","decisionFB","","<div class='trialDiv'><img src='Fruit/cherrie.png'><br><font class='baseline'><strong>Cherry Chances</strong><p>Choose number of points to bet.</font><div class='respPicDiv'><img src='img/responseButtonOffersNo0L3.png' class='respPic'></div></div>","null","15","Cherry Chances","Fruit/cherrie.png","Won","0.2,0.8","9","0.2","198","44","",""
"html-keyboard-response","141","276057","0.0-11.0-3.43","6110ac49fa97e0c2c87223a2","bdp_rwlrn","Wed Mar 15 2023 23:32:03 GMT-0400 (Eastern Daylight Time)","519850","Untrustworthy,Trustworthy","","null","","","","feedback","","<div class='respPicDiv'><img src='img/responseButtonOffersNo0_wht.png' class='respPic'></div><div class='trialDiv'><img src='Fruit/cherrie.png'><br><font class='baseline'><strong>Cherry Chances</strong><p><strong><font class='posOutcome'>You WON</font><p>You bet: 3</strong></font> &nbsp; &nbsp; &nbsp; &nbsp; &nbsp; &nbsp;<font class='posOutcome'>you receive: <strong>6</strong></font></div>","null","15","Cherry Chances","Fruit/cherrie.png","Won","0.2,0.8","9","0.2","204","44","",""
"html-keyboard-response","142","276971","0.0-11.0-1.44","6110ac49fa97e0c2c87223a2","bdp_rwlrn","Wed Mar 15 2023 23:32:03 GMT-0400 (Eastern Daylight Time)","519850","Untrustworthy,Trustworthy","","913","","","","decision","","<div class='trialDiv'><img src='Fruit/papayas.png'><br><font class='baseline'><strong>Papaya Payday</strong><p>Choose number of points to bet.</font><div class='respPicDiv'><img src='img/responseButtonOffersNo0L.png' class='respPic'></div></div>","1","15","Papaya Payday","Fruit/papayas.png","Won","0.65,0.2","8","0.65","209","45","",""
"html-keyboard-response","143","277225","0.0-11.0-2.44","6110ac49fa97e0c2c87223a2","bdp_rwlrn","Wed Mar 15 2023 23:32:03 GMT-0400 (Eastern Daylight Time)","519850","Untrustworthy,Trustworthy","","null","","","","decisionFB","","<div class='trialDiv'><img src='Fruit/papayas.png'><br><font class='baseline'><strong>Papaya Payday</strong><p>Choose number of points to bet.</font><div class='respPicDiv'><img src='img/responseButtonOffersNo0L1.png' class='respPic'></div></div>","null","15","Papaya Payday","Fruit/papayas.png","Won","0.65,0.2","8","0.65","208","45","",""
"html-keyboard-response","144","278233","0.0-11.0-3.44","6110ac49fa97e0c2c87223a2","bdp_rwlrn","Wed Mar 15 2023 23:32:03 GMT-0400 (Eastern Daylight Time)","519850","Untrustworthy,Trustworthy","","null","","","","feedback","","<div class='respPicDiv'><img src='img/responseButtonOffersNo0_wht.png' class='respPic'></div><div class='trialDiv'><img src='Fruit/papayas.png'><br><font class='baseline'><strong>Papaya Payday</strong><p><strong><font class='posOutcome'>You WON</font><p>You bet: 1</strong></font> &nbsp; &nbsp; &nbsp; &nbsp; &nbsp; &nbsp;<font class='posOutcome'>you receive: <strong>2</strong></font></div>","null","15","Papaya Payday","Fruit/papayas.png","Won","0.65,0.2","8","0.65","210","45","",""
"html-keyboard-response","145","278897","0.0-11.0-1.45","6110ac49fa97e0c2c87223a2","bdp_rwlrn","Wed Mar 15 2023 23:32:03 GMT-0400 (Eastern Daylight Time)","519850","Untrustworthy,Trustworthy","","662","","","","decision","","<div class='trialDiv'><img src='Fruit/mango.png'><br><font class='baseline'><strong>Mega Mangos</strong><p>Choose number of points to bet.</font><div class='respPicDiv'><img src='img/responseButtonOffersNo0L.png' class='respPic'></div></div>","2","16","Mega Mangos","Fruit/mango.png","Won","0.35,0.8","10","0.35","215","46","",""
"html-keyboard-response","146","279156","0.0-11.0-2.45","6110ac49fa97e0c2c87223a2","bdp_rwlrn","Wed Mar 15 2023 23:32:03 GMT-0400 (Eastern Daylight Time)","519850","Untrustworthy,Trustworthy","","null","","","","decisionFB","","<div class='trialDiv'><img src='Fruit/mango.png'><br><font class='baseline'><strong>Mega Mangos</strong><p>Choose number of points to bet.</font><div class='respPicDiv'><img src='img/responseButtonOffersNo0L2.png' class='respPic'></div></div>","null","16","Mega Mangos","Fruit/mango.png","Won","0.35,0.8","10","0.35","213","46","",""
"html-keyboard-response","147","280164","0.0-11.0-3.45","6110ac49fa97e0c2c87223a2","bdp_rwlrn","Wed Mar 15 2023 23:32:03 GMT-0400 (Eastern Daylight Time)","519850","Untrustworthy,Trustworthy","","null","","","","feedback","","<div class='respPicDiv'><img src='img/responseButtonOffersNo0_wht.png' class='respPic'></div><div class='trialDiv'><img src='Fruit/mango.png'><br><font class='baseline'><strong>Mega Mangos</strong><p><strong><font class='posOutcome'>You WON</font><p>You bet: 2</strong></font> &nbsp; &nbsp; &nbsp; &nbsp; &nbsp; &nbsp;<font class='posOutcome'>you receive: <strong>4</strong></font></div>","null","16","Mega Mangos","Fruit/mango.png","Won","0.35,0.8","10","0.35","217","46","",""
"html-keyboard-response","148","281128","0.0-11.0-1.46","6110ac49fa97e0c2c87223a2","bdp_rwlrn","Wed Mar 15 2023 23:32:03 GMT-0400 (Eastern Daylight Time)","519850","Untrustworthy,Trustworthy","","963","","","","decision","","<div class='trialDiv'><img src='Fruit/cherrie.png'><br><font class='baseline'><strong>Cherry Chances</strong><p>Choose number of points to bet.</font><div class='respPicDiv'><img src='img/responseButtonOffersNo0L.png' class='respPic'></div></div>","3","16","Cherry Chances","Fruit/cherrie.png","Won","0.2,0.8","9","0.2","222","47","",""
"html-keyboard-response","149","281385","0.0-11.0-2.46","6110ac49fa97e0c2c87223a2","bdp_rwlrn","Wed Mar 15 2023 23:32:03 GMT-0400 (Eastern Daylight Time)","519850","Untrustworthy,Trustworthy","","null","","","","decisionFB","","<div class='trialDiv'><img src='Fruit/cherrie.png'><br><font class='baseline'><strong>Cherry Chances</strong><p>Choose number of points to bet.</font><div class='respPicDiv'><img src='img/responseButtonOffersNo0L3.png' class='respPic'></div></div>","null","16","Cherry Chances","Fruit/cherrie.png","Won","0.2,0.8","9","0.2","219","47","",""
"html-keyboard-response","150","282393","0.0-11.0-3.46","6110ac49fa97e0c2c87223a2","bdp_rwlrn","Wed Mar 15 2023 23:32:03 GMT-0400 (Eastern Daylight Time)","519850","Untrustworthy,Trustworthy","","null","","","","feedback","","<div class='respPicDiv'><img src='img/responseButtonOffersNo0_wht.png' class='respPic'></div><div class='trialDiv'><img src='Fruit/cherrie.png'><br><font class='baseline'><strong>Cherry Chances</strong><p><strong><font class='posOutcome'>You WON</font><p>You bet: 3</strong></font> &nbsp; &nbsp; &nbsp; &nbsp; &nbsp; &nbsp;<font class='posOutcome'>you receive: <strong>6</strong></font></div>","null","16","Cherry Chances","Fruit/cherrie.png","Won","0.2,0.8","9","0.2","225","47","",""
"html-keyboard-response","151","283320","0.0-11.0-1.47","6110ac49fa97e0c2c87223a2","bdp_rwlrn","Wed Mar 15 2023 23:32:03 GMT-0400 (Eastern Daylight Time)","519850","Untrustworthy,Trustworthy","","925","","","","decision","","<div class='trialDiv'><img src='Fruit/papayas.png'><br><font class='baseline'><strong>Papaya Payday</strong><p>Choose number of points to bet.</font><div class='respPicDiv'><img src='img/responseButtonOffersNo0L.png' class='respPic'></div></div>","1","16","Papaya Payday","Fruit/papayas.png","Lost","0.65,0.2","8","0.65","230","48","",""
"html-keyboard-response","152","283577","0.0-11.0-2.47","6110ac49fa97e0c2c87223a2","bdp_rwlrn","Wed Mar 15 2023 23:32:03 GMT-0400 (Eastern Daylight Time)","519850","Untrustworthy,Trustworthy","","null","","","","decisionFB","","<div class='trialDiv'><img src='Fruit/papayas.png'><br><font class='baseline'><strong>Papaya Payday</strong><p>Choose number of points to bet.</font><div class='respPicDiv'><img src='img/responseButtonOffersNo0L1.png' class='respPic'></div></div>","null","16","Papaya Payday","Fruit/papayas.png","Lost","0.65,0.2","8","0.65","229","48","",""
"html-keyboard-response","153","284588","0.0-11.0-3.47","6110ac49fa97e0c2c87223a2","bdp_rwlrn","Wed Mar 15 2023 23:32:03 GMT-0400 (Eastern Daylight Time)","519850","Untrustworthy,Trustworthy","","null","","","","feedback","","<div class='respPicDiv'><img src='img/responseButtonOffersNo0_wht.png' class='respPic'></div><div class='trialDiv'><img src='Fruit/papayas.png'><br><font class='baseline'><strong>Papaya Payday</strong><p><strong><font class='negOutcome'>You LOST</font><p>You bet: 1</strong></font> &nbsp; &nbsp; &nbsp; &nbsp; &nbsp; &nbsp;<font class='negOutcome'>You receive: <strong>0</strong></font></div>","null","16","Papaya Payday","Fruit/papayas.png","Lost","0.65,0.2","8","0.65","229","48","",""
"html-keyboard-response","154","286212","0.0-11.0-1.48","6110ac49fa97e0c2c87223a2","bdp_rwlrn","Wed Mar 15 2023 23:32:03 GMT-0400 (Eastern Daylight Time)","519850","Untrustworthy,Trustworthy","","1622","","","","decision","","<div class='trialDiv'><img src='Fruit/cherrie.png'><br><font class='baseline'><strong>Cherry Chances</strong><p>Choose number of points to bet.</font><div class='respPicDiv'><img src='img/responseButtonOffersNo0L.png' class='respPic'></div></div>","2","17","Cherry Chances","Fruit/cherrie.png","Won","0.2,0.8","9","0.2","234","49","",""
"html-keyboard-response","155","286474","0.0-11.0-2.48","6110ac49fa97e0c2c87223a2","bdp_rwlrn","Wed Mar 15 2023 23:32:03 GMT-0400 (Eastern Daylight Time)","519850","Untrustworthy,Trustworthy","","null","","","","decisionFB","","<div class='trialDiv'><img src='Fruit/cherrie.png'><br><font class='baseline'><strong>Cherry Chances</strong><p>Choose number of points to bet.</font><div class='respPicDiv'><img src='img/responseButtonOffersNo0L2.png' class='respPic'></div></div>","null","17","Cherry Chances","Fruit/cherrie.png","Won","0.2,0.8","9","0.2","232","49","",""
"html-keyboard-response","156","287481","0.0-11.0-3.48","6110ac49fa97e0c2c87223a2","bdp_rwlrn","Wed Mar 15 2023 23:32:03 GMT-0400 (Eastern Daylight Time)","519850","Untrustworthy,Trustworthy","","null","","","","feedback","","<div class='respPicDiv'><img src='img/responseButtonOffersNo0_wht.png' class='respPic'></div><div class='trialDiv'><img src='Fruit/cherrie.png'><br><font class='baseline'><strong>Cherry Chances</strong><p><strong><font class='posOutcome'>You WON</font><p>You bet: 2</strong></font> &nbsp; &nbsp; &nbsp; &nbsp; &nbsp; &nbsp;<font class='posOutcome'>you receive: <strong>4</strong></font></div>","null","17","Cherry Chances","Fruit/cherrie.png","Won","0.2,0.8","9","0.2","236","49","",""
"html-keyboard-response","157","288133","0.0-11.0-1.49","6110ac49fa97e0c2c87223a2","bdp_rwlrn","Wed Mar 15 2023 23:32:03 GMT-0400 (Eastern Daylight Time)","519850","Untrustworthy,Trustworthy","","650","","","","decision","","<div class='trialDiv'><img src='Fruit/mango.png'><br><font class='baseline'><strong>Mega Mangos</strong><p>Choose number of points to bet.</font><div class='respPicDiv'><img src='img/responseButtonOffersNo0L.png' class='respPic'></div></div>","3","17","Mega Mangos","Fruit/mango.png","Won","0.35,0.8","10","0.35","241","50","",""
"html-keyboard-response","158","288396","0.0-11.0-2.49","6110ac49fa97e0c2c87223a2","bdp_rwlrn","Wed Mar 15 2023 23:32:03 GMT-0400 (Eastern Daylight Time)","519850","Untrustworthy,Trustworthy","","null","","","","decisionFB","","<div class='trialDiv'><img src='Fruit/mango.png'><br><font class='baseline'><strong>Mega Mangos</strong><p>Choose number of points to bet.</font><div class='respPicDiv'><img src='img/responseButtonOffersNo0L3.png' class='respPic'></div></div>","null","17","Mega Mangos","Fruit/mango.png","Won","0.35,0.8","10","0.35","238","50","",""
"html-keyboard-response","159","289401","0.0-11.0-3.49","6110ac49fa97e0c2c87223a2","bdp_rwlrn","Wed Mar 15 2023 23:32:03 GMT-0400 (Eastern Daylight Time)","519850","Untrustworthy,Trustworthy","","null","","","","feedback","","<div class='respPicDiv'><img src='img/responseButtonOffersNo0_wht.png' class='respPic'></div><div class='trialDiv'><img src='Fruit/mango.png'><br><font class='baseline'><strong>Mega Mangos</strong><p><strong><font class='posOutcome'>You WON</font><p>You bet: 3</strong></font> &nbsp; &nbsp; &nbsp; &nbsp; &nbsp; &nbsp;<font class='posOutcome'>you receive: <strong>6</strong></font></div>","null","17","Mega Mangos","Fruit/mango.png","Won","0.35,0.8","10","0.35","244","50","",""
"html-keyboard-response","160","290062","0.0-11.0-1.50","6110ac49fa97e0c2c87223a2","bdp_rwlrn","Wed Mar 15 2023 23:32:03 GMT-0400 (Eastern Daylight Time)","519850","Untrustworthy,Trustworthy","","659","","","","decision","","<div class='trialDiv'><img src='Fruit/papayas.png'><br><font class='baseline'><strong>Papaya Payday</strong><p>Choose number of points to bet.</font><div class='respPicDiv'><img src='img/responseButtonOffersNo0L.png' class='respPic'></div></div>","4","17","Papaya Payday","Fruit/papayas.png","Lost","0.65,0.2","8","0.65","249","51","",""
"html-keyboard-response","161","290323","0.0-11.0-2.50","6110ac49fa97e0c2c87223a2","bdp_rwlrn","Wed Mar 15 2023 23:32:03 GMT-0400 (Eastern Daylight Time)","519850","Untrustworthy,Trustworthy","","null","","","","decisionFB","","<div class='trialDiv'><img src='Fruit/papayas.png'><br><font class='baseline'><strong>Papaya Payday</strong><p>Choose number of points to bet.</font><div class='respPicDiv'><img src='img/responseButtonOffersNo0L4.png' class='respPic'></div></div>","null","17","Papaya Payday","Fruit/papayas.png","Lost","0.65,0.2","8","0.65","245","51","",""
"html-keyboard-response","162","291331","0.0-11.0-3.50","6110ac49fa97e0c2c87223a2","bdp_rwlrn","Wed Mar 15 2023 23:32:03 GMT-0400 (Eastern Daylight Time)","519850","Untrustworthy,Trustworthy","","null","","","","feedback","","<div class='respPicDiv'><img src='img/responseButtonOffersNo0_wht.png' class='respPic'></div><div class='trialDiv'><img src='Fruit/papayas.png'><br><font class='baseline'><strong>Papaya Payday</strong><p><strong><font class='negOutcome'>You LOST</font><p>You bet: 4</strong></font> &nbsp; &nbsp; &nbsp; &nbsp; &nbsp; &nbsp;<font class='negOutcome'>You receive: <strong>0</strong></font></div>","null","17","Papaya Payday","Fruit/papayas.png","Lost","0.65,0.2","8","0.65","245","51","",""
"html-keyboard-response","163","291605","0.0-11.0-1.51","6110ac49fa97e0c2c87223a2","bdp_rwlrn","Wed Mar 15 2023 23:32:03 GMT-0400 (Eastern Daylight Time)","519850","Untrustworthy,Trustworthy","","271","","","","decision","","<div class='trialDiv'><img src='Fruit/cherrie.png'><br><font class='baseline'><strong>Cherry Chances</strong><p>Choose number of points to bet.</font><div class='respPicDiv'><img src='img/responseButtonOffersNo0L.png' class='respPic'></div></div>","2","18","Cherry Chances","Fruit/cherrie.png","Won","0.2,0.8","9","0.2","250","52","",""
