"trial_type","trial_index","time_elapsed","internal_node_id","subject_id","task","startTime","totalTime","labels","view_history","rt","event","trial","time","trialtype","success","stimulus","key_press","ltround","name","fileID","outcome","lottotype","lottoswpt","lottocurrpshare","point_total","round","faceID","face"
"pavlovia","0","9","0.0-0.0","63153455849b153d56dd81db","bdp_rwlrn","Tue Mar 14 2023 16:16:28 GMT-0700 (Pacific Daylight Time)","793491","Trustworthy,Untrustworthy","","","","","","","","","","","","","","","","","","","",""
"instructions","1","84631","0.0-1.0","63153455849b153d56dd81db","bdp_rwlrn","Tue Mar 14 2023 16:16:28 GMT-0700 (Pacific Daylight Time)","793491","Trustworthy,Untrustworthy","[{""page_index"":0,""viewing_time"":84620}]","84621","","","","","","","","","","","","","","","","","",""
"","","","","63153455849b153d56dd81db","bdp_rwlrn","Tue Mar 14 2023 16:16:28 GMT-0700 (Pacific Daylight Time)","793491","Trustworthy,Untrustworthy","","","fullscreenenter","2","87841","fullscreenenter","","","","","","","","","","","","","",""
"fullscreen","2","88821","0.0-2.0","63153455849b153d56dd81db","bdp_rwlrn","Tue Mar 14 2023 16:16:28 GMT-0700 (Pacific Daylight Time)","793491","Trustworthy,Untrustworthy","","","","","","","true","","","","","","","","","","","","",""
"instructions","3","252932","0.0-4.0","63153455849b153d56dd81db","bdp_rwlrn","Tue Mar 14 2023 16:16:28 GMT-0700 (Pacific Daylight Time)","793491","Trustworthy,Untrustworthy","[{""page_index"":0,""viewing_time"":15023},{""page_index"":1,""viewing_time"":29811},{""page_index"":2,""viewing_time"":49360},{""page_index"":3,""viewing_time"":12370},{""page_index"":4,""viewing_time"":45257},{""page_index"":5,""viewing_time"":12271}]","164093","","","","","","","","","","","","","","","","","",""
"html-keyboard-response","4","257820","0.0-5.0","63153455849b153d56dd81db","bdp_rwlrn","Tue Mar 14 2023 16:16:28 GMT-0700 (Pacific Daylight Time)","793491","Trustworthy,Untrustworthy","","4884","","","","","","<div class='header' style='text-align:left; position: absolute; top: 5%; left: 5%;'><small>Task 1 of 5</small></div><div class='instruxDiv'><p><strong>1) What is the maximum number of points you can choose to bet on a lottery?</strong></p><p>a) 0</p><p>b) 1</p><p>c) 5</p>","C","","","","","","","","","","",""
"html-keyboard-response","5","266546","0.0-6.0","63153455849b153d56dd81db","bdp_rwlrn","Tue Mar 14 2023 16:16:28 GMT-0700 (Pacific Daylight Time)","793491","Trustworthy,Untrustworthy","","8609","","","","","","<div class='header' style='text-align:left; position: absolute; top: 5%; left: 5%;'><small>Task 1 of 5</small></div><div class='instruxDiv'><p><strong>1) What is the maximum number of points you can choose to bet on a lottery?</strong></p><p>a) 1</p><p>b) 1</p><p style='color:#00FF00'>c) 5</p><h3 style='color:#00FF00'>Correct!</h3><h3 class='center-content'>The correct response is c).</h3><h3 class='center-content'>The maximum number of points you can choose to bet on a lottery is 5 points.</h3><p><em>Press SPACEBAR to continue</em></p></div>"," ","","","","","","","","","","",""
"html-keyboard-response","6","271244","0.0-7.0","63153455849b153d56dd81db","bdp_rwlrn","Tue Mar 14 2023 16:16:28 GMT-0700 (Pacific Daylight Time)","793491","Trustworthy,Untrustworthy","","4580","","","","","","<div class='header' style='text-align:left; position: absolute; top: 5%; left: 5%;'><small>Task 1 of 5</small></div><div class='instruxDiv'><p><strong>2) How many points can you win each round?</strong></p><p>a) 10 points</p><p>b) Double what you bet</p><p>c) Quadruple what you bet</p>","B","","","","","","","","","","",""
"html-keyboard-response","7","273498","0.0-8.0","63153455849b153d56dd81db","bdp_rwlrn","Tue Mar 14 2023 16:16:28 GMT-0700 (Pacific Daylight Time)","793491","Trustworthy,Untrustworthy","","2138","","","","","","<div class='header' style='text-align:left; position: absolute; top: 5%; left: 5%;'><small>Task 1 of 5</small></div><div class='instruxDiv'><p><strong>2) How many points can you win each round?</strong></p><p>a) 10 points</p><p style='color:#00FF00'>b) Double what you bet</p><p>c) Quadruple what you bet</p><h3 style='color:#00FF00'>Correct!</h3><h3 class='center-content'>The correct response is b).</h3><h3 class='center-content'>You can win double the amount of points you bet.</h3><p><em>Press SPACEBAR to continue</em></p></div>"," ","","","","","","","","","","",""
"html-keyboard-response","8","278619","0.0-9.0","63153455849b153d56dd81db","bdp_rwlrn","Tue Mar 14 2023 16:16:28 GMT-0700 (Pacific Daylight Time)","793491","Trustworthy,Untrustworthy","","null","","","","","","<div class='header' style='text-align:left; position: absolute; top: 5%; left: 5%;'><small>Task 1 of 5</small></div><div class='instruxDiv'><p>Thank you for completing the quiz<p>These are the actual lotteries you will be playing in the next block:<p><div class='tc' align='center'><img class='introPic' src='Fruit/lemon.png'><br><strong>Lucky Lemons</strong></div><div class='bl' align='center'><img class='introPic' src='Fruit/bananas.png'><br><strong>Banana Bonanza</strong></div><div class='br' align='center'><img class='introPic' src='Fruit/grapes.png'><br><strong>Great Grapes</strong></div></div><p>Across <strong>66 rounds</strong> you will play each lottery <strong>22 times</strong> (in random order).<p style='align:center; color:white'><font <em>Press SPACEBAR to continue</em></p>","null","","","","","","","","","","",""
"instructions","9","288826","0.0-10.0","63153455849b153d56dd81db","bdp_rwlrn","Tue Mar 14 2023 16:16:28 GMT-0700 (Pacific Daylight Time)","793491","Trustworthy,Untrustworthy","[{""page_index"":0,""viewing_time"":6077},{""page_index"":1,""viewing_time"":4128}]","10205","","","","","","","","","","","","","","","","","",""
"html-keyboard-response","10","295250","0.0-11.0-1.0","63153455849b153d56dd81db","bdp_rwlrn","Tue Mar 14 2023 16:16:28 GMT-0700 (Pacific Daylight Time)","793491","Trustworthy,Untrustworthy","","6303","","","","decision","","<div class='trialDiv'><img src='Fruit/lemon.png'><br><font class='baseline'><strong>Lucky Lemons</strong><p>Choose number of points to bet.</font><div class='respPicDiv'><img src='img/responseButtonOffersNo0L.png' class='respPic'></div></div>","5","1","Lucky Lemons","Fruit/lemon.png","Won","0.65,0.35","14","0.65","5","1","",""
"html-keyboard-response","11","295506","0.0-11.0-2.0","63153455849b153d56dd81db","bdp_rwlrn","Tue Mar 14 2023 16:16:28 GMT-0700 (Pacific Daylight Time)","793491","Trustworthy,Untrustworthy","","null","","","","decisionFB","","<div class='trialDiv'><img src='Fruit/lemon.png'><br><font class='baseline'><strong>Lucky Lemons</strong><p>Choose number of points to bet.</font><div class='respPicDiv'><img src='img/responseButtonOffersNo0L5.png' class='respPic'></div></div>","null","1","Lucky Lemons","Fruit/lemon.png","Won","0.65,0.35","14","0.65","0","1","",""
"html-keyboard-response","12","296527","0.0-11.0-3.0","63153455849b153d56dd81db","bdp_rwlrn","Tue Mar 14 2023 16:16:28 GMT-0700 (Pacific Daylight Time)","793491","Trustworthy,Untrustworthy","","null","","","","feedback","","<div class='respPicDiv'><img src='img/responseButtonOffersNo0_wht.png' class='respPic'></div><div class='trialDiv'><img src='Fruit/lemon.png'><br><font class='baseline'><strong>Lucky Lemons</strong><p><strong><font class='posOutcome'>You WON</font><p>You bet: 5</strong></font> &nbsp; &nbsp; &nbsp; &nbsp; &nbsp; &nbsp;<font class='posOutcome'>you receive: <strong>10</strong></font></div>","null","1","Lucky Lemons","Fruit/lemon.png","Won","0.65,0.35","14","0.65","10","1","",""
"html-keyboard-response","13","299426","0.0-11.0-1.1","63153455849b153d56dd81db","bdp_rwlrn","Tue Mar 14 2023 16:16:28 GMT-0700 (Pacific Daylight Time)","793491","Trustworthy,Untrustworthy","","2896","","","","decision","","<div class='trialDiv'><img src='Fruit/bananas.png'><br><font class='baseline'><strong>Banana Bonanza</strong><p>Choose number of points to bet.</font><div class='respPicDiv'><img src='img/responseButtonOffersNo0L.png' class='respPic'></div></div>","3","1","Banana Bonanza","Fruit/bananas.png","Won","0.8,0.35","11","0.8","15","2","",""
"html-keyboard-response","14","299699","0.0-11.0-2.1","63153455849b153d56dd81db","bdp_rwlrn","Tue Mar 14 2023 16:16:28 GMT-0700 (Pacific Daylight Time)","793491","Trustworthy,Untrustworthy","","null","","","","decisionFB","","<div class='trialDiv'><img src='Fruit/bananas.png'><br><font class='baseline'><strong>Banana Bonanza</strong><p>Choose number of points to bet.</font><div class='respPicDiv'><img src='img/responseButtonOffersNo0L3.png' class='respPic'></div></div>","null","1","Banana Bonanza","Fruit/bananas.png","Won","0.8,0.35","11","0.8","12","2","",""
"html-keyboard-response","15","300720","0.0-11.0-3.1","63153455849b153d56dd81db","bdp_rwlrn","Tue Mar 14 2023 16:16:28 GMT-0700 (Pacific Daylight Time)","793491","Trustworthy,Untrustworthy","","null","","","","feedback","","<div class='respPicDiv'><img src='img/responseButtonOffersNo0_wht.png' class='respPic'></div><div class='trialDiv'><img src='Fruit/bananas.png'><br><font class='baseline'><strong>Banana Bonanza</strong><p><strong><font class='posOutcome'>You WON</font><p>You bet: 3</strong></font> &nbsp; &nbsp; &nbsp; &nbsp; &nbsp; &nbsp;<font class='posOutcome'>you receive: <strong>6</strong></font></div>","null","1","Banana Bonanza","Fruit/bananas.png","Won","0.8,0.35","11","0.8","18","2","",""
"html-keyboard-response","16","302377","0.0-11.0-1.2","63153455849b153d56dd81db","bdp_rwlrn","Tue Mar 14 2023 16:16:28 GMT-0700 (Pacific Daylight Time)","793491","Trustworthy,Untrustworthy","","1656","","","","decision","","<div class='trialDiv'><img src='Fruit/grapes.png'><br><font class='baseline'><strong>Great Grapes</strong><p>Choose number of points to bet.</font><div class='respPicDiv'><img src='img/responseButtonOffersNo0L.png' class='respPic'></div></div>","4","1","Great Grapes","Fruit/grapes.png","Lost","0.2,0.65","12","0.2","23","3","",""
"html-keyboard-response","17","302649","0.0-11.0-2.2","63153455849b153d56dd81db","bdp_rwlrn","Tue Mar 14 2023 16:16:28 GMT-0700 (Pacific Daylight Time)","793491","Trustworthy,Untrustworthy","","null","","","","decisionFB","","<div class='trialDiv'><img src='Fruit/grapes.png'><br><font class='baseline'><strong>Great Grapes</strong><p>Choose number of points to bet.</font><div class='respPicDiv'><img src='img/responseButtonOffersNo0L4.png' class='respPic'></div></div>","null","1","Great Grapes","Fruit/grapes.png","Lost","0.2,0.65","12","0.2","19","3","",""
"html-keyboard-response","18","303671","0.0-11.0-3.2","63153455849b153d56dd81db","bdp_rwlrn","Tue Mar 14 2023 16:16:28 GMT-0700 (Pacific Daylight Time)","793491","Trustworthy,Untrustworthy","","null","","","","feedback","","<div class='respPicDiv'><img src='img/responseButtonOffersNo0_wht.png' class='respPic'></div><div class='trialDiv'><img src='Fruit/grapes.png'><br><font class='baseline'><strong>Great Grapes</strong><p><strong><font class='negOutcome'>You LOST</font><p>You bet: 4</strong></font> &nbsp; &nbsp; &nbsp; &nbsp; &nbsp; &nbsp;<font class='negOutcome'>You receive: <strong>0</strong></font></div>","null","1","Great Grapes","Fruit/grapes.png","Lost","0.2,0.65","12","0.2","19","3","",""
"html-keyboard-response","19","306706","0.0-11.0-1.3","63153455849b153d56dd81db","bdp_rwlrn","Tue Mar 14 2023 16:16:28 GMT-0700 (Pacific Daylight Time)","793491","Trustworthy,Untrustworthy","","3034","","","","decision","","<div class='trialDiv'><img src='Fruit/lemon.png'><br><font class='baseline'><strong>Lucky Lemons</strong><p>Choose number of points to bet.</font><div class='respPicDiv'><img src='img/responseButtonOffersNo0L.png' class='respPic'></div></div>","1","2","Lucky Lemons","Fruit/lemon.png","Won","0.65,0.35","14","0.65","24","4","",""
"html-keyboard-response","20","306966","0.0-11.0-2.3","63153455849b153d56dd81db","bdp_rwlrn","Tue Mar 14 2023 16:16:28 GMT-0700 (Pacific Daylight Time)","793491","Trustworthy,Untrustworthy","","null","","","","decisionFB","","<div class='trialDiv'><img src='Fruit/lemon.png'><br><font class='baseline'><strong>Lucky Lemons</strong><p>Choose number of points to bet.</font><div class='respPicDiv'><img src='img/responseButtonOffersNo0L1.png' class='respPic'></div></div>","null","2","Lucky Lemons","Fruit/lemon.png","Won","0.65,0.35","14","0.65","23","4","",""
"html-keyboard-response","21","307986","0.0-11.0-3.3","63153455849b153d56dd81db","bdp_rwlrn","Tue Mar 14 2023 16:16:28 GMT-0700 (Pacific Daylight Time)","793491","Trustworthy,Untrustworthy","","null","","","","feedback","","<div class='respPicDiv'><img src='img/responseButtonOffersNo0_wht.png' class='respPic'></div><div class='trialDiv'><img src='Fruit/lemon.png'><br><font class='baseline'><strong>Lucky Lemons</strong><p><strong><font class='posOutcome'>You WON</font><p>You bet: 1</strong></font> &nbsp; &nbsp; &nbsp; &nbsp; &nbsp; &nbsp;<font class='posOutcome'>you receive: <strong>2</strong></font></div>","null","2","Lucky Lemons","Fruit/lemon.png","Won","0.65,0.35","14","0.65","25","4","",""
"html-keyboard-response","22","309993","0.0-11.0-1.4","63153455849b153d56dd81db","bdp_rwlrn","Tue Mar 14 2023 16:16:28 GMT-0700 (Pacific Daylight Time)","793491","Trustworthy,Untrustworthy","","2004","","","","decision","","<div class='trialDiv'><img src='Fruit/bananas.png'><br><font class='baseline'><strong>Banana Bonanza</strong><p>Choose number of points to bet.</font><div class='respPicDiv'><img src='img/responseButtonOffersNo0L.png' class='respPic'></div></div>","3","2","Banana Bonanza","Fruit/bananas.png","Won","0.8,0.35","11","0.8","30","5","",""
"html-keyboard-response","23","310265","0.0-11.0-2.4","63153455849b153d56dd81db","bdp_rwlrn","Tue Mar 14 2023 16:16:28 GMT-0700 (Pacific Daylight Time)","793491","Trustworthy,Untrustworthy","","null","","","","decisionFB","","<div class='trialDiv'><img src='Fruit/bananas.png'><br><font class='baseline'><strong>Banana Bonanza</strong><p>Choose number of points to bet.</font><div class='respPicDiv'><img src='img/responseButtonOffersNo0L3.png' class='respPic'></div></div>","null","2","Banana Bonanza","Fruit/bananas.png","Won","0.8,0.35","11","0.8","27","5","",""
"html-keyboard-response","24","311269","0.0-11.0-3.4","63153455849b153d56dd81db","bdp_rwlrn","Tue Mar 14 2023 16:16:28 GMT-0700 (Pacific Daylight Time)","793491","Trustworthy,Untrustworthy","","null","","","","feedback","","<div class='respPicDiv'><img src='img/responseButtonOffersNo0_wht.png' class='respPic'></div><div class='trialDiv'><img src='Fruit/bananas.png'><br><font class='baseline'><strong>Banana Bonanza</strong><p><strong><font class='posOutcome'>You WON</font><p>You bet: 3</strong></font> &nbsp; &nbsp; &nbsp; &nbsp; &nbsp; &nbsp;<font class='posOutcome'>you receive: <strong>6</strong></font></div>","null","2","Banana Bonanza","Fruit/bananas.png","Won","0.8,0.35","11","0.8","33","5","",""
"html-keyboard-response","25","313577","0.0-11.0-1.5","63153455849b153d56dd81db","bdp_rwlrn","Tue Mar 14 2023 16:16:28 GMT-0700 (Pacific Daylight Time)","793491","Trustworthy,Untrustworthy","","2307","","","","decision","","<div class='trialDiv'><img src='Fruit/grapes.png'><br><font class='baseline'><strong>Great Grapes</strong><p>Choose number of points to bet.</font><div class='respPicDiv'><img src='img/responseButtonOffersNo0L.png' class='respPic'></div></div>","5","2","Great Grapes","Fruit/grapes.png","Won","0.2,0.65","12","0.2","38","6","",""
"html-keyboard-response","26","313851","0.0-11.0-2.5","63153455849b153d56dd81db","bdp_rwlrn","Tue Mar 14 2023 16:16:28 GMT-0700 (Pacific Daylight Time)","793491","Trustworthy,Untrustworthy","","null","","","","decisionFB","","<div class='trialDiv'><img src='Fruit/grapes.png'><br><font class='baseline'><strong>Great Grapes</strong><p>Choose number of points to bet.</font><div class='respPicDiv'><img src='img/responseButtonOffersNo0L5.png' class='respPic'></div></div>","null","2","Great Grapes","Fruit/grapes.png","Won","0.2,0.65","12","0.2","33","6","",""
"html-keyboard-response","27","314871","0.0-11.0-3.5","63153455849b153d56dd81db","bdp_rwlrn","Tue Mar 14 2023 16:16:28 GMT-0700 (Pacific Daylight Time)","793491","Trustworthy,Untrustworthy","","null","","","","feedback","","<div class='respPicDiv'><img src='img/responseButtonOffersNo0_wht.png' class='respPic'></div><div class='trialDiv'><img src='Fruit/grapes.png'><br><font class='baseline'><strong>Great Grapes</strong><p><strong><font class='posOutcome'>You WON</font><p>You bet: 5</strong></font> &nbsp; &nbsp; &nbsp; &nbsp; &nbsp; &nbsp;<font class='posOutcome'>you receive: <strong>10</strong></font></div>","null","2","Great Grapes","Fruit/grapes.png","Won","0.2,0.65","12","0.2","43","6","",""
"html-keyboard-response","28","316673","0.0-11.0-1.6","63153455849b153d56dd81db","bdp_rwlrn","Tue Mar 14 2023 16:16:28 GMT-0700 (Pacific Daylight Time)","793491","Trustworthy,Untrustworthy","","1800","","","","decision","","<div class='trialDiv'><img src='Fruit/lemon.png'><br><font class='baseline'><strong>Lucky Lemons</strong><p>Choose number of points to bet.</font><div class='respPicDiv'><img src='img/responseButtonOffersNo0L.png' class='respPic'></div></div>","1","3","Lucky Lemons","Fruit/lemon.png","Lost","0.65,0.35","14","0.65","48","7","",""
"html-keyboard-response","29","316944","0.0-11.0-2.6","63153455849b153d56dd81db","bdp_rwlrn","Tue Mar 14 2023 16:16:28 GMT-0700 (Pacific Daylight Time)","793491","Trustworthy,Untrustworthy","","null","","","","decisionFB","","<div class='trialDiv'><img src='Fruit/lemon.png'><br><font class='baseline'><strong>Lucky Lemons</strong><p>Choose number of points to bet.</font><div class='respPicDiv'><img src='img/responseButtonOffersNo0L1.png' class='respPic'></div></div>","null","3","Lucky Lemons","Fruit/lemon.png","Lost","0.65,0.35","14","0.65","47","7","",""
"html-keyboard-response","30","317969","0.0-11.0-3.6","63153455849b153d56dd81db","bdp_rwlrn","Tue Mar 14 2023 16:16:28 GMT-0700 (Pacific Daylight Time)","793491","Trustworthy,Untrustworthy","","null","","","","feedback","","<div class='respPicDiv'><img src='img/responseButtonOffersNo0_wht.png' class='respPic'></div><div class='trialDiv'><img src='Fruit/lemon.png'><br><font class='baseline'><strong>Lucky Lemons</strong><p><strong><font class='negOutcome'>You LOST</font><p>You bet: 1</strong></font> &nbsp; &nbsp; &nbsp; &nbsp; &nbsp; &nbsp;<font class='negOutcome'>You receive: <strong>0</strong></font></div>","null","3","Lucky Lemons","Fruit/lemon.png","Lost","0.65,0.35","14","0.65","47","7","",""
"html-keyboard-response","31","319928","0.0-11.0-1.7","63153455849b153d56dd81db","bdp_rwlrn","Tue Mar 14 2023 16:16:28 GMT-0700 (Pacific Daylight Time)","793491","Trustworthy,Untrustworthy","","1958","","","","decision","","<div class='trialDiv'><img src='Fruit/grapes.png'><br><font class='baseline'><strong>Great Grapes</strong><p>Choose number of points to bet.</font><div class='respPicDiv'><img src='img/responseButtonOffersNo0L.png' class='respPic'></div></div>","4","3","Great Grapes","Fruit/grapes.png","Won","0.2,0.65","12","0.2","52","8","",""
"html-keyboard-response","32","320201","0.0-11.0-2.7","63153455849b153d56dd81db","bdp_rwlrn","Tue Mar 14 2023 16:16:28 GMT-0700 (Pacific Daylight Time)","793491","Trustworthy,Untrustworthy","","null","","","","decisionFB","","<div class='trialDiv'><img src='Fruit/grapes.png'><br><font class='baseline'><strong>Great Grapes</strong><p>Choose number of points to bet.</font><div class='respPicDiv'><img src='img/responseButtonOffersNo0L4.png' class='respPic'></div></div>","null","3","Great Grapes","Fruit/grapes.png","Won","0.2,0.65","12","0.2","48","8","",""
"html-keyboard-response","33","321222","0.0-11.0-3.7","63153455849b153d56dd81db","bdp_rwlrn","Tue Mar 14 2023 16:16:28 GMT-0700 (Pacific Daylight Time)","793491","Trustworthy,Untrustworthy","","null","","","","feedback","","<div class='respPicDiv'><img src='img/responseButtonOffersNo0_wht.png' class='respPic'></div><div class='trialDiv'><img src='Fruit/grapes.png'><br><font class='baseline'><strong>Great Grapes</strong><p><strong><font class='posOutcome'>You WON</font><p>You bet: 4</strong></font> &nbsp; &nbsp; &nbsp; &nbsp; &nbsp; &nbsp;<font class='posOutcome'>you receive: <strong>8</strong></font></div>","null","3","Great Grapes","Fruit/grapes.png","Won","0.2,0.65","12","0.2","56","8","",""
"html-keyboard-response","34","322200","0.0-11.0-1.8","63153455849b153d56dd81db","bdp_rwlrn","Tue Mar 14 2023 16:16:28 GMT-0700 (Pacific Daylight Time)","793491","Trustworthy,Untrustworthy","","976","","","","decision","","<div class='trialDiv'><img src='Fruit/bananas.png'><br><font class='baseline'><strong>Banana Bonanza</strong><p>Choose number of points to bet.</font><div class='respPicDiv'><img src='img/responseButtonOffersNo0L.png' class='respPic'></div></div>","3","3","Banana Bonanza","Fruit/bananas.png","Lost","0.8,0.35","11","0.8","61","9","",""
"html-keyboard-response","35","322472","0.0-11.0-2.8","63153455849b153d56dd81db","bdp_rwlrn","Tue Mar 14 2023 16:16:28 GMT-0700 (Pacific Daylight Time)","793491","Trustworthy,Untrustworthy","","null","","","","decisionFB","","<div class='trialDiv'><img src='Fruit/bananas.png'><br><font class='baseline'><strong>Banana Bonanza</strong><p>Choose number of points to bet.</font><div class='respPicDiv'><img src='img/responseButtonOffersNo0L3.png' class='respPic'></div></div>","null","3","Banana Bonanza","Fruit/bananas.png","Lost","0.8,0.35","11","0.8","58","9","",""
"html-keyboard-response","36","323479","0.0-11.0-3.8","63153455849b153d56dd81db","bdp_rwlrn","Tue Mar 14 2023 16:16:28 GMT-0700 (Pacific Daylight Time)","793491","Trustworthy,Untrustworthy","","null","","","","feedback","","<div class='respPicDiv'><img src='img/responseButtonOffersNo0_wht.png' class='respPic'></div><div class='trialDiv'><img src='Fruit/bananas.png'><br><font class='baseline'><strong>Banana Bonanza</strong><p><strong><font class='negOutcome'>You LOST</font><p>You bet: 3</strong></font> &nbsp; &nbsp; &nbsp; &nbsp; &nbsp; &nbsp;<font class='negOutcome'>You receive: <strong>0</strong></font></div>","null","3","Banana Bonanza","Fruit/bananas.png","Lost","0.8,0.35","11","0.8","58","9","",""
"html-keyboard-response","37","323968","0.0-11.0-1.9","63153455849b153d56dd81db","bdp_rwlrn","Tue Mar 14 2023 16:16:28 GMT-0700 (Pacific Daylight Time)","793491","Trustworthy,Untrustworthy","","488","","","","decision","","<div class='trialDiv'><img src='Fruit/lemon.png'><br><font class='baseline'><strong>Lucky Lemons</strong><p>Choose number of points to bet.</font><div class='respPicDiv'><img src='img/responseButtonOffersNo0L.png' class='respPic'></div></div>","1","4","Lucky Lemons","Fruit/lemon.png","Won","0.65,0.35","14","0.65","63","10","",""
"html-keyboard-response","38","324240","0.0-11.0-2.9","63153455849b153d56dd81db","bdp_rwlrn","Tue Mar 14 2023 16:16:28 GMT-0700 (Pacific Daylight Time)","793491","Trustworthy,Untrustworthy","","null","","","","decisionFB","","<div class='trialDiv'><img src='Fruit/lemon.png'><br><font class='baseline'><strong>Lucky Lemons</strong><p>Choose number of points to bet.</font><div class='respPicDiv'><img src='img/responseButtonOffersNo0L1.png' class='respPic'></div></div>","null","4","Lucky Lemons","Fruit/lemon.png","Won","0.65,0.35","14","0.65","62","10","",""
"html-keyboard-response","39","325245","0.0-11.0-3.9","63153455849b153d56dd81db","bdp_rwlrn","Tue Mar 14 2023 16:16:28 GMT-0700 (Pacific Daylight Time)","793491","Trustworthy,Untrustworthy","","null","","","","feedback","","<div class='respPicDiv'><img src='img/responseButtonOffersNo0_wht.png' class='respPic'></div><div class='trialDiv'><img src='Fruit/lemon.png'><br><font class='baseline'><strong>Lucky Lemons</strong><p><strong><font class='posOutcome'>You WON</font><p>You bet: 1</strong></font> &nbsp; &nbsp; &nbsp; &nbsp; &nbsp; &nbsp;<font class='posOutcome'>you receive: <strong>2</strong></font></div>","null","4","Lucky Lemons","Fruit/lemon.png","Won","0.65,0.35","14","0.65","64","10","",""
"html-keyboard-response","40","325976","0.0-11.0-1.10","63153455849b153d56dd81db","bdp_rwlrn","Tue Mar 14 2023 16:16:28 GMT-0700 (Pacific Daylight Time)","793491","Trustworthy,Untrustworthy","","729","","","","decision","","<div class='trialDiv'><img src='Fruit/grapes.png'><br><font class='baseline'><strong>Great Grapes</strong><p>Choose number of points to bet.</font><div class='respPicDiv'><img src='img/responseButtonOffersNo0L.png' class='respPic'></div></div>","4","4","Great Grapes","Fruit/grapes.png","Lost","0.2,0.65","12","0.2","69","11","",""
"html-keyboard-response","41","326247","0.0-11.0-2.10","63153455849b153d56dd81db","bdp_rwlrn","Tue Mar 14 2023 16:16:28 GMT-0700 (Pacific Daylight Time)","793491","Trustworthy,Untrustworthy","","null","","","","decisionFB","","<div class='trialDiv'><img src='Fruit/grapes.png'><br><font class='baseline'><strong>Great Grapes</strong><p>Choose number of points to bet.</font><div class='respPicDiv'><img src='img/responseButtonOffersNo0L4.png' class='respPic'></div></div>","null","4","Great Grapes","Fruit/grapes.png","Lost","0.2,0.65","12","0.2","65","11","",""
"html-keyboard-response","42","327253","0.0-11.0-3.10","63153455849b153d56dd81db","bdp_rwlrn","Tue Mar 14 2023 16:16:28 GMT-0700 (Pacific Daylight Time)","793491","Trustworthy,Untrustworthy","","null","","","","feedback","","<div class='respPicDiv'><img src='img/responseButtonOffersNo0_wht.png' class='respPic'></div><div class='trialDiv'><img src='Fruit/grapes.png'><br><font class='baseline'><strong>Great Grapes</strong><p><strong><font class='negOutcome'>You LOST</font><p>You bet: 4</strong></font> &nbsp; &nbsp; &nbsp; &nbsp; &nbsp; &nbsp;<font class='negOutcome'>You receive: <strong>0</strong></font></div>","null","4","Great Grapes","Fruit/grapes.png","Lost","0.2,0.65","12","0.2","65","11","",""
"html-keyboard-response","43","327728","0.0-11.0-1.11","63153455849b153d56dd81db","bdp_rwlrn","Tue Mar 14 2023 16:16:28 GMT-0700 (Pacific Daylight Time)","793491","Trustworthy,Untrustworthy","","474","","","","decision","","<div class='trialDiv'><img src='Fruit/bananas.png'><br><font class='baseline'><strong>Banana Bonanza</strong><p>Choose number of points to bet.</font><div class='respPicDiv'><img src='img/responseButtonOffersNo0L.png' class='respPic'></div></div>","3","4","Banana Bonanza","Fruit/bananas.png","Won","0.8,0.35","11","0.8","70","12","",""
"html-keyboard-response","44","327999","0.0-11.0-2.11","63153455849b153d56dd81db","bdp_rwlrn","Tue Mar 14 2023 16:16:28 GMT-0700 (Pacific Daylight Time)","793491","Trustworthy,Untrustworthy","","null","","","","decisionFB","","<div class='trialDiv'><img src='Fruit/bananas.png'><br><font class='baseline'><strong>Banana Bonanza</strong><p>Choose number of points to bet.</font><div class='respPicDiv'><img src='img/responseButtonOffersNo0L3.png' class='respPic'></div></div>","null","4","Banana Bonanza","Fruit/bananas.png","Won","0.8,0.35","11","0.8","67","12","",""
"html-keyboard-response","45","329005","0.0-11.0-3.11","63153455849b153d56dd81db","bdp_rwlrn","Tue Mar 14 2023 16:16:28 GMT-0700 (Pacific Daylight Time)","793491","Trustworthy,Untrustworthy","","null","","","","feedback","","<div class='respPicDiv'><img src='img/responseButtonOffersNo0_wht.png' class='respPic'></div><div class='trialDiv'><img src='Fruit/bananas.png'><br><font class='baseline'><strong>Banana Bonanza</strong><p><strong><font class='posOutcome'>You WON</font><p>You bet: 3</strong></font> &nbsp; &nbsp; &nbsp; &nbsp; &nbsp; &nbsp;<font class='posOutcome'>you receive: <strong>6</strong></font></div>","null","4","Banana Bonanza","Fruit/bananas.png","Won","0.8,0.35","11","0.8","73","12","",""
"html-keyboard-response","46","331313","0.0-11.0-1.12","63153455849b153d56dd81db","bdp_rwlrn","Tue Mar 14 2023 16:16:28 GMT-0700 (Pacific Daylight Time)","793491","Trustworthy,Untrustworthy","","2307","","","","decision","","<div class='trialDiv'><img src='Fruit/lemon.png'><br><font class='baseline'><strong>Lucky Lemons</strong><p>Choose number of points to bet.</font><div class='respPicDiv'><img src='img/responseButtonOffersNo0L.png' class='respPic'></div></div>","5","5","Lucky Lemons","Fruit/lemon.png","Won","0.65,0.35","14","0.65","78","13","",""
"html-keyboard-response","47","331591","0.0-11.0-2.12","63153455849b153d56dd81db","bdp_rwlrn","Tue Mar 14 2023 16:16:28 GMT-0700 (Pacific Daylight Time)","793491","Trustworthy,Untrustworthy","","null","","","","decisionFB","","<div class='trialDiv'><img src='Fruit/lemon.png'><br><font class='baseline'><strong>Lucky Lemons</strong><p>Choose number of points to bet.</font><div class='respPicDiv'><img src='img/responseButtonOffersNo0L5.png' class='respPic'></div></div>","null","5","Lucky Lemons","Fruit/lemon.png","Won","0.65,0.35","14","0.65","73","13","",""
"html-keyboard-response","48","332610","0.0-11.0-3.12","63153455849b153d56dd81db","bdp_rwlrn","Tue Mar 14 2023 16:16:28 GMT-0700 (Pacific Daylight Time)","793491","Trustworthy,Untrustworthy","","null","","","","feedback","","<div class='respPicDiv'><img src='img/responseButtonOffersNo0_wht.png' class='respPic'></div><div class='trialDiv'><img src='Fruit/lemon.png'><br><font class='baseline'><strong>Lucky Lemons</strong><p><strong><font class='posOutcome'>You WON</font><p>You bet: 5</strong></font> &nbsp; &nbsp; &nbsp; &nbsp; &nbsp; &nbsp;<font class='posOutcome'>you receive: <strong>10</strong></font></div>","null","5","Lucky Lemons","Fruit/lemon.png","Won","0.65,0.35","14","0.65","83","13","",""
"html-keyboard-response","49","339345","0.0-11.0-1.13","63153455849b153d56dd81db","bdp_rwlrn","Tue Mar 14 2023 16:16:28 GMT-0700 (Pacific Daylight Time)","793491","Trustworthy,Untrustworthy","","6733","","","","decision","","<div class='trialDiv'><img src='Fruit/bananas.png'><br><font class='baseline'><strong>Banana Bonanza</strong><p>Choose number of points to bet.</font><div class='respPicDiv'><img src='img/responseButtonOffersNo0L.png' class='respPic'></div></div>","3","5","Banana Bonanza","Fruit/bananas.png","Won","0.8,0.35","11","0.8","88","14","",""
"html-keyboard-response","50","339616","0.0-11.0-2.13","63153455849b153d56dd81db","bdp_rwlrn","Tue Mar 14 2023 16:16:28 GMT-0700 (Pacific Daylight Time)","793491","Trustworthy,Untrustworthy","","null","","","","decisionFB","","<div class='trialDiv'><img src='Fruit/bananas.png'><br><font class='baseline'><strong>Banana Bonanza</strong><p>Choose number of points to bet.</font><div class='respPicDiv'><img src='img/responseButtonOffersNo0L3.png' class='respPic'></div></div>","null","5","Banana Bonanza","Fruit/bananas.png","Won","0.8,0.35","11","0.8","85","14","",""
"html-keyboard-response","51","340620","0.0-11.0-3.13","63153455849b153d56dd81db","bdp_rwlrn","Tue Mar 14 2023 16:16:28 GMT-0700 (Pacific Daylight Time)","793491","Trustworthy,Untrustworthy","","null","","","","feedback","","<div class='respPicDiv'><img src='img/responseButtonOffersNo0_wht.png' class='respPic'></div><div class='trialDiv'><img src='Fruit/bananas.png'><br><font class='baseline'><strong>Banana Bonanza</strong><p><strong><font class='posOutcome'>You WON</font><p>You bet: 3</strong></font> &nbsp; &nbsp; &nbsp; &nbsp; &nbsp; &nbsp;<font class='posOutcome'>you receive: <strong>6</strong></font></div>","null","5","Banana Bonanza","Fruit/bananas.png","Won","0.8,0.35","11","0.8","91","14","",""
"html-keyboard-response","52","341553","0.0-11.0-1.14","63153455849b153d56dd81db","bdp_rwlrn","Tue Mar 14 2023 16:16:28 GMT-0700 (Pacific Daylight Time)","793491","Trustworthy,Untrustworthy","","930","","","","decision","","<div class='trialDiv'><img src='Fruit/grapes.png'><br><font class='baseline'><strong>Great Grapes</strong><p>Choose number of points to bet.</font><div class='respPicDiv'><img src='img/responseButtonOffersNo0L.png' class='respPic'></div></div>","4","5","Great Grapes","Fruit/grapes.png","Won","0.2,0.65","12","0.2","96","15","",""
"html-keyboard-response","53","341824","0.0-11.0-2.14","63153455849b153d56dd81db","bdp_rwlrn","Tue Mar 14 2023 16:16:28 GMT-0700 (Pacific Daylight Time)","793491","Trustworthy,Untrustworthy","","null","","","","decisionFB","","<div class='trialDiv'><img src='Fruit/grapes.png'><br><font class='baseline'><strong>Great Grapes</strong><p>Choose number of points to bet.</font><div class='respPicDiv'><img src='img/responseButtonOffersNo0L4.png' class='respPic'></div></div>","null","5","Great Grapes","Fruit/grapes.png","Won","0.2,0.65","12","0.2","92","15","",""
"html-keyboard-response","54","342828","0.0-11.0-3.14","63153455849b153d56dd81db","bdp_rwlrn","Tue Mar 14 2023 16:16:28 GMT-0700 (Pacific Daylight Time)","793491","Trustworthy,Untrustworthy","","null","","","","feedback","","<div class='respPicDiv'><img src='img/responseButtonOffersNo0_wht.png' class='respPic'></div><div class='trialDiv'><img src='Fruit/grapes.png'><br><font class='baseline'><strong>Great Grapes</strong><p><strong><font class='posOutcome'>You WON</font><p>You bet: 4</strong></font> &nbsp; &nbsp; &nbsp; &nbsp; &nbsp; &nbsp;<font class='posOutcome'>you receive: <strong>8</strong></font></div>","null","5","Great Grapes","Fruit/grapes.png","Won","0.2,0.65","12","0.2","100","15","",""
"html-keyboard-response","55","344409","0.0-11.0-1.15","63153455849b153d56dd81db","bdp_rwlrn","Tue Mar 14 2023 16:16:28 GMT-0700 (Pacific Daylight Time)","793491","Trustworthy,Untrustworthy","","1579","","","","decision","","<div class='trialDiv'><img src='Fruit/bananas.png'><br><font class='baseline'><strong>Banana Bonanza</strong><p>Choose number of points to bet.</font><div class='respPicDiv'><img src='img/responseButtonOffersNo0L.png' class='respPic'></div></div>","4","6","Banana Bonanza","Fruit/bananas.png","Won","0.8,0.35","11","0.8","105","16","",""
"html-keyboard-response","56","344680","0.0-11.0-2.15","63153455849b153d56dd81db","bdp_rwlrn","Tue Mar 14 2023 16:16:28 GMT-0700 (Pacific Daylight Time)","793491","Trustworthy,Untrustworthy","","null","","","","decisionFB","","<div class='trialDiv'><img src='Fruit/bananas.png'><br><font class='baseline'><strong>Banana Bonanza</strong><p>Choose number of points to bet.</font><div class='respPicDiv'><img src='img/responseButtonOffersNo0L4.png' class='respPic'></div></div>","null","6","Banana Bonanza","Fruit/bananas.png","Won","0.8,0.35","11","0.8","101","16","",""
"html-keyboard-response","57","345684","0.0-11.0-3.15","63153455849b153d56dd81db","bdp_rwlrn","Tue Mar 14 2023 16:16:28 GMT-0700 (Pacific Daylight Time)","793491","Trustworthy,Untrustworthy","","null","","","","feedback","","<div class='respPicDiv'><img src='img/responseButtonOffersNo0_wht.png' class='respPic'></div><div class='trialDiv'><img src='Fruit/bananas.png'><br><font class='baseline'><strong>Banana Bonanza</strong><p><strong><font class='posOutcome'>You WON</font><p>You bet: 4</strong></font> &nbsp; &nbsp; &nbsp; &nbsp; &nbsp; &nbsp;<font class='posOutcome'>you receive: <strong>8</strong></font></div>","null","6","Banana Bonanza","Fruit/bananas.png","Won","0.8,0.35","11","0.8","109","16","",""
"html-keyboard-response","58","346176","0.0-11.0-1.16","63153455849b153d56dd81db","bdp_rwlrn","Tue Mar 14 2023 16:16:28 GMT-0700 (Pacific Daylight Time)","793491","Trustworthy,Untrustworthy","","490","","","","decision","","<div class='trialDiv'><img src='Fruit/grapes.png'><br><font class='baseline'><strong>Great Grapes</strong><p>Choose number of points to bet.</font><div class='respPicDiv'><img src='img/responseButtonOffersNo0L.png' class='respPic'></div></div>","4","6","Great Grapes","Fruit/grapes.png","Lost","0.2,0.65","12","0.2","114","17","",""
"html-keyboard-response","59","346448","0.0-11.0-2.16","63153455849b153d56dd81db","bdp_rwlrn","Tue Mar 14 2023 16:16:28 GMT-0700 (Pacific Daylight Time)","793491","Trustworthy,Untrustworthy","","null","","","","decisionFB","","<div class='trialDiv'><img src='Fruit/grapes.png'><br><font class='baseline'><strong>Great Grapes</strong><p>Choose number of points to bet.</font><div class='respPicDiv'><img src='img/responseButtonOffersNo0L4.png' class='respPic'></div></div>","null","6","Great Grapes","Fruit/grapes.png","Lost","0.2,0.65","12","0.2","110","17","",""
"html-keyboard-response","60","347465","0.0-11.0-3.16","63153455849b153d56dd81db","bdp_rwlrn","Tue Mar 14 2023 16:16:28 GMT-0700 (Pacific Daylight Time)","793491","Trustworthy,Untrustworthy","","null","","","","feedback","","<div class='respPicDiv'><img src='img/responseButtonOffersNo0_wht.png' class='respPic'></div><div class='trialDiv'><img src='Fruit/grapes.png'><br><font class='baseline'><strong>Great Grapes</strong><p><strong><font class='negOutcome'>You LOST</font><p>You bet: 4</strong></font> &nbsp; &nbsp; &nbsp; &nbsp; &nbsp; &nbsp;<font class='negOutcome'>You receive: <strong>0</strong></font></div>","null","6","Great Grapes","Fruit/grapes.png","Lost","0.2,0.65","12","0.2","110","17","",""
"html-keyboard-response","61","347992","0.0-11.0-1.17","63153455849b153d56dd81db","bdp_rwlrn","Tue Mar 14 2023 16:16:28 GMT-0700 (Pacific Daylight Time)","793491","Trustworthy,Untrustworthy","","526","","","","decision","","<div class='trialDiv'><img src='Fruit/lemon.png'><br><font class='baseline'><strong>Lucky Lemons</strong><p>Choose number of points to bet.</font><div class='respPicDiv'><img src='img/responseButtonOffersNo0L.png' class='respPic'></div></div>","3","6","Lucky Lemons","Fruit/lemon.png","Lost","0.65,0.35","14","0.65","115","18","",""
"html-keyboard-response","62","348264","0.0-11.0-2.17","63153455849b153d56dd81db","bdp_rwlrn","Tue Mar 14 2023 16:16:28 GMT-0700 (Pacific Daylight Time)","793491","Trustworthy,Untrustworthy","","null","","","","decisionFB","","<div class='trialDiv'><img src='Fruit/lemon.png'><br><font class='baseline'><strong>Lucky Lemons</strong><p>Choose number of points to bet.</font><div class='respPicDiv'><img src='img/responseButtonOffersNo0L3.png' class='respPic'></div></div>","null","6","Lucky Lemons","Fruit/lemon.png","Lost","0.65,0.35","14","0.65","112","18","",""
"html-keyboard-response","63","349270","0.0-11.0-3.17","63153455849b153d56dd81db","bdp_rwlrn","Tue Mar 14 2023 16:16:28 GMT-0700 (Pacific Daylight Time)","793491","Trustworthy,Untrustworthy","","null","","","","feedback","","<div class='respPicDiv'><img src='img/responseButtonOffersNo0_wht.png' class='respPic'></div><div class='trialDiv'><img src='Fruit/lemon.png'><br><font class='baseline'><strong>Lucky Lemons</strong><p><strong><font class='negOutcome'>You LOST</font><p>You bet: 3</strong></font> &nbsp; &nbsp; &nbsp; &nbsp; &nbsp; &nbsp;<font class='negOutcome'>You receive: <strong>0</strong></font></div>","null","6","Lucky Lemons","Fruit/lemon.png","Lost","0.65,0.35","14","0.65","112","18","",""
"html-keyboard-response","64","349681","0.0-11.0-1.18","63153455849b153d56dd81db","bdp_rwlrn","Tue Mar 14 2023 16:16:28 GMT-0700 (Pacific Daylight Time)","793491","Trustworthy,Untrustworthy","","408","","","","decision","","<div class='trialDiv'><img src='Fruit/bananas.png'><br><font class='baseline'><strong>Banana Bonanza</strong><p>Choose number of points to bet.</font><div class='respPicDiv'><img src='img/responseButtonOffersNo0L.png' class='respPic'></div></div>","1","7","Banana Bonanza","Fruit/bananas.png","Won","0.8,0.35","11","0.8","117","19","",""
"html-keyboard-response","65","349952","0.0-11.0-2.18","63153455849b153d56dd81db","bdp_rwlrn","Tue Mar 14 2023 16:16:28 GMT-0700 (Pacific Daylight Time)","793491","Trustworthy,Untrustworthy","","null","","","","decisionFB","","<div class='trialDiv'><img src='Fruit/bananas.png'><br><font class='baseline'><strong>Banana Bonanza</strong><p>Choose number of points to bet.</font><div class='respPicDiv'><img src='img/responseButtonOffersNo0L1.png' class='respPic'></div></div>","null","7","Banana Bonanza","Fruit/bananas.png","Won","0.8,0.35","11","0.8","116","19","",""
"html-keyboard-response","66","350957","0.0-11.0-3.18","63153455849b153d56dd81db","bdp_rwlrn","Tue Mar 14 2023 16:16:28 GMT-0700 (Pacific Daylight Time)","793491","Trustworthy,Untrustworthy","","null","","","","feedback","","<div class='respPicDiv'><img src='img/responseButtonOffersNo0_wht.png' class='respPic'></div><div class='trialDiv'><img src='Fruit/bananas.png'><br><font class='baseline'><strong>Banana Bonanza</strong><p><strong><font class='posOutcome'>You WON</font><p>You bet: 1</strong></font> &nbsp; &nbsp; &nbsp; &nbsp; &nbsp; &nbsp;<font class='posOutcome'>you receive: <strong>2</strong></font></div>","null","7","Banana Bonanza","Fruit/bananas.png","Won","0.8,0.35","11","0.8","118","19","",""
"html-keyboard-response","67","351650","0.0-11.0-1.19","63153455849b153d56dd81db","bdp_rwlrn","Tue Mar 14 2023 16:16:28 GMT-0700 (Pacific Daylight Time)","793491","Trustworthy,Untrustworthy","","692","","","","decision","","<div class='trialDiv'><img src='Fruit/lemon.png'><br><font class='baseline'><strong>Lucky Lemons</strong><p>Choose number of points to bet.</font><div class='respPicDiv'><img src='img/responseButtonOffersNo0L.png' class='respPic'></div></div>","3","7","Lucky Lemons","Fruit/lemon.png","Lost","0.65,0.35","14","0.65","123","20","",""
"html-keyboard-response","68","351921","0.0-11.0-2.19","63153455849b153d56dd81db","bdp_rwlrn","Tue Mar 14 2023 16:16:28 GMT-0700 (Pacific Daylight Time)","793491","Trustworthy,Untrustworthy","","null","","","","decisionFB","","<div class='trialDiv'><img src='Fruit/lemon.png'><br><font class='baseline'><strong>Lucky Lemons</strong><p>Choose number of points to bet.</font><div class='respPicDiv'><img src='img/responseButtonOffersNo0L3.png' class='respPic'></div></div>","null","7","Lucky Lemons","Fruit/lemon.png","Lost","0.65,0.35","14","0.65","120","20","",""
"html-keyboard-response","69","352942","0.0-11.0-3.19","63153455849b153d56dd81db","bdp_rwlrn","Tue Mar 14 2023 16:16:28 GMT-0700 (Pacific Daylight Time)","793491","Trustworthy,Untrustworthy","","null","","","","feedback","","<div class='respPicDiv'><img src='img/responseButtonOffersNo0_wht.png' class='respPic'></div><div class='trialDiv'><img src='Fruit/lemon.png'><br><font class='baseline'><strong>Lucky Lemons</strong><p><strong><font class='negOutcome'>You LOST</font><p>You bet: 3</strong></font> &nbsp; &nbsp; &nbsp; &nbsp; &nbsp; &nbsp;<font class='negOutcome'>You receive: <strong>0</strong></font></div>","null","7","Lucky Lemons","Fruit/lemon.png","Lost","0.65,0.35","14","0.65","120","20","",""
"html-keyboard-response","70","353370","0.0-11.0-1.20","63153455849b153d56dd81db","bdp_rwlrn","Tue Mar 14 2023 16:16:28 GMT-0700 (Pacific Daylight Time)","793491","Trustworthy,Untrustworthy","","425","","","","decision","","<div class='trialDiv'><img src='Fruit/grapes.png'><br><font class='baseline'><strong>Great Grapes</strong><p>Choose number of points to bet.</font><div class='respPicDiv'><img src='img/responseButtonOffersNo0L.png' class='respPic'></div></div>","4","7","Great Grapes","Fruit/grapes.png","Lost","0.2,0.65","12","0.2","125","21","",""
"html-keyboard-response","71","353642","0.0-11.0-2.20","63153455849b153d56dd81db","bdp_rwlrn","Tue Mar 14 2023 16:16:28 GMT-0700 (Pacific Daylight Time)","793491","Trustworthy,Untrustworthy","","null","","","","decisionFB","","<div class='trialDiv'><img src='Fruit/grapes.png'><br><font class='baseline'><strong>Great Grapes</strong><p>Choose number of points to bet.</font><div class='respPicDiv'><img src='img/responseButtonOffersNo0L4.png' class='respPic'></div></div>","null","7","Great Grapes","Fruit/grapes.png","Lost","0.2,0.65","12","0.2","121","21","",""
"html-keyboard-response","72","354663","0.0-11.0-3.20","63153455849b153d56dd81db","bdp_rwlrn","Tue Mar 14 2023 16:16:28 GMT-0700 (Pacific Daylight Time)","793491","Trustworthy,Untrustworthy","","null","","","","feedback","","<div class='respPicDiv'><img src='img/responseButtonOffersNo0_wht.png' class='respPic'></div><div class='trialDiv'><img src='Fruit/grapes.png'><br><font class='baseline'><strong>Great Grapes</strong><p><strong><font class='negOutcome'>You LOST</font><p>You bet: 4</strong></font> &nbsp; &nbsp; &nbsp; &nbsp; &nbsp; &nbsp;<font class='negOutcome'>You receive: <strong>0</strong></font></div>","null","7","Great Grapes","Fruit/grapes.png","Lost","0.2,0.65","12","0.2","121","21","",""
"html-keyboard-response","73","355473","0.0-11.0-1.21","63153455849b153d56dd81db","bdp_rwlrn","Tue Mar 14 2023 16:16:28 GMT-0700 (Pacific Daylight Time)","793491","Trustworthy,Untrustworthy","","808","","","","decision","","<div class='trialDiv'><img src='Fruit/bananas.png'><br><font class='baseline'><strong>Banana Bonanza</strong><p>Choose number of points to bet.</font><div class='respPicDiv'><img src='img/responseButtonOffersNo0L.png' class='respPic'></div></div>","5","8","Banana Bonanza","Fruit/bananas.png","Won","0.8,0.35","11","0.8","126","22","",""
"html-keyboard-response","74","355744","0.0-11.0-2.21","63153455849b153d56dd81db","bdp_rwlrn","Tue Mar 14 2023 16:16:28 GMT-0700 (Pacific Daylight Time)","793491","Trustworthy,Untrustworthy","","null","","","","decisionFB","","<div class='trialDiv'><img src='Fruit/bananas.png'><br><font class='baseline'><strong>Banana Bonanza</strong><p>Choose number of points to bet.</font><div class='respPicDiv'><img src='img/responseButtonOffersNo0L5.png' class='respPic'></div></div>","null","8","Banana Bonanza","Fruit/bananas.png","Won","0.8,0.35","11","0.8","121","22","",""
"html-keyboard-response","75","356749","0.0-11.0-3.21","63153455849b153d56dd81db","bdp_rwlrn","Tue Mar 14 2023 16:16:28 GMT-0700 (Pacific Daylight Time)","793491","Trustworthy,Untrustworthy","","null","","","","feedback","","<div class='respPicDiv'><img src='img/responseButtonOffersNo0_wht.png' class='respPic'></div><div class='trialDiv'><img src='Fruit/bananas.png'><br><font class='baseline'><strong>Banana Bonanza</strong><p><strong><font class='posOutcome'>You WON</font><p>You bet: 5</strong></font> &nbsp; &nbsp; &nbsp; &nbsp; &nbsp; &nbsp;<font class='posOutcome'>you receive: <strong>10</strong></font></div>","null","8","Banana Bonanza","Fruit/bananas.png","Won","0.8,0.35","11","0.8","131","22","",""
"html-keyboard-response","76","357218","0.0-11.0-1.22","63153455849b153d56dd81db","bdp_rwlrn","Tue Mar 14 2023 16:16:28 GMT-0700 (Pacific Daylight Time)","793491","Trustworthy,Untrustworthy","","466","","","","decision","","<div class='trialDiv'><img src='Fruit/lemon.png'><br><font class='baseline'><strong>Lucky Lemons</strong><p>Choose number of points to bet.</font><div class='respPicDiv'><img src='img/responseButtonOffersNo0L.png' class='respPic'></div></div>","5","8","Lucky Lemons","Fruit/lemon.png","Lost","0.65,0.35","14","0.65","136","23","",""
"html-keyboard-response","77","357488","0.0-11.0-2.22","63153455849b153d56dd81db","bdp_rwlrn","Tue Mar 14 2023 16:16:28 GMT-0700 (Pacific Daylight Time)","793491","Trustworthy,Untrustworthy","","null","","","","decisionFB","","<div class='trialDiv'><img src='Fruit/lemon.png'><br><font class='baseline'><strong>Lucky Lemons</strong><p>Choose number of points to bet.</font><div class='respPicDiv'><img src='img/responseButtonOffersNo0L5.png' class='respPic'></div></div>","null","8","Lucky Lemons","Fruit/lemon.png","Lost","0.65,0.35","14","0.65","131","23","",""
"html-keyboard-response","78","358506","0.0-11.0-3.22","63153455849b153d56dd81db","bdp_rwlrn","Tue Mar 14 2023 16:16:28 GMT-0700 (Pacific Daylight Time)","793491","Trustworthy,Untrustworthy","","null","","","","feedback","","<div class='respPicDiv'><img src='img/responseButtonOffersNo0_wht.png' class='respPic'></div><div class='trialDiv'><img src='Fruit/lemon.png'><br><font class='baseline'><strong>Lucky Lemons</strong><p><strong><font class='negOutcome'>You LOST</font><p>You bet: 5</strong></font> &nbsp; &nbsp; &nbsp; &nbsp; &nbsp; &nbsp;<font class='negOutcome'>You receive: <strong>0</strong></font></div>","null","8","Lucky Lemons","Fruit/lemon.png","Lost","0.65,0.35","14","0.65","131","23","",""
"html-keyboard-response","79","359722","0.0-11.0-1.23","63153455849b153d56dd81db","bdp_rwlrn","Tue Mar 14 2023 16:16:28 GMT-0700 (Pacific Daylight Time)","793491","Trustworthy,Untrustworthy","","1213","","","","decision","","<div class='trialDiv'><img src='Fruit/grapes.png'><br><font class='baseline'><strong>Great Grapes</strong><p>Choose number of points to bet.</font><div class='respPicDiv'><img src='img/responseButtonOffersNo0L.png' class='respPic'></div></div>","2","8","Great Grapes","Fruit/grapes.png","Lost","0.2,0.65","12","0.2","136","24","",""
"html-keyboard-response","80","359994","0.0-11.0-2.23","63153455849b153d56dd81db","bdp_rwlrn","Tue Mar 14 2023 16:16:28 GMT-0700 (Pacific Daylight Time)","793491","Trustworthy,Untrustworthy","","null","","","","decisionFB","","<div class='trialDiv'><img src='Fruit/grapes.png'><br><font class='baseline'><strong>Great Grapes</strong><p>Choose number of points to bet.</font><div class='respPicDiv'><img src='img/responseButtonOffersNo0L2.png' class='respPic'></div></div>","null","8","Great Grapes","Fruit/grapes.png","Lost","0.2,0.65","12","0.2","134","24","",""
"html-keyboard-response","81","361017","0.0-11.0-3.23","63153455849b153d56dd81db","bdp_rwlrn","Tue Mar 14 2023 16:16:28 GMT-0700 (Pacific Daylight Time)","793491","Trustworthy,Untrustworthy","","null","","","","feedback","","<div class='respPicDiv'><img src='img/responseButtonOffersNo0_wht.png' class='respPic'></div><div class='trialDiv'><img src='Fruit/grapes.png'><br><font class='baseline'><strong>Great Grapes</strong><p><strong><font class='negOutcome'>You LOST</font><p>You bet: 2</strong></font> &nbsp; &nbsp; &nbsp; &nbsp; &nbsp; &nbsp;<font class='negOutcome'>You receive: <strong>0</strong></font></div>","null","8","Great Grapes","Fruit/grapes.png","Lost","0.2,0.65","12","0.2","134","24","",""
"html-keyboard-response","82","361290","0.0-11.0-1.24","63153455849b153d56dd81db","bdp_rwlrn","Tue Mar 14 2023 16:16:28 GMT-0700 (Pacific Daylight Time)","793491","Trustworthy,Untrustworthy","","270","","","","decision","","<div class='trialDiv'><img src='Fruit/bananas.png'><br><font class='baseline'><strong>Banana Bonanza</strong><p>Choose number of points to bet.</font><div class='respPicDiv'><img src='img/responseButtonOffersNo0L.png' class='respPic'></div></div>","3","9","Banana Bonanza","Fruit/bananas.png","Won","0.8,0.35","11","0.8","139","25","",""
"html-keyboard-response","83","361561","0.0-11.0-2.24","63153455849b153d56dd81db","bdp_rwlrn","Tue Mar 14 2023 16:16:28 GMT-0700 (Pacific Daylight Time)","793491","Trustworthy,Untrustworthy","","null","","","","decisionFB","","<div class='trialDiv'><img src='Fruit/bananas.png'><br><font class='baseline'><strong>Banana Bonanza</strong><p>Choose number of points to bet.</font><div class='respPicDiv'><img src='img/responseButtonOffersNo0L3.png' class='respPic'></div></div>","null","9","Banana Bonanza","Fruit/bananas.png","Won","0.8,0.35","11","0.8","136","25","",""
"html-keyboard-response","84","362582","0.0-11.0-3.24","63153455849b153d56dd81db","bdp_rwlrn","Tue Mar 14 2023 16:16:28 GMT-0700 (Pacific Daylight Time)","793491","Trustworthy,Untrustworthy","","null","","","","feedback","","<div class='respPicDiv'><img src='img/responseButtonOffersNo0_wht.png' class='respPic'></div><div class='trialDiv'><img src='Fruit/bananas.png'><br><font class='baseline'><strong>Banana Bonanza</strong><p><strong><font class='posOutcome'>You WON</font><p>You bet: 3</strong></font> &nbsp; &nbsp; &nbsp; &nbsp; &nbsp; &nbsp;<font class='posOutcome'>you receive: <strong>6</strong></font></div>","null","9","Banana Bonanza","Fruit/bananas.png","Won","0.8,0.35","11","0.8","142","25","",""
"html-keyboard-response","85","363473","0.0-11.0-1.25","63153455849b153d56dd81db","bdp_rwlrn","Tue Mar 14 2023 16:16:28 GMT-0700 (Pacific Daylight Time)","793491","Trustworthy,Untrustworthy","","888","","","","decision","","<div class='trialDiv'><img src='Fruit/lemon.png'><br><font class='baseline'><strong>Lucky Lemons</strong><p>Choose number of points to bet.</font><div class='respPicDiv'><img src='img/responseButtonOffersNo0L.png' class='respPic'></div></div>","1","9","Lucky Lemons","Fruit/lemon.png","Won","0.65,0.35","14","0.65","147","26","",""
"html-keyboard-response","86","363745","0.0-11.0-2.25","63153455849b153d56dd81db","bdp_rwlrn","Tue Mar 14 2023 16:16:28 GMT-0700 (Pacific Daylight Time)","793491","Trustworthy,Untrustworthy","","null","","","","decisionFB","","<div class='trialDiv'><img src='Fruit/lemon.png'><br><font class='baseline'><strong>Lucky Lemons</strong><p>Choose number of points to bet.</font><div class='respPicDiv'><img src='img/responseButtonOffersNo0L1.png' class='respPic'></div></div>","null","9","Lucky Lemons","Fruit/lemon.png","Won","0.65,0.35","14","0.65","146","26","",""
"html-keyboard-response","87","364766","0.0-11.0-3.25","63153455849b153d56dd81db","bdp_rwlrn","Tue Mar 14 2023 16:16:28 GMT-0700 (Pacific Daylight Time)","793491","Trustworthy,Untrustworthy","","null","","","","feedback","","<div class='respPicDiv'><img src='img/responseButtonOffersNo0_wht.png' class='respPic'></div><div class='trialDiv'><img src='Fruit/lemon.png'><br><font class='baseline'><strong>Lucky Lemons</strong><p><strong><font class='posOutcome'>You WON</font><p>You bet: 1</strong></font> &nbsp; &nbsp; &nbsp; &nbsp; &nbsp; &nbsp;<font class='posOutcome'>you receive: <strong>2</strong></font></div>","null","9","Lucky Lemons","Fruit/lemon.png","Won","0.65,0.35","14","0.65","148","26","",""
"html-keyboard-response","88","365432","0.0-11.0-1.26","63153455849b153d56dd81db","bdp_rwlrn","Tue Mar 14 2023 16:16:28 GMT-0700 (Pacific Daylight Time)","793491","Trustworthy,Untrustworthy","","665","","","","decision","","<div class='trialDiv'><img src='Fruit/grapes.png'><br><font class='baseline'><strong>Great Grapes</strong><p>Choose number of points to bet.</font><div class='respPicDiv'><img src='img/responseButtonOffersNo0L.png' class='respPic'></div></div>","4","9","Great Grapes","Fruit/grapes.png","Lost","0.2,0.65","12","0.2","153","27","",""
"html-keyboard-response","89","365694","0.0-11.0-2.26","63153455849b153d56dd81db","bdp_rwlrn","Tue Mar 14 2023 16:16:28 GMT-0700 (Pacific Daylight Time)","793491","Trustworthy,Untrustworthy","","null","","","","decisionFB","","<div class='trialDiv'><img src='Fruit/grapes.png'><br><font class='baseline'><strong>Great Grapes</strong><p>Choose number of points to bet.</font><div class='respPicDiv'><img src='img/responseButtonOffersNo0L4.png' class='respPic'></div></div>","null","9","Great Grapes","Fruit/grapes.png","Lost","0.2,0.65","12","0.2","149","27","",""
"html-keyboard-response","90","366699","0.0-11.0-3.26","63153455849b153d56dd81db","bdp_rwlrn","Tue Mar 14 2023 16:16:28 GMT-0700 (Pacific Daylight Time)","793491","Trustworthy,Untrustworthy","","null","","","","feedback","","<div class='respPicDiv'><img src='img/responseButtonOffersNo0_wht.png' class='respPic'></div><div class='trialDiv'><img src='Fruit/grapes.png'><br><font class='baseline'><strong>Great Grapes</strong><p><strong><font class='negOutcome'>You LOST</font><p>You bet: 4</strong></font> &nbsp; &nbsp; &nbsp; &nbsp; &nbsp; &nbsp;<font class='negOutcome'>You receive: <strong>0</strong></font></div>","null","9","Great Grapes","Fruit/grapes.png","Lost","0.2,0.65","12","0.2","149","27","",""
"html-keyboard-response","91","367186","0.0-11.0-1.27","63153455849b153d56dd81db","bdp_rwlrn","Tue Mar 14 2023 16:16:28 GMT-0700 (Pacific Daylight Time)","793491","Trustworthy,Untrustworthy","","484","","","","decision","","<div class='trialDiv'><img src='Fruit/bananas.png'><br><font class='baseline'><strong>Banana Bonanza</strong><p>Choose number of points to bet.</font><div class='respPicDiv'><img src='img/responseButtonOffersNo0L.png' class='respPic'></div></div>","5","10","Banana Bonanza","Fruit/bananas.png","Lost","0.8,0.35","11","0.8","154","28","",""
"html-keyboard-response","92","367457","0.0-11.0-2.27","63153455849b153d56dd81db","bdp_rwlrn","Tue Mar 14 2023 16:16:28 GMT-0700 (Pacific Daylight Time)","793491","Trustworthy,Untrustworthy","","null","","","","decisionFB","","<div class='trialDiv'><img src='Fruit/bananas.png'><br><font class='baseline'><strong>Banana Bonanza</strong><p>Choose number of points to bet.</font><div class='respPicDiv'><img src='img/responseButtonOffersNo0L5.png' class='respPic'></div></div>","null","10","Banana Bonanza","Fruit/bananas.png","Lost","0.8,0.35","11","0.8","149","28","",""
"html-keyboard-response","93","368479","0.0-11.0-3.27","63153455849b153d56dd81db","bdp_rwlrn","Tue Mar 14 2023 16:16:28 GMT-0700 (Pacific Daylight Time)","793491","Trustworthy,Untrustworthy","","null","","","","feedback","","<div class='respPicDiv'><img src='img/responseButtonOffersNo0_wht.png' class='respPic'></div><div class='trialDiv'><img src='Fruit/bananas.png'><br><font class='baseline'><strong>Banana Bonanza</strong><p><strong><font class='negOutcome'>You LOST</font><p>You bet: 5</strong></font> &nbsp; &nbsp; &nbsp; &nbsp; &nbsp; &nbsp;<font class='negOutcome'>You receive: <strong>0</strong></font></div>","null","10","Banana Bonanza","Fruit/bananas.png","Lost","0.8,0.35","11","0.8","149","28","",""
"html-keyboard-response","94","369248","0.0-11.0-1.28","63153455849b153d56dd81db","bdp_rwlrn","Tue Mar 14 2023 16:16:28 GMT-0700 (Pacific Daylight Time)","793491","Trustworthy,Untrustworthy","","766","","","","decision","","<div class='trialDiv'><img src='Fruit/grapes.png'><br><font class='baseline'><strong>Great Grapes</strong><p>Choose number of points to bet.</font><div class='respPicDiv'><img src='img/responseButtonOffersNo0L.png' class='respPic'></div></div>","2","10","Great Grapes","Fruit/grapes.png","Lost","0.2,0.65","12","0.2","154","29","",""
"html-keyboard-response","95","369518","0.0-11.0-2.28","63153455849b153d56dd81db","bdp_rwlrn","Tue Mar 14 2023 16:16:28 GMT-0700 (Pacific Daylight Time)","793491","Trustworthy,Untrustworthy","","null","","","","decisionFB","","<div class='trialDiv'><img src='Fruit/grapes.png'><br><font class='baseline'><strong>Great Grapes</strong><p>Choose number of points to bet.</font><div class='respPicDiv'><img src='img/responseButtonOffersNo0L2.png' class='respPic'></div></div>","null","10","Great Grapes","Fruit/grapes.png","Lost","0.2,0.65","12","0.2","152","29","",""
"html-keyboard-response","96","370524","0.0-11.0-3.28","63153455849b153d56dd81db","bdp_rwlrn","Tue Mar 14 2023 16:16:28 GMT-0700 (Pacific Daylight Time)","793491","Trustworthy,Untrustworthy","","null","","","","feedback","","<div class='respPicDiv'><img src='img/responseButtonOffersNo0_wht.png' class='respPic'></div><div class='trialDiv'><img src='Fruit/grapes.png'><br><font class='baseline'><strong>Great Grapes</strong><p><strong><font class='negOutcome'>You LOST</font><p>You bet: 2</strong></font> &nbsp; &nbsp; &nbsp; &nbsp; &nbsp; &nbsp;<font class='negOutcome'>You receive: <strong>0</strong></font></div>","null","10","Great Grapes","Fruit/grapes.png","Lost","0.2,0.65","12","0.2","152","29","",""
"html-keyboard-response","97","370802","0.0-11.0-1.29","63153455849b153d56dd81db","bdp_rwlrn","Tue Mar 14 2023 16:16:28 GMT-0700 (Pacific Daylight Time)","793491","Trustworthy,Untrustworthy","","274","","","","decision","","<div class='trialDiv'><img src='Fruit/lemon.png'><br><font class='baseline'><strong>Lucky Lemons</strong><p>Choose number of points to bet.</font><div class='respPicDiv'><img src='img/responseButtonOffersNo0L.png' class='respPic'></div></div>","3","10","Lucky Lemons","Fruit/lemon.png","Lost","0.65,0.35","14","0.65","157","30","",""
"html-keyboard-response","98","371073","0.0-11.0-2.29","63153455849b153d56dd81db","bdp_rwlrn","Tue Mar 14 2023 16:16:28 GMT-0700 (Pacific Daylight Time)","793491","Trustworthy,Untrustworthy","","null","","","","decisionFB","","<div class='trialDiv'><img src='Fruit/lemon.png'><br><font class='baseline'><strong>Lucky Lemons</strong><p>Choose number of points to bet.</font><div class='respPicDiv'><img src='img/responseButtonOffersNo0L3.png' class='respPic'></div></div>","null","10","Lucky Lemons","Fruit/lemon.png","Lost","0.65,0.35","14","0.65","154","30","",""
"html-keyboard-response","99","372094","0.0-11.0-3.29","63153455849b153d56dd81db","bdp_rwlrn","Tue Mar 14 2023 16:16:28 GMT-0700 (Pacific Daylight Time)","793491","Trustworthy,Untrustworthy","","null","","","","feedback","","<div class='respPicDiv'><img src='img/responseButtonOffersNo0_wht.png' class='respPic'></div><div class='trialDiv'><img src='Fruit/lemon.png'><br><font class='baseline'><strong>Lucky Lemons</strong><p><strong><font class='negOutcome'>You LOST</font><p>You bet: 3</strong></font> &nbsp; &nbsp; &nbsp; &nbsp; &nbsp; &nbsp;<font class='negOutcome'>You receive: <strong>0</strong></font></div>","null","10","Lucky Lemons","Fruit/lemon.png","Lost","0.65,0.35","14","0.65","154","30","",""
"html-keyboard-response","100","372386","0.0-11.0-1.30","63153455849b153d56dd81db","bdp_rwlrn","Tue Mar 14 2023 16:16:28 GMT-0700 (Pacific Daylight Time)","793491","Trustworthy,Untrustworthy","","289","","","","decision","","<div class='trialDiv'><img src='Fruit/bananas.png'><br><font class='baseline'><strong>Banana Bonanza</strong><p>Choose number of points to bet.</font><div class='respPicDiv'><img src='img/responseButtonOffersNo0L.png' class='respPic'></div></div>","1","11","Banana Bonanza","Fruit/bananas.png","Lost","0.8,0.35","11","0.8","159","31","",""
"html-keyboard-response","101","372648","0.0-11.0-2.30","63153455849b153d56dd81db","bdp_rwlrn","Tue Mar 14 2023 16:16:28 GMT-0700 (Pacific Daylight Time)","793491","Trustworthy,Untrustworthy","","null","","","","decisionFB","","<div class='trialDiv'><img src='Fruit/bananas.png'><br><font class='baseline'><strong>Banana Bonanza</strong><p>Choose number of points to bet.</font><div class='respPicDiv'><img src='img/responseButtonOffersNo0L1.png' class='respPic'></div></div>","null","11","Banana Bonanza","Fruit/bananas.png","Lost","0.8,0.35","11","0.8","158","31","",""
"html-keyboard-response","102","373671","0.0-11.0-3.30","63153455849b153d56dd81db","bdp_rwlrn","Tue Mar 14 2023 16:16:28 GMT-0700 (Pacific Daylight Time)","793491","Trustworthy,Untrustworthy","","null","","","","feedback","","<div class='respPicDiv'><img src='img/responseButtonOffersNo0_wht.png' class='respPic'></div><div class='trialDiv'><img src='Fruit/bananas.png'><br><font class='baseline'><strong>Banana Bonanza</strong><p><strong><font class='negOutcome'>You LOST</font><p>You bet: 1</strong></font> &nbsp; &nbsp; &nbsp; &nbsp; &nbsp; &nbsp;<font class='negOutcome'>You receive: <strong>0</strong></font></div>","null","11","Banana Bonanza","Fruit/bananas.png","Lost","0.8,0.35","11","0.8","158","31","",""
"html-keyboard-response","103","375170","0.0-11.0-1.31","63153455849b153d56dd81db","bdp_rwlrn","Tue Mar 14 2023 16:16:28 GMT-0700 (Pacific Daylight Time)","793491","Trustworthy,Untrustworthy","","1496","","","","decision","","<div class='trialDiv'><img src='Fruit/lemon.png'><br><font class='baseline'><strong>Lucky Lemons</strong><p>Choose number of points to bet.</font><div class='respPicDiv'><img src='img/responseButtonOffersNo0L.png' class='respPic'></div></div>","3","11","Lucky Lemons","Fruit/lemon.png","Lost","0.65,0.35","14","0.65","163","32","",""
"html-keyboard-response","104","375442","0.0-11.0-2.31","63153455849b153d56dd81db","bdp_rwlrn","Tue Mar 14 2023 16:16:28 GMT-0700 (Pacific Daylight Time)","793491","Trustworthy,Untrustworthy","","null","","","","decisionFB","","<div class='trialDiv'><img src='Fruit/lemon.png'><br><font class='baseline'><strong>Lucky Lemons</strong><p>Choose number of points to bet.</font><div class='respPicDiv'><img src='img/responseButtonOffersNo0L3.png' class='respPic'></div></div>","null","11","Lucky Lemons","Fruit/lemon.png","Lost","0.65,0.35","14","0.65","160","32","",""
"html-keyboard-response","105","376464","0.0-11.0-3.31","63153455849b153d56dd81db","bdp_rwlrn","Tue Mar 14 2023 16:16:28 GMT-0700 (Pacific Daylight Time)","793491","Trustworthy,Untrustworthy","","null","","","","feedback","","<div class='respPicDiv'><img src='img/responseButtonOffersNo0_wht.png' class='respPic'></div><div class='trialDiv'><img src='Fruit/lemon.png'><br><font class='baseline'><strong>Lucky Lemons</strong><p><strong><font class='negOutcome'>You LOST</font><p>You bet: 3</strong></font> &nbsp; &nbsp; &nbsp; &nbsp; &nbsp; &nbsp;<font class='negOutcome'>You receive: <strong>0</strong></font></div>","null","11","Lucky Lemons","Fruit/lemon.png","Lost","0.65,0.35","14","0.65","160","32","",""
"html-keyboard-response","106","376833","0.0-11.0-1.32","63153455849b153d56dd81db","bdp_rwlrn","Tue Mar 14 2023 16:16:28 GMT-0700 (Pacific Daylight Time)","793491","Trustworthy,Untrustworthy","","368","","","","decision","","<div class='trialDiv'><img src='Fruit/grapes.png'><br><font class='baseline'><strong>Great Grapes</strong><p>Choose number of points to bet.</font><div class='respPicDiv'><img src='img/responseButtonOffersNo0L.png' class='respPic'></div></div>","4","11","Great Grapes","Fruit/grapes.png","Lost","0.2,0.65","12","0.2","165","33","",""
"html-keyboard-response","107","377104","0.0-11.0-2.32","63153455849b153d56dd81db","bdp_rwlrn","Tue Mar 14 2023 16:16:28 GMT-0700 (Pacific Daylight Time)","793491","Trustworthy,Untrustworthy","","null","","","","decisionFB","","<div class='trialDiv'><img src='Fruit/grapes.png'><br><font class='baseline'><strong>Great Grapes</strong><p>Choose number of points to bet.</font><div class='respPicDiv'><img src='img/responseButtonOffersNo0L4.png' class='respPic'></div></div>","null","11","Great Grapes","Fruit/grapes.png","Lost","0.2,0.65","12","0.2","161","33","",""
"html-keyboard-response","108","378126","0.0-11.0-3.32","63153455849b153d56dd81db","bdp_rwlrn","Tue Mar 14 2023 16:16:28 GMT-0700 (Pacific Daylight Time)","793491","Trustworthy,Untrustworthy","","null","","","","feedback","","<div class='respPicDiv'><img src='img/responseButtonOffersNo0_wht.png' class='respPic'></div><div class='trialDiv'><img src='Fruit/grapes.png'><br><font class='baseline'><strong>Great Grapes</strong><p><strong><font class='negOutcome'>You LOST</font><p>You bet: 4</strong></font> &nbsp; &nbsp; &nbsp; &nbsp; &nbsp; &nbsp;<font class='negOutcome'>You receive: <strong>0</strong></font></div>","null","11","Great Grapes","Fruit/grapes.png","Lost","0.2,0.65","12","0.2","161","33","",""
"html-keyboard-response","109","378680","0.0-11.0-1.33","63153455849b153d56dd81db","bdp_rwlrn","Tue Mar 14 2023 16:16:28 GMT-0700 (Pacific Daylight Time)","793491","Trustworthy,Untrustworthy","","551","","","","decision","","<div class='trialDiv'><img src='Fruit/lemon.png'><br><font class='baseline'><strong>Lucky Lemons</strong><p>Choose number of points to bet.</font><div class='respPicDiv'><img src='img/responseButtonOffersNo0L.png' class='respPic'></div></div>","4","12","Lucky Lemons","Fruit/lemon.png","Won","0.65,0.35","14","0.65","166","34","",""
"html-keyboard-response","110","378951","0.0-11.0-2.33","63153455849b153d56dd81db","bdp_rwlrn","Tue Mar 14 2023 16:16:28 GMT-0700 (Pacific Daylight Time)","793491","Trustworthy,Untrustworthy","","null","","","","decisionFB","","<div class='trialDiv'><img src='Fruit/lemon.png'><br><font class='baseline'><strong>Lucky Lemons</strong><p>Choose number of points to bet.</font><div class='respPicDiv'><img src='img/responseButtonOffersNo0L4.png' class='respPic'></div></div>","null","12","Lucky Lemons","Fruit/lemon.png","Won","0.65,0.35","14","0.65","162","34","",""
"html-keyboard-response","111","379973","0.0-11.0-3.33","63153455849b153d56dd81db","bdp_rwlrn","Tue Mar 14 2023 16:16:28 GMT-0700 (Pacific Daylight Time)","793491","Trustworthy,Untrustworthy","","null","","","","feedback","","<div class='respPicDiv'><img src='img/responseButtonOffersNo0_wht.png' class='respPic'></div><div class='trialDiv'><img src='Fruit/lemon.png'><br><font class='baseline'><strong>Lucky Lemons</strong><p><strong><font class='posOutcome'>You WON</font><p>You bet: 4</strong></font> &nbsp; &nbsp; &nbsp; &nbsp; &nbsp; &nbsp;<font class='posOutcome'>you receive: <strong>8</strong></font></div>","null","12","Lucky Lemons","Fruit/lemon.png","Won","0.65,0.35","14","0.65","170","34","",""
"html-keyboard-response","112","380274","0.0-11.0-1.34","63153455849b153d56dd81db","bdp_rwlrn","Tue Mar 14 2023 16:16:28 GMT-0700 (Pacific Daylight Time)","793491","Trustworthy,Untrustworthy","","298","","","","decision","","<div class='trialDiv'><img src='Fruit/grapes.png'><br><font class='baseline'><strong>Great Grapes</strong><p>Choose number of points to bet.</font><div class='respPicDiv'><img src='img/responseButtonOffersNo0L.png' class='respPic'></div></div>","4","12","Great Grapes","Fruit/grapes.png","Won","0.2,0.65","12","0.2","175","35","",""
"html-keyboard-response","113","380545","0.0-11.0-2.34","63153455849b153d56dd81db","bdp_rwlrn","Tue Mar 14 2023 16:16:28 GMT-0700 (Pacific Daylight Time)","793491","Trustworthy,Untrustworthy","","null","","","","decisionFB","","<div class='trialDiv'><img src='Fruit/grapes.png'><br><font class='baseline'><strong>Great Grapes</strong><p>Choose number of points to bet.</font><div class='respPicDiv'><img src='img/responseButtonOffersNo0L4.png' class='respPic'></div></div>","null","12","Great Grapes","Fruit/grapes.png","Won","0.2,0.65","12","0.2","171","35","",""
"html-keyboard-response","114","381567","0.0-11.0-3.34","63153455849b153d56dd81db","bdp_rwlrn","Tue Mar 14 2023 16:16:28 GMT-0700 (Pacific Daylight Time)","793491","Trustworthy,Untrustworthy","","null","","","","feedback","","<div class='respPicDiv'><img src='img/responseButtonOffersNo0_wht.png' class='respPic'></div><div class='trialDiv'><img src='Fruit/grapes.png'><br><font class='baseline'><strong>Great Grapes</strong><p><strong><font class='posOutcome'>You WON</font><p>You bet: 4</strong></font> &nbsp; &nbsp; &nbsp; &nbsp; &nbsp; &nbsp;<font class='posOutcome'>you receive: <strong>8</strong></font></div>","null","12","Great Grapes","Fruit/grapes.png","Won","0.2,0.65","12","0.2","179","35","",""
"html-keyboard-response","115","382040","0.0-11.0-1.35","63153455849b153d56dd81db","bdp_rwlrn","Tue Mar 14 2023 16:16:28 GMT-0700 (Pacific Daylight Time)","793491","Trustworthy,Untrustworthy","","472","","","","decision","","<div class='trialDiv'><img src='Fruit/bananas.png'><br><font class='baseline'><strong>Banana Bonanza</strong><p>Choose number of points to bet.</font><div class='respPicDiv'><img src='img/responseButtonOffersNo0L.png' class='respPic'></div></div>","4","12","Banana Bonanza","Fruit/bananas.png","Lost","0.8,0.35","11","0.8","184","36","",""
"html-keyboard-response","116","382295","0.0-11.0-2.35","63153455849b153d56dd81db","bdp_rwlrn","Tue Mar 14 2023 16:16:28 GMT-0700 (Pacific Daylight Time)","793491","Trustworthy,Untrustworthy","","null","","","","decisionFB","","<div class='trialDiv'><img src='Fruit/bananas.png'><br><font class='baseline'><strong>Banana Bonanza</strong><p>Choose number of points to bet.</font><div class='respPicDiv'><img src='img/responseButtonOffersNo0L4.png' class='respPic'></div></div>","null","12","Banana Bonanza","Fruit/bananas.png","Lost","0.8,0.35","11","0.8","180","36","",""
"html-keyboard-response","117","383301","0.0-11.0-3.35","63153455849b153d56dd81db","bdp_rwlrn","Tue Mar 14 2023 16:16:28 GMT-0700 (Pacific Daylight Time)","793491","Trustworthy,Untrustworthy","","null","","","","feedback","","<div class='respPicDiv'><img src='img/responseButtonOffersNo0_wht.png' class='respPic'></div><div class='trialDiv'><img src='Fruit/bananas.png'><br><font class='baseline'><strong>Banana Bonanza</strong><p><strong><font class='negOutcome'>You LOST</font><p>You bet: 4</strong></font> &nbsp; &nbsp; &nbsp; &nbsp; &nbsp; &nbsp;<font class='negOutcome'>You receive: <strong>0</strong></font></div>","null","12","Banana Bonanza","Fruit/bananas.png","Lost","0.8,0.35","11","0.8","180","36","",""
"html-keyboard-response","118","383448","0.0-11.0-1.36","63153455849b153d56dd81db","bdp_rwlrn","Tue Mar 14 2023 16:16:28 GMT-0700 (Pacific Daylight Time)","793491","Trustworthy,Untrustworthy","","146","","","","decision","","<div class='trialDiv'><img src='Fruit/grapes.png'><br><font class='baseline'><strong>Great Grapes</strong><p>Choose number of points to bet.</font><div class='respPicDiv'><img src='img/responseButtonOffersNo0L.png' class='respPic'></div></div>","2","13","Great Grapes","Fruit/grapes.png","Won","0.2,0.65","12","0.2","185","37","",""
"html-keyboard-response","119","383705","0.0-11.0-2.36","63153455849b153d56dd81db","bdp_rwlrn","Tue Mar 14 2023 16:16:28 GMT-0700 (Pacific Daylight Time)","793491","Trustworthy,Untrustworthy","","null","","","","decisionFB","","<div class='trialDiv'><img src='Fruit/grapes.png'><br><font class='baseline'><strong>Great Grapes</strong><p>Choose number of points to bet.</font><div class='respPicDiv'><img src='img/responseButtonOffersNo0L2.png' class='respPic'></div></div>","null","13","Great Grapes","Fruit/grapes.png","Won","0.2,0.65","12","0.2","183","37","",""
"html-keyboard-response","120","384725","0.0-11.0-3.36","63153455849b153d56dd81db","bdp_rwlrn","Tue Mar 14 2023 16:16:28 GMT-0700 (Pacific Daylight Time)","793491","Trustworthy,Untrustworthy","","null","","","","feedback","","<div class='respPicDiv'><img src='img/responseButtonOffersNo0_wht.png' class='respPic'></div><div class='trialDiv'><img src='Fruit/grapes.png'><br><font class='baseline'><strong>Great Grapes</strong><p><strong><font class='posOutcome'>You WON</font><p>You bet: 2</strong></font> &nbsp; &nbsp; &nbsp; &nbsp; &nbsp; &nbsp;<font class='posOutcome'>you receive: <strong>4</strong></font></div>","null","13","Great Grapes","Fruit/grapes.png","Won","0.2,0.65","12","0.2","187","37","",""
"html-keyboard-response","121","385088","0.0-11.0-1.37","63153455849b153d56dd81db","bdp_rwlrn","Tue Mar 14 2023 16:16:28 GMT-0700 (Pacific Daylight Time)","793491","Trustworthy,Untrustworthy","","361","","","","decision","","<div class='trialDiv'><img src='Fruit/lemon.png'><br><font class='baseline'><strong>Lucky Lemons</strong><p>Choose number of points to bet.</font><div class='respPicDiv'><img src='img/responseButtonOffersNo0L.png' class='respPic'></div></div>","3","13","Lucky Lemons","Fruit/lemon.png","Lost","0.65,0.35","14","0.65","192","38","",""
"html-keyboard-response","122","385360","0.0-11.0-2.37","63153455849b153d56dd81db","bdp_rwlrn","Tue Mar 14 2023 16:16:28 GMT-0700 (Pacific Daylight Time)","793491","Trustworthy,Untrustworthy","","null","","","","decisionFB","","<div class='trialDiv'><img src='Fruit/lemon.png'><br><font class='baseline'><strong>Lucky Lemons</strong><p>Choose number of points to bet.</font><div class='respPicDiv'><img src='img/responseButtonOffersNo0L3.png' class='respPic'></div></div>","null","13","Lucky Lemons","Fruit/lemon.png","Lost","0.65,0.35","14","0.65","189","38","",""
"html-keyboard-response","123","386380","0.0-11.0-3.37","63153455849b153d56dd81db","bdp_rwlrn","Tue Mar 14 2023 16:16:28 GMT-0700 (Pacific Daylight Time)","793491","Trustworthy,Untrustworthy","","null","","","","feedback","","<div class='respPicDiv'><img src='img/responseButtonOffersNo0_wht.png' class='respPic'></div><div class='trialDiv'><img src='Fruit/lemon.png'><br><font class='baseline'><strong>Lucky Lemons</strong><p><strong><font class='negOutcome'>You LOST</font><p>You bet: 3</strong></font> &nbsp; &nbsp; &nbsp; &nbsp; &nbsp; &nbsp;<font class='negOutcome'>You receive: <strong>0</strong></font></div>","null","13","Lucky Lemons","Fruit/lemon.png","Lost","0.65,0.35","14","0.65","189","38","",""
"html-keyboard-response","124","386568","0.0-11.0-1.38","63153455849b153d56dd81db","bdp_rwlrn","Tue Mar 14 2023 16:16:28 GMT-0700 (Pacific Daylight Time)","793491","Trustworthy,Untrustworthy","","186","","","","decision","","<div class='trialDiv'><img src='Fruit/bananas.png'><br><font class='baseline'><strong>Banana Bonanza</strong><p>Choose number of points to bet.</font><div class='respPicDiv'><img src='img/responseButtonOffersNo0L.png' class='respPic'></div></div>","5","13","Banana Bonanza","Fruit/bananas.png","Won","0.8,0.35","11","0.8","194","39","",""
"html-keyboard-response","125","386835","0.0-11.0-2.38","63153455849b153d56dd81db","bdp_rwlrn","Tue Mar 14 2023 16:16:28 GMT-0700 (Pacific Daylight Time)","793491","Trustworthy,Untrustworthy","","null","","","","decisionFB","","<div class='trialDiv'><img src='Fruit/bananas.png'><br><font class='baseline'><strong>Banana Bonanza</strong><p>Choose number of points to bet.</font><div class='respPicDiv'><img src='img/responseButtonOffersNo0L5.png' class='respPic'></div></div>","null","13","Banana Bonanza","Fruit/bananas.png","Won","0.8,0.35","11","0.8","189","39","",""
"html-keyboard-response","126","387847","0.0-11.0-3.38","63153455849b153d56dd81db","bdp_rwlrn","Tue Mar 14 2023 16:16:28 GMT-0700 (Pacific Daylight Time)","793491","Trustworthy,Untrustworthy","","null","","","","feedback","","<div class='respPicDiv'><img src='img/responseButtonOffersNo0_wht.png' class='respPic'></div><div class='trialDiv'><img src='Fruit/bananas.png'><br><font class='baseline'><strong>Banana Bonanza</strong><p><strong><font class='posOutcome'>You WON</font><p>You bet: 5</strong></font> &nbsp; &nbsp; &nbsp; &nbsp; &nbsp; &nbsp;<font class='posOutcome'>you receive: <strong>10</strong></font></div>","null","13","Banana Bonanza","Fruit/bananas.png","Won","0.8,0.35","11","0.8","199","39","",""
"html-keyboard-response","127","388128","0.0-11.0-1.39","63153455849b153d56dd81db","bdp_rwlrn","Tue Mar 14 2023 16:16:28 GMT-0700 (Pacific Daylight Time)","793491","Trustworthy,Untrustworthy","","279","","","","decision","","<div class='trialDiv'><img src='Fruit/grapes.png'><br><font class='baseline'><strong>Great Grapes</strong><p>Choose number of points to bet.</font><div class='respPicDiv'><img src='img/responseButtonOffersNo0L.png' class='respPic'></div></div>","4","14","Great Grapes","Fruit/grapes.png","Won","0.2,0.65","12","0.2","204","40","",""
"html-keyboard-response","128","388399","0.0-11.0-2.39","63153455849b153d56dd81db","bdp_rwlrn","Tue Mar 14 2023 16:16:28 GMT-0700 (Pacific Daylight Time)","793491","Trustworthy,Untrustworthy","","null","","","","decisionFB","","<div class='trialDiv'><img src='Fruit/grapes.png'><br><font class='baseline'><strong>Great Grapes</strong><p>Choose number of points to bet.</font><div class='respPicDiv'><img src='img/responseButtonOffersNo0L4.png' class='respPic'></div></div>","null","14","Great Grapes","Fruit/grapes.png","Won","0.2,0.65","12","0.2","200","40","",""
"html-keyboard-response","129","389405","0.0-11.0-3.39","63153455849b153d56dd81db","bdp_rwlrn","Tue Mar 14 2023 16:16:28 GMT-0700 (Pacific Daylight Time)","793491","Trustworthy,Untrustworthy","","null","","","","feedback","","<div class='respPicDiv'><img src='img/responseButtonOffersNo0_wht.png' class='respPic'></div><div class='trialDiv'><img src='Fruit/grapes.png'><br><font class='baseline'><strong>Great Grapes</strong><p><strong><font class='posOutcome'>You WON</font><p>You bet: 4</strong></font> &nbsp; &nbsp; &nbsp; &nbsp; &nbsp; &nbsp;<font class='posOutcome'>you receive: <strong>8</strong></font></div>","null","14","Great Grapes","Fruit/grapes.png","Won","0.2,0.65","12","0.2","208","40","",""
"html-keyboard-response","130","389753","0.0-11.0-1.40","63153455849b153d56dd81db","bdp_rwlrn","Tue Mar 14 2023 16:16:28 GMT-0700 (Pacific Daylight Time)","793491","Trustworthy,Untrustworthy","","346","","","","decision","","<div class='trialDiv'><img src='Fruit/bananas.png'><br><font class='baseline'><strong>Banana Bonanza</strong><p>Choose number of points to bet.</font><div class='respPicDiv'><img src='img/responseButtonOffersNo0L.png' class='respPic'></div></div>","4","14","Banana Bonanza","Fruit/bananas.png","Lost","0.8,0.35","11","0.8","213","41","",""
"html-keyboard-response","131","390772","0.0-11.0-2.40","63153455849b153d56dd81db","bdp_rwlrn","Tue Mar 14 2023 16:16:28 GMT-0700 (Pacific Daylight Time)","793491","Trustworthy,Untrustworthy","","null","","","","decisionFB","","<div class='trialDiv'><img src='Fruit/bananas.png'><br><font class='baseline'><strong>Banana Bonanza</strong><p>Choose number of points to bet.</font><div class='respPicDiv'><img src='img/responseButtonOffersNo0L4.png' class='respPic'></div></div>","null","14","Banana Bonanza","Fruit/bananas.png","Lost","0.8,0.35","11","0.8","209","41","",""
"html-keyboard-response","132","391791","0.0-11.0-3.40","63153455849b153d56dd81db","bdp_rwlrn","Tue Mar 14 2023 16:16:28 GMT-0700 (Pacific Daylight Time)","793491","Trustworthy,Untrustworthy","","null","","","","feedback","","<div class='respPicDiv'><img src='img/responseButtonOffersNo0_wht.png' class='respPic'></div><div class='trialDiv'><img src='Fruit/bananas.png'><br><font class='baseline'><strong>Banana Bonanza</strong><p><strong><font class='negOutcome'>You LOST</font><p>You bet: 4</strong></font> &nbsp; &nbsp; &nbsp; &nbsp; &nbsp; &nbsp;<font class='negOutcome'>You receive: <strong>0</strong></font></div>","null","14","Banana Bonanza","Fruit/bananas.png","Lost","0.8,0.35","11","0.8","209","41","",""
"html-keyboard-response","133","391873","0.0-11.0-1.41","63153455849b153d56dd81db","bdp_rwlrn","Tue Mar 14 2023 16:16:28 GMT-0700 (Pacific Daylight Time)","793491","Trustworthy,Untrustworthy","","79","","","","decision","","<div class='trialDiv'><img src='Fruit/lemon.png'><br><font class='baseline'><strong>Lucky Lemons</strong><p>Choose number of points to bet.</font><div class='respPicDiv'><img src='img/responseButtonOffersNo0L.png' class='respPic'></div></div>","2","14","Lucky Lemons","Fruit/lemon.png","Lost","0.65,0.35","14","0.65","214","42","",""
"html-keyboard-response","134","392135","0.0-11.0-2.41","63153455849b153d56dd81db","bdp_rwlrn","Tue Mar 14 2023 16:16:28 GMT-0700 (Pacific Daylight Time)","793491","Trustworthy,Untrustworthy","","null","","","","decisionFB","","<div class='trialDiv'><img src='Fruit/lemon.png'><br><font class='baseline'><strong>Lucky Lemons</strong><p>Choose number of points to bet.</font><div class='respPicDiv'><img src='img/responseButtonOffersNo0L2.png' class='respPic'></div></div>","null","14","Lucky Lemons","Fruit/lemon.png","Lost","0.65,0.35","14","0.65","212","42","",""
"html-keyboard-response","135","393141","0.0-11.0-3.41","63153455849b153d56dd81db","bdp_rwlrn","Tue Mar 14 2023 16:16:28 GMT-0700 (Pacific Daylight Time)","793491","Trustworthy,Untrustworthy","","null","","","","feedback","","<div class='respPicDiv'><img src='img/responseButtonOffersNo0_wht.png' class='respPic'></div><div class='trialDiv'><img src='Fruit/lemon.png'><br><font class='baseline'><strong>Lucky Lemons</strong><p><strong><font class='negOutcome'>You LOST</font><p>You bet: 2</strong></font> &nbsp; &nbsp; &nbsp; &nbsp; &nbsp; &nbsp;<font class='negOutcome'>You receive: <strong>0</strong></font></div>","null","14","Lucky Lemons","Fruit/lemon.png","Lost","0.65,0.35","14","0.65","212","42","",""
"html-keyboard-response","136","393625","0.0-11.0-1.42","63153455849b153d56dd81db","bdp_rwlrn","Tue Mar 14 2023 16:16:28 GMT-0700 (Pacific Daylight Time)","793491","Trustworthy,Untrustworthy","","481","","","","decision","","<div class='trialDiv'><img src='Fruit/grapes.png'><br><font class='baseline'><strong>Great Grapes</strong><p>Choose number of points to bet.</font><div class='respPicDiv'><img src='img/responseButtonOffersNo0L.png' class='respPic'></div></div>","3","15","Great Grapes","Fruit/grapes.png","Lost","0.2,0.65","12","0.2","217","43","",""
"html-keyboard-response","137","393896","0.0-11.0-2.42","63153455849b153d56dd81db","bdp_rwlrn","Tue Mar 14 2023 16:16:28 GMT-0700 (Pacific Daylight Time)","793491","Trustworthy,Untrustworthy","","null","","","","decisionFB","","<div class='trialDiv'><img src='Fruit/grapes.png'><br><font class='baseline'><strong>Great Grapes</strong><p>Choose number of points to bet.</font><div class='respPicDiv'><img src='img/responseButtonOffersNo0L3.png' class='respPic'></div></div>","null","15","Great Grapes","Fruit/grapes.png","Lost","0.2,0.65","12","0.2","214","43","",""
"html-keyboard-response","138","394902","0.0-11.0-3.42","63153455849b153d56dd81db","bdp_rwlrn","Tue Mar 14 2023 16:16:28 GMT-0700 (Pacific Daylight Time)","793491","Trustworthy,Untrustworthy","","null","","","","feedback","","<div class='respPicDiv'><img src='img/responseButtonOffersNo0_wht.png' class='respPic'></div><div class='trialDiv'><img src='Fruit/grapes.png'><br><font class='baseline'><strong>Great Grapes</strong><p><strong><font class='negOutcome'>You LOST</font><p>You bet: 3</strong></font> &nbsp; &nbsp; &nbsp; &nbsp; &nbsp; &nbsp;<font class='negOutcome'>You receive: <strong>0</strong></font></div>","null","15","Great Grapes","Fruit/grapes.png","Lost","0.2,0.65","12","0.2","214","43","",""
"html-keyboard-response","139","395304","0.0-11.0-1.43","63153455849b153d56dd81db","bdp_rwlrn","Tue Mar 14 2023 16:16:28 GMT-0700 (Pacific Daylight Time)","793491","Trustworthy,Untrustworthy","","401","","","","decision","","<div class='trialDiv'><img src='Fruit/lemon.png'><br><font class='baseline'><strong>Lucky Lemons</strong><p>Choose number of points to bet.</font><div class='respPicDiv'><img src='img/responseButtonOffersNo0L.png' class='respPic'></div></div>","4","15","Lucky Lemons","Fruit/lemon.png","Lost","0.65,0.35","14","0.65","219","44","",""
"html-keyboard-response","140","395576","0.0-11.0-2.43","63153455849b153d56dd81db","bdp_rwlrn","Tue Mar 14 2023 16:16:28 GMT-0700 (Pacific Daylight Time)","793491","Trustworthy,Untrustworthy","","null","","","","decisionFB","","<div class='trialDiv'><img src='Fruit/lemon.png'><br><font class='baseline'><strong>Lucky Lemons</strong><p>Choose number of points to bet.</font><div class='respPicDiv'><img src='img/responseButtonOffersNo0L4.png' class='respPic'></div></div>","null","15","Lucky Lemons","Fruit/lemon.png","Lost","0.65,0.35","14","0.65","215","44","",""
"html-keyboard-response","141","396586","0.0-11.0-3.43","63153455849b153d56dd81db","bdp_rwlrn","Tue Mar 14 2023 16:16:28 GMT-0700 (Pacific Daylight Time)","793491","Trustworthy,Untrustworthy","","null","","","","feedback","","<div class='respPicDiv'><img src='img/responseButtonOffersNo0_wht.png' class='respPic'></div><div class='trialDiv'><img src='Fruit/lemon.png'><br><font class='baseline'><strong>Lucky Lemons</strong><p><strong><font class='negOutcome'>You LOST</font><p>You bet: 4</strong></font> &nbsp; &nbsp; &nbsp; &nbsp; &nbsp; &nbsp;<font class='negOutcome'>You receive: <strong>0</strong></font></div>","null","15","Lucky Lemons","Fruit/lemon.png","Lost","0.65,0.35","14","0.65","215","44","",""
"html-keyboard-response","142","396721","0.0-11.0-1.44","63153455849b153d56dd81db","bdp_rwlrn","Tue Mar 14 2023 16:16:28 GMT-0700 (Pacific Daylight Time)","793491","Trustworthy,Untrustworthy","","133","","","","decision","","<div class='trialDiv'><img src='Fruit/bananas.png'><br><font class='baseline'><strong>Banana Bonanza</strong><p>Choose number of points to bet.</font><div class='respPicDiv'><img src='img/responseButtonOffersNo0L.png' class='respPic'></div></div>","2","15","Banana Bonanza","Fruit/bananas.png","Lost","0.8,0.35","11","0.8","220","45","",""
"html-keyboard-response","143","396990","0.0-11.0-2.44","63153455849b153d56dd81db","bdp_rwlrn","Tue Mar 14 2023 16:16:28 GMT-0700 (Pacific Daylight Time)","793491","Trustworthy,Untrustworthy","","null","","","","decisionFB","","<div class='trialDiv'><img src='Fruit/bananas.png'><br><font class='baseline'><strong>Banana Bonanza</strong><p>Choose number of points to bet.</font><div class='respPicDiv'><img src='img/responseButtonOffersNo0L2.png' class='respPic'></div></div>","null","15","Banana Bonanza","Fruit/bananas.png","Lost","0.8,0.35","11","0.8","218","45","",""
"html-keyboard-response","144","397996","0.0-11.0-3.44","63153455849b153d56dd81db","bdp_rwlrn","Tue Mar 14 2023 16:16:28 GMT-0700 (Pacific Daylight Time)","793491","Trustworthy,Untrustworthy","","null","","","","feedback","","<div class='respPicDiv'><img src='img/responseButtonOffersNo0_wht.png' class='respPic'></div><div class='trialDiv'><img src='Fruit/bananas.png'><br><font class='baseline'><strong>Banana Bonanza</strong><p><strong><font class='negOutcome'>You LOST</font><p>You bet: 2</strong></font> &nbsp; &nbsp; &nbsp; &nbsp; &nbsp; &nbsp;<font class='negOutcome'>You receive: <strong>0</strong></font></div>","null","15","Banana Bonanza","Fruit/bananas.png","Lost","0.8,0.35","11","0.8","218","45","",""
"html-keyboard-response","145","398681","0.0-11.0-1.45","63153455849b153d56dd81db","bdp_rwlrn","Tue Mar 14 2023 16:16:28 GMT-0700 (Pacific Daylight Time)","793491","Trustworthy,Untrustworthy","","682","","","","decision","","<div class='trialDiv'><img src='Fruit/grapes.png'><br><font class='baseline'><strong>Great Grapes</strong><p>Choose number of points to bet.</font><div class='respPicDiv'><img src='img/responseButtonOffersNo0L.png' class='respPic'></div></div>","3","16","Great Grapes","Fruit/grapes.png","Lost","0.2,0.65","12","0.2","223","46","",""
"html-keyboard-response","146","398952","0.0-11.0-2.45","63153455849b153d56dd81db","bdp_rwlrn","Tue Mar 14 2023 16:16:28 GMT-0700 (Pacific Daylight Time)","793491","Trustworthy,Untrustworthy","","null","","","","decisionFB","","<div class='trialDiv'><img src='Fruit/grapes.png'><br><font class='baseline'><strong>Great Grapes</strong><p>Choose number of points to bet.</font><div class='respPicDiv'><img src='img/responseButtonOffersNo0L3.png' class='respPic'></div></div>","null","16","Great Grapes","Fruit/grapes.png","Lost","0.2,0.65","12","0.2","220","46","",""
"html-keyboard-response","147","399973","0.0-11.0-3.45","63153455849b153d56dd81db","bdp_rwlrn","Tue Mar 14 2023 16:16:28 GMT-0700 (Pacific Daylight Time)","793491","Trustworthy,Untrustworthy","","null","","","","feedback","","<div class='respPicDiv'><img src='img/responseButtonOffersNo0_wht.png' class='respPic'></div><div class='trialDiv'><img src='Fruit/grapes.png'><br><font class='baseline'><strong>Great Grapes</strong><p><strong><font class='negOutcome'>You LOST</font><p>You bet: 3</strong></font> &nbsp; &nbsp; &nbsp; &nbsp; &nbsp; &nbsp;<font class='negOutcome'>You receive: <strong>0</strong></font></div>","null","16","Great Grapes","Fruit/grapes.png","Lost","0.2,0.65","12","0.2","220","46","",""
"html-keyboard-response","148","401785","0.0-11.0-1.46","63153455849b153d56dd81db","bdp_rwlrn","Tue Mar 14 2023 16:16:28 GMT-0700 (Pacific Daylight Time)","793491","Trustworthy,Untrustworthy","","1810","","","","decision","","<div class='trialDiv'><img src='Fruit/bananas.png'><br><font class='baseline'><strong>Banana Bonanza</strong><p>Choose number of points to bet.</font><div class='respPicDiv'><img src='img/responseButtonOffersNo0L.png' class='respPic'></div></div>","2","16","Banana Bonanza","Fruit/bananas.png","Lost","0.8,0.35","11","0.8","225","47","",""
"html-keyboard-response","149","402057","0.0-11.0-2.46","63153455849b153d56dd81db","bdp_rwlrn","Tue Mar 14 2023 16:16:28 GMT-0700 (Pacific Daylight Time)","793491","Trustworthy,Untrustworthy","","null","","","","decisionFB","","<div class='trialDiv'><img src='Fruit/bananas.png'><br><font class='baseline'><strong>Banana Bonanza</strong><p>Choose number of points to bet.</font><div class='respPicDiv'><img src='img/responseButtonOffersNo0L2.png' class='respPic'></div></div>","null","16","Banana Bonanza","Fruit/bananas.png","Lost","0.8,0.35","11","0.8","223","47","",""
"html-keyboard-response","150","403070","0.0-11.0-3.46","63153455849b153d56dd81db","bdp_rwlrn","Tue Mar 14 2023 16:16:28 GMT-0700 (Pacific Daylight Time)","793491","Trustworthy,Untrustworthy","","null","","","","feedback","","<div class='respPicDiv'><img src='img/responseButtonOffersNo0_wht.png' class='respPic'></div><div class='trialDiv'><img src='Fruit/bananas.png'><br><font class='baseline'><strong>Banana Bonanza</strong><p><strong><font class='negOutcome'>You LOST</font><p>You bet: 2</strong></font> &nbsp; &nbsp; &nbsp; &nbsp; &nbsp; &nbsp;<font class='negOutcome'>You receive: <strong>0</strong></font></div>","null","16","Banana Bonanza","Fruit/bananas.png","Lost","0.8,0.35","11","0.8","223","47","",""
"html-keyboard-response","151","403185","0.0-11.0-1.47","63153455849b153d56dd81db","bdp_rwlrn","Tue Mar 14 2023 16:16:28 GMT-0700 (Pacific Daylight Time)","793491","Trustworthy,Untrustworthy","","113","","","","decision","","<div class='trialDiv'><img src='Fruit/lemon.png'><br><font class='baseline'><strong>Lucky Lemons</strong><p>Choose number of points to bet.</font><div class='respPicDiv'><img src='img/responseButtonOffersNo0L.png' class='respPic'></div></div>","4","16","Lucky Lemons","Fruit/lemon.png","Won","0.65,0.35","14","0.65","228","48","",""
"html-keyboard-response","152","403458","0.0-11.0-2.47","63153455849b153d56dd81db","bdp_rwlrn","Tue Mar 14 2023 16:16:28 GMT-0700 (Pacific Daylight Time)","793491","Trustworthy,Untrustworthy","","null","","","","decisionFB","","<div class='trialDiv'><img src='Fruit/lemon.png'><br><font class='baseline'><strong>Lucky Lemons</strong><p>Choose number of points to bet.</font><div class='respPicDiv'><img src='img/responseButtonOffersNo0L4.png' class='respPic'></div></div>","null","16","Lucky Lemons","Fruit/lemon.png","Won","0.65,0.35","14","0.65","224","48","",""
"html-keyboard-response","153","404478","0.0-11.0-3.47","63153455849b153d56dd81db","bdp_rwlrn","Tue Mar 14 2023 16:16:28 GMT-0700 (Pacific Daylight Time)","793491","Trustworthy,Untrustworthy","","null","","","","feedback","","<div class='respPicDiv'><img src='img/responseButtonOffersNo0_wht.png' class='respPic'></div><div class='trialDiv'><img src='Fruit/lemon.png'><br><font class='baseline'><strong>Lucky Lemons</strong><p><strong><font class='posOutcome'>You WON</font><p>You bet: 4</strong></font> &nbsp; &nbsp; &nbsp; &nbsp; &nbsp; &nbsp;<font class='posOutcome'>you receive: <strong>8</strong></font></div>","null","16","Lucky Lemons","Fruit/lemon.png","Won","0.65,0.35","14","0.65","232","48","",""
"html-keyboard-response","154","405217","0.0-11.0-1.48","63153455849b153d56dd81db","bdp_rwlrn","Tue Mar 14 2023 16:16:28 GMT-0700 (Pacific Daylight Time)","793491","Trustworthy,Untrustworthy","","737","","","","decision","","<div class='trialDiv'><img src='Fruit/bananas.png'><br><font class='baseline'><strong>Banana Bonanza</strong><p>Choose number of points to bet.</font><div class='respPicDiv'><img src='img/responseButtonOffersNo0L.png' class='respPic'></div></div>","4","17","Banana Bonanza","Fruit/bananas.png","Lost","0.8,0.35","11","0.8","237","49","",""
"html-keyboard-response","155","405488","0.0-11.0-2.48","63153455849b153d56dd81db","bdp_rwlrn","Tue Mar 14 2023 16:16:28 GMT-0700 (Pacific Daylight Time)","793491","Trustworthy,Untrustworthy","","null","","","","decisionFB","","<div class='trialDiv'><img src='Fruit/bananas.png'><br><font class='baseline'><strong>Banana Bonanza</strong><p>Choose number of points to bet.</font><div class='respPicDiv'><img src='img/responseButtonOffersNo0L4.png' class='respPic'></div></div>","null","17","Banana Bonanza","Fruit/bananas.png","Lost","0.8,0.35","11","0.8","233","49","",""
"html-keyboard-response","156","406508","0.0-11.0-3.48","63153455849b153d56dd81db","bdp_rwlrn","Tue Mar 14 2023 16:16:28 GMT-0700 (Pacific Daylight Time)","793491","Trustworthy,Untrustworthy","","null","","","","feedback","","<div class='respPicDiv'><img src='img/responseButtonOffersNo0_wht.png' class='respPic'></div><div class='trialDiv'><img src='Fruit/bananas.png'><br><font class='baseline'><strong>Banana Bonanza</strong><p><strong><font class='negOutcome'>You LOST</font><p>You bet: 4</strong></font> &nbsp; &nbsp; &nbsp; &nbsp; &nbsp; &nbsp;<font class='negOutcome'>You receive: <strong>0</strong></font></div>","null","17","Banana Bonanza","Fruit/bananas.png","Lost","0.8,0.35","11","0.8","233","49","",""
"html-keyboard-response","157","406913","0.0-11.0-1.49","63153455849b153d56dd81db","bdp_rwlrn","Tue Mar 14 2023 16:16:28 GMT-0700 (Pacific Daylight Time)","793491","Trustworthy,Untrustworthy","","403","","","","decision","","<div class='trialDiv'><img src='Fruit/lemon.png'><br><font class='baseline'><strong>Lucky Lemons</strong><p>Choose number of points to bet.</font><div class='respPicDiv'><img src='img/responseButtonOffersNo0L.png' class='respPic'></div></div>","5","17","Lucky Lemons","Fruit/lemon.png","Lost","0.65,0.35","14","0.65","238","50","",""
"html-keyboard-response","158","407185","0.0-11.0-2.49","63153455849b153d56dd81db","bdp_rwlrn","Tue Mar 14 2023 16:16:28 GMT-0700 (Pacific Daylight Time)","793491","Trustworthy,Untrustworthy","","null","","","","decisionFB","","<div class='trialDiv'><img src='Fruit/lemon.png'><br><font class='baseline'><strong>Lucky Lemons</strong><p>Choose number of points to bet.</font><div class='respPicDiv'><img src='img/responseButtonOffersNo0L5.png' class='respPic'></div></div>","null","17","Lucky Lemons","Fruit/lemon.png","Lost","0.65,0.35","14","0.65","233","50","",""
"html-keyboard-response","159","408206","0.0-11.0-3.49","63153455849b153d56dd81db","bdp_rwlrn","Tue Mar 14 2023 16:16:28 GMT-0700 (Pacific Daylight Time)","793491","Trustworthy,Untrustworthy","","null","","","","feedback","","<div class='respPicDiv'><img src='img/responseButtonOffersNo0_wht.png' class='respPic'></div><div class='trialDiv'><img src='Fruit/lemon.png'><br><font class='baseline'><strong>Lucky Lemons</strong><p><strong><font class='negOutcome'>You LOST</font><p>You bet: 5</strong></font> &nbsp; &nbsp; &nbsp; &nbsp; &nbsp; &nbsp;<font class='negOutcome'>You receive: <strong>0</strong></font></div>","null","17","Lucky Lemons","Fruit/lemon.png","Lost","0.65,0.35","14","0.65","233","50","",""
"html-keyboard-response","160","409121","0.0-11.0-1.50","63153455849b153d56dd81db","bdp_rwlrn","Tue Mar 14 2023 16:16:28 GMT-0700 (Pacific Daylight Time)","793491","Trustworthy,Untrustworthy","","912","","","","decision","","<div class='trialDiv'><img src='Fruit/grapes.png'><br><font class='baseline'><strong>Great Grapes</strong><p>Choose number of points to bet.</font><div class='respPicDiv'><img src='img/responseButtonOffersNo0L.png' class='respPic'></div></div>","5","17","Great Grapes","Fruit/grapes.png","Lost","0.2,0.65","12","0.2","238","51","",""
"html-keyboard-response","161","409377","0.0-11.0-2.50","63153455849b153d56dd81db","bdp_rwlrn","Tue Mar 14 2023 16:16:28 GMT-0700 (Pacific Daylight Time)","793491","Trustworthy,Untrustworthy","","null","","","","decisionFB","","<div class='trialDiv'><img src='Fruit/grapes.png'><br><font class='baseline'><strong>Great Grapes</strong><p>Choose number of points to bet.</font><div class='respPicDiv'><img src='img/responseButtonOffersNo0L5.png' class='respPic'></div></div>","null","17","Great Grapes","Fruit/grapes.png","Lost","0.2,0.65","12","0.2","233","51","",""
"html-keyboard-response","162","410398","0.0-11.0-3.50","63153455849b153d56dd81db","bdp_rwlrn","Tue Mar 14 2023 16:16:28 GMT-0700 (Pacific Daylight Time)","793491","Trustworthy,Untrustworthy","","null","","","","feedback","","<div class='respPicDiv'><img src='img/responseButtonOffersNo0_wht.png' class='respPic'></div><div class='trialDiv'><img src='Fruit/grapes.png'><br><font class='baseline'><strong>Great Grapes</strong><p><strong><font class='negOutcome'>You LOST</font><p>You bet: 5</strong></font> &nbsp; &nbsp; &nbsp; &nbsp; &nbsp; &nbsp;<font class='negOutcome'>You receive: <strong>0</strong></font></div>","null","17","Great Grapes","Fruit/grapes.png","Lost","0.2,0.65","12","0.2","233","51","",""
"html-keyboard-response","163","410722","0.0-11.0-1.51","63153455849b153d56dd81db","bdp_rwlrn","Tue Mar 14 2023 16:16:28 GMT-0700 (Pacific Daylight Time)","793491","Trustworthy,Untrustworthy","","322","","","","decision","","<div class='trialDiv'><img src='Fruit/lemon.png'><br><font class='baseline'><strong>Lucky Lemons</strong><p>Choose number of points to bet.</font><div class='respPicDiv'><img src='img/responseButtonOffersNo0L.png' class='respPic'></div></div>","2","18","Lucky Lemons","Fruit/lemon.png","Won","0.65,0.35","14","0.65","238","52","",""
