"trial_type","trial_index","time_elapsed","internal_node_id","subject_id","task","startTime","totalTime","labels","view_history","rt","event","trial","time","trialtype","success","stimulus","key_press","ltround","name","fileID","outcome","lottotype","lottoswpt","lottocurrpshare","point_total","round","faceID","face"
"pavlovia","0","6","0.0-0.0","63f794e7d8d24753edbbb136","bdp_rwlrn","Mon Mar 13 2023 14:50:28 GMT-0400 (Eastern Daylight Time)","707574","Trustworthy,Untrustworthy","","","","","","","","","","","","","","","","","","","",""
"instructions","1","6479","0.0-1.0","63f794e7d8d24753edbbb136","bdp_rwlrn","Mon Mar 13 2023 14:50:28 GMT-0400 (Eastern Daylight Time)","707574","Trustworthy,Untrustworthy","[{""page_index"":0,""viewing_time"":6473}]","6473","","","","","","","","","","","","","","","","","",""
"","","","","63f794e7d8d24753edbbb136","bdp_rwlrn","Mon Mar 13 2023 14:50:28 GMT-0400 (Eastern Daylight Time)","707574","Trustworthy,Untrustworthy","","","fullscreenenter","2","10318","fullscreenenter","","","","","","","","","","","","","",""
"fullscreen","2","11319","0.0-2.0","63f794e7d8d24753edbbb136","bdp_rwlrn","Mon Mar 13 2023 14:50:28 GMT-0400 (Eastern Daylight Time)","707574","Trustworthy,Untrustworthy","","","","","","","true","","","","","","","","","","","","",""
"instructions","3","176260","0.0-4.0","63f794e7d8d24753edbbb136","bdp_rwlrn","Mon Mar 13 2023 14:50:28 GMT-0400 (Eastern Daylight Time)","707574","Trustworthy,Untrustworthy","[{""page_index"":0,""viewing_time"":13653},{""page_index"":1,""viewing_time"":16638},{""page_index"":2,""viewing_time"":28089},{""page_index"":3,""viewing_time"":74561},{""page_index"":4,""viewing_time"":25013},{""page_index"":5,""viewing_time"":6986}]","164940","","","","","","","","","","","","","","","","","",""
"html-keyboard-response","4","194978","0.0-5.0","63f794e7d8d24753edbbb136","bdp_rwlrn","Mon Mar 13 2023 14:50:28 GMT-0400 (Eastern Daylight Time)","707574","Trustworthy,Untrustworthy","","18715","","","","","","<div class='header' style='text-align:left; position: absolute; top: 5%; left: 5%;'><small>Task 1 of 5</small></div><div class='instruxDiv'><p><strong>1) What is the maximum number of points you can choose to bet on a lottery?</strong></p><p>a) 0</p><p>b) 1</p><p>c) 5</p>","C","","","","","","","","","","",""
"html-keyboard-response","5","197561","0.0-6.0","63f794e7d8d24753edbbb136","bdp_rwlrn","Mon Mar 13 2023 14:50:28 GMT-0400 (Eastern Daylight Time)","707574","Trustworthy,Untrustworthy","","2473","","","","","","<div class='header' style='text-align:left; position: absolute; top: 5%; left: 5%;'><small>Task 1 of 5</small></div><div class='instruxDiv'><p><strong>1) What is the maximum number of points you can choose to bet on a lottery?</strong></p><p>a) 1</p><p>b) 1</p><p style='color:#00FF00'>c) 5</p><h3 style='color:#00FF00'>Correct!</h3><h3 class='center-content'>The correct response is c).</h3><h3 class='center-content'>The maximum number of points you can choose to bet on a lottery is 5 points.</h3><p><em>Press SPACEBAR to continue</em></p></div>"," ","","","","","","","","","","",""
"html-keyboard-response","6","207160","0.0-7.0","63f794e7d8d24753edbbb136","bdp_rwlrn","Mon Mar 13 2023 14:50:28 GMT-0400 (Eastern Daylight Time)","707574","Trustworthy,Untrustworthy","","9489","","","","","","<div class='header' style='text-align:left; position: absolute; top: 5%; left: 5%;'><small>Task 1 of 5</small></div><div class='instruxDiv'><p><strong>2) How many points can you win each round?</strong></p><p>a) 10 points</p><p>b) Double what you bet</p><p>c) Quadruple what you bet</p>","B","","","","","","","","","","",""
"html-keyboard-response","7","214583","0.0-8.0","63f794e7d8d24753edbbb136","bdp_rwlrn","Mon Mar 13 2023 14:50:28 GMT-0400 (Eastern Daylight Time)","707574","Trustworthy,Untrustworthy","","7314","","","","","","<div class='header' style='text-align:left; position: absolute; top: 5%; left: 5%;'><small>Task 1 of 5</small></div><div class='instruxDiv'><p><strong>2) How many points can you win each round?</strong></p><p>a) 10 points</p><p style='color:#00FF00'>b) Double what you bet</p><p>c) Quadruple what you bet</p><h3 style='color:#00FF00'>Correct!</h3><h3 class='center-content'>The correct response is b).</h3><h3 class='center-content'>You can win double the amount of points you bet.</h3><p><em>Press SPACEBAR to continue</em></p></div>"," ","","","","","","","","","","",""
"html-keyboard-response","8","219701","0.0-9.0","63f794e7d8d24753edbbb136","bdp_rwlrn","Mon Mar 13 2023 14:50:28 GMT-0400 (Eastern Daylight Time)","707574","Trustworthy,Untrustworthy","","null","","","","","","<div class='header' style='text-align:left; position: absolute; top: 5%; left: 5%;'><small>Task 1 of 5</small></div><div class='instruxDiv'><p>Thank you for completing the quiz<p>These are the actual lotteries you will be playing in the next block:<p><div class='tc' align='center'><img class='introPic' src='Fruit/Kiwi.png'><br><strong>Kiwi Kash</strong></div><div class='bl' align='center'><img class='introPic' src='Fruit/watermelon.png'><br><strong>Watermelon Win$</strong></div><div class='br' align='center'><img class='introPic' src='Fruit/orange.png'><br><strong>Odds are Orange</strong></div></div><p>Across <strong>66 rounds</strong> you will play each lottery <strong>22 times</strong> (in random order).<p style='align:center; color:white'><font <em>Press SPACEBAR to continue</em></p>","null","","","","","","","","","","",""
"instructions","9","247770","0.0-10.0","63f794e7d8d24753edbbb136","bdp_rwlrn","Mon Mar 13 2023 14:50:28 GMT-0400 (Eastern Daylight Time)","707574","Trustworthy,Untrustworthy","[{""page_index"":0,""viewing_time"":18489},{""page_index"":1,""viewing_time"":9579}]","28068","","","","","","","","","","","","","","","","","",""
"html-keyboard-response","10","249496","0.0-11.0-1.0","63f794e7d8d24753edbbb136","bdp_rwlrn","Mon Mar 13 2023 14:50:28 GMT-0400 (Eastern Daylight Time)","707574","Trustworthy,Untrustworthy","","1615","","","","decision","","<div class='trialDiv'><img src='Fruit/Kiwi.png'><br><font class='baseline'><strong>Kiwi Kash</strong><p>Choose number of points to bet.</font><div class='respPicDiv'><img src='img/responseButtonOffersNo0L.png' class='respPic'></div></div>","4","1","Kiwi Kash","Fruit/Kiwi.png","Won","0.8,0.35","12","0.8","5","1","",""
"html-keyboard-response","11","249749","0.0-11.0-2.0","63f794e7d8d24753edbbb136","bdp_rwlrn","Mon Mar 13 2023 14:50:28 GMT-0400 (Eastern Daylight Time)","707574","Trustworthy,Untrustworthy","","null","","","","decisionFB","","<div class='trialDiv'><img src='Fruit/Kiwi.png'><br><font class='baseline'><strong>Kiwi Kash</strong><p>Choose number of points to bet.</font><div class='respPicDiv'><img src='img/responseButtonOffersNo0L4.png' class='respPic'></div></div>","null","1","Kiwi Kash","Fruit/Kiwi.png","Won","0.8,0.35","12","0.8","1","1","",""
"html-keyboard-response","12","250759","0.0-11.0-3.0","63f794e7d8d24753edbbb136","bdp_rwlrn","Mon Mar 13 2023 14:50:28 GMT-0400 (Eastern Daylight Time)","707574","Trustworthy,Untrustworthy","","null","","","","feedback","","<div class='respPicDiv'><img src='img/responseButtonOffersNo0_wht.png' class='respPic'></div><div class='trialDiv'><img src='Fruit/Kiwi.png'><br><font class='baseline'><strong>Kiwi Kash</strong><p><strong><font class='posOutcome'>You WON</font><p>You bet: 4</strong></font> &nbsp; &nbsp; &nbsp; &nbsp; &nbsp; &nbsp;<font class='posOutcome'>you receive: <strong>8</strong></font></div>","null","1","Kiwi Kash","Fruit/Kiwi.png","Won","0.8,0.35","12","0.8","9","1","",""
"html-keyboard-response","13","255248","0.0-11.0-1.1","63f794e7d8d24753edbbb136","bdp_rwlrn","Mon Mar 13 2023 14:50:28 GMT-0400 (Eastern Daylight Time)","707574","Trustworthy,Untrustworthy","","4488","","","","decision","","<div class='trialDiv'><img src='Fruit/watermelon.png'><br><font class='baseline'><strong>Watermelon Win$</strong><p>Choose number of points to bet.</font><div class='respPicDiv'><img src='img/responseButtonOffersNo0L.png' class='respPic'></div></div>","5","1","Watermelon Win$","Fruit/watermelon.png","Won","0.65,0.35","13","0.65","14","2","",""
"html-keyboard-response","14","255502","0.0-11.0-2.1","63f794e7d8d24753edbbb136","bdp_rwlrn","Mon Mar 13 2023 14:50:28 GMT-0400 (Eastern Daylight Time)","707574","Trustworthy,Untrustworthy","","null","","","","decisionFB","","<div class='trialDiv'><img src='Fruit/watermelon.png'><br><font class='baseline'><strong>Watermelon Win$</strong><p>Choose number of points to bet.</font><div class='respPicDiv'><img src='img/responseButtonOffersNo0L5.png' class='respPic'></div></div>","null","1","Watermelon Win$","Fruit/watermelon.png","Won","0.65,0.35","13","0.65","9","2","",""
"html-keyboard-response","15","256512","0.0-11.0-3.1","63f794e7d8d24753edbbb136","bdp_rwlrn","Mon Mar 13 2023 14:50:28 GMT-0400 (Eastern Daylight Time)","707574","Trustworthy,Untrustworthy","","null","","","","feedback","","<div class='respPicDiv'><img src='img/responseButtonOffersNo0_wht.png' class='respPic'></div><div class='trialDiv'><img src='Fruit/watermelon.png'><br><font class='baseline'><strong>Watermelon Win$</strong><p><strong><font class='posOutcome'>You WON</font><p>You bet: 5</strong></font> &nbsp; &nbsp; &nbsp; &nbsp; &nbsp; &nbsp;<font class='posOutcome'>you receive: <strong>10</strong></font></div>","null","1","Watermelon Win$","Fruit/watermelon.png","Won","0.65,0.35","13","0.65","19","2","",""
"html-keyboard-response","16","258607","0.0-11.0-1.2","63f794e7d8d24753edbbb136","bdp_rwlrn","Mon Mar 13 2023 14:50:28 GMT-0400 (Eastern Daylight Time)","707574","Trustworthy,Untrustworthy","","2094","","","","decision","","<div class='trialDiv'><img src='Fruit/orange.png'><br><font class='baseline'><strong>Odds are Orange</strong><p>Choose number of points to bet.</font><div class='respPicDiv'><img src='img/responseButtonOffersNo0L.png' class='respPic'></div></div>","5","1","Odds are Orange","Fruit/orange.png","Lost","0.2,0.65","9","0.2","24","3","",""
"html-keyboard-response","17","258863","0.0-11.0-2.2","63f794e7d8d24753edbbb136","bdp_rwlrn","Mon Mar 13 2023 14:50:28 GMT-0400 (Eastern Daylight Time)","707574","Trustworthy,Untrustworthy","","null","","","","decisionFB","","<div class='trialDiv'><img src='Fruit/orange.png'><br><font class='baseline'><strong>Odds are Orange</strong><p>Choose number of points to bet.</font><div class='respPicDiv'><img src='img/responseButtonOffersNo0L5.png' class='respPic'></div></div>","null","1","Odds are Orange","Fruit/orange.png","Lost","0.2,0.65","9","0.2","19","3","",""
"html-keyboard-response","18","259873","0.0-11.0-3.2","63f794e7d8d24753edbbb136","bdp_rwlrn","Mon Mar 13 2023 14:50:28 GMT-0400 (Eastern Daylight Time)","707574","Trustworthy,Untrustworthy","","null","","","","feedback","","<div class='respPicDiv'><img src='img/responseButtonOffersNo0_wht.png' class='respPic'></div><div class='trialDiv'><img src='Fruit/orange.png'><br><font class='baseline'><strong>Odds are Orange</strong><p><strong><font class='negOutcome'>You LOST</font><p>You bet: 5</strong></font> &nbsp; &nbsp; &nbsp; &nbsp; &nbsp; &nbsp;<font class='negOutcome'>You receive: <strong>0</strong></font></div>","null","1","Odds are Orange","Fruit/orange.png","Lost","0.2,0.65","9","0.2","19","3","",""
"html-keyboard-response","19","261433","0.0-11.0-1.3","63f794e7d8d24753edbbb136","bdp_rwlrn","Mon Mar 13 2023 14:50:28 GMT-0400 (Eastern Daylight Time)","707574","Trustworthy,Untrustworthy","","1558","","","","decision","","<div class='trialDiv'><img src='Fruit/Kiwi.png'><br><font class='baseline'><strong>Kiwi Kash</strong><p>Choose number of points to bet.</font><div class='respPicDiv'><img src='img/responseButtonOffersNo0L.png' class='respPic'></div></div>","5","2","Kiwi Kash","Fruit/Kiwi.png","Won","0.8,0.35","12","0.8","24","4","",""
"html-keyboard-response","20","261686","0.0-11.0-2.3","63f794e7d8d24753edbbb136","bdp_rwlrn","Mon Mar 13 2023 14:50:28 GMT-0400 (Eastern Daylight Time)","707574","Trustworthy,Untrustworthy","","null","","","","decisionFB","","<div class='trialDiv'><img src='Fruit/Kiwi.png'><br><font class='baseline'><strong>Kiwi Kash</strong><p>Choose number of points to bet.</font><div class='respPicDiv'><img src='img/responseButtonOffersNo0L5.png' class='respPic'></div></div>","null","2","Kiwi Kash","Fruit/Kiwi.png","Won","0.8,0.35","12","0.8","19","4","",""
"html-keyboard-response","21","262694","0.0-11.0-3.3","63f794e7d8d24753edbbb136","bdp_rwlrn","Mon Mar 13 2023 14:50:28 GMT-0400 (Eastern Daylight Time)","707574","Trustworthy,Untrustworthy","","null","","","","feedback","","<div class='respPicDiv'><img src='img/responseButtonOffersNo0_wht.png' class='respPic'></div><div class='trialDiv'><img src='Fruit/Kiwi.png'><br><font class='baseline'><strong>Kiwi Kash</strong><p><strong><font class='posOutcome'>You WON</font><p>You bet: 5</strong></font> &nbsp; &nbsp; &nbsp; &nbsp; &nbsp; &nbsp;<font class='posOutcome'>you receive: <strong>10</strong></font></div>","null","2","Kiwi Kash","Fruit/Kiwi.png","Won","0.8,0.35","12","0.8","29","4","",""
"html-keyboard-response","22","263953","0.0-11.0-1.4","63f794e7d8d24753edbbb136","bdp_rwlrn","Mon Mar 13 2023 14:50:28 GMT-0400 (Eastern Daylight Time)","707574","Trustworthy,Untrustworthy","","1258","","","","decision","","<div class='trialDiv'><img src='Fruit/orange.png'><br><font class='baseline'><strong>Odds are Orange</strong><p>Choose number of points to bet.</font><div class='respPicDiv'><img src='img/responseButtonOffersNo0L.png' class='respPic'></div></div>","1","2","Odds are Orange","Fruit/orange.png","Won","0.2,0.65","9","0.2","34","5","",""
"html-keyboard-response","23","264209","0.0-11.0-2.4","63f794e7d8d24753edbbb136","bdp_rwlrn","Mon Mar 13 2023 14:50:28 GMT-0400 (Eastern Daylight Time)","707574","Trustworthy,Untrustworthy","","null","","","","decisionFB","","<div class='trialDiv'><img src='Fruit/orange.png'><br><font class='baseline'><strong>Odds are Orange</strong><p>Choose number of points to bet.</font><div class='respPicDiv'><img src='img/responseButtonOffersNo0L1.png' class='respPic'></div></div>","null","2","Odds are Orange","Fruit/orange.png","Won","0.2,0.65","9","0.2","33","5","",""
"html-keyboard-response","24","265214","0.0-11.0-3.4","63f794e7d8d24753edbbb136","bdp_rwlrn","Mon Mar 13 2023 14:50:28 GMT-0400 (Eastern Daylight Time)","707574","Trustworthy,Untrustworthy","","null","","","","feedback","","<div class='respPicDiv'><img src='img/responseButtonOffersNo0_wht.png' class='respPic'></div><div class='trialDiv'><img src='Fruit/orange.png'><br><font class='baseline'><strong>Odds are Orange</strong><p><strong><font class='posOutcome'>You WON</font><p>You bet: 1</strong></font> &nbsp; &nbsp; &nbsp; &nbsp; &nbsp; &nbsp;<font class='posOutcome'>you receive: <strong>2</strong></font></div>","null","2","Odds are Orange","Fruit/orange.png","Won","0.2,0.65","9","0.2","35","5","",""
"html-keyboard-response","25","266340","0.0-11.0-1.5","63f794e7d8d24753edbbb136","bdp_rwlrn","Mon Mar 13 2023 14:50:28 GMT-0400 (Eastern Daylight Time)","707574","Trustworthy,Untrustworthy","","1125","","","","decision","","<div class='trialDiv'><img src='Fruit/watermelon.png'><br><font class='baseline'><strong>Watermelon Win$</strong><p>Choose number of points to bet.</font><div class='respPicDiv'><img src='img/responseButtonOffersNo0L.png' class='respPic'></div></div>","5","2","Watermelon Win$","Fruit/watermelon.png","Lost","0.65,0.35","13","0.65","40","6","",""
"html-keyboard-response","26","266601","0.0-11.0-2.5","63f794e7d8d24753edbbb136","bdp_rwlrn","Mon Mar 13 2023 14:50:28 GMT-0400 (Eastern Daylight Time)","707574","Trustworthy,Untrustworthy","","null","","","","decisionFB","","<div class='trialDiv'><img src='Fruit/watermelon.png'><br><font class='baseline'><strong>Watermelon Win$</strong><p>Choose number of points to bet.</font><div class='respPicDiv'><img src='img/responseButtonOffersNo0L5.png' class='respPic'></div></div>","null","2","Watermelon Win$","Fruit/watermelon.png","Lost","0.65,0.35","13","0.65","35","6","",""
"html-keyboard-response","27","267605","0.0-11.0-3.5","63f794e7d8d24753edbbb136","bdp_rwlrn","Mon Mar 13 2023 14:50:28 GMT-0400 (Eastern Daylight Time)","707574","Trustworthy,Untrustworthy","","null","","","","feedback","","<div class='respPicDiv'><img src='img/responseButtonOffersNo0_wht.png' class='respPic'></div><div class='trialDiv'><img src='Fruit/watermelon.png'><br><font class='baseline'><strong>Watermelon Win$</strong><p><strong><font class='negOutcome'>You LOST</font><p>You bet: 5</strong></font> &nbsp; &nbsp; &nbsp; &nbsp; &nbsp; &nbsp;<font class='negOutcome'>You receive: <strong>0</strong></font></div>","null","2","Watermelon Win$","Fruit/watermelon.png","Lost","0.65,0.35","13","0.65","35","6","",""
"html-keyboard-response","28","268634","0.0-11.0-1.6","63f794e7d8d24753edbbb136","bdp_rwlrn","Mon Mar 13 2023 14:50:28 GMT-0400 (Eastern Daylight Time)","707574","Trustworthy,Untrustworthy","","1027","","","","decision","","<div class='trialDiv'><img src='Fruit/orange.png'><br><font class='baseline'><strong>Odds are Orange</strong><p>Choose number of points to bet.</font><div class='respPicDiv'><img src='img/responseButtonOffersNo0L.png' class='respPic'></div></div>","1","3","Odds are Orange","Fruit/orange.png","Won","0.2,0.65","9","0.2","40","7","",""
"html-keyboard-response","29","268888","0.0-11.0-2.6","63f794e7d8d24753edbbb136","bdp_rwlrn","Mon Mar 13 2023 14:50:28 GMT-0400 (Eastern Daylight Time)","707574","Trustworthy,Untrustworthy","","null","","","","decisionFB","","<div class='trialDiv'><img src='Fruit/orange.png'><br><font class='baseline'><strong>Odds are Orange</strong><p>Choose number of points to bet.</font><div class='respPicDiv'><img src='img/responseButtonOffersNo0L1.png' class='respPic'></div></div>","null","3","Odds are Orange","Fruit/orange.png","Won","0.2,0.65","9","0.2","39","7","",""
"html-keyboard-response","30","269894","0.0-11.0-3.6","63f794e7d8d24753edbbb136","bdp_rwlrn","Mon Mar 13 2023 14:50:28 GMT-0400 (Eastern Daylight Time)","707574","Trustworthy,Untrustworthy","","null","","","","feedback","","<div class='respPicDiv'><img src='img/responseButtonOffersNo0_wht.png' class='respPic'></div><div class='trialDiv'><img src='Fruit/orange.png'><br><font class='baseline'><strong>Odds are Orange</strong><p><strong><font class='posOutcome'>You WON</font><p>You bet: 1</strong></font> &nbsp; &nbsp; &nbsp; &nbsp; &nbsp; &nbsp;<font class='posOutcome'>you receive: <strong>2</strong></font></div>","null","3","Odds are Orange","Fruit/orange.png","Won","0.2,0.65","9","0.2","41","7","",""
"html-keyboard-response","31","271236","0.0-11.0-1.7","63f794e7d8d24753edbbb136","bdp_rwlrn","Mon Mar 13 2023 14:50:28 GMT-0400 (Eastern Daylight Time)","707574","Trustworthy,Untrustworthy","","1341","","","","decision","","<div class='trialDiv'><img src='Fruit/Kiwi.png'><br><font class='baseline'><strong>Kiwi Kash</strong><p>Choose number of points to bet.</font><div class='respPicDiv'><img src='img/responseButtonOffersNo0L.png' class='respPic'></div></div>","5","3","Kiwi Kash","Fruit/Kiwi.png","Lost","0.8,0.35","12","0.8","46","8","",""
"html-keyboard-response","32","271497","0.0-11.0-2.7","63f794e7d8d24753edbbb136","bdp_rwlrn","Mon Mar 13 2023 14:50:28 GMT-0400 (Eastern Daylight Time)","707574","Trustworthy,Untrustworthy","","null","","","","decisionFB","","<div class='trialDiv'><img src='Fruit/Kiwi.png'><br><font class='baseline'><strong>Kiwi Kash</strong><p>Choose number of points to bet.</font><div class='respPicDiv'><img src='img/responseButtonOffersNo0L5.png' class='respPic'></div></div>","null","3","Kiwi Kash","Fruit/Kiwi.png","Lost","0.8,0.35","12","0.8","41","8","",""
"html-keyboard-response","33","272505","0.0-11.0-3.7","63f794e7d8d24753edbbb136","bdp_rwlrn","Mon Mar 13 2023 14:50:28 GMT-0400 (Eastern Daylight Time)","707574","Trustworthy,Untrustworthy","","null","","","","feedback","","<div class='respPicDiv'><img src='img/responseButtonOffersNo0_wht.png' class='respPic'></div><div class='trialDiv'><img src='Fruit/Kiwi.png'><br><font class='baseline'><strong>Kiwi Kash</strong><p><strong><font class='negOutcome'>You LOST</font><p>You bet: 5</strong></font> &nbsp; &nbsp; &nbsp; &nbsp; &nbsp; &nbsp;<font class='negOutcome'>You receive: <strong>0</strong></font></div>","null","3","Kiwi Kash","Fruit/Kiwi.png","Lost","0.8,0.35","12","0.8","41","8","",""
"html-keyboard-response","34","274783","0.0-11.0-1.8","63f794e7d8d24753edbbb136","bdp_rwlrn","Mon Mar 13 2023 14:50:28 GMT-0400 (Eastern Daylight Time)","707574","Trustworthy,Untrustworthy","","2277","","","","decision","","<div class='trialDiv'><img src='Fruit/watermelon.png'><br><font class='baseline'><strong>Watermelon Win$</strong><p>Choose number of points to bet.</font><div class='respPicDiv'><img src='img/responseButtonOffersNo0L.png' class='respPic'></div></div>","5","3","Watermelon Win$","Fruit/watermelon.png","Won","0.65,0.35","13","0.65","46","9","",""
"html-keyboard-response","35","275042","0.0-11.0-2.8","63f794e7d8d24753edbbb136","bdp_rwlrn","Mon Mar 13 2023 14:50:28 GMT-0400 (Eastern Daylight Time)","707574","Trustworthy,Untrustworthy","","null","","","","decisionFB","","<div class='trialDiv'><img src='Fruit/watermelon.png'><br><font class='baseline'><strong>Watermelon Win$</strong><p>Choose number of points to bet.</font><div class='respPicDiv'><img src='img/responseButtonOffersNo0L5.png' class='respPic'></div></div>","null","3","Watermelon Win$","Fruit/watermelon.png","Won","0.65,0.35","13","0.65","41","9","",""
"html-keyboard-response","36","276047","0.0-11.0-3.8","63f794e7d8d24753edbbb136","bdp_rwlrn","Mon Mar 13 2023 14:50:28 GMT-0400 (Eastern Daylight Time)","707574","Trustworthy,Untrustworthy","","null","","","","feedback","","<div class='respPicDiv'><img src='img/responseButtonOffersNo0_wht.png' class='respPic'></div><div class='trialDiv'><img src='Fruit/watermelon.png'><br><font class='baseline'><strong>Watermelon Win$</strong><p><strong><font class='posOutcome'>You WON</font><p>You bet: 5</strong></font> &nbsp; &nbsp; &nbsp; &nbsp; &nbsp; &nbsp;<font class='posOutcome'>you receive: <strong>10</strong></font></div>","null","3","Watermelon Win$","Fruit/watermelon.png","Won","0.65,0.35","13","0.65","51","9","",""
"html-keyboard-response","37","277824","0.0-11.0-1.9","63f794e7d8d24753edbbb136","bdp_rwlrn","Mon Mar 13 2023 14:50:28 GMT-0400 (Eastern Daylight Time)","707574","Trustworthy,Untrustworthy","","1776","","","","decision","","<div class='trialDiv'><img src='Fruit/Kiwi.png'><br><font class='baseline'><strong>Kiwi Kash</strong><p>Choose number of points to bet.</font><div class='respPicDiv'><img src='img/responseButtonOffersNo0L.png' class='respPic'></div></div>","5","4","Kiwi Kash","Fruit/Kiwi.png","Won","0.8,0.35","12","0.8","56","10","",""
"html-keyboard-response","38","278078","0.0-11.0-2.9","63f794e7d8d24753edbbb136","bdp_rwlrn","Mon Mar 13 2023 14:50:28 GMT-0400 (Eastern Daylight Time)","707574","Trustworthy,Untrustworthy","","null","","","","decisionFB","","<div class='trialDiv'><img src='Fruit/Kiwi.png'><br><font class='baseline'><strong>Kiwi Kash</strong><p>Choose number of points to bet.</font><div class='respPicDiv'><img src='img/responseButtonOffersNo0L5.png' class='respPic'></div></div>","null","4","Kiwi Kash","Fruit/Kiwi.png","Won","0.8,0.35","12","0.8","51","10","",""
"html-keyboard-response","39","279088","0.0-11.0-3.9","63f794e7d8d24753edbbb136","bdp_rwlrn","Mon Mar 13 2023 14:50:28 GMT-0400 (Eastern Daylight Time)","707574","Trustworthy,Untrustworthy","","null","","","","feedback","","<div class='respPicDiv'><img src='img/responseButtonOffersNo0_wht.png' class='respPic'></div><div class='trialDiv'><img src='Fruit/Kiwi.png'><br><font class='baseline'><strong>Kiwi Kash</strong><p><strong><font class='posOutcome'>You WON</font><p>You bet: 5</strong></font> &nbsp; &nbsp; &nbsp; &nbsp; &nbsp; &nbsp;<font class='posOutcome'>you receive: <strong>10</strong></font></div>","null","4","Kiwi Kash","Fruit/Kiwi.png","Won","0.8,0.35","12","0.8","61","10","",""
"html-keyboard-response","40","280307","0.0-11.0-1.10","63f794e7d8d24753edbbb136","bdp_rwlrn","Mon Mar 13 2023 14:50:28 GMT-0400 (Eastern Daylight Time)","707574","Trustworthy,Untrustworthy","","1218","","","","decision","","<div class='trialDiv'><img src='Fruit/watermelon.png'><br><font class='baseline'><strong>Watermelon Win$</strong><p>Choose number of points to bet.</font><div class='respPicDiv'><img src='img/responseButtonOffersNo0L.png' class='respPic'></div></div>","5","4","Watermelon Win$","Fruit/watermelon.png","Lost","0.65,0.35","13","0.65","66","11","",""
"html-keyboard-response","41","280568","0.0-11.0-2.10","63f794e7d8d24753edbbb136","bdp_rwlrn","Mon Mar 13 2023 14:50:28 GMT-0400 (Eastern Daylight Time)","707574","Trustworthy,Untrustworthy","","null","","","","decisionFB","","<div class='trialDiv'><img src='Fruit/watermelon.png'><br><font class='baseline'><strong>Watermelon Win$</strong><p>Choose number of points to bet.</font><div class='respPicDiv'><img src='img/responseButtonOffersNo0L5.png' class='respPic'></div></div>","null","4","Watermelon Win$","Fruit/watermelon.png","Lost","0.65,0.35","13","0.65","61","11","",""
"html-keyboard-response","42","281575","0.0-11.0-3.10","63f794e7d8d24753edbbb136","bdp_rwlrn","Mon Mar 13 2023 14:50:28 GMT-0400 (Eastern Daylight Time)","707574","Trustworthy,Untrustworthy","","null","","","","feedback","","<div class='respPicDiv'><img src='img/responseButtonOffersNo0_wht.png' class='respPic'></div><div class='trialDiv'><img src='Fruit/watermelon.png'><br><font class='baseline'><strong>Watermelon Win$</strong><p><strong><font class='negOutcome'>You LOST</font><p>You bet: 5</strong></font> &nbsp; &nbsp; &nbsp; &nbsp; &nbsp; &nbsp;<font class='negOutcome'>You receive: <strong>0</strong></font></div>","null","4","Watermelon Win$","Fruit/watermelon.png","Lost","0.65,0.35","13","0.65","61","11","",""
"html-keyboard-response","43","283937","0.0-11.0-1.11","63f794e7d8d24753edbbb136","bdp_rwlrn","Mon Mar 13 2023 14:50:28 GMT-0400 (Eastern Daylight Time)","707574","Trustworthy,Untrustworthy","","2360","","","","decision","","<div class='trialDiv'><img src='Fruit/orange.png'><br><font class='baseline'><strong>Odds are Orange</strong><p>Choose number of points to bet.</font><div class='respPicDiv'><img src='img/responseButtonOffersNo0L.png' class='respPic'></div></div>","5","4","Odds are Orange","Fruit/orange.png","Lost","0.2,0.65","9","0.2","66","12","",""
"html-keyboard-response","44","284191","0.0-11.0-2.11","63f794e7d8d24753edbbb136","bdp_rwlrn","Mon Mar 13 2023 14:50:28 GMT-0400 (Eastern Daylight Time)","707574","Trustworthy,Untrustworthy","","null","","","","decisionFB","","<div class='trialDiv'><img src='Fruit/orange.png'><br><font class='baseline'><strong>Odds are Orange</strong><p>Choose number of points to bet.</font><div class='respPicDiv'><img src='img/responseButtonOffersNo0L5.png' class='respPic'></div></div>","null","4","Odds are Orange","Fruit/orange.png","Lost","0.2,0.65","9","0.2","61","12","",""
"html-keyboard-response","45","285201","0.0-11.0-3.11","63f794e7d8d24753edbbb136","bdp_rwlrn","Mon Mar 13 2023 14:50:28 GMT-0400 (Eastern Daylight Time)","707574","Trustworthy,Untrustworthy","","null","","","","feedback","","<div class='respPicDiv'><img src='img/responseButtonOffersNo0_wht.png' class='respPic'></div><div class='trialDiv'><img src='Fruit/orange.png'><br><font class='baseline'><strong>Odds are Orange</strong><p><strong><font class='negOutcome'>You LOST</font><p>You bet: 5</strong></font> &nbsp; &nbsp; &nbsp; &nbsp; &nbsp; &nbsp;<font class='negOutcome'>You receive: <strong>0</strong></font></div>","null","4","Odds are Orange","Fruit/orange.png","Lost","0.2,0.65","9","0.2","61","12","",""
"html-keyboard-response","46","286681","0.0-11.0-1.12","63f794e7d8d24753edbbb136","bdp_rwlrn","Mon Mar 13 2023 14:50:28 GMT-0400 (Eastern Daylight Time)","707574","Trustworthy,Untrustworthy","","1479","","","","decision","","<div class='trialDiv'><img src='Fruit/Kiwi.png'><br><font class='baseline'><strong>Kiwi Kash</strong><p>Choose number of points to bet.</font><div class='respPicDiv'><img src='img/responseButtonOffersNo0L.png' class='respPic'></div></div>","5","5","Kiwi Kash","Fruit/Kiwi.png","Won","0.8,0.35","12","0.8","66","13","",""
"html-keyboard-response","47","286936","0.0-11.0-2.12","63f794e7d8d24753edbbb136","bdp_rwlrn","Mon Mar 13 2023 14:50:28 GMT-0400 (Eastern Daylight Time)","707574","Trustworthy,Untrustworthy","","null","","","","decisionFB","","<div class='trialDiv'><img src='Fruit/Kiwi.png'><br><font class='baseline'><strong>Kiwi Kash</strong><p>Choose number of points to bet.</font><div class='respPicDiv'><img src='img/responseButtonOffersNo0L5.png' class='respPic'></div></div>","null","5","Kiwi Kash","Fruit/Kiwi.png","Won","0.8,0.35","12","0.8","61","13","",""
"html-keyboard-response","48","287943","0.0-11.0-3.12","63f794e7d8d24753edbbb136","bdp_rwlrn","Mon Mar 13 2023 14:50:28 GMT-0400 (Eastern Daylight Time)","707574","Trustworthy,Untrustworthy","","null","","","","feedback","","<div class='respPicDiv'><img src='img/responseButtonOffersNo0_wht.png' class='respPic'></div><div class='trialDiv'><img src='Fruit/Kiwi.png'><br><font class='baseline'><strong>Kiwi Kash</strong><p><strong><font class='posOutcome'>You WON</font><p>You bet: 5</strong></font> &nbsp; &nbsp; &nbsp; &nbsp; &nbsp; &nbsp;<font class='posOutcome'>you receive: <strong>10</strong></font></div>","null","5","Kiwi Kash","Fruit/Kiwi.png","Won","0.8,0.35","12","0.8","71","13","",""
"html-keyboard-response","49","289086","0.0-11.0-1.13","63f794e7d8d24753edbbb136","bdp_rwlrn","Mon Mar 13 2023 14:50:28 GMT-0400 (Eastern Daylight Time)","707574","Trustworthy,Untrustworthy","","1142","","","","decision","","<div class='trialDiv'><img src='Fruit/orange.png'><br><font class='baseline'><strong>Odds are Orange</strong><p>Choose number of points to bet.</font><div class='respPicDiv'><img src='img/responseButtonOffersNo0L.png' class='respPic'></div></div>","1","5","Odds are Orange","Fruit/orange.png","Lost","0.2,0.65","9","0.2","76","14","",""
"html-keyboard-response","50","289346","0.0-11.0-2.13","63f794e7d8d24753edbbb136","bdp_rwlrn","Mon Mar 13 2023 14:50:28 GMT-0400 (Eastern Daylight Time)","707574","Trustworthy,Untrustworthy","","null","","","","decisionFB","","<div class='trialDiv'><img src='Fruit/orange.png'><br><font class='baseline'><strong>Odds are Orange</strong><p>Choose number of points to bet.</font><div class='respPicDiv'><img src='img/responseButtonOffersNo0L1.png' class='respPic'></div></div>","null","5","Odds are Orange","Fruit/orange.png","Lost","0.2,0.65","9","0.2","75","14","",""
"html-keyboard-response","51","290350","0.0-11.0-3.13","63f794e7d8d24753edbbb136","bdp_rwlrn","Mon Mar 13 2023 14:50:28 GMT-0400 (Eastern Daylight Time)","707574","Trustworthy,Untrustworthy","","null","","","","feedback","","<div class='respPicDiv'><img src='img/responseButtonOffersNo0_wht.png' class='respPic'></div><div class='trialDiv'><img src='Fruit/orange.png'><br><font class='baseline'><strong>Odds are Orange</strong><p><strong><font class='negOutcome'>You LOST</font><p>You bet: 1</strong></font> &nbsp; &nbsp; &nbsp; &nbsp; &nbsp; &nbsp;<font class='negOutcome'>You receive: <strong>0</strong></font></div>","null","5","Odds are Orange","Fruit/orange.png","Lost","0.2,0.65","9","0.2","75","14","",""
"html-keyboard-response","52","291960","0.0-11.0-1.14","63f794e7d8d24753edbbb136","bdp_rwlrn","Mon Mar 13 2023 14:50:28 GMT-0400 (Eastern Daylight Time)","707574","Trustworthy,Untrustworthy","","1608","","","","decision","","<div class='trialDiv'><img src='Fruit/watermelon.png'><br><font class='baseline'><strong>Watermelon Win$</strong><p>Choose number of points to bet.</font><div class='respPicDiv'><img src='img/responseButtonOffersNo0L.png' class='respPic'></div></div>","5","5","Watermelon Win$","Fruit/watermelon.png","Lost","0.65,0.35","13","0.65","80","15","",""
"html-keyboard-response","53","292214","0.0-11.0-2.14","63f794e7d8d24753edbbb136","bdp_rwlrn","Mon Mar 13 2023 14:50:28 GMT-0400 (Eastern Daylight Time)","707574","Trustworthy,Untrustworthy","","null","","","","decisionFB","","<div class='trialDiv'><img src='Fruit/watermelon.png'><br><font class='baseline'><strong>Watermelon Win$</strong><p>Choose number of points to bet.</font><div class='respPicDiv'><img src='img/responseButtonOffersNo0L5.png' class='respPic'></div></div>","null","5","Watermelon Win$","Fruit/watermelon.png","Lost","0.65,0.35","13","0.65","75","15","",""
"html-keyboard-response","54","293223","0.0-11.0-3.14","63f794e7d8d24753edbbb136","bdp_rwlrn","Mon Mar 13 2023 14:50:28 GMT-0400 (Eastern Daylight Time)","707574","Trustworthy,Untrustworthy","","null","","","","feedback","","<div class='respPicDiv'><img src='img/responseButtonOffersNo0_wht.png' class='respPic'></div><div class='trialDiv'><img src='Fruit/watermelon.png'><br><font class='baseline'><strong>Watermelon Win$</strong><p><strong><font class='negOutcome'>You LOST</font><p>You bet: 5</strong></font> &nbsp; &nbsp; &nbsp; &nbsp; &nbsp; &nbsp;<font class='negOutcome'>You receive: <strong>0</strong></font></div>","null","5","Watermelon Win$","Fruit/watermelon.png","Lost","0.65,0.35","13","0.65","75","15","",""
"html-keyboard-response","55","294755","0.0-11.0-1.15","63f794e7d8d24753edbbb136","bdp_rwlrn","Mon Mar 13 2023 14:50:28 GMT-0400 (Eastern Daylight Time)","707574","Trustworthy,Untrustworthy","","1530","","","","decision","","<div class='trialDiv'><img src='Fruit/Kiwi.png'><br><font class='baseline'><strong>Kiwi Kash</strong><p>Choose number of points to bet.</font><div class='respPicDiv'><img src='img/responseButtonOffersNo0L.png' class='respPic'></div></div>","5","6","Kiwi Kash","Fruit/Kiwi.png","Won","0.8,0.35","12","0.8","80","16","",""
"html-keyboard-response","56","295017","0.0-11.0-2.15","63f794e7d8d24753edbbb136","bdp_rwlrn","Mon Mar 13 2023 14:50:28 GMT-0400 (Eastern Daylight Time)","707574","Trustworthy,Untrustworthy","","null","","","","decisionFB","","<div class='trialDiv'><img src='Fruit/Kiwi.png'><br><font class='baseline'><strong>Kiwi Kash</strong><p>Choose number of points to bet.</font><div class='respPicDiv'><img src='img/responseButtonOffersNo0L5.png' class='respPic'></div></div>","null","6","Kiwi Kash","Fruit/Kiwi.png","Won","0.8,0.35","12","0.8","75","16","",""
"html-keyboard-response","57","296024","0.0-11.0-3.15","63f794e7d8d24753edbbb136","bdp_rwlrn","Mon Mar 13 2023 14:50:28 GMT-0400 (Eastern Daylight Time)","707574","Trustworthy,Untrustworthy","","null","","","","feedback","","<div class='respPicDiv'><img src='img/responseButtonOffersNo0_wht.png' class='respPic'></div><div class='trialDiv'><img src='Fruit/Kiwi.png'><br><font class='baseline'><strong>Kiwi Kash</strong><p><strong><font class='posOutcome'>You WON</font><p>You bet: 5</strong></font> &nbsp; &nbsp; &nbsp; &nbsp; &nbsp; &nbsp;<font class='posOutcome'>you receive: <strong>10</strong></font></div>","null","6","Kiwi Kash","Fruit/Kiwi.png","Won","0.8,0.35","12","0.8","85","16","",""
"html-keyboard-response","58","297083","0.0-11.0-1.16","63f794e7d8d24753edbbb136","bdp_rwlrn","Mon Mar 13 2023 14:50:28 GMT-0400 (Eastern Daylight Time)","707574","Trustworthy,Untrustworthy","","1058","","","","decision","","<div class='trialDiv'><img src='Fruit/orange.png'><br><font class='baseline'><strong>Odds are Orange</strong><p>Choose number of points to bet.</font><div class='respPicDiv'><img src='img/responseButtonOffersNo0L.png' class='respPic'></div></div>","1","6","Odds are Orange","Fruit/orange.png","Lost","0.2,0.65","9","0.2","90","17","",""
"html-keyboard-response","59","297345","0.0-11.0-2.16","63f794e7d8d24753edbbb136","bdp_rwlrn","Mon Mar 13 2023 14:50:28 GMT-0400 (Eastern Daylight Time)","707574","Trustworthy,Untrustworthy","","null","","","","decisionFB","","<div class='trialDiv'><img src='Fruit/orange.png'><br><font class='baseline'><strong>Odds are Orange</strong><p>Choose number of points to bet.</font><div class='respPicDiv'><img src='img/responseButtonOffersNo0L1.png' class='respPic'></div></div>","null","6","Odds are Orange","Fruit/orange.png","Lost","0.2,0.65","9","0.2","89","17","",""
"html-keyboard-response","60","298354","0.0-11.0-3.16","63f794e7d8d24753edbbb136","bdp_rwlrn","Mon Mar 13 2023 14:50:28 GMT-0400 (Eastern Daylight Time)","707574","Trustworthy,Untrustworthy","","null","","","","feedback","","<div class='respPicDiv'><img src='img/responseButtonOffersNo0_wht.png' class='respPic'></div><div class='trialDiv'><img src='Fruit/orange.png'><br><font class='baseline'><strong>Odds are Orange</strong><p><strong><font class='negOutcome'>You LOST</font><p>You bet: 1</strong></font> &nbsp; &nbsp; &nbsp; &nbsp; &nbsp; &nbsp;<font class='negOutcome'>You receive: <strong>0</strong></font></div>","null","6","Odds are Orange","Fruit/orange.png","Lost","0.2,0.65","9","0.2","89","17","",""
"html-keyboard-response","61","300894","0.0-11.0-1.17","63f794e7d8d24753edbbb136","bdp_rwlrn","Mon Mar 13 2023 14:50:28 GMT-0400 (Eastern Daylight Time)","707574","Trustworthy,Untrustworthy","","2539","","","","decision","","<div class='trialDiv'><img src='Fruit/watermelon.png'><br><font class='baseline'><strong>Watermelon Win$</strong><p>Choose number of points to bet.</font><div class='respPicDiv'><img src='img/responseButtonOffersNo0L.png' class='respPic'></div></div>","5","6","Watermelon Win$","Fruit/watermelon.png","Won","0.65,0.35","13","0.65","94","18","",""
"html-keyboard-response","62","301153","0.0-11.0-2.17","63f794e7d8d24753edbbb136","bdp_rwlrn","Mon Mar 13 2023 14:50:28 GMT-0400 (Eastern Daylight Time)","707574","Trustworthy,Untrustworthy","","null","","","","decisionFB","","<div class='trialDiv'><img src='Fruit/watermelon.png'><br><font class='baseline'><strong>Watermelon Win$</strong><p>Choose number of points to bet.</font><div class='respPicDiv'><img src='img/responseButtonOffersNo0L5.png' class='respPic'></div></div>","null","6","Watermelon Win$","Fruit/watermelon.png","Won","0.65,0.35","13","0.65","89","18","",""
"html-keyboard-response","63","302158","0.0-11.0-3.17","63f794e7d8d24753edbbb136","bdp_rwlrn","Mon Mar 13 2023 14:50:28 GMT-0400 (Eastern Daylight Time)","707574","Trustworthy,Untrustworthy","","null","","","","feedback","","<div class='respPicDiv'><img src='img/responseButtonOffersNo0_wht.png' class='respPic'></div><div class='trialDiv'><img src='Fruit/watermelon.png'><br><font class='baseline'><strong>Watermelon Win$</strong><p><strong><font class='posOutcome'>You WON</font><p>You bet: 5</strong></font> &nbsp; &nbsp; &nbsp; &nbsp; &nbsp; &nbsp;<font class='posOutcome'>you receive: <strong>10</strong></font></div>","null","6","Watermelon Win$","Fruit/watermelon.png","Won","0.65,0.35","13","0.65","99","18","",""
"html-keyboard-response","64","303212","0.0-11.0-1.18","63f794e7d8d24753edbbb136","bdp_rwlrn","Mon Mar 13 2023 14:50:28 GMT-0400 (Eastern Daylight Time)","707574","Trustworthy,Untrustworthy","","1053","","","","decision","","<div class='trialDiv'><img src='Fruit/orange.png'><br><font class='baseline'><strong>Odds are Orange</strong><p>Choose number of points to bet.</font><div class='respPicDiv'><img src='img/responseButtonOffersNo0L.png' class='respPic'></div></div>","1","7","Odds are Orange","Fruit/orange.png","Lost","0.2,0.65","9","0.2","104","19","",""
"html-keyboard-response","65","303471","0.0-11.0-2.18","63f794e7d8d24753edbbb136","bdp_rwlrn","Mon Mar 13 2023 14:50:28 GMT-0400 (Eastern Daylight Time)","707574","Trustworthy,Untrustworthy","","null","","","","decisionFB","","<div class='trialDiv'><img src='Fruit/orange.png'><br><font class='baseline'><strong>Odds are Orange</strong><p>Choose number of points to bet.</font><div class='respPicDiv'><img src='img/responseButtonOffersNo0L1.png' class='respPic'></div></div>","null","7","Odds are Orange","Fruit/orange.png","Lost","0.2,0.65","9","0.2","103","19","",""
"html-keyboard-response","66","304480","0.0-11.0-3.18","63f794e7d8d24753edbbb136","bdp_rwlrn","Mon Mar 13 2023 14:50:28 GMT-0400 (Eastern Daylight Time)","707574","Trustworthy,Untrustworthy","","null","","","","feedback","","<div class='respPicDiv'><img src='img/responseButtonOffersNo0_wht.png' class='respPic'></div><div class='trialDiv'><img src='Fruit/orange.png'><br><font class='baseline'><strong>Odds are Orange</strong><p><strong><font class='negOutcome'>You LOST</font><p>You bet: 1</strong></font> &nbsp; &nbsp; &nbsp; &nbsp; &nbsp; &nbsp;<font class='negOutcome'>You receive: <strong>0</strong></font></div>","null","7","Odds are Orange","Fruit/orange.png","Lost","0.2,0.65","9","0.2","103","19","",""
"html-keyboard-response","67","305989","0.0-11.0-1.19","63f794e7d8d24753edbbb136","bdp_rwlrn","Mon Mar 13 2023 14:50:28 GMT-0400 (Eastern Daylight Time)","707574","Trustworthy,Untrustworthy","","1508","","","","decision","","<div class='trialDiv'><img src='Fruit/Kiwi.png'><br><font class='baseline'><strong>Kiwi Kash</strong><p>Choose number of points to bet.</font><div class='respPicDiv'><img src='img/responseButtonOffersNo0L.png' class='respPic'></div></div>","5","7","Kiwi Kash","Fruit/Kiwi.png","Lost","0.8,0.35","12","0.8","108","20","",""
"html-keyboard-response","68","306250","0.0-11.0-2.19","63f794e7d8d24753edbbb136","bdp_rwlrn","Mon Mar 13 2023 14:50:28 GMT-0400 (Eastern Daylight Time)","707574","Trustworthy,Untrustworthy","","null","","","","decisionFB","","<div class='trialDiv'><img src='Fruit/Kiwi.png'><br><font class='baseline'><strong>Kiwi Kash</strong><p>Choose number of points to bet.</font><div class='respPicDiv'><img src='img/responseButtonOffersNo0L5.png' class='respPic'></div></div>","null","7","Kiwi Kash","Fruit/Kiwi.png","Lost","0.8,0.35","12","0.8","103","20","",""
"html-keyboard-response","69","307255","0.0-11.0-3.19","63f794e7d8d24753edbbb136","bdp_rwlrn","Mon Mar 13 2023 14:50:28 GMT-0400 (Eastern Daylight Time)","707574","Trustworthy,Untrustworthy","","null","","","","feedback","","<div class='respPicDiv'><img src='img/responseButtonOffersNo0_wht.png' class='respPic'></div><div class='trialDiv'><img src='Fruit/Kiwi.png'><br><font class='baseline'><strong>Kiwi Kash</strong><p><strong><font class='negOutcome'>You LOST</font><p>You bet: 5</strong></font> &nbsp; &nbsp; &nbsp; &nbsp; &nbsp; &nbsp;<font class='negOutcome'>You receive: <strong>0</strong></font></div>","null","7","Kiwi Kash","Fruit/Kiwi.png","Lost","0.8,0.35","12","0.8","103","20","",""
"html-keyboard-response","70","308963","0.0-11.0-1.20","63f794e7d8d24753edbbb136","bdp_rwlrn","Mon Mar 13 2023 14:50:28 GMT-0400 (Eastern Daylight Time)","707574","Trustworthy,Untrustworthy","","1707","","","","decision","","<div class='trialDiv'><img src='Fruit/watermelon.png'><br><font class='baseline'><strong>Watermelon Win$</strong><p>Choose number of points to bet.</font><div class='respPicDiv'><img src='img/responseButtonOffersNo0L.png' class='respPic'></div></div>","5","7","Watermelon Win$","Fruit/watermelon.png","Won","0.65,0.35","13","0.65","108","21","",""
"html-keyboard-response","71","309223","0.0-11.0-2.20","63f794e7d8d24753edbbb136","bdp_rwlrn","Mon Mar 13 2023 14:50:28 GMT-0400 (Eastern Daylight Time)","707574","Trustworthy,Untrustworthy","","null","","","","decisionFB","","<div class='trialDiv'><img src='Fruit/watermelon.png'><br><font class='baseline'><strong>Watermelon Win$</strong><p>Choose number of points to bet.</font><div class='respPicDiv'><img src='img/responseButtonOffersNo0L5.png' class='respPic'></div></div>","null","7","Watermelon Win$","Fruit/watermelon.png","Won","0.65,0.35","13","0.65","103","21","",""
"html-keyboard-response","72","310233","0.0-11.0-3.20","63f794e7d8d24753edbbb136","bdp_rwlrn","Mon Mar 13 2023 14:50:28 GMT-0400 (Eastern Daylight Time)","707574","Trustworthy,Untrustworthy","","null","","","","feedback","","<div class='respPicDiv'><img src='img/responseButtonOffersNo0_wht.png' class='respPic'></div><div class='trialDiv'><img src='Fruit/watermelon.png'><br><font class='baseline'><strong>Watermelon Win$</strong><p><strong><font class='posOutcome'>You WON</font><p>You bet: 5</strong></font> &nbsp; &nbsp; &nbsp; &nbsp; &nbsp; &nbsp;<font class='posOutcome'>you receive: <strong>10</strong></font></div>","null","7","Watermelon Win$","Fruit/watermelon.png","Won","0.65,0.35","13","0.65","113","21","",""
"html-keyboard-response","73","311259","0.0-11.0-1.21","63f794e7d8d24753edbbb136","bdp_rwlrn","Mon Mar 13 2023 14:50:28 GMT-0400 (Eastern Daylight Time)","707574","Trustworthy,Untrustworthy","","1025","","","","decision","","<div class='trialDiv'><img src='Fruit/orange.png'><br><font class='baseline'><strong>Odds are Orange</strong><p>Choose number of points to bet.</font><div class='respPicDiv'><img src='img/responseButtonOffersNo0L.png' class='respPic'></div></div>","1","8","Odds are Orange","Fruit/orange.png","Lost","0.2,0.65","9","0.2","118","22","",""
"html-keyboard-response","74","311521","0.0-11.0-2.21","63f794e7d8d24753edbbb136","bdp_rwlrn","Mon Mar 13 2023 14:50:28 GMT-0400 (Eastern Daylight Time)","707574","Trustworthy,Untrustworthy","","null","","","","decisionFB","","<div class='trialDiv'><img src='Fruit/orange.png'><br><font class='baseline'><strong>Odds are Orange</strong><p>Choose number of points to bet.</font><div class='respPicDiv'><img src='img/responseButtonOffersNo0L1.png' class='respPic'></div></div>","null","8","Odds are Orange","Fruit/orange.png","Lost","0.2,0.65","9","0.2","117","22","",""
"html-keyboard-response","75","312528","0.0-11.0-3.21","63f794e7d8d24753edbbb136","bdp_rwlrn","Mon Mar 13 2023 14:50:28 GMT-0400 (Eastern Daylight Time)","707574","Trustworthy,Untrustworthy","","null","","","","feedback","","<div class='respPicDiv'><img src='img/responseButtonOffersNo0_wht.png' class='respPic'></div><div class='trialDiv'><img src='Fruit/orange.png'><br><font class='baseline'><strong>Odds are Orange</strong><p><strong><font class='negOutcome'>You LOST</font><p>You bet: 1</strong></font> &nbsp; &nbsp; &nbsp; &nbsp; &nbsp; &nbsp;<font class='negOutcome'>You receive: <strong>0</strong></font></div>","null","8","Odds are Orange","Fruit/orange.png","Lost","0.2,0.65","9","0.2","117","22","",""
"html-keyboard-response","76","314109","0.0-11.0-1.22","63f794e7d8d24753edbbb136","bdp_rwlrn","Mon Mar 13 2023 14:50:28 GMT-0400 (Eastern Daylight Time)","707574","Trustworthy,Untrustworthy","","1580","","","","decision","","<div class='trialDiv'><img src='Fruit/Kiwi.png'><br><font class='baseline'><strong>Kiwi Kash</strong><p>Choose number of points to bet.</font><div class='respPicDiv'><img src='img/responseButtonOffersNo0L.png' class='respPic'></div></div>","5","8","Kiwi Kash","Fruit/Kiwi.png","Won","0.8,0.35","12","0.8","122","23","",""
"html-keyboard-response","77","314367","0.0-11.0-2.22","63f794e7d8d24753edbbb136","bdp_rwlrn","Mon Mar 13 2023 14:50:28 GMT-0400 (Eastern Daylight Time)","707574","Trustworthy,Untrustworthy","","null","","","","decisionFB","","<div class='trialDiv'><img src='Fruit/Kiwi.png'><br><font class='baseline'><strong>Kiwi Kash</strong><p>Choose number of points to bet.</font><div class='respPicDiv'><img src='img/responseButtonOffersNo0L5.png' class='respPic'></div></div>","null","8","Kiwi Kash","Fruit/Kiwi.png","Won","0.8,0.35","12","0.8","117","23","",""
"html-keyboard-response","78","315376","0.0-11.0-3.22","63f794e7d8d24753edbbb136","bdp_rwlrn","Mon Mar 13 2023 14:50:28 GMT-0400 (Eastern Daylight Time)","707574","Trustworthy,Untrustworthy","","null","","","","feedback","","<div class='respPicDiv'><img src='img/responseButtonOffersNo0_wht.png' class='respPic'></div><div class='trialDiv'><img src='Fruit/Kiwi.png'><br><font class='baseline'><strong>Kiwi Kash</strong><p><strong><font class='posOutcome'>You WON</font><p>You bet: 5</strong></font> &nbsp; &nbsp; &nbsp; &nbsp; &nbsp; &nbsp;<font class='posOutcome'>you receive: <strong>10</strong></font></div>","null","8","Kiwi Kash","Fruit/Kiwi.png","Won","0.8,0.35","12","0.8","127","23","",""
"html-keyboard-response","79","316424","0.0-11.0-1.23","63f794e7d8d24753edbbb136","bdp_rwlrn","Mon Mar 13 2023 14:50:28 GMT-0400 (Eastern Daylight Time)","707574","Trustworthy,Untrustworthy","","1047","","","","decision","","<div class='trialDiv'><img src='Fruit/watermelon.png'><br><font class='baseline'><strong>Watermelon Win$</strong><p>Choose number of points to bet.</font><div class='respPicDiv'><img src='img/responseButtonOffersNo0L.png' class='respPic'></div></div>","5","8","Watermelon Win$","Fruit/watermelon.png","Won","0.65,0.35","13","0.65","132","24","",""
"html-keyboard-response","80","316680","0.0-11.0-2.23","63f794e7d8d24753edbbb136","bdp_rwlrn","Mon Mar 13 2023 14:50:28 GMT-0400 (Eastern Daylight Time)","707574","Trustworthy,Untrustworthy","","null","","","","decisionFB","","<div class='trialDiv'><img src='Fruit/watermelon.png'><br><font class='baseline'><strong>Watermelon Win$</strong><p>Choose number of points to bet.</font><div class='respPicDiv'><img src='img/responseButtonOffersNo0L5.png' class='respPic'></div></div>","null","8","Watermelon Win$","Fruit/watermelon.png","Won","0.65,0.35","13","0.65","127","24","",""
"html-keyboard-response","81","317687","0.0-11.0-3.23","63f794e7d8d24753edbbb136","bdp_rwlrn","Mon Mar 13 2023 14:50:28 GMT-0400 (Eastern Daylight Time)","707574","Trustworthy,Untrustworthy","","null","","","","feedback","","<div class='respPicDiv'><img src='img/responseButtonOffersNo0_wht.png' class='respPic'></div><div class='trialDiv'><img src='Fruit/watermelon.png'><br><font class='baseline'><strong>Watermelon Win$</strong><p><strong><font class='posOutcome'>You WON</font><p>You bet: 5</strong></font> &nbsp; &nbsp; &nbsp; &nbsp; &nbsp; &nbsp;<font class='posOutcome'>you receive: <strong>10</strong></font></div>","null","8","Watermelon Win$","Fruit/watermelon.png","Won","0.65,0.35","13","0.65","137","24","",""
"html-keyboard-response","82","319576","0.0-11.0-1.24","63f794e7d8d24753edbbb136","bdp_rwlrn","Mon Mar 13 2023 14:50:28 GMT-0400 (Eastern Daylight Time)","707574","Trustworthy,Untrustworthy","","1888","","","","decision","","<div class='trialDiv'><img src='Fruit/Kiwi.png'><br><font class='baseline'><strong>Kiwi Kash</strong><p>Choose number of points to bet.</font><div class='respPicDiv'><img src='img/responseButtonOffersNo0L.png' class='respPic'></div></div>","5","9","Kiwi Kash","Fruit/Kiwi.png","Lost","0.8,0.35","12","0.8","142","25","",""
"html-keyboard-response","83","319832","0.0-11.0-2.24","63f794e7d8d24753edbbb136","bdp_rwlrn","Mon Mar 13 2023 14:50:28 GMT-0400 (Eastern Daylight Time)","707574","Trustworthy,Untrustworthy","","null","","","","decisionFB","","<div class='trialDiv'><img src='Fruit/Kiwi.png'><br><font class='baseline'><strong>Kiwi Kash</strong><p>Choose number of points to bet.</font><div class='respPicDiv'><img src='img/responseButtonOffersNo0L5.png' class='respPic'></div></div>","null","9","Kiwi Kash","Fruit/Kiwi.png","Lost","0.8,0.35","12","0.8","137","25","",""
"html-keyboard-response","84","320839","0.0-11.0-3.24","63f794e7d8d24753edbbb136","bdp_rwlrn","Mon Mar 13 2023 14:50:28 GMT-0400 (Eastern Daylight Time)","707574","Trustworthy,Untrustworthy","","null","","","","feedback","","<div class='respPicDiv'><img src='img/responseButtonOffersNo0_wht.png' class='respPic'></div><div class='trialDiv'><img src='Fruit/Kiwi.png'><br><font class='baseline'><strong>Kiwi Kash</strong><p><strong><font class='negOutcome'>You LOST</font><p>You bet: 5</strong></font> &nbsp; &nbsp; &nbsp; &nbsp; &nbsp; &nbsp;<font class='negOutcome'>You receive: <strong>0</strong></font></div>","null","9","Kiwi Kash","Fruit/Kiwi.png","Lost","0.8,0.35","12","0.8","137","25","",""
"html-keyboard-response","85","323347","0.0-11.0-1.25","63f794e7d8d24753edbbb136","bdp_rwlrn","Mon Mar 13 2023 14:50:28 GMT-0400 (Eastern Daylight Time)","707574","Trustworthy,Untrustworthy","","2507","","","","decision","","<div class='trialDiv'><img src='Fruit/orange.png'><br><font class='baseline'><strong>Odds are Orange</strong><p>Choose number of points to bet.</font><div class='respPicDiv'><img src='img/responseButtonOffersNo0L.png' class='respPic'></div></div>","1","9","Odds are Orange","Fruit/orange.png","Won","0.2,0.65","9","0.2","142","26","",""
"html-keyboard-response","86","323602","0.0-11.0-2.25","63f794e7d8d24753edbbb136","bdp_rwlrn","Mon Mar 13 2023 14:50:28 GMT-0400 (Eastern Daylight Time)","707574","Trustworthy,Untrustworthy","","null","","","","decisionFB","","<div class='trialDiv'><img src='Fruit/orange.png'><br><font class='baseline'><strong>Odds are Orange</strong><p>Choose number of points to bet.</font><div class='respPicDiv'><img src='img/responseButtonOffersNo0L1.png' class='respPic'></div></div>","null","9","Odds are Orange","Fruit/orange.png","Won","0.2,0.65","9","0.2","141","26","",""
"html-keyboard-response","87","324607","0.0-11.0-3.25","63f794e7d8d24753edbbb136","bdp_rwlrn","Mon Mar 13 2023 14:50:28 GMT-0400 (Eastern Daylight Time)","707574","Trustworthy,Untrustworthy","","null","","","","feedback","","<div class='respPicDiv'><img src='img/responseButtonOffersNo0_wht.png' class='respPic'></div><div class='trialDiv'><img src='Fruit/orange.png'><br><font class='baseline'><strong>Odds are Orange</strong><p><strong><font class='posOutcome'>You WON</font><p>You bet: 1</strong></font> &nbsp; &nbsp; &nbsp; &nbsp; &nbsp; &nbsp;<font class='posOutcome'>you receive: <strong>2</strong></font></div>","null","9","Odds are Orange","Fruit/orange.png","Won","0.2,0.65","9","0.2","143","26","",""
"html-keyboard-response","88","326049","0.0-11.0-1.26","63f794e7d8d24753edbbb136","bdp_rwlrn","Mon Mar 13 2023 14:50:28 GMT-0400 (Eastern Daylight Time)","707574","Trustworthy,Untrustworthy","","1442","","","","decision","","<div class='trialDiv'><img src='Fruit/watermelon.png'><br><font class='baseline'><strong>Watermelon Win$</strong><p>Choose number of points to bet.</font><div class='respPicDiv'><img src='img/responseButtonOffersNo0L.png' class='respPic'></div></div>","5","9","Watermelon Win$","Fruit/watermelon.png","Won","0.65,0.35","13","0.65","148","27","",""
"html-keyboard-response","89","326304","0.0-11.0-2.26","63f794e7d8d24753edbbb136","bdp_rwlrn","Mon Mar 13 2023 14:50:28 GMT-0400 (Eastern Daylight Time)","707574","Trustworthy,Untrustworthy","","null","","","","decisionFB","","<div class='trialDiv'><img src='Fruit/watermelon.png'><br><font class='baseline'><strong>Watermelon Win$</strong><p>Choose number of points to bet.</font><div class='respPicDiv'><img src='img/responseButtonOffersNo0L5.png' class='respPic'></div></div>","null","9","Watermelon Win$","Fruit/watermelon.png","Won","0.65,0.35","13","0.65","143","27","",""
"html-keyboard-response","90","327315","0.0-11.0-3.26","63f794e7d8d24753edbbb136","bdp_rwlrn","Mon Mar 13 2023 14:50:28 GMT-0400 (Eastern Daylight Time)","707574","Trustworthy,Untrustworthy","","null","","","","feedback","","<div class='respPicDiv'><img src='img/responseButtonOffersNo0_wht.png' class='respPic'></div><div class='trialDiv'><img src='Fruit/watermelon.png'><br><font class='baseline'><strong>Watermelon Win$</strong><p><strong><font class='posOutcome'>You WON</font><p>You bet: 5</strong></font> &nbsp; &nbsp; &nbsp; &nbsp; &nbsp; &nbsp;<font class='posOutcome'>you receive: <strong>10</strong></font></div>","null","9","Watermelon Win$","Fruit/watermelon.png","Won","0.65,0.35","13","0.65","153","27","",""
"html-keyboard-response","91","329073","0.0-11.0-1.27","63f794e7d8d24753edbbb136","bdp_rwlrn","Mon Mar 13 2023 14:50:28 GMT-0400 (Eastern Daylight Time)","707574","Trustworthy,Untrustworthy","","1757","","","","decision","","<div class='trialDiv'><img src='Fruit/Kiwi.png'><br><font class='baseline'><strong>Kiwi Kash</strong><p>Choose number of points to bet.</font><div class='respPicDiv'><img src='img/responseButtonOffersNo0L.png' class='respPic'></div></div>","5","10","Kiwi Kash","Fruit/Kiwi.png","Won","0.8,0.35","12","0.8","158","28","",""
"html-keyboard-response","92","329328","0.0-11.0-2.27","63f794e7d8d24753edbbb136","bdp_rwlrn","Mon Mar 13 2023 14:50:28 GMT-0400 (Eastern Daylight Time)","707574","Trustworthy,Untrustworthy","","null","","","","decisionFB","","<div class='trialDiv'><img src='Fruit/Kiwi.png'><br><font class='baseline'><strong>Kiwi Kash</strong><p>Choose number of points to bet.</font><div class='respPicDiv'><img src='img/responseButtonOffersNo0L5.png' class='respPic'></div></div>","null","10","Kiwi Kash","Fruit/Kiwi.png","Won","0.8,0.35","12","0.8","153","28","",""
"html-keyboard-response","93","330336","0.0-11.0-3.27","63f794e7d8d24753edbbb136","bdp_rwlrn","Mon Mar 13 2023 14:50:28 GMT-0400 (Eastern Daylight Time)","707574","Trustworthy,Untrustworthy","","null","","","","feedback","","<div class='respPicDiv'><img src='img/responseButtonOffersNo0_wht.png' class='respPic'></div><div class='trialDiv'><img src='Fruit/Kiwi.png'><br><font class='baseline'><strong>Kiwi Kash</strong><p><strong><font class='posOutcome'>You WON</font><p>You bet: 5</strong></font> &nbsp; &nbsp; &nbsp; &nbsp; &nbsp; &nbsp;<font class='posOutcome'>you receive: <strong>10</strong></font></div>","null","10","Kiwi Kash","Fruit/Kiwi.png","Won","0.8,0.35","12","0.8","163","28","",""
"html-keyboard-response","94","332217","0.0-11.0-1.28","63f794e7d8d24753edbbb136","bdp_rwlrn","Mon Mar 13 2023 14:50:28 GMT-0400 (Eastern Daylight Time)","707574","Trustworthy,Untrustworthy","","1880","","","","decision","","<div class='trialDiv'><img src='Fruit/orange.png'><br><font class='baseline'><strong>Odds are Orange</strong><p>Choose number of points to bet.</font><div class='respPicDiv'><img src='img/responseButtonOffersNo0L.png' class='respPic'></div></div>","1","10","Odds are Orange","Fruit/orange.png","Won","0.2,0.65","9","0.2","168","29","",""
"html-keyboard-response","95","332472","0.0-11.0-2.28","63f794e7d8d24753edbbb136","bdp_rwlrn","Mon Mar 13 2023 14:50:28 GMT-0400 (Eastern Daylight Time)","707574","Trustworthy,Untrustworthy","","null","","","","decisionFB","","<div class='trialDiv'><img src='Fruit/orange.png'><br><font class='baseline'><strong>Odds are Orange</strong><p>Choose number of points to bet.</font><div class='respPicDiv'><img src='img/responseButtonOffersNo0L1.png' class='respPic'></div></div>","null","10","Odds are Orange","Fruit/orange.png","Won","0.2,0.65","9","0.2","167","29","",""
"html-keyboard-response","96","333482","0.0-11.0-3.28","63f794e7d8d24753edbbb136","bdp_rwlrn","Mon Mar 13 2023 14:50:28 GMT-0400 (Eastern Daylight Time)","707574","Trustworthy,Untrustworthy","","null","","","","feedback","","<div class='respPicDiv'><img src='img/responseButtonOffersNo0_wht.png' class='respPic'></div><div class='trialDiv'><img src='Fruit/orange.png'><br><font class='baseline'><strong>Odds are Orange</strong><p><strong><font class='posOutcome'>You WON</font><p>You bet: 1</strong></font> &nbsp; &nbsp; &nbsp; &nbsp; &nbsp; &nbsp;<font class='posOutcome'>you receive: <strong>2</strong></font></div>","null","10","Odds are Orange","Fruit/orange.png","Won","0.2,0.65","9","0.2","169","29","",""
"html-keyboard-response","97","335901","0.0-11.0-1.29","63f794e7d8d24753edbbb136","bdp_rwlrn","Mon Mar 13 2023 14:50:28 GMT-0400 (Eastern Daylight Time)","707574","Trustworthy,Untrustworthy","","2418","","","","decision","","<div class='trialDiv'><img src='Fruit/watermelon.png'><br><font class='baseline'><strong>Watermelon Win$</strong><p>Choose number of points to bet.</font><div class='respPicDiv'><img src='img/responseButtonOffersNo0L.png' class='respPic'></div></div>","5","10","Watermelon Win$","Fruit/watermelon.png","Lost","0.65,0.35","13","0.65","174","30","",""
"html-keyboard-response","98","336152","0.0-11.0-2.29","63f794e7d8d24753edbbb136","bdp_rwlrn","Mon Mar 13 2023 14:50:28 GMT-0400 (Eastern Daylight Time)","707574","Trustworthy,Untrustworthy","","null","","","","decisionFB","","<div class='trialDiv'><img src='Fruit/watermelon.png'><br><font class='baseline'><strong>Watermelon Win$</strong><p>Choose number of points to bet.</font><div class='respPicDiv'><img src='img/responseButtonOffersNo0L5.png' class='respPic'></div></div>","null","10","Watermelon Win$","Fruit/watermelon.png","Lost","0.65,0.35","13","0.65","169","30","",""
"html-keyboard-response","99","337162","0.0-11.0-3.29","63f794e7d8d24753edbbb136","bdp_rwlrn","Mon Mar 13 2023 14:50:28 GMT-0400 (Eastern Daylight Time)","707574","Trustworthy,Untrustworthy","","null","","","","feedback","","<div class='respPicDiv'><img src='img/responseButtonOffersNo0_wht.png' class='respPic'></div><div class='trialDiv'><img src='Fruit/watermelon.png'><br><font class='baseline'><strong>Watermelon Win$</strong><p><strong><font class='negOutcome'>You LOST</font><p>You bet: 5</strong></font> &nbsp; &nbsp; &nbsp; &nbsp; &nbsp; &nbsp;<font class='negOutcome'>You receive: <strong>0</strong></font></div>","null","10","Watermelon Win$","Fruit/watermelon.png","Lost","0.65,0.35","13","0.65","169","30","",""
"html-keyboard-response","100","340044","0.0-11.0-1.30","63f794e7d8d24753edbbb136","bdp_rwlrn","Mon Mar 13 2023 14:50:28 GMT-0400 (Eastern Daylight Time)","707574","Trustworthy,Untrustworthy","","2880","","","","decision","","<div class='trialDiv'><img src='Fruit/orange.png'><br><font class='baseline'><strong>Odds are Orange</strong><p>Choose number of points to bet.</font><div class='respPicDiv'><img src='img/responseButtonOffersNo0L.png' class='respPic'></div></div>","3","11","Odds are Orange","Fruit/orange.png","Won","0.2,0.65","9","0.2","174","31","",""
"html-keyboard-response","101","340298","0.0-11.0-2.30","63f794e7d8d24753edbbb136","bdp_rwlrn","Mon Mar 13 2023 14:50:28 GMT-0400 (Eastern Daylight Time)","707574","Trustworthy,Untrustworthy","","null","","","","decisionFB","","<div class='trialDiv'><img src='Fruit/orange.png'><br><font class='baseline'><strong>Odds are Orange</strong><p>Choose number of points to bet.</font><div class='respPicDiv'><img src='img/responseButtonOffersNo0L3.png' class='respPic'></div></div>","null","11","Odds are Orange","Fruit/orange.png","Won","0.2,0.65","9","0.2","171","31","",""
"html-keyboard-response","102","341308","0.0-11.0-3.30","63f794e7d8d24753edbbb136","bdp_rwlrn","Mon Mar 13 2023 14:50:28 GMT-0400 (Eastern Daylight Time)","707574","Trustworthy,Untrustworthy","","null","","","","feedback","","<div class='respPicDiv'><img src='img/responseButtonOffersNo0_wht.png' class='respPic'></div><div class='trialDiv'><img src='Fruit/orange.png'><br><font class='baseline'><strong>Odds are Orange</strong><p><strong><font class='posOutcome'>You WON</font><p>You bet: 3</strong></font> &nbsp; &nbsp; &nbsp; &nbsp; &nbsp; &nbsp;<font class='posOutcome'>you receive: <strong>6</strong></font></div>","null","11","Odds are Orange","Fruit/orange.png","Won","0.2,0.65","9","0.2","177","31","",""
"html-keyboard-response","103","343750","0.0-11.0-1.31","63f794e7d8d24753edbbb136","bdp_rwlrn","Mon Mar 13 2023 14:50:28 GMT-0400 (Eastern Daylight Time)","707574","Trustworthy,Untrustworthy","","2441","","","","decision","","<div class='trialDiv'><img src='Fruit/Kiwi.png'><br><font class='baseline'><strong>Kiwi Kash</strong><p>Choose number of points to bet.</font><div class='respPicDiv'><img src='img/responseButtonOffersNo0L.png' class='respPic'></div></div>","5","11","Kiwi Kash","Fruit/Kiwi.png","Won","0.8,0.35","12","0.8","182","32","",""
"html-keyboard-response","104","344007","0.0-11.0-2.31","63f794e7d8d24753edbbb136","bdp_rwlrn","Mon Mar 13 2023 14:50:28 GMT-0400 (Eastern Daylight Time)","707574","Trustworthy,Untrustworthy","","null","","","","decisionFB","","<div class='trialDiv'><img src='Fruit/Kiwi.png'><br><font class='baseline'><strong>Kiwi Kash</strong><p>Choose number of points to bet.</font><div class='respPicDiv'><img src='img/responseButtonOffersNo0L5.png' class='respPic'></div></div>","null","11","Kiwi Kash","Fruit/Kiwi.png","Won","0.8,0.35","12","0.8","177","32","",""
"html-keyboard-response","105","345018","0.0-11.0-3.31","63f794e7d8d24753edbbb136","bdp_rwlrn","Mon Mar 13 2023 14:50:28 GMT-0400 (Eastern Daylight Time)","707574","Trustworthy,Untrustworthy","","null","","","","feedback","","<div class='respPicDiv'><img src='img/responseButtonOffersNo0_wht.png' class='respPic'></div><div class='trialDiv'><img src='Fruit/Kiwi.png'><br><font class='baseline'><strong>Kiwi Kash</strong><p><strong><font class='posOutcome'>You WON</font><p>You bet: 5</strong></font> &nbsp; &nbsp; &nbsp; &nbsp; &nbsp; &nbsp;<font class='posOutcome'>you receive: <strong>10</strong></font></div>","null","11","Kiwi Kash","Fruit/Kiwi.png","Won","0.8,0.35","12","0.8","187","32","",""
"html-keyboard-response","106","347074","0.0-11.0-1.32","63f794e7d8d24753edbbb136","bdp_rwlrn","Mon Mar 13 2023 14:50:28 GMT-0400 (Eastern Daylight Time)","707574","Trustworthy,Untrustworthy","","2055","","","","decision","","<div class='trialDiv'><img src='Fruit/watermelon.png'><br><font class='baseline'><strong>Watermelon Win$</strong><p>Choose number of points to bet.</font><div class='respPicDiv'><img src='img/responseButtonOffersNo0L.png' class='respPic'></div></div>","5","11","Watermelon Win$","Fruit/watermelon.png","Lost","0.65,0.35","13","0.65","192","33","",""
"html-keyboard-response","107","347332","0.0-11.0-2.32","63f794e7d8d24753edbbb136","bdp_rwlrn","Mon Mar 13 2023 14:50:28 GMT-0400 (Eastern Daylight Time)","707574","Trustworthy,Untrustworthy","","null","","","","decisionFB","","<div class='trialDiv'><img src='Fruit/watermelon.png'><br><font class='baseline'><strong>Watermelon Win$</strong><p>Choose number of points to bet.</font><div class='respPicDiv'><img src='img/responseButtonOffersNo0L5.png' class='respPic'></div></div>","null","11","Watermelon Win$","Fruit/watermelon.png","Lost","0.65,0.35","13","0.65","187","33","",""
"html-keyboard-response","108","348337","0.0-11.0-3.32","63f794e7d8d24753edbbb136","bdp_rwlrn","Mon Mar 13 2023 14:50:28 GMT-0400 (Eastern Daylight Time)","707574","Trustworthy,Untrustworthy","","null","","","","feedback","","<div class='respPicDiv'><img src='img/responseButtonOffersNo0_wht.png' class='respPic'></div><div class='trialDiv'><img src='Fruit/watermelon.png'><br><font class='baseline'><strong>Watermelon Win$</strong><p><strong><font class='negOutcome'>You LOST</font><p>You bet: 5</strong></font> &nbsp; &nbsp; &nbsp; &nbsp; &nbsp; &nbsp;<font class='negOutcome'>You receive: <strong>0</strong></font></div>","null","11","Watermelon Win$","Fruit/watermelon.png","Lost","0.65,0.35","13","0.65","187","33","",""
"html-keyboard-response","109","350412","0.0-11.0-1.33","63f794e7d8d24753edbbb136","bdp_rwlrn","Mon Mar 13 2023 14:50:28 GMT-0400 (Eastern Daylight Time)","707574","Trustworthy,Untrustworthy","","2074","","","","decision","","<div class='trialDiv'><img src='Fruit/Kiwi.png'><br><font class='baseline'><strong>Kiwi Kash</strong><p>Choose number of points to bet.</font><div class='respPicDiv'><img src='img/responseButtonOffersNo0L.png' class='respPic'></div></div>","5","12","Kiwi Kash","Fruit/Kiwi.png","Lost","0.8,0.35","12","0.8","192","34","",""
"html-keyboard-response","110","350672","0.0-11.0-2.33","63f794e7d8d24753edbbb136","bdp_rwlrn","Mon Mar 13 2023 14:50:28 GMT-0400 (Eastern Daylight Time)","707574","Trustworthy,Untrustworthy","","null","","","","decisionFB","","<div class='trialDiv'><img src='Fruit/Kiwi.png'><br><font class='baseline'><strong>Kiwi Kash</strong><p>Choose number of points to bet.</font><div class='respPicDiv'><img src='img/responseButtonOffersNo0L5.png' class='respPic'></div></div>","null","12","Kiwi Kash","Fruit/Kiwi.png","Lost","0.8,0.35","12","0.8","187","34","",""
"html-keyboard-response","111","351681","0.0-11.0-3.33","63f794e7d8d24753edbbb136","bdp_rwlrn","Mon Mar 13 2023 14:50:28 GMT-0400 (Eastern Daylight Time)","707574","Trustworthy,Untrustworthy","","null","","","","feedback","","<div class='respPicDiv'><img src='img/responseButtonOffersNo0_wht.png' class='respPic'></div><div class='trialDiv'><img src='Fruit/Kiwi.png'><br><font class='baseline'><strong>Kiwi Kash</strong><p><strong><font class='negOutcome'>You LOST</font><p>You bet: 5</strong></font> &nbsp; &nbsp; &nbsp; &nbsp; &nbsp; &nbsp;<font class='negOutcome'>You receive: <strong>0</strong></font></div>","null","12","Kiwi Kash","Fruit/Kiwi.png","Lost","0.8,0.35","12","0.8","187","34","",""
"html-keyboard-response","112","353846","0.0-11.0-1.34","63f794e7d8d24753edbbb136","bdp_rwlrn","Mon Mar 13 2023 14:50:28 GMT-0400 (Eastern Daylight Time)","707574","Trustworthy,Untrustworthy","","2164","","","","decision","","<div class='trialDiv'><img src='Fruit/orange.png'><br><font class='baseline'><strong>Odds are Orange</strong><p>Choose number of points to bet.</font><div class='respPicDiv'><img src='img/responseButtonOffersNo0L.png' class='respPic'></div></div>","3","12","Odds are Orange","Fruit/orange.png","Won","0.2,0.65","9","0.2","192","35","",""
"html-keyboard-response","113","354108","0.0-11.0-2.34","63f794e7d8d24753edbbb136","bdp_rwlrn","Mon Mar 13 2023 14:50:28 GMT-0400 (Eastern Daylight Time)","707574","Trustworthy,Untrustworthy","","null","","","","decisionFB","","<div class='trialDiv'><img src='Fruit/orange.png'><br><font class='baseline'><strong>Odds are Orange</strong><p>Choose number of points to bet.</font><div class='respPicDiv'><img src='img/responseButtonOffersNo0L3.png' class='respPic'></div></div>","null","12","Odds are Orange","Fruit/orange.png","Won","0.2,0.65","9","0.2","189","35","",""
"html-keyboard-response","114","355113","0.0-11.0-3.34","63f794e7d8d24753edbbb136","bdp_rwlrn","Mon Mar 13 2023 14:50:28 GMT-0400 (Eastern Daylight Time)","707574","Trustworthy,Untrustworthy","","null","","","","feedback","","<div class='respPicDiv'><img src='img/responseButtonOffersNo0_wht.png' class='respPic'></div><div class='trialDiv'><img src='Fruit/orange.png'><br><font class='baseline'><strong>Odds are Orange</strong><p><strong><font class='posOutcome'>You WON</font><p>You bet: 3</strong></font> &nbsp; &nbsp; &nbsp; &nbsp; &nbsp; &nbsp;<font class='posOutcome'>you receive: <strong>6</strong></font></div>","null","12","Odds are Orange","Fruit/orange.png","Won","0.2,0.65","9","0.2","195","35","",""
"html-keyboard-response","115","357921","0.0-11.0-1.35","63f794e7d8d24753edbbb136","bdp_rwlrn","Mon Mar 13 2023 14:50:28 GMT-0400 (Eastern Daylight Time)","707574","Trustworthy,Untrustworthy","","2807","","","","decision","","<div class='trialDiv'><img src='Fruit/watermelon.png'><br><font class='baseline'><strong>Watermelon Win$</strong><p>Choose number of points to bet.</font><div class='respPicDiv'><img src='img/responseButtonOffersNo0L.png' class='respPic'></div></div>","3","12","Watermelon Win$","Fruit/watermelon.png","Won","0.65,0.35","13","0.65","200","36","",""
"html-keyboard-response","116","358177","0.0-11.0-2.35","63f794e7d8d24753edbbb136","bdp_rwlrn","Mon Mar 13 2023 14:50:28 GMT-0400 (Eastern Daylight Time)","707574","Trustworthy,Untrustworthy","","null","","","","decisionFB","","<div class='trialDiv'><img src='Fruit/watermelon.png'><br><font class='baseline'><strong>Watermelon Win$</strong><p>Choose number of points to bet.</font><div class='respPicDiv'><img src='img/responseButtonOffersNo0L3.png' class='respPic'></div></div>","null","12","Watermelon Win$","Fruit/watermelon.png","Won","0.65,0.35","13","0.65","197","36","",""
"html-keyboard-response","117","359188","0.0-11.0-3.35","63f794e7d8d24753edbbb136","bdp_rwlrn","Mon Mar 13 2023 14:50:28 GMT-0400 (Eastern Daylight Time)","707574","Trustworthy,Untrustworthy","","null","","","","feedback","","<div class='respPicDiv'><img src='img/responseButtonOffersNo0_wht.png' class='respPic'></div><div class='trialDiv'><img src='Fruit/watermelon.png'><br><font class='baseline'><strong>Watermelon Win$</strong><p><strong><font class='posOutcome'>You WON</font><p>You bet: 3</strong></font> &nbsp; &nbsp; &nbsp; &nbsp; &nbsp; &nbsp;<font class='posOutcome'>you receive: <strong>6</strong></font></div>","null","12","Watermelon Win$","Fruit/watermelon.png","Won","0.65,0.35","13","0.65","203","36","",""
"html-keyboard-response","118","360462","0.0-11.0-1.36","63f794e7d8d24753edbbb136","bdp_rwlrn","Mon Mar 13 2023 14:50:28 GMT-0400 (Eastern Daylight Time)","707574","Trustworthy,Untrustworthy","","1273","","","","decision","","<div class='trialDiv'><img src='Fruit/orange.png'><br><font class='baseline'><strong>Odds are Orange</strong><p>Choose number of points to bet.</font><div class='respPicDiv'><img src='img/responseButtonOffersNo0L.png' class='respPic'></div></div>","3","13","Odds are Orange","Fruit/orange.png","Won","0.2,0.65","9","0.2","208","37","",""
"html-keyboard-response","119","360714","0.0-11.0-2.36","63f794e7d8d24753edbbb136","bdp_rwlrn","Mon Mar 13 2023 14:50:28 GMT-0400 (Eastern Daylight Time)","707574","Trustworthy,Untrustworthy","","null","","","","decisionFB","","<div class='trialDiv'><img src='Fruit/orange.png'><br><font class='baseline'><strong>Odds are Orange</strong><p>Choose number of points to bet.</font><div class='respPicDiv'><img src='img/responseButtonOffersNo0L3.png' class='respPic'></div></div>","null","13","Odds are Orange","Fruit/orange.png","Won","0.2,0.65","9","0.2","205","37","",""
"html-keyboard-response","120","361724","0.0-11.0-3.36","63f794e7d8d24753edbbb136","bdp_rwlrn","Mon Mar 13 2023 14:50:28 GMT-0400 (Eastern Daylight Time)","707574","Trustworthy,Untrustworthy","","null","","","","feedback","","<div class='respPicDiv'><img src='img/responseButtonOffersNo0_wht.png' class='respPic'></div><div class='trialDiv'><img src='Fruit/orange.png'><br><font class='baseline'><strong>Odds are Orange</strong><p><strong><font class='posOutcome'>You WON</font><p>You bet: 3</strong></font> &nbsp; &nbsp; &nbsp; &nbsp; &nbsp; &nbsp;<font class='posOutcome'>you receive: <strong>6</strong></font></div>","null","13","Odds are Orange","Fruit/orange.png","Won","0.2,0.65","9","0.2","211","37","",""
"html-keyboard-response","121","363067","0.0-11.0-1.37","63f794e7d8d24753edbbb136","bdp_rwlrn","Mon Mar 13 2023 14:50:28 GMT-0400 (Eastern Daylight Time)","707574","Trustworthy,Untrustworthy","","1342","","","","decision","","<div class='trialDiv'><img src='Fruit/Kiwi.png'><br><font class='baseline'><strong>Kiwi Kash</strong><p>Choose number of points to bet.</font><div class='respPicDiv'><img src='img/responseButtonOffersNo0L.png' class='respPic'></div></div>","3","13","Kiwi Kash","Fruit/Kiwi.png","Won","0.8,0.35","12","0.8","216","38","",""
"html-keyboard-response","122","363321","0.0-11.0-2.37","63f794e7d8d24753edbbb136","bdp_rwlrn","Mon Mar 13 2023 14:50:28 GMT-0400 (Eastern Daylight Time)","707574","Trustworthy,Untrustworthy","","null","","","","decisionFB","","<div class='trialDiv'><img src='Fruit/Kiwi.png'><br><font class='baseline'><strong>Kiwi Kash</strong><p>Choose number of points to bet.</font><div class='respPicDiv'><img src='img/responseButtonOffersNo0L3.png' class='respPic'></div></div>","null","13","Kiwi Kash","Fruit/Kiwi.png","Won","0.8,0.35","12","0.8","213","38","",""
"html-keyboard-response","123","364331","0.0-11.0-3.37","63f794e7d8d24753edbbb136","bdp_rwlrn","Mon Mar 13 2023 14:50:28 GMT-0400 (Eastern Daylight Time)","707574","Trustworthy,Untrustworthy","","null","","","","feedback","","<div class='respPicDiv'><img src='img/responseButtonOffersNo0_wht.png' class='respPic'></div><div class='trialDiv'><img src='Fruit/Kiwi.png'><br><font class='baseline'><strong>Kiwi Kash</strong><p><strong><font class='posOutcome'>You WON</font><p>You bet: 3</strong></font> &nbsp; &nbsp; &nbsp; &nbsp; &nbsp; &nbsp;<font class='posOutcome'>you receive: <strong>6</strong></font></div>","null","13","Kiwi Kash","Fruit/Kiwi.png","Won","0.8,0.35","12","0.8","219","38","",""
"html-keyboard-response","124","367577","0.0-11.0-1.38","63f794e7d8d24753edbbb136","bdp_rwlrn","Mon Mar 13 2023 14:50:28 GMT-0400 (Eastern Daylight Time)","707574","Trustworthy,Untrustworthy","","3245","","","","decision","","<div class='trialDiv'><img src='Fruit/watermelon.png'><br><font class='baseline'><strong>Watermelon Win$</strong><p>Choose number of points to bet.</font><div class='respPicDiv'><img src='img/responseButtonOffersNo0L.png' class='respPic'></div></div>","5","13","Watermelon Win$","Fruit/watermelon.png","Won","0.65,0.35","13","0.65","224","39","",""
"html-keyboard-response","125","367834","0.0-11.0-2.38","63f794e7d8d24753edbbb136","bdp_rwlrn","Mon Mar 13 2023 14:50:28 GMT-0400 (Eastern Daylight Time)","707574","Trustworthy,Untrustworthy","","null","","","","decisionFB","","<div class='trialDiv'><img src='Fruit/watermelon.png'><br><font class='baseline'><strong>Watermelon Win$</strong><p>Choose number of points to bet.</font><div class='respPicDiv'><img src='img/responseButtonOffersNo0L5.png' class='respPic'></div></div>","null","13","Watermelon Win$","Fruit/watermelon.png","Won","0.65,0.35","13","0.65","219","39","",""
"html-keyboard-response","126","368841","0.0-11.0-3.38","63f794e7d8d24753edbbb136","bdp_rwlrn","Mon Mar 13 2023 14:50:28 GMT-0400 (Eastern Daylight Time)","707574","Trustworthy,Untrustworthy","","null","","","","feedback","","<div class='respPicDiv'><img src='img/responseButtonOffersNo0_wht.png' class='respPic'></div><div class='trialDiv'><img src='Fruit/watermelon.png'><br><font class='baseline'><strong>Watermelon Win$</strong><p><strong><font class='posOutcome'>You WON</font><p>You bet: 5</strong></font> &nbsp; &nbsp; &nbsp; &nbsp; &nbsp; &nbsp;<font class='posOutcome'>you receive: <strong>10</strong></font></div>","null","13","Watermelon Win$","Fruit/watermelon.png","Won","0.65,0.35","13","0.65","229","39","",""
"html-keyboard-response","127","371662","0.0-11.0-1.39","63f794e7d8d24753edbbb136","bdp_rwlrn","Mon Mar 13 2023 14:50:28 GMT-0400 (Eastern Daylight Time)","707574","Trustworthy,Untrustworthy","","2820","","","","decision","","<div class='trialDiv'><img src='Fruit/orange.png'><br><font class='baseline'><strong>Odds are Orange</strong><p>Choose number of points to bet.</font><div class='respPicDiv'><img src='img/responseButtonOffersNo0L.png' class='respPic'></div></div>","5","14","Odds are Orange","Fruit/orange.png","Won","0.2,0.65","9","0.2","234","40","",""
"html-keyboard-response","128","371924","0.0-11.0-2.39","63f794e7d8d24753edbbb136","bdp_rwlrn","Mon Mar 13 2023 14:50:28 GMT-0400 (Eastern Daylight Time)","707574","Trustworthy,Untrustworthy","","null","","","","decisionFB","","<div class='trialDiv'><img src='Fruit/orange.png'><br><font class='baseline'><strong>Odds are Orange</strong><p>Choose number of points to bet.</font><div class='respPicDiv'><img src='img/responseButtonOffersNo0L5.png' class='respPic'></div></div>","null","14","Odds are Orange","Fruit/orange.png","Won","0.2,0.65","9","0.2","229","40","",""
"html-keyboard-response","129","372929","0.0-11.0-3.39","63f794e7d8d24753edbbb136","bdp_rwlrn","Mon Mar 13 2023 14:50:28 GMT-0400 (Eastern Daylight Time)","707574","Trustworthy,Untrustworthy","","null","","","","feedback","","<div class='respPicDiv'><img src='img/responseButtonOffersNo0_wht.png' class='respPic'></div><div class='trialDiv'><img src='Fruit/orange.png'><br><font class='baseline'><strong>Odds are Orange</strong><p><strong><font class='posOutcome'>You WON</font><p>You bet: 5</strong></font> &nbsp; &nbsp; &nbsp; &nbsp; &nbsp; &nbsp;<font class='posOutcome'>you receive: <strong>10</strong></font></div>","null","14","Odds are Orange","Fruit/orange.png","Won","0.2,0.65","9","0.2","239","40","",""
"html-keyboard-response","130","374127","0.0-11.0-1.40","63f794e7d8d24753edbbb136","bdp_rwlrn","Mon Mar 13 2023 14:50:28 GMT-0400 (Eastern Daylight Time)","707574","Trustworthy,Untrustworthy","","1197","","","","decision","","<div class='trialDiv'><img src='Fruit/Kiwi.png'><br><font class='baseline'><strong>Kiwi Kash</strong><p>Choose number of points to bet.</font><div class='respPicDiv'><img src='img/responseButtonOffersNo0L.png' class='respPic'></div></div>","5","14","Kiwi Kash","Fruit/Kiwi.png","Won","0.8,0.35","12","0.8","244","41","",""
"html-keyboard-response","131","374380","0.0-11.0-2.40","63f794e7d8d24753edbbb136","bdp_rwlrn","Mon Mar 13 2023 14:50:28 GMT-0400 (Eastern Daylight Time)","707574","Trustworthy,Untrustworthy","","null","","","","decisionFB","","<div class='trialDiv'><img src='Fruit/Kiwi.png'><br><font class='baseline'><strong>Kiwi Kash</strong><p>Choose number of points to bet.</font><div class='respPicDiv'><img src='img/responseButtonOffersNo0L5.png' class='respPic'></div></div>","null","14","Kiwi Kash","Fruit/Kiwi.png","Won","0.8,0.35","12","0.8","239","41","",""
"html-keyboard-response","132","375384","0.0-11.0-3.40","63f794e7d8d24753edbbb136","bdp_rwlrn","Mon Mar 13 2023 14:50:28 GMT-0400 (Eastern Daylight Time)","707574","Trustworthy,Untrustworthy","","null","","","","feedback","","<div class='respPicDiv'><img src='img/responseButtonOffersNo0_wht.png' class='respPic'></div><div class='trialDiv'><img src='Fruit/Kiwi.png'><br><font class='baseline'><strong>Kiwi Kash</strong><p><strong><font class='posOutcome'>You WON</font><p>You bet: 5</strong></font> &nbsp; &nbsp; &nbsp; &nbsp; &nbsp; &nbsp;<font class='posOutcome'>you receive: <strong>10</strong></font></div>","null","14","Kiwi Kash","Fruit/Kiwi.png","Won","0.8,0.35","12","0.8","249","41","",""
"html-keyboard-response","133","376403","0.0-11.0-1.41","63f794e7d8d24753edbbb136","bdp_rwlrn","Mon Mar 13 2023 14:50:28 GMT-0400 (Eastern Daylight Time)","707574","Trustworthy,Untrustworthy","","1017","","","","decision","","<div class='trialDiv'><img src='Fruit/watermelon.png'><br><font class='baseline'><strong>Watermelon Win$</strong><p>Choose number of points to bet.</font><div class='respPicDiv'><img src='img/responseButtonOffersNo0L.png' class='respPic'></div></div>","5","14","Watermelon Win$","Fruit/watermelon.png","Lost","0.65,0.35","13","0.65","254","42","",""
"html-keyboard-response","134","376658","0.0-11.0-2.41","63f794e7d8d24753edbbb136","bdp_rwlrn","Mon Mar 13 2023 14:50:28 GMT-0400 (Eastern Daylight Time)","707574","Trustworthy,Untrustworthy","","null","","","","decisionFB","","<div class='trialDiv'><img src='Fruit/watermelon.png'><br><font class='baseline'><strong>Watermelon Win$</strong><p>Choose number of points to bet.</font><div class='respPicDiv'><img src='img/responseButtonOffersNo0L5.png' class='respPic'></div></div>","null","14","Watermelon Win$","Fruit/watermelon.png","Lost","0.65,0.35","13","0.65","249","42","",""
"html-keyboard-response","135","377665","0.0-11.0-3.41","63f794e7d8d24753edbbb136","bdp_rwlrn","Mon Mar 13 2023 14:50:28 GMT-0400 (Eastern Daylight Time)","707574","Trustworthy,Untrustworthy","","null","","","","feedback","","<div class='respPicDiv'><img src='img/responseButtonOffersNo0_wht.png' class='respPic'></div><div class='trialDiv'><img src='Fruit/watermelon.png'><br><font class='baseline'><strong>Watermelon Win$</strong><p><strong><font class='negOutcome'>You LOST</font><p>You bet: 5</strong></font> &nbsp; &nbsp; &nbsp; &nbsp; &nbsp; &nbsp;<font class='negOutcome'>You receive: <strong>0</strong></font></div>","null","14","Watermelon Win$","Fruit/watermelon.png","Lost","0.65,0.35","13","0.65","249","42","",""
"html-keyboard-response","136","379055","0.0-11.0-1.42","63f794e7d8d24753edbbb136","bdp_rwlrn","Mon Mar 13 2023 14:50:28 GMT-0400 (Eastern Daylight Time)","707574","Trustworthy,Untrustworthy","","1389","","","","decision","","<div class='trialDiv'><img src='Fruit/orange.png'><br><font class='baseline'><strong>Odds are Orange</strong><p>Choose number of points to bet.</font><div class='respPicDiv'><img src='img/responseButtonOffersNo0L.png' class='respPic'></div></div>","5","15","Odds are Orange","Fruit/orange.png","Won","0.2,0.65","9","0.2","254","43","",""
"html-keyboard-response","137","379314","0.0-11.0-2.42","63f794e7d8d24753edbbb136","bdp_rwlrn","Mon Mar 13 2023 14:50:28 GMT-0400 (Eastern Daylight Time)","707574","Trustworthy,Untrustworthy","","null","","","","decisionFB","","<div class='trialDiv'><img src='Fruit/orange.png'><br><font class='baseline'><strong>Odds are Orange</strong><p>Choose number of points to bet.</font><div class='respPicDiv'><img src='img/responseButtonOffersNo0L5.png' class='respPic'></div></div>","null","15","Odds are Orange","Fruit/orange.png","Won","0.2,0.65","9","0.2","249","43","",""
"html-keyboard-response","138","380324","0.0-11.0-3.42","63f794e7d8d24753edbbb136","bdp_rwlrn","Mon Mar 13 2023 14:50:28 GMT-0400 (Eastern Daylight Time)","707574","Trustworthy,Untrustworthy","","null","","","","feedback","","<div class='respPicDiv'><img src='img/responseButtonOffersNo0_wht.png' class='respPic'></div><div class='trialDiv'><img src='Fruit/orange.png'><br><font class='baseline'><strong>Odds are Orange</strong><p><strong><font class='posOutcome'>You WON</font><p>You bet: 5</strong></font> &nbsp; &nbsp; &nbsp; &nbsp; &nbsp; &nbsp;<font class='posOutcome'>you receive: <strong>10</strong></font></div>","null","15","Odds are Orange","Fruit/orange.png","Won","0.2,0.65","9","0.2","259","43","",""
"html-keyboard-response","139","381993","0.0-11.0-1.43","63f794e7d8d24753edbbb136","bdp_rwlrn","Mon Mar 13 2023 14:50:28 GMT-0400 (Eastern Daylight Time)","707574","Trustworthy,Untrustworthy","","1668","","","","decision","","<div class='trialDiv'><img src='Fruit/Kiwi.png'><br><font class='baseline'><strong>Kiwi Kash</strong><p>Choose number of points to bet.</font><div class='respPicDiv'><img src='img/responseButtonOffersNo0L.png' class='respPic'></div></div>","5","15","Kiwi Kash","Fruit/Kiwi.png","Lost","0.8,0.35","12","0.8","264","44","",""
"html-keyboard-response","140","382252","0.0-11.0-2.43","63f794e7d8d24753edbbb136","bdp_rwlrn","Mon Mar 13 2023 14:50:28 GMT-0400 (Eastern Daylight Time)","707574","Trustworthy,Untrustworthy","","null","","","","decisionFB","","<div class='trialDiv'><img src='Fruit/Kiwi.png'><br><font class='baseline'><strong>Kiwi Kash</strong><p>Choose number of points to bet.</font><div class='respPicDiv'><img src='img/responseButtonOffersNo0L5.png' class='respPic'></div></div>","null","15","Kiwi Kash","Fruit/Kiwi.png","Lost","0.8,0.35","12","0.8","259","44","",""
"html-keyboard-response","141","383258","0.0-11.0-3.43","63f794e7d8d24753edbbb136","bdp_rwlrn","Mon Mar 13 2023 14:50:28 GMT-0400 (Eastern Daylight Time)","707574","Trustworthy,Untrustworthy","","null","","","","feedback","","<div class='respPicDiv'><img src='img/responseButtonOffersNo0_wht.png' class='respPic'></div><div class='trialDiv'><img src='Fruit/Kiwi.png'><br><font class='baseline'><strong>Kiwi Kash</strong><p><strong><font class='negOutcome'>You LOST</font><p>You bet: 5</strong></font> &nbsp; &nbsp; &nbsp; &nbsp; &nbsp; &nbsp;<font class='negOutcome'>You receive: <strong>0</strong></font></div>","null","15","Kiwi Kash","Fruit/Kiwi.png","Lost","0.8,0.35","12","0.8","259","44","",""
"html-keyboard-response","142","385110","0.0-11.0-1.44","63f794e7d8d24753edbbb136","bdp_rwlrn","Mon Mar 13 2023 14:50:28 GMT-0400 (Eastern Daylight Time)","707574","Trustworthy,Untrustworthy","","1851","","","","decision","","<div class='trialDiv'><img src='Fruit/watermelon.png'><br><font class='baseline'><strong>Watermelon Win$</strong><p>Choose number of points to bet.</font><div class='respPicDiv'><img src='img/responseButtonOffersNo0L.png' class='respPic'></div></div>","5","15","Watermelon Win$","Fruit/watermelon.png","Lost","0.65,0.35","13","0.65","264","45","",""
"html-keyboard-response","143","385369","0.0-11.0-2.44","63f794e7d8d24753edbbb136","bdp_rwlrn","Mon Mar 13 2023 14:50:28 GMT-0400 (Eastern Daylight Time)","707574","Trustworthy,Untrustworthy","","null","","","","decisionFB","","<div class='trialDiv'><img src='Fruit/watermelon.png'><br><font class='baseline'><strong>Watermelon Win$</strong><p>Choose number of points to bet.</font><div class='respPicDiv'><img src='img/responseButtonOffersNo0L5.png' class='respPic'></div></div>","null","15","Watermelon Win$","Fruit/watermelon.png","Lost","0.65,0.35","13","0.65","259","45","",""
"html-keyboard-response","144","386379","0.0-11.0-3.44","63f794e7d8d24753edbbb136","bdp_rwlrn","Mon Mar 13 2023 14:50:28 GMT-0400 (Eastern Daylight Time)","707574","Trustworthy,Untrustworthy","","null","","","","feedback","","<div class='respPicDiv'><img src='img/responseButtonOffersNo0_wht.png' class='respPic'></div><div class='trialDiv'><img src='Fruit/watermelon.png'><br><font class='baseline'><strong>Watermelon Win$</strong><p><strong><font class='negOutcome'>You LOST</font><p>You bet: 5</strong></font> &nbsp; &nbsp; &nbsp; &nbsp; &nbsp; &nbsp;<font class='negOutcome'>You receive: <strong>0</strong></font></div>","null","15","Watermelon Win$","Fruit/watermelon.png","Lost","0.65,0.35","13","0.65","259","45","",""
"html-keyboard-response","145","387359","0.0-11.0-1.45","63f794e7d8d24753edbbb136","bdp_rwlrn","Mon Mar 13 2023 14:50:28 GMT-0400 (Eastern Daylight Time)","707574","Trustworthy,Untrustworthy","","979","","","","decision","","<div class='trialDiv'><img src='Fruit/orange.png'><br><font class='baseline'><strong>Odds are Orange</strong><p>Choose number of points to bet.</font><div class='respPicDiv'><img src='img/responseButtonOffersNo0L.png' class='respPic'></div></div>","5","16","Odds are Orange","Fruit/orange.png","Lost","0.2,0.65","9","0.2","264","46","",""
"html-keyboard-response","146","387621","0.0-11.0-2.45","63f794e7d8d24753edbbb136","bdp_rwlrn","Mon Mar 13 2023 14:50:28 GMT-0400 (Eastern Daylight Time)","707574","Trustworthy,Untrustworthy","","null","","","","decisionFB","","<div class='trialDiv'><img src='Fruit/orange.png'><br><font class='baseline'><strong>Odds are Orange</strong><p>Choose number of points to bet.</font><div class='respPicDiv'><img src='img/responseButtonOffersNo0L5.png' class='respPic'></div></div>","null","16","Odds are Orange","Fruit/orange.png","Lost","0.2,0.65","9","0.2","259","46","",""
"html-keyboard-response","147","388628","0.0-11.0-3.45","63f794e7d8d24753edbbb136","bdp_rwlrn","Mon Mar 13 2023 14:50:28 GMT-0400 (Eastern Daylight Time)","707574","Trustworthy,Untrustworthy","","null","","","","feedback","","<div class='respPicDiv'><img src='img/responseButtonOffersNo0_wht.png' class='respPic'></div><div class='trialDiv'><img src='Fruit/orange.png'><br><font class='baseline'><strong>Odds are Orange</strong><p><strong><font class='negOutcome'>You LOST</font><p>You bet: 5</strong></font> &nbsp; &nbsp; &nbsp; &nbsp; &nbsp; &nbsp;<font class='negOutcome'>You receive: <strong>0</strong></font></div>","null","16","Odds are Orange","Fruit/orange.png","Lost","0.2,0.65","9","0.2","259","46","",""
"html-keyboard-response","148","391472","0.0-11.0-1.46","63f794e7d8d24753edbbb136","bdp_rwlrn","Mon Mar 13 2023 14:50:28 GMT-0400 (Eastern Daylight Time)","707574","Trustworthy,Untrustworthy","","2843","","","","decision","","<div class='trialDiv'><img src='Fruit/watermelon.png'><br><font class='baseline'><strong>Watermelon Win$</strong><p>Choose number of points to bet.</font><div class='respPicDiv'><img src='img/responseButtonOffersNo0L.png' class='respPic'></div></div>","5","16","Watermelon Win$","Fruit/watermelon.png","Lost","0.65,0.35","13","0.65","264","47","",""
"html-keyboard-response","149","391731","0.0-11.0-2.46","63f794e7d8d24753edbbb136","bdp_rwlrn","Mon Mar 13 2023 14:50:28 GMT-0400 (Eastern Daylight Time)","707574","Trustworthy,Untrustworthy","","null","","","","decisionFB","","<div class='trialDiv'><img src='Fruit/watermelon.png'><br><font class='baseline'><strong>Watermelon Win$</strong><p>Choose number of points to bet.</font><div class='respPicDiv'><img src='img/responseButtonOffersNo0L5.png' class='respPic'></div></div>","null","16","Watermelon Win$","Fruit/watermelon.png","Lost","0.65,0.35","13","0.65","259","47","",""
"html-keyboard-response","150","392741","0.0-11.0-3.46","63f794e7d8d24753edbbb136","bdp_rwlrn","Mon Mar 13 2023 14:50:28 GMT-0400 (Eastern Daylight Time)","707574","Trustworthy,Untrustworthy","","null","","","","feedback","","<div class='respPicDiv'><img src='img/responseButtonOffersNo0_wht.png' class='respPic'></div><div class='trialDiv'><img src='Fruit/watermelon.png'><br><font class='baseline'><strong>Watermelon Win$</strong><p><strong><font class='negOutcome'>You LOST</font><p>You bet: 5</strong></font> &nbsp; &nbsp; &nbsp; &nbsp; &nbsp; &nbsp;<font class='negOutcome'>You receive: <strong>0</strong></font></div>","null","16","Watermelon Win$","Fruit/watermelon.png","Lost","0.65,0.35","13","0.65","259","47","",""
"html-keyboard-response","151","393935","0.0-11.0-1.47","63f794e7d8d24753edbbb136","bdp_rwlrn","Mon Mar 13 2023 14:50:28 GMT-0400 (Eastern Daylight Time)","707574","Trustworthy,Untrustworthy","","1193","","","","decision","","<div class='trialDiv'><img src='Fruit/Kiwi.png'><br><font class='baseline'><strong>Kiwi Kash</strong><p>Choose number of points to bet.</font><div class='respPicDiv'><img src='img/responseButtonOffersNo0L.png' class='respPic'></div></div>","5","16","Kiwi Kash","Fruit/Kiwi.png","Lost","0.8,0.35","12","0.8","264","48","",""
"html-keyboard-response","152","394193","0.0-11.0-2.47","63f794e7d8d24753edbbb136","bdp_rwlrn","Mon Mar 13 2023 14:50:28 GMT-0400 (Eastern Daylight Time)","707574","Trustworthy,Untrustworthy","","null","","","","decisionFB","","<div class='trialDiv'><img src='Fruit/Kiwi.png'><br><font class='baseline'><strong>Kiwi Kash</strong><p>Choose number of points to bet.</font><div class='respPicDiv'><img src='img/responseButtonOffersNo0L5.png' class='respPic'></div></div>","null","16","Kiwi Kash","Fruit/Kiwi.png","Lost","0.8,0.35","12","0.8","259","48","",""
"html-keyboard-response","153","395203","0.0-11.0-3.47","63f794e7d8d24753edbbb136","bdp_rwlrn","Mon Mar 13 2023 14:50:28 GMT-0400 (Eastern Daylight Time)","707574","Trustworthy,Untrustworthy","","null","","","","feedback","","<div class='respPicDiv'><img src='img/responseButtonOffersNo0_wht.png' class='respPic'></div><div class='trialDiv'><img src='Fruit/Kiwi.png'><br><font class='baseline'><strong>Kiwi Kash</strong><p><strong><font class='negOutcome'>You LOST</font><p>You bet: 5</strong></font> &nbsp; &nbsp; &nbsp; &nbsp; &nbsp; &nbsp;<font class='negOutcome'>You receive: <strong>0</strong></font></div>","null","16","Kiwi Kash","Fruit/Kiwi.png","Lost","0.8,0.35","12","0.8","259","48","",""
"html-keyboard-response","154","399623","0.0-11.0-1.48","63f794e7d8d24753edbbb136","bdp_rwlrn","Mon Mar 13 2023 14:50:28 GMT-0400 (Eastern Daylight Time)","707574","Trustworthy,Untrustworthy","","4418","","","","decision","","<div class='trialDiv'><img src='Fruit/watermelon.png'><br><font class='baseline'><strong>Watermelon Win$</strong><p>Choose number of points to bet.</font><div class='respPicDiv'><img src='img/responseButtonOffersNo0L.png' class='respPic'></div></div>","2","17","Watermelon Win$","Fruit/watermelon.png","Lost","0.65,0.35","13","0.65","264","49","",""
"html-keyboard-response","155","399882","0.0-11.0-2.48","63f794e7d8d24753edbbb136","bdp_rwlrn","Mon Mar 13 2023 14:50:28 GMT-0400 (Eastern Daylight Time)","707574","Trustworthy,Untrustworthy","","null","","","","decisionFB","","<div class='trialDiv'><img src='Fruit/watermelon.png'><br><font class='baseline'><strong>Watermelon Win$</strong><p>Choose number of points to bet.</font><div class='respPicDiv'><img src='img/responseButtonOffersNo0L2.png' class='respPic'></div></div>","null","17","Watermelon Win$","Fruit/watermelon.png","Lost","0.65,0.35","13","0.65","262","49","",""
"html-keyboard-response","156","400892","0.0-11.0-3.48","63f794e7d8d24753edbbb136","bdp_rwlrn","Mon Mar 13 2023 14:50:28 GMT-0400 (Eastern Daylight Time)","707574","Trustworthy,Untrustworthy","","null","","","","feedback","","<div class='respPicDiv'><img src='img/responseButtonOffersNo0_wht.png' class='respPic'></div><div class='trialDiv'><img src='Fruit/watermelon.png'><br><font class='baseline'><strong>Watermelon Win$</strong><p><strong><font class='negOutcome'>You LOST</font><p>You bet: 2</strong></font> &nbsp; &nbsp; &nbsp; &nbsp; &nbsp; &nbsp;<font class='negOutcome'>You receive: <strong>0</strong></font></div>","null","17","Watermelon Win$","Fruit/watermelon.png","Lost","0.65,0.35","13","0.65","262","49","",""
"html-keyboard-response","157","403397","0.0-11.0-1.49","63f794e7d8d24753edbbb136","bdp_rwlrn","Mon Mar 13 2023 14:50:28 GMT-0400 (Eastern Daylight Time)","707574","Trustworthy,Untrustworthy","","2504","","","","decision","","<div class='trialDiv'><img src='Fruit/Kiwi.png'><br><font class='baseline'><strong>Kiwi Kash</strong><p>Choose number of points to bet.</font><div class='respPicDiv'><img src='img/responseButtonOffersNo0L.png' class='respPic'></div></div>","1","17","Kiwi Kash","Fruit/Kiwi.png","Lost","0.8,0.35","12","0.8","267","50","",""
"html-keyboard-response","158","403649","0.0-11.0-2.49","63f794e7d8d24753edbbb136","bdp_rwlrn","Mon Mar 13 2023 14:50:28 GMT-0400 (Eastern Daylight Time)","707574","Trustworthy,Untrustworthy","","null","","","","decisionFB","","<div class='trialDiv'><img src='Fruit/Kiwi.png'><br><font class='baseline'><strong>Kiwi Kash</strong><p>Choose number of points to bet.</font><div class='respPicDiv'><img src='img/responseButtonOffersNo0L1.png' class='respPic'></div></div>","null","17","Kiwi Kash","Fruit/Kiwi.png","Lost","0.8,0.35","12","0.8","266","50","",""
"html-keyboard-response","159","404659","0.0-11.0-3.49","63f794e7d8d24753edbbb136","bdp_rwlrn","Mon Mar 13 2023 14:50:28 GMT-0400 (Eastern Daylight Time)","707574","Trustworthy,Untrustworthy","","null","","","","feedback","","<div class='respPicDiv'><img src='img/responseButtonOffersNo0_wht.png' class='respPic'></div><div class='trialDiv'><img src='Fruit/Kiwi.png'><br><font class='baseline'><strong>Kiwi Kash</strong><p><strong><font class='negOutcome'>You LOST</font><p>You bet: 1</strong></font> &nbsp; &nbsp; &nbsp; &nbsp; &nbsp; &nbsp;<font class='negOutcome'>You receive: <strong>0</strong></font></div>","null","17","Kiwi Kash","Fruit/Kiwi.png","Lost","0.8,0.35","12","0.8","266","50","",""
"html-keyboard-response","160","407831","0.0-11.0-1.50","63f794e7d8d24753edbbb136","bdp_rwlrn","Mon Mar 13 2023 14:50:28 GMT-0400 (Eastern Daylight Time)","707574","Trustworthy,Untrustworthy","","3171","","","","decision","","<div class='trialDiv'><img src='Fruit/orange.png'><br><font class='baseline'><strong>Odds are Orange</strong><p>Choose number of points to bet.</font><div class='respPicDiv'><img src='img/responseButtonOffersNo0L.png' class='respPic'></div></div>","5","17","Odds are Orange","Fruit/orange.png","Won","0.2,0.65","9","0.2","271","51","",""
"html-keyboard-response","161","408090","0.0-11.0-2.50","63f794e7d8d24753edbbb136","bdp_rwlrn","Mon Mar 13 2023 14:50:28 GMT-0400 (Eastern Daylight Time)","707574","Trustworthy,Untrustworthy","","null","","","","decisionFB","","<div class='trialDiv'><img src='Fruit/orange.png'><br><font class='baseline'><strong>Odds are Orange</strong><p>Choose number of points to bet.</font><div class='respPicDiv'><img src='img/responseButtonOffersNo0L5.png' class='respPic'></div></div>","null","17","Odds are Orange","Fruit/orange.png","Won","0.2,0.65","9","0.2","266","51","",""
"html-keyboard-response","162","409100","0.0-11.0-3.50","63f794e7d8d24753edbbb136","bdp_rwlrn","Mon Mar 13 2023 14:50:28 GMT-0400 (Eastern Daylight Time)","707574","Trustworthy,Untrustworthy","","null","","","","feedback","","<div class='respPicDiv'><img src='img/responseButtonOffersNo0_wht.png' class='respPic'></div><div class='trialDiv'><img src='Fruit/orange.png'><br><font class='baseline'><strong>Odds are Orange</strong><p><strong><font class='posOutcome'>You WON</font><p>You bet: 5</strong></font> &nbsp; &nbsp; &nbsp; &nbsp; &nbsp; &nbsp;<font class='posOutcome'>you receive: <strong>10</strong></font></div>","null","17","Odds are Orange","Fruit/orange.png","Won","0.2,0.65","9","0.2","276","51","",""
