"trial_type","trial_index","time_elapsed","internal_node_id","subject_id","task","startTime","totalTime","labels","view_history","rt","event","trial","time","trialtype","success","stimulus","key_press","ltround","name","fileID","outcome","lottotype","lottoswpt","lottocurrpshare","point_total","round","faceID","face"
"pavlovia","0","2","0.0-0.0","610c736500a4b33398fef94f","bdp_rwlrn","Sat Apr 08 2023 11:39:04 GMT-0400 (Eastern Daylight Time)","417421","Trustworthy,Untrustworthy","","","","","","","","","","","","","","","","","","","",""
"instructions","1","3338","0.0-1.0","610c736500a4b33398fef94f","bdp_rwlrn","Sat Apr 08 2023 11:39:04 GMT-0400 (Eastern Daylight Time)","417421","Trustworthy,Untrustworthy","[{""page_index"":0,""viewing_time"":3336}]","3336","","","","","","","","","","","","","","","","","",""
"","","","","610c736500a4b33398fef94f","bdp_rwlrn","Sat Apr 08 2023 11:39:04 GMT-0400 (Eastern Daylight Time)","417421","Trustworthy,Untrustworthy","","","fullscreenenter","2","5371","fullscreenenter","","","","","","","","","","","","","",""
"fullscreen","2","6365","0.0-2.0","610c736500a4b33398fef94f","bdp_rwlrn","Sat Apr 08 2023 11:39:04 GMT-0400 (Eastern Daylight Time)","417421","Trustworthy,Untrustworthy","","","","","","","true","","","","","","","","","","","","",""
"instructions","3","53557","0.0-4.0","610c736500a4b33398fef94f","bdp_rwlrn","Sat Apr 08 2023 11:39:04 GMT-0400 (Eastern Daylight Time)","417421","Trustworthy,Untrustworthy","[{""page_index"":0,""viewing_time"":5889},{""page_index"":1,""viewing_time"":8061},{""page_index"":2,""viewing_time"":10226},{""page_index"":3,""viewing_time"":3324},{""page_index"":4,""viewing_time"":14202},{""page_index"":5,""viewing_time"":5488}]","47190","","","","","","","","","","","","","","","","","",""
"html-keyboard-response","4","55733","0.0-5.0","610c736500a4b33398fef94f","bdp_rwlrn","Sat Apr 08 2023 11:39:04 GMT-0400 (Eastern Daylight Time)","417421","Trustworthy,Untrustworthy","","2175","","","","","","<div class='header' style='text-align:left; position: absolute; top: 5%; left: 5%;'><small>Task 1 of 5</small></div><div class='instruxDiv'><p><strong>1) What is the maximum number of points you can choose to bet on a lottery?</strong></p><p>a) 0</p><p>b) 1</p><p>c) 5</p>","C","","","","","","","","","","",""
"html-keyboard-response","5","57569","0.0-6.0","610c736500a4b33398fef94f","bdp_rwlrn","Sat Apr 08 2023 11:39:04 GMT-0400 (Eastern Daylight Time)","417421","Trustworthy,Untrustworthy","","1722","","","","","","<div class='header' style='text-align:left; position: absolute; top: 5%; left: 5%;'><small>Task 1 of 5</small></div><div class='instruxDiv'><p><strong>1) What is the maximum number of points you can choose to bet on a lottery?</strong></p><p>a) 1</p><p>b) 1</p><p style='color:#00FF00'>c) 5</p><h3 style='color:#00FF00'>Correct!</h3><h3 class='center-content'>The correct response is c).</h3><h3 class='center-content'>The maximum number of points you can choose to bet on a lottery is 5 points.</h3><p><em>Press SPACEBAR to continue</em></p></div>"," ","","","","","","","","","","",""
"html-keyboard-response","6","62300","0.0-7.0","610c736500a4b33398fef94f","bdp_rwlrn","Sat Apr 08 2023 11:39:04 GMT-0400 (Eastern Daylight Time)","417421","Trustworthy,Untrustworthy","","4624","","","","","","<div class='header' style='text-align:left; position: absolute; top: 5%; left: 5%;'><small>Task 1 of 5</small></div><div class='instruxDiv'><p><strong>2) How many points can you win each round?</strong></p><p>a) 10 points</p><p>b) Double what you bet</p><p>c) Quadruple what you bet</p>","B","","","","","","","","","","",""
"html-keyboard-response","7","63699","0.0-8.0","610c736500a4b33398fef94f","bdp_rwlrn","Sat Apr 08 2023 11:39:04 GMT-0400 (Eastern Daylight Time)","417421","Trustworthy,Untrustworthy","","1291","","","","","","<div class='header' style='text-align:left; position: absolute; top: 5%; left: 5%;'><small>Task 1 of 5</small></div><div class='instruxDiv'><p><strong>2) How many points can you win each round?</strong></p><p>a) 10 points</p><p style='color:#00FF00'>b) Double what you bet</p><p>c) Quadruple what you bet</p><h3 style='color:#00FF00'>Correct!</h3><h3 class='center-content'>The correct response is b).</h3><h3 class='center-content'>You can win double the amount of points you bet.</h3><p><em>Press SPACEBAR to continue</em></p></div>"," ","","","","","","","","","","",""
"html-keyboard-response","8","68813","0.0-9.0","610c736500a4b33398fef94f","bdp_rwlrn","Sat Apr 08 2023 11:39:04 GMT-0400 (Eastern Daylight Time)","417421","Trustworthy,Untrustworthy","","null","","","","","","<div class='header' style='text-align:left; position: absolute; top: 5%; left: 5%;'><small>Task 1 of 5</small></div><div class='instruxDiv'><p>Thank you for completing the quiz<p>These are the actual lotteries you will be playing in the next block:<p><div class='tc' align='center'><img class='introPic' src='Fruit/lime.png'><br><strong>Limin' Large</strong></div><div class='bl' align='center'><img class='introPic' src='Fruit/mango.png'><br><strong>Mega Mangos</strong></div><div class='br' align='center'><img class='introPic' src='Fruit/orange.png'><br><strong>Odds are Orange</strong></div></div><p>Across <strong>66 rounds</strong> you will play each lottery <strong>22 times</strong> (in random order).<p style='align:center; color:white'><font <em>Press SPACEBAR to continue</em></p>","null","","","","","","","","","","",""
"instructions","9","76418","0.0-10.0","610c736500a4b33398fef94f","bdp_rwlrn","Sat Apr 08 2023 11:39:04 GMT-0400 (Eastern Daylight Time)","417421","Trustworthy,Untrustworthy","[{""page_index"":0,""viewing_time"":4351},{""page_index"":1,""viewing_time"":3253}]","7604","","","","","","","","","","","","","","","","","",""
"html-keyboard-response","10","79792","0.0-11.0-1.0","610c736500a4b33398fef94f","bdp_rwlrn","Sat Apr 08 2023 11:39:04 GMT-0400 (Eastern Daylight Time)","417421","Trustworthy,Untrustworthy","","3266","","","","decision","","<div class='trialDiv'><img src='Fruit/lime.png'><br><font class='baseline'><strong>Limin' Large</strong><p>Choose number of points to bet.</font><div class='respPicDiv'><img src='img/responseButtonOffersNo0L.png' class='respPic'></div></div>","5","1","Limin' Large","Fruit/lime.png","Lost","0.2,0.8","13","0.2","5","1","",""
"html-keyboard-response","11","80050","0.0-11.0-2.0","610c736500a4b33398fef94f","bdp_rwlrn","Sat Apr 08 2023 11:39:04 GMT-0400 (Eastern Daylight Time)","417421","Trustworthy,Untrustworthy","","null","","","","decisionFB","","<div class='trialDiv'><img src='Fruit/lime.png'><br><font class='baseline'><strong>Limin' Large</strong><p>Choose number of points to bet.</font><div class='respPicDiv'><img src='img/responseButtonOffersNo0L5.png' class='respPic'></div></div>","null","1","Limin' Large","Fruit/lime.png","Lost","0.2,0.8","13","0.2","0","1","",""
"html-keyboard-response","12","81063","0.0-11.0-3.0","610c736500a4b33398fef94f","bdp_rwlrn","Sat Apr 08 2023 11:39:04 GMT-0400 (Eastern Daylight Time)","417421","Trustworthy,Untrustworthy","","null","","","","feedback","","<div class='respPicDiv'><img src='img/responseButtonOffersNo0_wht.png' class='respPic'></div><div class='trialDiv'><img src='Fruit/lime.png'><br><font class='baseline'><strong>Limin' Large</strong><p><strong><font class='negOutcome'>You LOST</font><p>You bet: 5</strong></font> &nbsp; &nbsp; &nbsp; &nbsp; &nbsp; &nbsp;<font class='negOutcome'>You receive: <strong>0</strong></font></div>","null","1","Limin' Large","Fruit/lime.png","Lost","0.2,0.8","13","0.2","0","1","",""
"html-keyboard-response","13","83335","0.0-11.0-1.1","610c736500a4b33398fef94f","bdp_rwlrn","Sat Apr 08 2023 11:39:04 GMT-0400 (Eastern Daylight Time)","417421","Trustworthy,Untrustworthy","","2270","","","","decision","","<div class='trialDiv'><img src='Fruit/orange.png'><br><font class='baseline'><strong>Odds are Orange</strong><p>Choose number of points to bet.</font><div class='respPicDiv'><img src='img/responseButtonOffersNo0L.png' class='respPic'></div></div>","3","1","Odds are Orange","Fruit/orange.png","Won","0.35,0.8","9","0.35","5","2","",""
"html-keyboard-response","14","83592","0.0-11.0-2.1","610c736500a4b33398fef94f","bdp_rwlrn","Sat Apr 08 2023 11:39:04 GMT-0400 (Eastern Daylight Time)","417421","Trustworthy,Untrustworthy","","null","","","","decisionFB","","<div class='trialDiv'><img src='Fruit/orange.png'><br><font class='baseline'><strong>Odds are Orange</strong><p>Choose number of points to bet.</font><div class='respPicDiv'><img src='img/responseButtonOffersNo0L3.png' class='respPic'></div></div>","null","1","Odds are Orange","Fruit/orange.png","Won","0.35,0.8","9","0.35","2","2","",""
"html-keyboard-response","15","84608","0.0-11.0-3.1","610c736500a4b33398fef94f","bdp_rwlrn","Sat Apr 08 2023 11:39:04 GMT-0400 (Eastern Daylight Time)","417421","Trustworthy,Untrustworthy","","null","","","","feedback","","<div class='respPicDiv'><img src='img/responseButtonOffersNo0_wht.png' class='respPic'></div><div class='trialDiv'><img src='Fruit/orange.png'><br><font class='baseline'><strong>Odds are Orange</strong><p><strong><font class='posOutcome'>You WON</font><p>You bet: 3</strong></font> &nbsp; &nbsp; &nbsp; &nbsp; &nbsp; &nbsp;<font class='posOutcome'>you receive: <strong>6</strong></font></div>","null","1","Odds are Orange","Fruit/orange.png","Won","0.35,0.8","9","0.35","8","2","",""
"html-keyboard-response","16","86351","0.0-11.0-1.2","610c736500a4b33398fef94f","bdp_rwlrn","Sat Apr 08 2023 11:39:04 GMT-0400 (Eastern Daylight Time)","417421","Trustworthy,Untrustworthy","","1742","","","","decision","","<div class='trialDiv'><img src='Fruit/mango.png'><br><font class='baseline'><strong>Mega Mangos</strong><p>Choose number of points to bet.</font><div class='respPicDiv'><img src='img/responseButtonOffersNo0L.png' class='respPic'></div></div>","3","1","Mega Mangos","Fruit/mango.png","Won","0.65,0.2","9","0.65","13","3","",""
"html-keyboard-response","17","86608","0.0-11.0-2.2","610c736500a4b33398fef94f","bdp_rwlrn","Sat Apr 08 2023 11:39:04 GMT-0400 (Eastern Daylight Time)","417421","Trustworthy,Untrustworthy","","null","","","","decisionFB","","<div class='trialDiv'><img src='Fruit/mango.png'><br><font class='baseline'><strong>Mega Mangos</strong><p>Choose number of points to bet.</font><div class='respPicDiv'><img src='img/responseButtonOffersNo0L3.png' class='respPic'></div></div>","null","1","Mega Mangos","Fruit/mango.png","Won","0.65,0.2","9","0.65","10","3","",""
"html-keyboard-response","18","87611","0.0-11.0-3.2","610c736500a4b33398fef94f","bdp_rwlrn","Sat Apr 08 2023 11:39:04 GMT-0400 (Eastern Daylight Time)","417421","Trustworthy,Untrustworthy","","null","","","","feedback","","<div class='respPicDiv'><img src='img/responseButtonOffersNo0_wht.png' class='respPic'></div><div class='trialDiv'><img src='Fruit/mango.png'><br><font class='baseline'><strong>Mega Mangos</strong><p><strong><font class='posOutcome'>You WON</font><p>You bet: 3</strong></font> &nbsp; &nbsp; &nbsp; &nbsp; &nbsp; &nbsp;<font class='posOutcome'>you receive: <strong>6</strong></font></div>","null","1","Mega Mangos","Fruit/mango.png","Won","0.65,0.2","9","0.65","16","3","",""
"html-keyboard-response","19","88595","0.0-11.0-1.3","610c736500a4b33398fef94f","bdp_rwlrn","Sat Apr 08 2023 11:39:04 GMT-0400 (Eastern Daylight Time)","417421","Trustworthy,Untrustworthy","","983","","","","decision","","<div class='trialDiv'><img src='Fruit/orange.png'><br><font class='baseline'><strong>Odds are Orange</strong><p>Choose number of points to bet.</font><div class='respPicDiv'><img src='img/responseButtonOffersNo0L.png' class='respPic'></div></div>","3","2","Odds are Orange","Fruit/orange.png","Lost","0.35,0.8","9","0.35","21","4","",""
"html-keyboard-response","20","88857","0.0-11.0-2.3","610c736500a4b33398fef94f","bdp_rwlrn","Sat Apr 08 2023 11:39:04 GMT-0400 (Eastern Daylight Time)","417421","Trustworthy,Untrustworthy","","null","","","","decisionFB","","<div class='trialDiv'><img src='Fruit/orange.png'><br><font class='baseline'><strong>Odds are Orange</strong><p>Choose number of points to bet.</font><div class='respPicDiv'><img src='img/responseButtonOffersNo0L3.png' class='respPic'></div></div>","null","2","Odds are Orange","Fruit/orange.png","Lost","0.35,0.8","9","0.35","18","4","",""
"html-keyboard-response","21","89859","0.0-11.0-3.3","610c736500a4b33398fef94f","bdp_rwlrn","Sat Apr 08 2023 11:39:04 GMT-0400 (Eastern Daylight Time)","417421","Trustworthy,Untrustworthy","","null","","","","feedback","","<div class='respPicDiv'><img src='img/responseButtonOffersNo0_wht.png' class='respPic'></div><div class='trialDiv'><img src='Fruit/orange.png'><br><font class='baseline'><strong>Odds are Orange</strong><p><strong><font class='negOutcome'>You LOST</font><p>You bet: 3</strong></font> &nbsp; &nbsp; &nbsp; &nbsp; &nbsp; &nbsp;<font class='negOutcome'>You receive: <strong>0</strong></font></div>","null","2","Odds are Orange","Fruit/orange.png","Lost","0.35,0.8","9","0.35","18","4","",""
"html-keyboard-response","22","91178","0.0-11.0-1.4","610c736500a4b33398fef94f","bdp_rwlrn","Sat Apr 08 2023 11:39:04 GMT-0400 (Eastern Daylight Time)","417421","Trustworthy,Untrustworthy","","1318","","","","decision","","<div class='trialDiv'><img src='Fruit/mango.png'><br><font class='baseline'><strong>Mega Mangos</strong><p>Choose number of points to bet.</font><div class='respPicDiv'><img src='img/responseButtonOffersNo0L.png' class='respPic'></div></div>","2","2","Mega Mangos","Fruit/mango.png","Won","0.65,0.2","9","0.65","23","5","",""
"html-keyboard-response","23","91439","0.0-11.0-2.4","610c736500a4b33398fef94f","bdp_rwlrn","Sat Apr 08 2023 11:39:04 GMT-0400 (Eastern Daylight Time)","417421","Trustworthy,Untrustworthy","","null","","","","decisionFB","","<div class='trialDiv'><img src='Fruit/mango.png'><br><font class='baseline'><strong>Mega Mangos</strong><p>Choose number of points to bet.</font><div class='respPicDiv'><img src='img/responseButtonOffersNo0L2.png' class='respPic'></div></div>","null","2","Mega Mangos","Fruit/mango.png","Won","0.65,0.2","9","0.65","21","5","",""
"html-keyboard-response","24","92441","0.0-11.0-3.4","610c736500a4b33398fef94f","bdp_rwlrn","Sat Apr 08 2023 11:39:04 GMT-0400 (Eastern Daylight Time)","417421","Trustworthy,Untrustworthy","","null","","","","feedback","","<div class='respPicDiv'><img src='img/responseButtonOffersNo0_wht.png' class='respPic'></div><div class='trialDiv'><img src='Fruit/mango.png'><br><font class='baseline'><strong>Mega Mangos</strong><p><strong><font class='posOutcome'>You WON</font><p>You bet: 2</strong></font> &nbsp; &nbsp; &nbsp; &nbsp; &nbsp; &nbsp;<font class='posOutcome'>you receive: <strong>4</strong></font></div>","null","2","Mega Mangos","Fruit/mango.png","Won","0.65,0.2","9","0.65","25","5","",""
"html-keyboard-response","25","93785","0.0-11.0-1.5","610c736500a4b33398fef94f","bdp_rwlrn","Sat Apr 08 2023 11:39:04 GMT-0400 (Eastern Daylight Time)","417421","Trustworthy,Untrustworthy","","1343","","","","decision","","<div class='trialDiv'><img src='Fruit/lime.png'><br><font class='baseline'><strong>Limin' Large</strong><p>Choose number of points to bet.</font><div class='respPicDiv'><img src='img/responseButtonOffersNo0L.png' class='respPic'></div></div>","1","2","Limin' Large","Fruit/lime.png","Lost","0.2,0.8","13","0.2","30","6","",""
"html-keyboard-response","26","94038","0.0-11.0-2.5","610c736500a4b33398fef94f","bdp_rwlrn","Sat Apr 08 2023 11:39:04 GMT-0400 (Eastern Daylight Time)","417421","Trustworthy,Untrustworthy","","null","","","","decisionFB","","<div class='trialDiv'><img src='Fruit/lime.png'><br><font class='baseline'><strong>Limin' Large</strong><p>Choose number of points to bet.</font><div class='respPicDiv'><img src='img/responseButtonOffersNo0L1.png' class='respPic'></div></div>","null","2","Limin' Large","Fruit/lime.png","Lost","0.2,0.8","13","0.2","29","6","",""
"html-keyboard-response","27","95042","0.0-11.0-3.5","610c736500a4b33398fef94f","bdp_rwlrn","Sat Apr 08 2023 11:39:04 GMT-0400 (Eastern Daylight Time)","417421","Trustworthy,Untrustworthy","","null","","","","feedback","","<div class='respPicDiv'><img src='img/responseButtonOffersNo0_wht.png' class='respPic'></div><div class='trialDiv'><img src='Fruit/lime.png'><br><font class='baseline'><strong>Limin' Large</strong><p><strong><font class='negOutcome'>You LOST</font><p>You bet: 1</strong></font> &nbsp; &nbsp; &nbsp; &nbsp; &nbsp; &nbsp;<font class='negOutcome'>You receive: <strong>0</strong></font></div>","null","2","Limin' Large","Fruit/lime.png","Lost","0.2,0.8","13","0.2","29","6","",""
"html-keyboard-response","28","96700","0.0-11.0-1.6","610c736500a4b33398fef94f","bdp_rwlrn","Sat Apr 08 2023 11:39:04 GMT-0400 (Eastern Daylight Time)","417421","Trustworthy,Untrustworthy","","1658","","","","decision","","<div class='trialDiv'><img src='Fruit/orange.png'><br><font class='baseline'><strong>Odds are Orange</strong><p>Choose number of points to bet.</font><div class='respPicDiv'><img src='img/responseButtonOffersNo0L.png' class='respPic'></div></div>","4","3","Odds are Orange","Fruit/orange.png","Lost","0.35,0.8","9","0.35","34","7","",""
"html-keyboard-response","29","96953","0.0-11.0-2.6","610c736500a4b33398fef94f","bdp_rwlrn","Sat Apr 08 2023 11:39:04 GMT-0400 (Eastern Daylight Time)","417421","Trustworthy,Untrustworthy","","null","","","","decisionFB","","<div class='trialDiv'><img src='Fruit/orange.png'><br><font class='baseline'><strong>Odds are Orange</strong><p>Choose number of points to bet.</font><div class='respPicDiv'><img src='img/responseButtonOffersNo0L4.png' class='respPic'></div></div>","null","3","Odds are Orange","Fruit/orange.png","Lost","0.35,0.8","9","0.35","30","7","",""
"html-keyboard-response","30","97958","0.0-11.0-3.6","610c736500a4b33398fef94f","bdp_rwlrn","Sat Apr 08 2023 11:39:04 GMT-0400 (Eastern Daylight Time)","417421","Trustworthy,Untrustworthy","","null","","","","feedback","","<div class='respPicDiv'><img src='img/responseButtonOffersNo0_wht.png' class='respPic'></div><div class='trialDiv'><img src='Fruit/orange.png'><br><font class='baseline'><strong>Odds are Orange</strong><p><strong><font class='negOutcome'>You LOST</font><p>You bet: 4</strong></font> &nbsp; &nbsp; &nbsp; &nbsp; &nbsp; &nbsp;<font class='negOutcome'>You receive: <strong>0</strong></font></div>","null","3","Odds are Orange","Fruit/orange.png","Lost","0.35,0.8","9","0.35","30","7","",""
"html-keyboard-response","31","99373","0.0-11.0-1.7","610c736500a4b33398fef94f","bdp_rwlrn","Sat Apr 08 2023 11:39:04 GMT-0400 (Eastern Daylight Time)","417421","Trustworthy,Untrustworthy","","1414","","","","decision","","<div class='trialDiv'><img src='Fruit/mango.png'><br><font class='baseline'><strong>Mega Mangos</strong><p>Choose number of points to bet.</font><div class='respPicDiv'><img src='img/responseButtonOffersNo0L.png' class='respPic'></div></div>","5","3","Mega Mangos","Fruit/mango.png","Won","0.65,0.2","9","0.65","35","8","",""
"html-keyboard-response","32","99636","0.0-11.0-2.7","610c736500a4b33398fef94f","bdp_rwlrn","Sat Apr 08 2023 11:39:04 GMT-0400 (Eastern Daylight Time)","417421","Trustworthy,Untrustworthy","","null","","","","decisionFB","","<div class='trialDiv'><img src='Fruit/mango.png'><br><font class='baseline'><strong>Mega Mangos</strong><p>Choose number of points to bet.</font><div class='respPicDiv'><img src='img/responseButtonOffersNo0L5.png' class='respPic'></div></div>","null","3","Mega Mangos","Fruit/mango.png","Won","0.65,0.2","9","0.65","30","8","",""
"html-keyboard-response","33","100640","0.0-11.0-3.7","610c736500a4b33398fef94f","bdp_rwlrn","Sat Apr 08 2023 11:39:04 GMT-0400 (Eastern Daylight Time)","417421","Trustworthy,Untrustworthy","","null","","","","feedback","","<div class='respPicDiv'><img src='img/responseButtonOffersNo0_wht.png' class='respPic'></div><div class='trialDiv'><img src='Fruit/mango.png'><br><font class='baseline'><strong>Mega Mangos</strong><p><strong><font class='posOutcome'>You WON</font><p>You bet: 5</strong></font> &nbsp; &nbsp; &nbsp; &nbsp; &nbsp; &nbsp;<font class='posOutcome'>you receive: <strong>10</strong></font></div>","null","3","Mega Mangos","Fruit/mango.png","Won","0.65,0.2","9","0.65","40","8","",""
"html-keyboard-response","34","101671","0.0-11.0-1.8","610c736500a4b33398fef94f","bdp_rwlrn","Sat Apr 08 2023 11:39:04 GMT-0400 (Eastern Daylight Time)","417421","Trustworthy,Untrustworthy","","1030","","","","decision","","<div class='trialDiv'><img src='Fruit/lime.png'><br><font class='baseline'><strong>Limin' Large</strong><p>Choose number of points to bet.</font><div class='respPicDiv'><img src='img/responseButtonOffersNo0L.png' class='respPic'></div></div>","1","3","Limin' Large","Fruit/lime.png","Won","0.2,0.8","13","0.2","45","9","",""
"html-keyboard-response","35","101935","0.0-11.0-2.8","610c736500a4b33398fef94f","bdp_rwlrn","Sat Apr 08 2023 11:39:04 GMT-0400 (Eastern Daylight Time)","417421","Trustworthy,Untrustworthy","","null","","","","decisionFB","","<div class='trialDiv'><img src='Fruit/lime.png'><br><font class='baseline'><strong>Limin' Large</strong><p>Choose number of points to bet.</font><div class='respPicDiv'><img src='img/responseButtonOffersNo0L1.png' class='respPic'></div></div>","null","3","Limin' Large","Fruit/lime.png","Won","0.2,0.8","13","0.2","44","9","",""
"html-keyboard-response","36","102939","0.0-11.0-3.8","610c736500a4b33398fef94f","bdp_rwlrn","Sat Apr 08 2023 11:39:04 GMT-0400 (Eastern Daylight Time)","417421","Trustworthy,Untrustworthy","","null","","","","feedback","","<div class='respPicDiv'><img src='img/responseButtonOffersNo0_wht.png' class='respPic'></div><div class='trialDiv'><img src='Fruit/lime.png'><br><font class='baseline'><strong>Limin' Large</strong><p><strong><font class='posOutcome'>You WON</font><p>You bet: 1</strong></font> &nbsp; &nbsp; &nbsp; &nbsp; &nbsp; &nbsp;<font class='posOutcome'>you receive: <strong>2</strong></font></div>","null","3","Limin' Large","Fruit/lime.png","Won","0.2,0.8","13","0.2","46","9","",""
"html-keyboard-response","37","103887","0.0-11.0-1.9","610c736500a4b33398fef94f","bdp_rwlrn","Sat Apr 08 2023 11:39:04 GMT-0400 (Eastern Daylight Time)","417421","Trustworthy,Untrustworthy","","947","","","","decision","","<div class='trialDiv'><img src='Fruit/mango.png'><br><font class='baseline'><strong>Mega Mangos</strong><p>Choose number of points to bet.</font><div class='respPicDiv'><img src='img/responseButtonOffersNo0L.png' class='respPic'></div></div>","5","4","Mega Mangos","Fruit/mango.png","Won","0.65,0.2","9","0.65","51","10","",""
"html-keyboard-response","38","104151","0.0-11.0-2.9","610c736500a4b33398fef94f","bdp_rwlrn","Sat Apr 08 2023 11:39:04 GMT-0400 (Eastern Daylight Time)","417421","Trustworthy,Untrustworthy","","null","","","","decisionFB","","<div class='trialDiv'><img src='Fruit/mango.png'><br><font class='baseline'><strong>Mega Mangos</strong><p>Choose number of points to bet.</font><div class='respPicDiv'><img src='img/responseButtonOffersNo0L5.png' class='respPic'></div></div>","null","4","Mega Mangos","Fruit/mango.png","Won","0.65,0.2","9","0.65","46","10","",""
"html-keyboard-response","39","105157","0.0-11.0-3.9","610c736500a4b33398fef94f","bdp_rwlrn","Sat Apr 08 2023 11:39:04 GMT-0400 (Eastern Daylight Time)","417421","Trustworthy,Untrustworthy","","null","","","","feedback","","<div class='respPicDiv'><img src='img/responseButtonOffersNo0_wht.png' class='respPic'></div><div class='trialDiv'><img src='Fruit/mango.png'><br><font class='baseline'><strong>Mega Mangos</strong><p><strong><font class='posOutcome'>You WON</font><p>You bet: 5</strong></font> &nbsp; &nbsp; &nbsp; &nbsp; &nbsp; &nbsp;<font class='posOutcome'>you receive: <strong>10</strong></font></div>","null","4","Mega Mangos","Fruit/mango.png","Won","0.65,0.2","9","0.65","56","10","",""
"html-keyboard-response","40","106568","0.0-11.0-1.10","610c736500a4b33398fef94f","bdp_rwlrn","Sat Apr 08 2023 11:39:04 GMT-0400 (Eastern Daylight Time)","417421","Trustworthy,Untrustworthy","","1410","","","","decision","","<div class='trialDiv'><img src='Fruit/lime.png'><br><font class='baseline'><strong>Limin' Large</strong><p>Choose number of points to bet.</font><div class='respPicDiv'><img src='img/responseButtonOffersNo0L.png' class='respPic'></div></div>","2","4","Limin' Large","Fruit/lime.png","Lost","0.2,0.8","13","0.2","61","11","",""
"html-keyboard-response","41","106824","0.0-11.0-2.10","610c736500a4b33398fef94f","bdp_rwlrn","Sat Apr 08 2023 11:39:04 GMT-0400 (Eastern Daylight Time)","417421","Trustworthy,Untrustworthy","","null","","","","decisionFB","","<div class='trialDiv'><img src='Fruit/lime.png'><br><font class='baseline'><strong>Limin' Large</strong><p>Choose number of points to bet.</font><div class='respPicDiv'><img src='img/responseButtonOffersNo0L2.png' class='respPic'></div></div>","null","4","Limin' Large","Fruit/lime.png","Lost","0.2,0.8","13","0.2","59","11","",""
"html-keyboard-response","42","107841","0.0-11.0-3.10","610c736500a4b33398fef94f","bdp_rwlrn","Sat Apr 08 2023 11:39:04 GMT-0400 (Eastern Daylight Time)","417421","Trustworthy,Untrustworthy","","null","","","","feedback","","<div class='respPicDiv'><img src='img/responseButtonOffersNo0_wht.png' class='respPic'></div><div class='trialDiv'><img src='Fruit/lime.png'><br><font class='baseline'><strong>Limin' Large</strong><p><strong><font class='negOutcome'>You LOST</font><p>You bet: 2</strong></font> &nbsp; &nbsp; &nbsp; &nbsp; &nbsp; &nbsp;<font class='negOutcome'>You receive: <strong>0</strong></font></div>","null","4","Limin' Large","Fruit/lime.png","Lost","0.2,0.8","13","0.2","59","11","",""
"html-keyboard-response","43","108810","0.0-11.0-1.11","610c736500a4b33398fef94f","bdp_rwlrn","Sat Apr 08 2023 11:39:04 GMT-0400 (Eastern Daylight Time)","417421","Trustworthy,Untrustworthy","","968","","","","decision","","<div class='trialDiv'><img src='Fruit/orange.png'><br><font class='baseline'><strong>Odds are Orange</strong><p>Choose number of points to bet.</font><div class='respPicDiv'><img src='img/responseButtonOffersNo0L.png' class='respPic'></div></div>","2","4","Odds are Orange","Fruit/orange.png","Lost","0.35,0.8","9","0.35","64","12","",""
"html-keyboard-response","44","109067","0.0-11.0-2.11","610c736500a4b33398fef94f","bdp_rwlrn","Sat Apr 08 2023 11:39:04 GMT-0400 (Eastern Daylight Time)","417421","Trustworthy,Untrustworthy","","null","","","","decisionFB","","<div class='trialDiv'><img src='Fruit/orange.png'><br><font class='baseline'><strong>Odds are Orange</strong><p>Choose number of points to bet.</font><div class='respPicDiv'><img src='img/responseButtonOffersNo0L2.png' class='respPic'></div></div>","null","4","Odds are Orange","Fruit/orange.png","Lost","0.35,0.8","9","0.35","62","12","",""
"html-keyboard-response","45","110081","0.0-11.0-3.11","610c736500a4b33398fef94f","bdp_rwlrn","Sat Apr 08 2023 11:39:04 GMT-0400 (Eastern Daylight Time)","417421","Trustworthy,Untrustworthy","","null","","","","feedback","","<div class='respPicDiv'><img src='img/responseButtonOffersNo0_wht.png' class='respPic'></div><div class='trialDiv'><img src='Fruit/orange.png'><br><font class='baseline'><strong>Odds are Orange</strong><p><strong><font class='negOutcome'>You LOST</font><p>You bet: 2</strong></font> &nbsp; &nbsp; &nbsp; &nbsp; &nbsp; &nbsp;<font class='negOutcome'>You receive: <strong>0</strong></font></div>","null","4","Odds are Orange","Fruit/orange.png","Lost","0.35,0.8","9","0.35","62","12","",""
"html-keyboard-response","46","110730","0.0-11.0-1.12","610c736500a4b33398fef94f","bdp_rwlrn","Sat Apr 08 2023 11:39:04 GMT-0400 (Eastern Daylight Time)","417421","Trustworthy,Untrustworthy","","649","","","","decision","","<div class='trialDiv'><img src='Fruit/mango.png'><br><font class='baseline'><strong>Mega Mangos</strong><p>Choose number of points to bet.</font><div class='respPicDiv'><img src='img/responseButtonOffersNo0L.png' class='respPic'></div></div>","5","5","Mega Mangos","Fruit/mango.png","Lost","0.65,0.2","9","0.65","67","13","",""
"html-keyboard-response","47","110985","0.0-11.0-2.12","610c736500a4b33398fef94f","bdp_rwlrn","Sat Apr 08 2023 11:39:04 GMT-0400 (Eastern Daylight Time)","417421","Trustworthy,Untrustworthy","","null","","","","decisionFB","","<div class='trialDiv'><img src='Fruit/mango.png'><br><font class='baseline'><strong>Mega Mangos</strong><p>Choose number of points to bet.</font><div class='respPicDiv'><img src='img/responseButtonOffersNo0L5.png' class='respPic'></div></div>","null","5","Mega Mangos","Fruit/mango.png","Lost","0.65,0.2","9","0.65","62","13","",""
"html-keyboard-response","48","111987","0.0-11.0-3.12","610c736500a4b33398fef94f","bdp_rwlrn","Sat Apr 08 2023 11:39:04 GMT-0400 (Eastern Daylight Time)","417421","Trustworthy,Untrustworthy","","null","","","","feedback","","<div class='respPicDiv'><img src='img/responseButtonOffersNo0_wht.png' class='respPic'></div><div class='trialDiv'><img src='Fruit/mango.png'><br><font class='baseline'><strong>Mega Mangos</strong><p><strong><font class='negOutcome'>You LOST</font><p>You bet: 5</strong></font> &nbsp; &nbsp; &nbsp; &nbsp; &nbsp; &nbsp;<font class='negOutcome'>You receive: <strong>0</strong></font></div>","null","5","Mega Mangos","Fruit/mango.png","Lost","0.65,0.2","9","0.65","62","13","",""
"html-keyboard-response","49","113227","0.0-11.0-1.13","610c736500a4b33398fef94f","bdp_rwlrn","Sat Apr 08 2023 11:39:04 GMT-0400 (Eastern Daylight Time)","417421","Trustworthy,Untrustworthy","","1238","","","","decision","","<div class='trialDiv'><img src='Fruit/orange.png'><br><font class='baseline'><strong>Odds are Orange</strong><p>Choose number of points to bet.</font><div class='respPicDiv'><img src='img/responseButtonOffersNo0L.png' class='respPic'></div></div>","2","5","Odds are Orange","Fruit/orange.png","Won","0.35,0.8","9","0.35","67","14","",""
"html-keyboard-response","50","113483","0.0-11.0-2.13","610c736500a4b33398fef94f","bdp_rwlrn","Sat Apr 08 2023 11:39:04 GMT-0400 (Eastern Daylight Time)","417421","Trustworthy,Untrustworthy","","null","","","","decisionFB","","<div class='trialDiv'><img src='Fruit/orange.png'><br><font class='baseline'><strong>Odds are Orange</strong><p>Choose number of points to bet.</font><div class='respPicDiv'><img src='img/responseButtonOffersNo0L2.png' class='respPic'></div></div>","null","5","Odds are Orange","Fruit/orange.png","Won","0.35,0.8","9","0.35","65","14","",""
"html-keyboard-response","51","114492","0.0-11.0-3.13","610c736500a4b33398fef94f","bdp_rwlrn","Sat Apr 08 2023 11:39:04 GMT-0400 (Eastern Daylight Time)","417421","Trustworthy,Untrustworthy","","null","","","","feedback","","<div class='respPicDiv'><img src='img/responseButtonOffersNo0_wht.png' class='respPic'></div><div class='trialDiv'><img src='Fruit/orange.png'><br><font class='baseline'><strong>Odds are Orange</strong><p><strong><font class='posOutcome'>You WON</font><p>You bet: 2</strong></font> &nbsp; &nbsp; &nbsp; &nbsp; &nbsp; &nbsp;<font class='posOutcome'>you receive: <strong>4</strong></font></div>","null","5","Odds are Orange","Fruit/orange.png","Won","0.35,0.8","9","0.35","69","14","",""
"html-keyboard-response","52","115388","0.0-11.0-1.14","610c736500a4b33398fef94f","bdp_rwlrn","Sat Apr 08 2023 11:39:04 GMT-0400 (Eastern Daylight Time)","417421","Trustworthy,Untrustworthy","","896","","","","decision","","<div class='trialDiv'><img src='Fruit/lime.png'><br><font class='baseline'><strong>Limin' Large</strong><p>Choose number of points to bet.</font><div class='respPicDiv'><img src='img/responseButtonOffersNo0L.png' class='respPic'></div></div>","2","5","Limin' Large","Fruit/lime.png","Lost","0.2,0.8","13","0.2","74","15","",""
"html-keyboard-response","53","115649","0.0-11.0-2.14","610c736500a4b33398fef94f","bdp_rwlrn","Sat Apr 08 2023 11:39:04 GMT-0400 (Eastern Daylight Time)","417421","Trustworthy,Untrustworthy","","null","","","","decisionFB","","<div class='trialDiv'><img src='Fruit/lime.png'><br><font class='baseline'><strong>Limin' Large</strong><p>Choose number of points to bet.</font><div class='respPicDiv'><img src='img/responseButtonOffersNo0L2.png' class='respPic'></div></div>","null","5","Limin' Large","Fruit/lime.png","Lost","0.2,0.8","13","0.2","72","15","",""
"html-keyboard-response","54","116663","0.0-11.0-3.14","610c736500a4b33398fef94f","bdp_rwlrn","Sat Apr 08 2023 11:39:04 GMT-0400 (Eastern Daylight Time)","417421","Trustworthy,Untrustworthy","","null","","","","feedback","","<div class='respPicDiv'><img src='img/responseButtonOffersNo0_wht.png' class='respPic'></div><div class='trialDiv'><img src='Fruit/lime.png'><br><font class='baseline'><strong>Limin' Large</strong><p><strong><font class='negOutcome'>You LOST</font><p>You bet: 2</strong></font> &nbsp; &nbsp; &nbsp; &nbsp; &nbsp; &nbsp;<font class='negOutcome'>You receive: <strong>0</strong></font></div>","null","5","Limin' Large","Fruit/lime.png","Lost","0.2,0.8","13","0.2","72","15","",""
"html-keyboard-response","55","118493","0.0-11.0-1.15","610c736500a4b33398fef94f","bdp_rwlrn","Sat Apr 08 2023 11:39:04 GMT-0400 (Eastern Daylight Time)","417421","Trustworthy,Untrustworthy","","1829","","","","decision","","<div class='trialDiv'><img src='Fruit/mango.png'><br><font class='baseline'><strong>Mega Mangos</strong><p>Choose number of points to bet.</font><div class='respPicDiv'><img src='img/responseButtonOffersNo0L.png' class='respPic'></div></div>","4","6","Mega Mangos","Fruit/mango.png","Won","0.65,0.2","9","0.65","77","16","",""
"html-keyboard-response","56","118754","0.0-11.0-2.15","610c736500a4b33398fef94f","bdp_rwlrn","Sat Apr 08 2023 11:39:04 GMT-0400 (Eastern Daylight Time)","417421","Trustworthy,Untrustworthy","","null","","","","decisionFB","","<div class='trialDiv'><img src='Fruit/mango.png'><br><font class='baseline'><strong>Mega Mangos</strong><p>Choose number of points to bet.</font><div class='respPicDiv'><img src='img/responseButtonOffersNo0L4.png' class='respPic'></div></div>","null","6","Mega Mangos","Fruit/mango.png","Won","0.65,0.2","9","0.65","73","16","",""
"html-keyboard-response","57","119770","0.0-11.0-3.15","610c736500a4b33398fef94f","bdp_rwlrn","Sat Apr 08 2023 11:39:04 GMT-0400 (Eastern Daylight Time)","417421","Trustworthy,Untrustworthy","","null","","","","feedback","","<div class='respPicDiv'><img src='img/responseButtonOffersNo0_wht.png' class='respPic'></div><div class='trialDiv'><img src='Fruit/mango.png'><br><font class='baseline'><strong>Mega Mangos</strong><p><strong><font class='posOutcome'>You WON</font><p>You bet: 4</strong></font> &nbsp; &nbsp; &nbsp; &nbsp; &nbsp; &nbsp;<font class='posOutcome'>you receive: <strong>8</strong></font></div>","null","6","Mega Mangos","Fruit/mango.png","Won","0.65,0.2","9","0.65","81","16","",""
"html-keyboard-response","58","120453","0.0-11.0-1.16","610c736500a4b33398fef94f","bdp_rwlrn","Sat Apr 08 2023 11:39:04 GMT-0400 (Eastern Daylight Time)","417421","Trustworthy,Untrustworthy","","682","","","","decision","","<div class='trialDiv'><img src='Fruit/lime.png'><br><font class='baseline'><strong>Limin' Large</strong><p>Choose number of points to bet.</font><div class='respPicDiv'><img src='img/responseButtonOffersNo0L.png' class='respPic'></div></div>","2","6","Limin' Large","Fruit/lime.png","Won","0.2,0.8","13","0.2","86","17","",""
"html-keyboard-response","59","120713","0.0-11.0-2.16","610c736500a4b33398fef94f","bdp_rwlrn","Sat Apr 08 2023 11:39:04 GMT-0400 (Eastern Daylight Time)","417421","Trustworthy,Untrustworthy","","null","","","","decisionFB","","<div class='trialDiv'><img src='Fruit/lime.png'><br><font class='baseline'><strong>Limin' Large</strong><p>Choose number of points to bet.</font><div class='respPicDiv'><img src='img/responseButtonOffersNo0L2.png' class='respPic'></div></div>","null","6","Limin' Large","Fruit/lime.png","Won","0.2,0.8","13","0.2","84","17","",""
"html-keyboard-response","60","121719","0.0-11.0-3.16","610c736500a4b33398fef94f","bdp_rwlrn","Sat Apr 08 2023 11:39:04 GMT-0400 (Eastern Daylight Time)","417421","Trustworthy,Untrustworthy","","null","","","","feedback","","<div class='respPicDiv'><img src='img/responseButtonOffersNo0_wht.png' class='respPic'></div><div class='trialDiv'><img src='Fruit/lime.png'><br><font class='baseline'><strong>Limin' Large</strong><p><strong><font class='posOutcome'>You WON</font><p>You bet: 2</strong></font> &nbsp; &nbsp; &nbsp; &nbsp; &nbsp; &nbsp;<font class='posOutcome'>you receive: <strong>4</strong></font></div>","null","6","Limin' Large","Fruit/lime.png","Won","0.2,0.8","13","0.2","88","17","",""
"html-keyboard-response","61","122455","0.0-11.0-1.17","610c736500a4b33398fef94f","bdp_rwlrn","Sat Apr 08 2023 11:39:04 GMT-0400 (Eastern Daylight Time)","417421","Trustworthy,Untrustworthy","","736","","","","decision","","<div class='trialDiv'><img src='Fruit/orange.png'><br><font class='baseline'><strong>Odds are Orange</strong><p>Choose number of points to bet.</font><div class='respPicDiv'><img src='img/responseButtonOffersNo0L.png' class='respPic'></div></div>","2","6","Odds are Orange","Fruit/orange.png","Lost","0.35,0.8","9","0.35","93","18","",""
"html-keyboard-response","62","122713","0.0-11.0-2.17","610c736500a4b33398fef94f","bdp_rwlrn","Sat Apr 08 2023 11:39:04 GMT-0400 (Eastern Daylight Time)","417421","Trustworthy,Untrustworthy","","null","","","","decisionFB","","<div class='trialDiv'><img src='Fruit/orange.png'><br><font class='baseline'><strong>Odds are Orange</strong><p>Choose number of points to bet.</font><div class='respPicDiv'><img src='img/responseButtonOffersNo0L2.png' class='respPic'></div></div>","null","6","Odds are Orange","Fruit/orange.png","Lost","0.35,0.8","9","0.35","91","18","",""
"html-keyboard-response","63","123729","0.0-11.0-3.17","610c736500a4b33398fef94f","bdp_rwlrn","Sat Apr 08 2023 11:39:04 GMT-0400 (Eastern Daylight Time)","417421","Trustworthy,Untrustworthy","","null","","","","feedback","","<div class='respPicDiv'><img src='img/responseButtonOffersNo0_wht.png' class='respPic'></div><div class='trialDiv'><img src='Fruit/orange.png'><br><font class='baseline'><strong>Odds are Orange</strong><p><strong><font class='negOutcome'>You LOST</font><p>You bet: 2</strong></font> &nbsp; &nbsp; &nbsp; &nbsp; &nbsp; &nbsp;<font class='negOutcome'>You receive: <strong>0</strong></font></div>","null","6","Odds are Orange","Fruit/orange.png","Lost","0.35,0.8","9","0.35","91","18","",""
"html-keyboard-response","64","124647","0.0-11.0-1.18","610c736500a4b33398fef94f","bdp_rwlrn","Sat Apr 08 2023 11:39:04 GMT-0400 (Eastern Daylight Time)","417421","Trustworthy,Untrustworthy","","917","","","","decision","","<div class='trialDiv'><img src='Fruit/lime.png'><br><font class='baseline'><strong>Limin' Large</strong><p>Choose number of points to bet.</font><div class='respPicDiv'><img src='img/responseButtonOffersNo0L.png' class='respPic'></div></div>","2","7","Limin' Large","Fruit/lime.png","Won","0.2,0.8","13","0.2","96","19","",""
"html-keyboard-response","65","124911","0.0-11.0-2.18","610c736500a4b33398fef94f","bdp_rwlrn","Sat Apr 08 2023 11:39:04 GMT-0400 (Eastern Daylight Time)","417421","Trustworthy,Untrustworthy","","null","","","","decisionFB","","<div class='trialDiv'><img src='Fruit/lime.png'><br><font class='baseline'><strong>Limin' Large</strong><p>Choose number of points to bet.</font><div class='respPicDiv'><img src='img/responseButtonOffersNo0L2.png' class='respPic'></div></div>","null","7","Limin' Large","Fruit/lime.png","Won","0.2,0.8","13","0.2","94","19","",""
"html-keyboard-response","66","125922","0.0-11.0-3.18","610c736500a4b33398fef94f","bdp_rwlrn","Sat Apr 08 2023 11:39:04 GMT-0400 (Eastern Daylight Time)","417421","Trustworthy,Untrustworthy","","null","","","","feedback","","<div class='respPicDiv'><img src='img/responseButtonOffersNo0_wht.png' class='respPic'></div><div class='trialDiv'><img src='Fruit/lime.png'><br><font class='baseline'><strong>Limin' Large</strong><p><strong><font class='posOutcome'>You WON</font><p>You bet: 2</strong></font> &nbsp; &nbsp; &nbsp; &nbsp; &nbsp; &nbsp;<font class='posOutcome'>you receive: <strong>4</strong></font></div>","null","7","Limin' Large","Fruit/lime.png","Won","0.2,0.8","13","0.2","98","19","",""
"html-keyboard-response","67","126732","0.0-11.0-1.19","610c736500a4b33398fef94f","bdp_rwlrn","Sat Apr 08 2023 11:39:04 GMT-0400 (Eastern Daylight Time)","417421","Trustworthy,Untrustworthy","","810","","","","decision","","<div class='trialDiv'><img src='Fruit/orange.png'><br><font class='baseline'><strong>Odds are Orange</strong><p>Choose number of points to bet.</font><div class='respPicDiv'><img src='img/responseButtonOffersNo0L.png' class='respPic'></div></div>","2","7","Odds are Orange","Fruit/orange.png","Lost","0.35,0.8","9","0.35","103","20","",""
"html-keyboard-response","68","126993","0.0-11.0-2.19","610c736500a4b33398fef94f","bdp_rwlrn","Sat Apr 08 2023 11:39:04 GMT-0400 (Eastern Daylight Time)","417421","Trustworthy,Untrustworthy","","null","","","","decisionFB","","<div class='trialDiv'><img src='Fruit/orange.png'><br><font class='baseline'><strong>Odds are Orange</strong><p>Choose number of points to bet.</font><div class='respPicDiv'><img src='img/responseButtonOffersNo0L2.png' class='respPic'></div></div>","null","7","Odds are Orange","Fruit/orange.png","Lost","0.35,0.8","9","0.35","101","20","",""
"html-keyboard-response","69","128009","0.0-11.0-3.19","610c736500a4b33398fef94f","bdp_rwlrn","Sat Apr 08 2023 11:39:04 GMT-0400 (Eastern Daylight Time)","417421","Trustworthy,Untrustworthy","","null","","","","feedback","","<div class='respPicDiv'><img src='img/responseButtonOffersNo0_wht.png' class='respPic'></div><div class='trialDiv'><img src='Fruit/orange.png'><br><font class='baseline'><strong>Odds are Orange</strong><p><strong><font class='negOutcome'>You LOST</font><p>You bet: 2</strong></font> &nbsp; &nbsp; &nbsp; &nbsp; &nbsp; &nbsp;<font class='negOutcome'>You receive: <strong>0</strong></font></div>","null","7","Odds are Orange","Fruit/orange.png","Lost","0.35,0.8","9","0.35","101","20","",""
"html-keyboard-response","70","128628","0.0-11.0-1.20","610c736500a4b33398fef94f","bdp_rwlrn","Sat Apr 08 2023 11:39:04 GMT-0400 (Eastern Daylight Time)","417421","Trustworthy,Untrustworthy","","619","","","","decision","","<div class='trialDiv'><img src='Fruit/mango.png'><br><font class='baseline'><strong>Mega Mangos</strong><p>Choose number of points to bet.</font><div class='respPicDiv'><img src='img/responseButtonOffersNo0L.png' class='respPic'></div></div>","5","7","Mega Mangos","Fruit/mango.png","Lost","0.65,0.2","9","0.65","106","21","",""
"html-keyboard-response","71","128894","0.0-11.0-2.20","610c736500a4b33398fef94f","bdp_rwlrn","Sat Apr 08 2023 11:39:04 GMT-0400 (Eastern Daylight Time)","417421","Trustworthy,Untrustworthy","","null","","","","decisionFB","","<div class='trialDiv'><img src='Fruit/mango.png'><br><font class='baseline'><strong>Mega Mangos</strong><p>Choose number of points to bet.</font><div class='respPicDiv'><img src='img/responseButtonOffersNo0L5.png' class='respPic'></div></div>","null","7","Mega Mangos","Fruit/mango.png","Lost","0.65,0.2","9","0.65","101","21","",""
"html-keyboard-response","72","129906","0.0-11.0-3.20","610c736500a4b33398fef94f","bdp_rwlrn","Sat Apr 08 2023 11:39:04 GMT-0400 (Eastern Daylight Time)","417421","Trustworthy,Untrustworthy","","null","","","","feedback","","<div class='respPicDiv'><img src='img/responseButtonOffersNo0_wht.png' class='respPic'></div><div class='trialDiv'><img src='Fruit/mango.png'><br><font class='baseline'><strong>Mega Mangos</strong><p><strong><font class='negOutcome'>You LOST</font><p>You bet: 5</strong></font> &nbsp; &nbsp; &nbsp; &nbsp; &nbsp; &nbsp;<font class='negOutcome'>You receive: <strong>0</strong></font></div>","null","7","Mega Mangos","Fruit/mango.png","Lost","0.65,0.2","9","0.65","101","21","",""
"html-keyboard-response","73","131106","0.0-11.0-1.21","610c736500a4b33398fef94f","bdp_rwlrn","Sat Apr 08 2023 11:39:04 GMT-0400 (Eastern Daylight Time)","417421","Trustworthy,Untrustworthy","","1199","","","","decision","","<div class='trialDiv'><img src='Fruit/orange.png'><br><font class='baseline'><strong>Odds are Orange</strong><p>Choose number of points to bet.</font><div class='respPicDiv'><img src='img/responseButtonOffersNo0L.png' class='respPic'></div></div>","3","8","Odds are Orange","Fruit/orange.png","Won","0.35,0.8","9","0.35","106","22","",""
"html-keyboard-response","74","131365","0.0-11.0-2.21","610c736500a4b33398fef94f","bdp_rwlrn","Sat Apr 08 2023 11:39:04 GMT-0400 (Eastern Daylight Time)","417421","Trustworthy,Untrustworthy","","null","","","","decisionFB","","<div class='trialDiv'><img src='Fruit/orange.png'><br><font class='baseline'><strong>Odds are Orange</strong><p>Choose number of points to bet.</font><div class='respPicDiv'><img src='img/responseButtonOffersNo0L3.png' class='respPic'></div></div>","null","8","Odds are Orange","Fruit/orange.png","Won","0.35,0.8","9","0.35","103","22","",""
"html-keyboard-response","75","132379","0.0-11.0-3.21","610c736500a4b33398fef94f","bdp_rwlrn","Sat Apr 08 2023 11:39:04 GMT-0400 (Eastern Daylight Time)","417421","Trustworthy,Untrustworthy","","null","","","","feedback","","<div class='respPicDiv'><img src='img/responseButtonOffersNo0_wht.png' class='respPic'></div><div class='trialDiv'><img src='Fruit/orange.png'><br><font class='baseline'><strong>Odds are Orange</strong><p><strong><font class='posOutcome'>You WON</font><p>You bet: 3</strong></font> &nbsp; &nbsp; &nbsp; &nbsp; &nbsp; &nbsp;<font class='posOutcome'>you receive: <strong>6</strong></font></div>","null","8","Odds are Orange","Fruit/orange.png","Won","0.35,0.8","9","0.35","109","22","",""
"html-keyboard-response","76","133665","0.0-11.0-1.22","610c736500a4b33398fef94f","bdp_rwlrn","Sat Apr 08 2023 11:39:04 GMT-0400 (Eastern Daylight Time)","417421","Trustworthy,Untrustworthy","","1286","","","","decision","","<div class='trialDiv'><img src='Fruit/mango.png'><br><font class='baseline'><strong>Mega Mangos</strong><p>Choose number of points to bet.</font><div class='respPicDiv'><img src='img/responseButtonOffersNo0L.png' class='respPic'></div></div>","4","8","Mega Mangos","Fruit/mango.png","Won","0.65,0.2","9","0.65","114","23","",""
"html-keyboard-response","77","133930","0.0-11.0-2.22","610c736500a4b33398fef94f","bdp_rwlrn","Sat Apr 08 2023 11:39:04 GMT-0400 (Eastern Daylight Time)","417421","Trustworthy,Untrustworthy","","null","","","","decisionFB","","<div class='trialDiv'><img src='Fruit/mango.png'><br><font class='baseline'><strong>Mega Mangos</strong><p>Choose number of points to bet.</font><div class='respPicDiv'><img src='img/responseButtonOffersNo0L4.png' class='respPic'></div></div>","null","8","Mega Mangos","Fruit/mango.png","Won","0.65,0.2","9","0.65","110","23","",""
"html-keyboard-response","78","134943","0.0-11.0-3.22","610c736500a4b33398fef94f","bdp_rwlrn","Sat Apr 08 2023 11:39:04 GMT-0400 (Eastern Daylight Time)","417421","Trustworthy,Untrustworthy","","null","","","","feedback","","<div class='respPicDiv'><img src='img/responseButtonOffersNo0_wht.png' class='respPic'></div><div class='trialDiv'><img src='Fruit/mango.png'><br><font class='baseline'><strong>Mega Mangos</strong><p><strong><font class='posOutcome'>You WON</font><p>You bet: 4</strong></font> &nbsp; &nbsp; &nbsp; &nbsp; &nbsp; &nbsp;<font class='posOutcome'>you receive: <strong>8</strong></font></div>","null","8","Mega Mangos","Fruit/mango.png","Won","0.65,0.2","9","0.65","118","23","",""
"html-keyboard-response","79","135559","0.0-11.0-1.23","610c736500a4b33398fef94f","bdp_rwlrn","Sat Apr 08 2023 11:39:04 GMT-0400 (Eastern Daylight Time)","417421","Trustworthy,Untrustworthy","","615","","","","decision","","<div class='trialDiv'><img src='Fruit/lime.png'><br><font class='baseline'><strong>Limin' Large</strong><p>Choose number of points to bet.</font><div class='respPicDiv'><img src='img/responseButtonOffersNo0L.png' class='respPic'></div></div>","3","8","Limin' Large","Fruit/lime.png","Lost","0.2,0.8","13","0.2","123","24","",""
"html-keyboard-response","80","135815","0.0-11.0-2.23","610c736500a4b33398fef94f","bdp_rwlrn","Sat Apr 08 2023 11:39:04 GMT-0400 (Eastern Daylight Time)","417421","Trustworthy,Untrustworthy","","null","","","","decisionFB","","<div class='trialDiv'><img src='Fruit/lime.png'><br><font class='baseline'><strong>Limin' Large</strong><p>Choose number of points to bet.</font><div class='respPicDiv'><img src='img/responseButtonOffersNo0L3.png' class='respPic'></div></div>","null","8","Limin' Large","Fruit/lime.png","Lost","0.2,0.8","13","0.2","120","24","",""
"html-keyboard-response","81","136819","0.0-11.0-3.23","610c736500a4b33398fef94f","bdp_rwlrn","Sat Apr 08 2023 11:39:04 GMT-0400 (Eastern Daylight Time)","417421","Trustworthy,Untrustworthy","","null","","","","feedback","","<div class='respPicDiv'><img src='img/responseButtonOffersNo0_wht.png' class='respPic'></div><div class='trialDiv'><img src='Fruit/lime.png'><br><font class='baseline'><strong>Limin' Large</strong><p><strong><font class='negOutcome'>You LOST</font><p>You bet: 3</strong></font> &nbsp; &nbsp; &nbsp; &nbsp; &nbsp; &nbsp;<font class='negOutcome'>You receive: <strong>0</strong></font></div>","null","8","Limin' Large","Fruit/lime.png","Lost","0.2,0.8","13","0.2","120","24","",""
"html-keyboard-response","82","137487","0.0-11.0-1.24","610c736500a4b33398fef94f","bdp_rwlrn","Sat Apr 08 2023 11:39:04 GMT-0400 (Eastern Daylight Time)","417421","Trustworthy,Untrustworthy","","668","","","","decision","","<div class='trialDiv'><img src='Fruit/mango.png'><br><font class='baseline'><strong>Mega Mangos</strong><p>Choose number of points to bet.</font><div class='respPicDiv'><img src='img/responseButtonOffersNo0L.png' class='respPic'></div></div>","5","9","Mega Mangos","Fruit/mango.png","Lost","0.65,0.2","9","0.65","125","25","",""
"html-keyboard-response","83","137742","0.0-11.0-2.24","610c736500a4b33398fef94f","bdp_rwlrn","Sat Apr 08 2023 11:39:04 GMT-0400 (Eastern Daylight Time)","417421","Trustworthy,Untrustworthy","","null","","","","decisionFB","","<div class='trialDiv'><img src='Fruit/mango.png'><br><font class='baseline'><strong>Mega Mangos</strong><p>Choose number of points to bet.</font><div class='respPicDiv'><img src='img/responseButtonOffersNo0L5.png' class='respPic'></div></div>","null","9","Mega Mangos","Fruit/mango.png","Lost","0.65,0.2","9","0.65","120","25","",""
"html-keyboard-response","84","138758","0.0-11.0-3.24","610c736500a4b33398fef94f","bdp_rwlrn","Sat Apr 08 2023 11:39:04 GMT-0400 (Eastern Daylight Time)","417421","Trustworthy,Untrustworthy","","null","","","","feedback","","<div class='respPicDiv'><img src='img/responseButtonOffersNo0_wht.png' class='respPic'></div><div class='trialDiv'><img src='Fruit/mango.png'><br><font class='baseline'><strong>Mega Mangos</strong><p><strong><font class='negOutcome'>You LOST</font><p>You bet: 5</strong></font> &nbsp; &nbsp; &nbsp; &nbsp; &nbsp; &nbsp;<font class='negOutcome'>You receive: <strong>0</strong></font></div>","null","9","Mega Mangos","Fruit/mango.png","Lost","0.65,0.2","9","0.65","120","25","",""
"html-keyboard-response","85","139585","0.0-11.0-1.25","610c736500a4b33398fef94f","bdp_rwlrn","Sat Apr 08 2023 11:39:04 GMT-0400 (Eastern Daylight Time)","417421","Trustworthy,Untrustworthy","","826","","","","decision","","<div class='trialDiv'><img src='Fruit/lime.png'><br><font class='baseline'><strong>Limin' Large</strong><p>Choose number of points to bet.</font><div class='respPicDiv'><img src='img/responseButtonOffersNo0L.png' class='respPic'></div></div>","2","9","Limin' Large","Fruit/lime.png","Lost","0.2,0.8","13","0.2","125","26","",""
"html-keyboard-response","86","139842","0.0-11.0-2.25","610c736500a4b33398fef94f","bdp_rwlrn","Sat Apr 08 2023 11:39:04 GMT-0400 (Eastern Daylight Time)","417421","Trustworthy,Untrustworthy","","null","","","","decisionFB","","<div class='trialDiv'><img src='Fruit/lime.png'><br><font class='baseline'><strong>Limin' Large</strong><p>Choose number of points to bet.</font><div class='respPicDiv'><img src='img/responseButtonOffersNo0L2.png' class='respPic'></div></div>","null","9","Limin' Large","Fruit/lime.png","Lost","0.2,0.8","13","0.2","123","26","",""
"html-keyboard-response","87","140845","0.0-11.0-3.25","610c736500a4b33398fef94f","bdp_rwlrn","Sat Apr 08 2023 11:39:04 GMT-0400 (Eastern Daylight Time)","417421","Trustworthy,Untrustworthy","","null","","","","feedback","","<div class='respPicDiv'><img src='img/responseButtonOffersNo0_wht.png' class='respPic'></div><div class='trialDiv'><img src='Fruit/lime.png'><br><font class='baseline'><strong>Limin' Large</strong><p><strong><font class='negOutcome'>You LOST</font><p>You bet: 2</strong></font> &nbsp; &nbsp; &nbsp; &nbsp; &nbsp; &nbsp;<font class='negOutcome'>You receive: <strong>0</strong></font></div>","null","9","Limin' Large","Fruit/lime.png","Lost","0.2,0.8","13","0.2","123","26","",""
"html-keyboard-response","88","141771","0.0-11.0-1.26","610c736500a4b33398fef94f","bdp_rwlrn","Sat Apr 08 2023 11:39:04 GMT-0400 (Eastern Daylight Time)","417421","Trustworthy,Untrustworthy","","924","","","","decision","","<div class='trialDiv'><img src='Fruit/orange.png'><br><font class='baseline'><strong>Odds are Orange</strong><p>Choose number of points to bet.</font><div class='respPicDiv'><img src='img/responseButtonOffersNo0L.png' class='respPic'></div></div>","2","9","Odds are Orange","Fruit/orange.png","Lost","0.35,0.8","9","0.35","128","27","",""
"html-keyboard-response","89","142024","0.0-11.0-2.26","610c736500a4b33398fef94f","bdp_rwlrn","Sat Apr 08 2023 11:39:04 GMT-0400 (Eastern Daylight Time)","417421","Trustworthy,Untrustworthy","","null","","","","decisionFB","","<div class='trialDiv'><img src='Fruit/orange.png'><br><font class='baseline'><strong>Odds are Orange</strong><p>Choose number of points to bet.</font><div class='respPicDiv'><img src='img/responseButtonOffersNo0L2.png' class='respPic'></div></div>","null","9","Odds are Orange","Fruit/orange.png","Lost","0.35,0.8","9","0.35","126","27","",""
"html-keyboard-response","90","143034","0.0-11.0-3.26","610c736500a4b33398fef94f","bdp_rwlrn","Sat Apr 08 2023 11:39:04 GMT-0400 (Eastern Daylight Time)","417421","Trustworthy,Untrustworthy","","null","","","","feedback","","<div class='respPicDiv'><img src='img/responseButtonOffersNo0_wht.png' class='respPic'></div><div class='trialDiv'><img src='Fruit/orange.png'><br><font class='baseline'><strong>Odds are Orange</strong><p><strong><font class='negOutcome'>You LOST</font><p>You bet: 2</strong></font> &nbsp; &nbsp; &nbsp; &nbsp; &nbsp; &nbsp;<font class='negOutcome'>You receive: <strong>0</strong></font></div>","null","9","Odds are Orange","Fruit/orange.png","Lost","0.35,0.8","9","0.35","126","27","",""
"html-keyboard-response","91","143922","0.0-11.0-1.27","610c736500a4b33398fef94f","bdp_rwlrn","Sat Apr 08 2023 11:39:04 GMT-0400 (Eastern Daylight Time)","417421","Trustworthy,Untrustworthy","","886","","","","decision","","<div class='trialDiv'><img src='Fruit/lime.png'><br><font class='baseline'><strong>Limin' Large</strong><p>Choose number of points to bet.</font><div class='respPicDiv'><img src='img/responseButtonOffersNo0L.png' class='respPic'></div></div>","2","10","Limin' Large","Fruit/lime.png","Lost","0.2,0.8","13","0.2","131","28","",""
"html-keyboard-response","92","144176","0.0-11.0-2.27","610c736500a4b33398fef94f","bdp_rwlrn","Sat Apr 08 2023 11:39:04 GMT-0400 (Eastern Daylight Time)","417421","Trustworthy,Untrustworthy","","null","","","","decisionFB","","<div class='trialDiv'><img src='Fruit/lime.png'><br><font class='baseline'><strong>Limin' Large</strong><p>Choose number of points to bet.</font><div class='respPicDiv'><img src='img/responseButtonOffersNo0L2.png' class='respPic'></div></div>","null","10","Limin' Large","Fruit/lime.png","Lost","0.2,0.8","13","0.2","129","28","",""
"html-keyboard-response","93","145192","0.0-11.0-3.27","610c736500a4b33398fef94f","bdp_rwlrn","Sat Apr 08 2023 11:39:04 GMT-0400 (Eastern Daylight Time)","417421","Trustworthy,Untrustworthy","","null","","","","feedback","","<div class='respPicDiv'><img src='img/responseButtonOffersNo0_wht.png' class='respPic'></div><div class='trialDiv'><img src='Fruit/lime.png'><br><font class='baseline'><strong>Limin' Large</strong><p><strong><font class='negOutcome'>You LOST</font><p>You bet: 2</strong></font> &nbsp; &nbsp; &nbsp; &nbsp; &nbsp; &nbsp;<font class='negOutcome'>You receive: <strong>0</strong></font></div>","null","10","Limin' Large","Fruit/lime.png","Lost","0.2,0.8","13","0.2","129","28","",""
"html-keyboard-response","94","145875","0.0-11.0-1.28","610c736500a4b33398fef94f","bdp_rwlrn","Sat Apr 08 2023 11:39:04 GMT-0400 (Eastern Daylight Time)","417421","Trustworthy,Untrustworthy","","682","","","","decision","","<div class='trialDiv'><img src='Fruit/orange.png'><br><font class='baseline'><strong>Odds are Orange</strong><p>Choose number of points to bet.</font><div class='respPicDiv'><img src='img/responseButtonOffersNo0L.png' class='respPic'></div></div>","2","10","Odds are Orange","Fruit/orange.png","Lost","0.35,0.8","9","0.35","134","29","",""
"html-keyboard-response","95","146128","0.0-11.0-2.28","610c736500a4b33398fef94f","bdp_rwlrn","Sat Apr 08 2023 11:39:04 GMT-0400 (Eastern Daylight Time)","417421","Trustworthy,Untrustworthy","","null","","","","decisionFB","","<div class='trialDiv'><img src='Fruit/orange.png'><br><font class='baseline'><strong>Odds are Orange</strong><p>Choose number of points to bet.</font><div class='respPicDiv'><img src='img/responseButtonOffersNo0L2.png' class='respPic'></div></div>","null","10","Odds are Orange","Fruit/orange.png","Lost","0.35,0.8","9","0.35","132","29","",""
"html-keyboard-response","96","147144","0.0-11.0-3.28","610c736500a4b33398fef94f","bdp_rwlrn","Sat Apr 08 2023 11:39:04 GMT-0400 (Eastern Daylight Time)","417421","Trustworthy,Untrustworthy","","null","","","","feedback","","<div class='respPicDiv'><img src='img/responseButtonOffersNo0_wht.png' class='respPic'></div><div class='trialDiv'><img src='Fruit/orange.png'><br><font class='baseline'><strong>Odds are Orange</strong><p><strong><font class='negOutcome'>You LOST</font><p>You bet: 2</strong></font> &nbsp; &nbsp; &nbsp; &nbsp; &nbsp; &nbsp;<font class='negOutcome'>You receive: <strong>0</strong></font></div>","null","10","Odds are Orange","Fruit/orange.png","Lost","0.35,0.8","9","0.35","132","29","",""
"html-keyboard-response","97","147821","0.0-11.0-1.29","610c736500a4b33398fef94f","bdp_rwlrn","Sat Apr 08 2023 11:39:04 GMT-0400 (Eastern Daylight Time)","417421","Trustworthy,Untrustworthy","","676","","","","decision","","<div class='trialDiv'><img src='Fruit/mango.png'><br><font class='baseline'><strong>Mega Mangos</strong><p>Choose number of points to bet.</font><div class='respPicDiv'><img src='img/responseButtonOffersNo0L.png' class='respPic'></div></div>","3","10","Mega Mangos","Fruit/mango.png","Lost","0.65,0.2","9","0.65","137","30","",""
"html-keyboard-response","98","148080","0.0-11.0-2.29","610c736500a4b33398fef94f","bdp_rwlrn","Sat Apr 08 2023 11:39:04 GMT-0400 (Eastern Daylight Time)","417421","Trustworthy,Untrustworthy","","null","","","","decisionFB","","<div class='trialDiv'><img src='Fruit/mango.png'><br><font class='baseline'><strong>Mega Mangos</strong><p>Choose number of points to bet.</font><div class='respPicDiv'><img src='img/responseButtonOffersNo0L3.png' class='respPic'></div></div>","null","10","Mega Mangos","Fruit/mango.png","Lost","0.65,0.2","9","0.65","134","30","",""
"html-keyboard-response","99","149083","0.0-11.0-3.29","610c736500a4b33398fef94f","bdp_rwlrn","Sat Apr 08 2023 11:39:04 GMT-0400 (Eastern Daylight Time)","417421","Trustworthy,Untrustworthy","","null","","","","feedback","","<div class='respPicDiv'><img src='img/responseButtonOffersNo0_wht.png' class='respPic'></div><div class='trialDiv'><img src='Fruit/mango.png'><br><font class='baseline'><strong>Mega Mangos</strong><p><strong><font class='negOutcome'>You LOST</font><p>You bet: 3</strong></font> &nbsp; &nbsp; &nbsp; &nbsp; &nbsp; &nbsp;<font class='negOutcome'>You receive: <strong>0</strong></font></div>","null","10","Mega Mangos","Fruit/mango.png","Lost","0.65,0.2","9","0.65","134","30","",""
"html-keyboard-response","100","149600","0.0-11.0-1.30","610c736500a4b33398fef94f","bdp_rwlrn","Sat Apr 08 2023 11:39:04 GMT-0400 (Eastern Daylight Time)","417421","Trustworthy,Untrustworthy","","515","","","","decision","","<div class='trialDiv'><img src='Fruit/orange.png'><br><font class='baseline'><strong>Odds are Orange</strong><p>Choose number of points to bet.</font><div class='respPicDiv'><img src='img/responseButtonOffersNo0L.png' class='respPic'></div></div>","2","11","Odds are Orange","Fruit/orange.png","Won","0.35,0.8","9","0.35","139","31","",""
"html-keyboard-response","101","149859","0.0-11.0-2.30","610c736500a4b33398fef94f","bdp_rwlrn","Sat Apr 08 2023 11:39:04 GMT-0400 (Eastern Daylight Time)","417421","Trustworthy,Untrustworthy","","null","","","","decisionFB","","<div class='trialDiv'><img src='Fruit/orange.png'><br><font class='baseline'><strong>Odds are Orange</strong><p>Choose number of points to bet.</font><div class='respPicDiv'><img src='img/responseButtonOffersNo0L2.png' class='respPic'></div></div>","null","11","Odds are Orange","Fruit/orange.png","Won","0.35,0.8","9","0.35","137","31","",""
"html-keyboard-response","102","150864","0.0-11.0-3.30","610c736500a4b33398fef94f","bdp_rwlrn","Sat Apr 08 2023 11:39:04 GMT-0400 (Eastern Daylight Time)","417421","Trustworthy,Untrustworthy","","null","","","","feedback","","<div class='respPicDiv'><img src='img/responseButtonOffersNo0_wht.png' class='respPic'></div><div class='trialDiv'><img src='Fruit/orange.png'><br><font class='baseline'><strong>Odds are Orange</strong><p><strong><font class='posOutcome'>You WON</font><p>You bet: 2</strong></font> &nbsp; &nbsp; &nbsp; &nbsp; &nbsp; &nbsp;<font class='posOutcome'>you receive: <strong>4</strong></font></div>","null","11","Odds are Orange","Fruit/orange.png","Won","0.35,0.8","9","0.35","141","31","",""
"html-keyboard-response","103","151755","0.0-11.0-1.31","610c736500a4b33398fef94f","bdp_rwlrn","Sat Apr 08 2023 11:39:04 GMT-0400 (Eastern Daylight Time)","417421","Trustworthy,Untrustworthy","","891","","","","decision","","<div class='trialDiv'><img src='Fruit/lime.png'><br><font class='baseline'><strong>Limin' Large</strong><p>Choose number of points to bet.</font><div class='respPicDiv'><img src='img/responseButtonOffersNo0L.png' class='respPic'></div></div>","2","11","Limin' Large","Fruit/lime.png","Lost","0.2,0.8","13","0.2","146","32","",""
"html-keyboard-response","104","152009","0.0-11.0-2.31","610c736500a4b33398fef94f","bdp_rwlrn","Sat Apr 08 2023 11:39:04 GMT-0400 (Eastern Daylight Time)","417421","Trustworthy,Untrustworthy","","null","","","","decisionFB","","<div class='trialDiv'><img src='Fruit/lime.png'><br><font class='baseline'><strong>Limin' Large</strong><p>Choose number of points to bet.</font><div class='respPicDiv'><img src='img/responseButtonOffersNo0L2.png' class='respPic'></div></div>","null","11","Limin' Large","Fruit/lime.png","Lost","0.2,0.8","13","0.2","144","32","",""
"html-keyboard-response","105","153011","0.0-11.0-3.31","610c736500a4b33398fef94f","bdp_rwlrn","Sat Apr 08 2023 11:39:04 GMT-0400 (Eastern Daylight Time)","417421","Trustworthy,Untrustworthy","","null","","","","feedback","","<div class='respPicDiv'><img src='img/responseButtonOffersNo0_wht.png' class='respPic'></div><div class='trialDiv'><img src='Fruit/lime.png'><br><font class='baseline'><strong>Limin' Large</strong><p><strong><font class='negOutcome'>You LOST</font><p>You bet: 2</strong></font> &nbsp; &nbsp; &nbsp; &nbsp; &nbsp; &nbsp;<font class='negOutcome'>You receive: <strong>0</strong></font></div>","null","11","Limin' Large","Fruit/lime.png","Lost","0.2,0.8","13","0.2","144","32","",""
"html-keyboard-response","106","154206","0.0-11.0-1.32","610c736500a4b33398fef94f","bdp_rwlrn","Sat Apr 08 2023 11:39:04 GMT-0400 (Eastern Daylight Time)","417421","Trustworthy,Untrustworthy","","1193","","","","decision","","<div class='trialDiv'><img src='Fruit/mango.png'><br><font class='baseline'><strong>Mega Mangos</strong><p>Choose number of points to bet.</font><div class='respPicDiv'><img src='img/responseButtonOffersNo0L.png' class='respPic'></div></div>","3","11","Mega Mangos","Fruit/mango.png","Won","0.65,0.2","9","0.65","149","33","",""
"html-keyboard-response","107","154470","0.0-11.0-2.32","610c736500a4b33398fef94f","bdp_rwlrn","Sat Apr 08 2023 11:39:04 GMT-0400 (Eastern Daylight Time)","417421","Trustworthy,Untrustworthy","","null","","","","decisionFB","","<div class='trialDiv'><img src='Fruit/mango.png'><br><font class='baseline'><strong>Mega Mangos</strong><p>Choose number of points to bet.</font><div class='respPicDiv'><img src='img/responseButtonOffersNo0L3.png' class='respPic'></div></div>","null","11","Mega Mangos","Fruit/mango.png","Won","0.65,0.2","9","0.65","146","33","",""
"html-keyboard-response","108","155484","0.0-11.0-3.32","610c736500a4b33398fef94f","bdp_rwlrn","Sat Apr 08 2023 11:39:04 GMT-0400 (Eastern Daylight Time)","417421","Trustworthy,Untrustworthy","","null","","","","feedback","","<div class='respPicDiv'><img src='img/responseButtonOffersNo0_wht.png' class='respPic'></div><div class='trialDiv'><img src='Fruit/mango.png'><br><font class='baseline'><strong>Mega Mangos</strong><p><strong><font class='posOutcome'>You WON</font><p>You bet: 3</strong></font> &nbsp; &nbsp; &nbsp; &nbsp; &nbsp; &nbsp;<font class='posOutcome'>you receive: <strong>6</strong></font></div>","null","11","Mega Mangos","Fruit/mango.png","Won","0.65,0.2","9","0.65","152","33","",""
"html-keyboard-response","109","156146","0.0-11.0-1.33","610c736500a4b33398fef94f","bdp_rwlrn","Sat Apr 08 2023 11:39:04 GMT-0400 (Eastern Daylight Time)","417421","Trustworthy,Untrustworthy","","660","","","","decision","","<div class='trialDiv'><img src='Fruit/orange.png'><br><font class='baseline'><strong>Odds are Orange</strong><p>Choose number of points to bet.</font><div class='respPicDiv'><img src='img/responseButtonOffersNo0L.png' class='respPic'></div></div>","3","12","Odds are Orange","Fruit/orange.png","Won","0.35,0.8","9","0.35","157","34","",""
"html-keyboard-response","110","156404","0.0-11.0-2.33","610c736500a4b33398fef94f","bdp_rwlrn","Sat Apr 08 2023 11:39:04 GMT-0400 (Eastern Daylight Time)","417421","Trustworthy,Untrustworthy","","null","","","","decisionFB","","<div class='trialDiv'><img src='Fruit/orange.png'><br><font class='baseline'><strong>Odds are Orange</strong><p>Choose number of points to bet.</font><div class='respPicDiv'><img src='img/responseButtonOffersNo0L3.png' class='respPic'></div></div>","null","12","Odds are Orange","Fruit/orange.png","Won","0.35,0.8","9","0.35","154","34","",""
"html-keyboard-response","111","157406","0.0-11.0-3.33","610c736500a4b33398fef94f","bdp_rwlrn","Sat Apr 08 2023 11:39:04 GMT-0400 (Eastern Daylight Time)","417421","Trustworthy,Untrustworthy","","null","","","","feedback","","<div class='respPicDiv'><img src='img/responseButtonOffersNo0_wht.png' class='respPic'></div><div class='trialDiv'><img src='Fruit/orange.png'><br><font class='baseline'><strong>Odds are Orange</strong><p><strong><font class='posOutcome'>You WON</font><p>You bet: 3</strong></font> &nbsp; &nbsp; &nbsp; &nbsp; &nbsp; &nbsp;<font class='posOutcome'>you receive: <strong>6</strong></font></div>","null","12","Odds are Orange","Fruit/orange.png","Won","0.35,0.8","9","0.35","160","34","",""
"html-keyboard-response","112","158857","0.0-11.0-1.34","610c736500a4b33398fef94f","bdp_rwlrn","Sat Apr 08 2023 11:39:04 GMT-0400 (Eastern Daylight Time)","417421","Trustworthy,Untrustworthy","","1449","","","","decision","","<div class='trialDiv'><img src='Fruit/mango.png'><br><font class='baseline'><strong>Mega Mangos</strong><p>Choose number of points to bet.</font><div class='respPicDiv'><img src='img/responseButtonOffersNo0L.png' class='respPic'></div></div>","3","12","Mega Mangos","Fruit/mango.png","Lost","0.65,0.2","9","0.65","165","35","",""
"html-keyboard-response","113","159117","0.0-11.0-2.34","610c736500a4b33398fef94f","bdp_rwlrn","Sat Apr 08 2023 11:39:04 GMT-0400 (Eastern Daylight Time)","417421","Trustworthy,Untrustworthy","","null","","","","decisionFB","","<div class='trialDiv'><img src='Fruit/mango.png'><br><font class='baseline'><strong>Mega Mangos</strong><p>Choose number of points to bet.</font><div class='respPicDiv'><img src='img/responseButtonOffersNo0L3.png' class='respPic'></div></div>","null","12","Mega Mangos","Fruit/mango.png","Lost","0.65,0.2","9","0.65","162","35","",""
"html-keyboard-response","114","160123","0.0-11.0-3.34","610c736500a4b33398fef94f","bdp_rwlrn","Sat Apr 08 2023 11:39:04 GMT-0400 (Eastern Daylight Time)","417421","Trustworthy,Untrustworthy","","null","","","","feedback","","<div class='respPicDiv'><img src='img/responseButtonOffersNo0_wht.png' class='respPic'></div><div class='trialDiv'><img src='Fruit/mango.png'><br><font class='baseline'><strong>Mega Mangos</strong><p><strong><font class='negOutcome'>You LOST</font><p>You bet: 3</strong></font> &nbsp; &nbsp; &nbsp; &nbsp; &nbsp; &nbsp;<font class='negOutcome'>You receive: <strong>0</strong></font></div>","null","12","Mega Mangos","Fruit/mango.png","Lost","0.65,0.2","9","0.65","162","35","",""
"html-keyboard-response","115","160660","0.0-11.0-1.35","610c736500a4b33398fef94f","bdp_rwlrn","Sat Apr 08 2023 11:39:04 GMT-0400 (Eastern Daylight Time)","417421","Trustworthy,Untrustworthy","","534","","","","decision","","<div class='trialDiv'><img src='Fruit/lime.png'><br><font class='baseline'><strong>Limin' Large</strong><p>Choose number of points to bet.</font><div class='respPicDiv'><img src='img/responseButtonOffersNo0L.png' class='respPic'></div></div>","2","12","Limin' Large","Fruit/lime.png","Lost","0.2,0.8","13","0.2","167","36","",""
"html-keyboard-response","116","160917","0.0-11.0-2.35","610c736500a4b33398fef94f","bdp_rwlrn","Sat Apr 08 2023 11:39:04 GMT-0400 (Eastern Daylight Time)","417421","Trustworthy,Untrustworthy","","null","","","","decisionFB","","<div class='trialDiv'><img src='Fruit/lime.png'><br><font class='baseline'><strong>Limin' Large</strong><p>Choose number of points to bet.</font><div class='respPicDiv'><img src='img/responseButtonOffersNo0L2.png' class='respPic'></div></div>","null","12","Limin' Large","Fruit/lime.png","Lost","0.2,0.8","13","0.2","165","36","",""
"html-keyboard-response","117","161929","0.0-11.0-3.35","610c736500a4b33398fef94f","bdp_rwlrn","Sat Apr 08 2023 11:39:04 GMT-0400 (Eastern Daylight Time)","417421","Trustworthy,Untrustworthy","","null","","","","feedback","","<div class='respPicDiv'><img src='img/responseButtonOffersNo0_wht.png' class='respPic'></div><div class='trialDiv'><img src='Fruit/lime.png'><br><font class='baseline'><strong>Limin' Large</strong><p><strong><font class='negOutcome'>You LOST</font><p>You bet: 2</strong></font> &nbsp; &nbsp; &nbsp; &nbsp; &nbsp; &nbsp;<font class='negOutcome'>You receive: <strong>0</strong></font></div>","null","12","Limin' Large","Fruit/lime.png","Lost","0.2,0.8","13","0.2","165","36","",""
"html-keyboard-response","118","163556","0.0-11.0-1.36","610c736500a4b33398fef94f","bdp_rwlrn","Sat Apr 08 2023 11:39:04 GMT-0400 (Eastern Daylight Time)","417421","Trustworthy,Untrustworthy","","1626","","","","decision","","<div class='trialDiv'><img src='Fruit/mango.png'><br><font class='baseline'><strong>Mega Mangos</strong><p>Choose number of points to bet.</font><div class='respPicDiv'><img src='img/responseButtonOffersNo0L.png' class='respPic'></div></div>","3","13","Mega Mangos","Fruit/mango.png","Lost","0.65,0.2","9","0.65","170","37","",""
"html-keyboard-response","119","163816","0.0-11.0-2.36","610c736500a4b33398fef94f","bdp_rwlrn","Sat Apr 08 2023 11:39:04 GMT-0400 (Eastern Daylight Time)","417421","Trustworthy,Untrustworthy","","null","","","","decisionFB","","<div class='trialDiv'><img src='Fruit/mango.png'><br><font class='baseline'><strong>Mega Mangos</strong><p>Choose number of points to bet.</font><div class='respPicDiv'><img src='img/responseButtonOffersNo0L3.png' class='respPic'></div></div>","null","13","Mega Mangos","Fruit/mango.png","Lost","0.65,0.2","9","0.65","167","37","",""
"html-keyboard-response","120","164823","0.0-11.0-3.36","610c736500a4b33398fef94f","bdp_rwlrn","Sat Apr 08 2023 11:39:04 GMT-0400 (Eastern Daylight Time)","417421","Trustworthy,Untrustworthy","","null","","","","feedback","","<div class='respPicDiv'><img src='img/responseButtonOffersNo0_wht.png' class='respPic'></div><div class='trialDiv'><img src='Fruit/mango.png'><br><font class='baseline'><strong>Mega Mangos</strong><p><strong><font class='negOutcome'>You LOST</font><p>You bet: 3</strong></font> &nbsp; &nbsp; &nbsp; &nbsp; &nbsp; &nbsp;<font class='negOutcome'>You receive: <strong>0</strong></font></div>","null","13","Mega Mangos","Fruit/mango.png","Lost","0.65,0.2","9","0.65","167","37","",""
"html-keyboard-response","121","165286","0.0-11.0-1.37","610c736500a4b33398fef94f","bdp_rwlrn","Sat Apr 08 2023 11:39:04 GMT-0400 (Eastern Daylight Time)","417421","Trustworthy,Untrustworthy","","462","","","","decision","","<div class='trialDiv'><img src='Fruit/lime.png'><br><font class='baseline'><strong>Limin' Large</strong><p>Choose number of points to bet.</font><div class='respPicDiv'><img src='img/responseButtonOffersNo0L.png' class='respPic'></div></div>","2","13","Limin' Large","Fruit/lime.png","Won","0.2,0.8","13","0.2","172","38","",""
"html-keyboard-response","122","165553","0.0-11.0-2.37","610c736500a4b33398fef94f","bdp_rwlrn","Sat Apr 08 2023 11:39:04 GMT-0400 (Eastern Daylight Time)","417421","Trustworthy,Untrustworthy","","null","","","","decisionFB","","<div class='trialDiv'><img src='Fruit/lime.png'><br><font class='baseline'><strong>Limin' Large</strong><p>Choose number of points to bet.</font><div class='respPicDiv'><img src='img/responseButtonOffersNo0L2.png' class='respPic'></div></div>","null","13","Limin' Large","Fruit/lime.png","Won","0.2,0.8","13","0.2","170","38","",""
"html-keyboard-response","123","166564","0.0-11.0-3.37","610c736500a4b33398fef94f","bdp_rwlrn","Sat Apr 08 2023 11:39:04 GMT-0400 (Eastern Daylight Time)","417421","Trustworthy,Untrustworthy","","null","","","","feedback","","<div class='respPicDiv'><img src='img/responseButtonOffersNo0_wht.png' class='respPic'></div><div class='trialDiv'><img src='Fruit/lime.png'><br><font class='baseline'><strong>Limin' Large</strong><p><strong><font class='posOutcome'>You WON</font><p>You bet: 2</strong></font> &nbsp; &nbsp; &nbsp; &nbsp; &nbsp; &nbsp;<font class='posOutcome'>you receive: <strong>4</strong></font></div>","null","13","Limin' Large","Fruit/lime.png","Won","0.2,0.8","13","0.2","174","38","",""
"html-keyboard-response","124","167190","0.0-11.0-1.38","610c736500a4b33398fef94f","bdp_rwlrn","Sat Apr 08 2023 11:39:04 GMT-0400 (Eastern Daylight Time)","417421","Trustworthy,Untrustworthy","","625","","","","decision","","<div class='trialDiv'><img src='Fruit/orange.png'><br><font class='baseline'><strong>Odds are Orange</strong><p>Choose number of points to bet.</font><div class='respPicDiv'><img src='img/responseButtonOffersNo0L.png' class='respPic'></div></div>","2","13","Odds are Orange","Fruit/orange.png","Won","0.35,0.8","9","0.35","179","39","",""
"html-keyboard-response","125","167449","0.0-11.0-2.38","610c736500a4b33398fef94f","bdp_rwlrn","Sat Apr 08 2023 11:39:04 GMT-0400 (Eastern Daylight Time)","417421","Trustworthy,Untrustworthy","","null","","","","decisionFB","","<div class='trialDiv'><img src='Fruit/orange.png'><br><font class='baseline'><strong>Odds are Orange</strong><p>Choose number of points to bet.</font><div class='respPicDiv'><img src='img/responseButtonOffersNo0L2.png' class='respPic'></div></div>","null","13","Odds are Orange","Fruit/orange.png","Won","0.35,0.8","9","0.35","177","39","",""
"html-keyboard-response","126","168465","0.0-11.0-3.38","610c736500a4b33398fef94f","bdp_rwlrn","Sat Apr 08 2023 11:39:04 GMT-0400 (Eastern Daylight Time)","417421","Trustworthy,Untrustworthy","","null","","","","feedback","","<div class='respPicDiv'><img src='img/responseButtonOffersNo0_wht.png' class='respPic'></div><div class='trialDiv'><img src='Fruit/orange.png'><br><font class='baseline'><strong>Odds are Orange</strong><p><strong><font class='posOutcome'>You WON</font><p>You bet: 2</strong></font> &nbsp; &nbsp; &nbsp; &nbsp; &nbsp; &nbsp;<font class='posOutcome'>you receive: <strong>4</strong></font></div>","null","13","Odds are Orange","Fruit/orange.png","Won","0.35,0.8","9","0.35","181","39","",""
"html-keyboard-response","127","169465","0.0-11.0-1.39","610c736500a4b33398fef94f","bdp_rwlrn","Sat Apr 08 2023 11:39:04 GMT-0400 (Eastern Daylight Time)","417421","Trustworthy,Untrustworthy","","998","","","","decision","","<div class='trialDiv'><img src='Fruit/mango.png'><br><font class='baseline'><strong>Mega Mangos</strong><p>Choose number of points to bet.</font><div class='respPicDiv'><img src='img/responseButtonOffersNo0L.png' class='respPic'></div></div>","2","14","Mega Mangos","Fruit/mango.png","Lost","0.65,0.2","9","0.65","186","40","",""
"html-keyboard-response","128","169720","0.0-11.0-2.39","610c736500a4b33398fef94f","bdp_rwlrn","Sat Apr 08 2023 11:39:04 GMT-0400 (Eastern Daylight Time)","417421","Trustworthy,Untrustworthy","","null","","","","decisionFB","","<div class='trialDiv'><img src='Fruit/mango.png'><br><font class='baseline'><strong>Mega Mangos</strong><p>Choose number of points to bet.</font><div class='respPicDiv'><img src='img/responseButtonOffersNo0L2.png' class='respPic'></div></div>","null","14","Mega Mangos","Fruit/mango.png","Lost","0.65,0.2","9","0.65","184","40","",""
"html-keyboard-response","129","170732","0.0-11.0-3.39","610c736500a4b33398fef94f","bdp_rwlrn","Sat Apr 08 2023 11:39:04 GMT-0400 (Eastern Daylight Time)","417421","Trustworthy,Untrustworthy","","null","","","","feedback","","<div class='respPicDiv'><img src='img/responseButtonOffersNo0_wht.png' class='respPic'></div><div class='trialDiv'><img src='Fruit/mango.png'><br><font class='baseline'><strong>Mega Mangos</strong><p><strong><font class='negOutcome'>You LOST</font><p>You bet: 2</strong></font> &nbsp; &nbsp; &nbsp; &nbsp; &nbsp; &nbsp;<font class='negOutcome'>You receive: <strong>0</strong></font></div>","null","14","Mega Mangos","Fruit/mango.png","Lost","0.65,0.2","9","0.65","184","40","",""
"html-keyboard-response","130","171564","0.0-11.0-1.40","610c736500a4b33398fef94f","bdp_rwlrn","Sat Apr 08 2023 11:39:04 GMT-0400 (Eastern Daylight Time)","417421","Trustworthy,Untrustworthy","","832","","","","decision","","<div class='trialDiv'><img src='Fruit/orange.png'><br><font class='baseline'><strong>Odds are Orange</strong><p>Choose number of points to bet.</font><div class='respPicDiv'><img src='img/responseButtonOffersNo0L.png' class='respPic'></div></div>","3","14","Odds are Orange","Fruit/orange.png","Won","0.35,0.8","9","0.35","189","41","",""
"html-keyboard-response","131","171816","0.0-11.0-2.40","610c736500a4b33398fef94f","bdp_rwlrn","Sat Apr 08 2023 11:39:04 GMT-0400 (Eastern Daylight Time)","417421","Trustworthy,Untrustworthy","","null","","","","decisionFB","","<div class='trialDiv'><img src='Fruit/orange.png'><br><font class='baseline'><strong>Odds are Orange</strong><p>Choose number of points to bet.</font><div class='respPicDiv'><img src='img/responseButtonOffersNo0L3.png' class='respPic'></div></div>","null","14","Odds are Orange","Fruit/orange.png","Won","0.35,0.8","9","0.35","186","41","",""
"html-keyboard-response","132","172827","0.0-11.0-3.40","610c736500a4b33398fef94f","bdp_rwlrn","Sat Apr 08 2023 11:39:04 GMT-0400 (Eastern Daylight Time)","417421","Trustworthy,Untrustworthy","","null","","","","feedback","","<div class='respPicDiv'><img src='img/responseButtonOffersNo0_wht.png' class='respPic'></div><div class='trialDiv'><img src='Fruit/orange.png'><br><font class='baseline'><strong>Odds are Orange</strong><p><strong><font class='posOutcome'>You WON</font><p>You bet: 3</strong></font> &nbsp; &nbsp; &nbsp; &nbsp; &nbsp; &nbsp;<font class='posOutcome'>you receive: <strong>6</strong></font></div>","null","14","Odds are Orange","Fruit/orange.png","Won","0.35,0.8","9","0.35","192","41","",""
"html-keyboard-response","133","173330","0.0-11.0-1.41","610c736500a4b33398fef94f","bdp_rwlrn","Sat Apr 08 2023 11:39:04 GMT-0400 (Eastern Daylight Time)","417421","Trustworthy,Untrustworthy","","502","","","","decision","","<div class='trialDiv'><img src='Fruit/lime.png'><br><font class='baseline'><strong>Limin' Large</strong><p>Choose number of points to bet.</font><div class='respPicDiv'><img src='img/responseButtonOffersNo0L.png' class='respPic'></div></div>","2","14","Limin' Large","Fruit/lime.png","Won","0.2,0.8","13","0.2","197","42","",""
"html-keyboard-response","134","173595","0.0-11.0-2.41","610c736500a4b33398fef94f","bdp_rwlrn","Sat Apr 08 2023 11:39:04 GMT-0400 (Eastern Daylight Time)","417421","Trustworthy,Untrustworthy","","null","","","","decisionFB","","<div class='trialDiv'><img src='Fruit/lime.png'><br><font class='baseline'><strong>Limin' Large</strong><p>Choose number of points to bet.</font><div class='respPicDiv'><img src='img/responseButtonOffersNo0L2.png' class='respPic'></div></div>","null","14","Limin' Large","Fruit/lime.png","Won","0.2,0.8","13","0.2","195","42","",""
"html-keyboard-response","135","174600","0.0-11.0-3.41","610c736500a4b33398fef94f","bdp_rwlrn","Sat Apr 08 2023 11:39:04 GMT-0400 (Eastern Daylight Time)","417421","Trustworthy,Untrustworthy","","null","","","","feedback","","<div class='respPicDiv'><img src='img/responseButtonOffersNo0_wht.png' class='respPic'></div><div class='trialDiv'><img src='Fruit/lime.png'><br><font class='baseline'><strong>Limin' Large</strong><p><strong><font class='posOutcome'>You WON</font><p>You bet: 2</strong></font> &nbsp; &nbsp; &nbsp; &nbsp; &nbsp; &nbsp;<font class='posOutcome'>you receive: <strong>4</strong></font></div>","null","14","Limin' Large","Fruit/lime.png","Won","0.2,0.8","13","0.2","199","42","",""
"html-keyboard-response","136","175797","0.0-11.0-1.42","610c736500a4b33398fef94f","bdp_rwlrn","Sat Apr 08 2023 11:39:04 GMT-0400 (Eastern Daylight Time)","417421","Trustworthy,Untrustworthy","","1196","","","","decision","","<div class='trialDiv'><img src='Fruit/orange.png'><br><font class='baseline'><strong>Odds are Orange</strong><p>Choose number of points to bet.</font><div class='respPicDiv'><img src='img/responseButtonOffersNo0L.png' class='respPic'></div></div>","4","15","Odds are Orange","Fruit/orange.png","Won","0.35,0.8","9","0.35","204","43","",""
"html-keyboard-response","137","176061","0.0-11.0-2.42","610c736500a4b33398fef94f","bdp_rwlrn","Sat Apr 08 2023 11:39:04 GMT-0400 (Eastern Daylight Time)","417421","Trustworthy,Untrustworthy","","null","","","","decisionFB","","<div class='trialDiv'><img src='Fruit/orange.png'><br><font class='baseline'><strong>Odds are Orange</strong><p>Choose number of points to bet.</font><div class='respPicDiv'><img src='img/responseButtonOffersNo0L4.png' class='respPic'></div></div>","null","15","Odds are Orange","Fruit/orange.png","Won","0.35,0.8","9","0.35","200","43","",""
"html-keyboard-response","138","177067","0.0-11.0-3.42","610c736500a4b33398fef94f","bdp_rwlrn","Sat Apr 08 2023 11:39:04 GMT-0400 (Eastern Daylight Time)","417421","Trustworthy,Untrustworthy","","null","","","","feedback","","<div class='respPicDiv'><img src='img/responseButtonOffersNo0_wht.png' class='respPic'></div><div class='trialDiv'><img src='Fruit/orange.png'><br><font class='baseline'><strong>Odds are Orange</strong><p><strong><font class='posOutcome'>You WON</font><p>You bet: 4</strong></font> &nbsp; &nbsp; &nbsp; &nbsp; &nbsp; &nbsp;<font class='posOutcome'>you receive: <strong>8</strong></font></div>","null","15","Odds are Orange","Fruit/orange.png","Won","0.35,0.8","9","0.35","208","43","",""
"html-keyboard-response","139","178101","0.0-11.0-1.43","610c736500a4b33398fef94f","bdp_rwlrn","Sat Apr 08 2023 11:39:04 GMT-0400 (Eastern Daylight Time)","417421","Trustworthy,Untrustworthy","","1033","","","","decision","","<div class='trialDiv'><img src='Fruit/mango.png'><br><font class='baseline'><strong>Mega Mangos</strong><p>Choose number of points to bet.</font><div class='respPicDiv'><img src='img/responseButtonOffersNo0L.png' class='respPic'></div></div>","3","15","Mega Mangos","Fruit/mango.png","Lost","0.65,0.2","9","0.65","213","44","",""
"html-keyboard-response","140","178358","0.0-11.0-2.43","610c736500a4b33398fef94f","bdp_rwlrn","Sat Apr 08 2023 11:39:04 GMT-0400 (Eastern Daylight Time)","417421","Trustworthy,Untrustworthy","","null","","","","decisionFB","","<div class='trialDiv'><img src='Fruit/mango.png'><br><font class='baseline'><strong>Mega Mangos</strong><p>Choose number of points to bet.</font><div class='respPicDiv'><img src='img/responseButtonOffersNo0L3.png' class='respPic'></div></div>","null","15","Mega Mangos","Fruit/mango.png","Lost","0.65,0.2","9","0.65","210","44","",""
"html-keyboard-response","141","179366","0.0-11.0-3.43","610c736500a4b33398fef94f","bdp_rwlrn","Sat Apr 08 2023 11:39:04 GMT-0400 (Eastern Daylight Time)","417421","Trustworthy,Untrustworthy","","null","","","","feedback","","<div class='respPicDiv'><img src='img/responseButtonOffersNo0_wht.png' class='respPic'></div><div class='trialDiv'><img src='Fruit/mango.png'><br><font class='baseline'><strong>Mega Mangos</strong><p><strong><font class='negOutcome'>You LOST</font><p>You bet: 3</strong></font> &nbsp; &nbsp; &nbsp; &nbsp; &nbsp; &nbsp;<font class='negOutcome'>You receive: <strong>0</strong></font></div>","null","15","Mega Mangos","Fruit/mango.png","Lost","0.65,0.2","9","0.65","210","44","",""
"html-keyboard-response","142","180032","0.0-11.0-1.44","610c736500a4b33398fef94f","bdp_rwlrn","Sat Apr 08 2023 11:39:04 GMT-0400 (Eastern Daylight Time)","417421","Trustworthy,Untrustworthy","","663","","","","decision","","<div class='trialDiv'><img src='Fruit/lime.png'><br><font class='baseline'><strong>Limin' Large</strong><p>Choose number of points to bet.</font><div class='respPicDiv'><img src='img/responseButtonOffersNo0L.png' class='respPic'></div></div>","2","15","Limin' Large","Fruit/lime.png","Won","0.2,0.8","13","0.2","215","45","",""
"html-keyboard-response","143","180295","0.0-11.0-2.44","610c736500a4b33398fef94f","bdp_rwlrn","Sat Apr 08 2023 11:39:04 GMT-0400 (Eastern Daylight Time)","417421","Trustworthy,Untrustworthy","","null","","","","decisionFB","","<div class='trialDiv'><img src='Fruit/lime.png'><br><font class='baseline'><strong>Limin' Large</strong><p>Choose number of points to bet.</font><div class='respPicDiv'><img src='img/responseButtonOffersNo0L2.png' class='respPic'></div></div>","null","15","Limin' Large","Fruit/lime.png","Won","0.2,0.8","13","0.2","213","45","",""
"html-keyboard-response","144","181313","0.0-11.0-3.44","610c736500a4b33398fef94f","bdp_rwlrn","Sat Apr 08 2023 11:39:04 GMT-0400 (Eastern Daylight Time)","417421","Trustworthy,Untrustworthy","","null","","","","feedback","","<div class='respPicDiv'><img src='img/responseButtonOffersNo0_wht.png' class='respPic'></div><div class='trialDiv'><img src='Fruit/lime.png'><br><font class='baseline'><strong>Limin' Large</strong><p><strong><font class='posOutcome'>You WON</font><p>You bet: 2</strong></font> &nbsp; &nbsp; &nbsp; &nbsp; &nbsp; &nbsp;<font class='posOutcome'>you receive: <strong>4</strong></font></div>","null","15","Limin' Large","Fruit/lime.png","Won","0.2,0.8","13","0.2","217","45","",""
"html-keyboard-response","145","181945","0.0-11.0-1.45","610c736500a4b33398fef94f","bdp_rwlrn","Sat Apr 08 2023 11:39:04 GMT-0400 (Eastern Daylight Time)","417421","Trustworthy,Untrustworthy","","630","","","","decision","","<div class='trialDiv'><img src='Fruit/orange.png'><br><font class='baseline'><strong>Odds are Orange</strong><p>Choose number of points to bet.</font><div class='respPicDiv'><img src='img/responseButtonOffersNo0L.png' class='respPic'></div></div>","4","16","Odds are Orange","Fruit/orange.png","Won","0.35,0.8","9","0.35","222","46","",""
"html-keyboard-response","146","182202","0.0-11.0-2.45","610c736500a4b33398fef94f","bdp_rwlrn","Sat Apr 08 2023 11:39:04 GMT-0400 (Eastern Daylight Time)","417421","Trustworthy,Untrustworthy","","null","","","","decisionFB","","<div class='trialDiv'><img src='Fruit/orange.png'><br><font class='baseline'><strong>Odds are Orange</strong><p>Choose number of points to bet.</font><div class='respPicDiv'><img src='img/responseButtonOffersNo0L4.png' class='respPic'></div></div>","null","16","Odds are Orange","Fruit/orange.png","Won","0.35,0.8","9","0.35","218","46","",""
"html-keyboard-response","147","183205","0.0-11.0-3.45","610c736500a4b33398fef94f","bdp_rwlrn","Sat Apr 08 2023 11:39:04 GMT-0400 (Eastern Daylight Time)","417421","Trustworthy,Untrustworthy","","null","","","","feedback","","<div class='respPicDiv'><img src='img/responseButtonOffersNo0_wht.png' class='respPic'></div><div class='trialDiv'><img src='Fruit/orange.png'><br><font class='baseline'><strong>Odds are Orange</strong><p><strong><font class='posOutcome'>You WON</font><p>You bet: 4</strong></font> &nbsp; &nbsp; &nbsp; &nbsp; &nbsp; &nbsp;<font class='posOutcome'>you receive: <strong>8</strong></font></div>","null","16","Odds are Orange","Fruit/orange.png","Won","0.35,0.8","9","0.35","226","46","",""
"html-keyboard-response","148","184363","0.0-11.0-1.46","610c736500a4b33398fef94f","bdp_rwlrn","Sat Apr 08 2023 11:39:04 GMT-0400 (Eastern Daylight Time)","417421","Trustworthy,Untrustworthy","","1156","","","","decision","","<div class='trialDiv'><img src='Fruit/mango.png'><br><font class='baseline'><strong>Mega Mangos</strong><p>Choose number of points to bet.</font><div class='respPicDiv'><img src='img/responseButtonOffersNo0L.png' class='respPic'></div></div>","3","16","Mega Mangos","Fruit/mango.png","Won","0.65,0.2","9","0.65","231","47","",""
"html-keyboard-response","149","184625","0.0-11.0-2.46","610c736500a4b33398fef94f","bdp_rwlrn","Sat Apr 08 2023 11:39:04 GMT-0400 (Eastern Daylight Time)","417421","Trustworthy,Untrustworthy","","null","","","","decisionFB","","<div class='trialDiv'><img src='Fruit/mango.png'><br><font class='baseline'><strong>Mega Mangos</strong><p>Choose number of points to bet.</font><div class='respPicDiv'><img src='img/responseButtonOffersNo0L3.png' class='respPic'></div></div>","null","16","Mega Mangos","Fruit/mango.png","Won","0.65,0.2","9","0.65","228","47","",""
"html-keyboard-response","150","185628","0.0-11.0-3.46","610c736500a4b33398fef94f","bdp_rwlrn","Sat Apr 08 2023 11:39:04 GMT-0400 (Eastern Daylight Time)","417421","Trustworthy,Untrustworthy","","null","","","","feedback","","<div class='respPicDiv'><img src='img/responseButtonOffersNo0_wht.png' class='respPic'></div><div class='trialDiv'><img src='Fruit/mango.png'><br><font class='baseline'><strong>Mega Mangos</strong><p><strong><font class='posOutcome'>You WON</font><p>You bet: 3</strong></font> &nbsp; &nbsp; &nbsp; &nbsp; &nbsp; &nbsp;<font class='posOutcome'>you receive: <strong>6</strong></font></div>","null","16","Mega Mangos","Fruit/mango.png","Won","0.65,0.2","9","0.65","234","47","",""
"html-keyboard-response","151","186295","0.0-11.0-1.47","610c736500a4b33398fef94f","bdp_rwlrn","Sat Apr 08 2023 11:39:04 GMT-0400 (Eastern Daylight Time)","417421","Trustworthy,Untrustworthy","","665","","","","decision","","<div class='trialDiv'><img src='Fruit/lime.png'><br><font class='baseline'><strong>Limin' Large</strong><p>Choose number of points to bet.</font><div class='respPicDiv'><img src='img/responseButtonOffersNo0L.png' class='respPic'></div></div>","2","16","Limin' Large","Fruit/lime.png","Won","0.2,0.8","13","0.2","239","48","",""
"html-keyboard-response","152","186547","0.0-11.0-2.47","610c736500a4b33398fef94f","bdp_rwlrn","Sat Apr 08 2023 11:39:04 GMT-0400 (Eastern Daylight Time)","417421","Trustworthy,Untrustworthy","","null","","","","decisionFB","","<div class='trialDiv'><img src='Fruit/lime.png'><br><font class='baseline'><strong>Limin' Large</strong><p>Choose number of points to bet.</font><div class='respPicDiv'><img src='img/responseButtonOffersNo0L2.png' class='respPic'></div></div>","null","16","Limin' Large","Fruit/lime.png","Won","0.2,0.8","13","0.2","237","48","",""
"html-keyboard-response","153","187549","0.0-11.0-3.47","610c736500a4b33398fef94f","bdp_rwlrn","Sat Apr 08 2023 11:39:04 GMT-0400 (Eastern Daylight Time)","417421","Trustworthy,Untrustworthy","","null","","","","feedback","","<div class='respPicDiv'><img src='img/responseButtonOffersNo0_wht.png' class='respPic'></div><div class='trialDiv'><img src='Fruit/lime.png'><br><font class='baseline'><strong>Limin' Large</strong><p><strong><font class='posOutcome'>You WON</font><p>You bet: 2</strong></font> &nbsp; &nbsp; &nbsp; &nbsp; &nbsp; &nbsp;<font class='posOutcome'>you receive: <strong>4</strong></font></div>","null","16","Limin' Large","Fruit/lime.png","Won","0.2,0.8","13","0.2","241","48","",""
"html-keyboard-response","154","188477","0.0-11.0-1.48","610c736500a4b33398fef94f","bdp_rwlrn","Sat Apr 08 2023 11:39:04 GMT-0400 (Eastern Daylight Time)","417421","Trustworthy,Untrustworthy","","927","","","","decision","","<div class='trialDiv'><img src='Fruit/mango.png'><br><font class='baseline'><strong>Mega Mangos</strong><p>Choose number of points to bet.</font><div class='respPicDiv'><img src='img/responseButtonOffersNo0L.png' class='respPic'></div></div>","3","17","Mega Mangos","Fruit/mango.png","Lost","0.65,0.2","9","0.65","246","49","",""
"html-keyboard-response","155","188728","0.0-11.0-2.48","610c736500a4b33398fef94f","bdp_rwlrn","Sat Apr 08 2023 11:39:04 GMT-0400 (Eastern Daylight Time)","417421","Trustworthy,Untrustworthy","","null","","","","decisionFB","","<div class='trialDiv'><img src='Fruit/mango.png'><br><font class='baseline'><strong>Mega Mangos</strong><p>Choose number of points to bet.</font><div class='respPicDiv'><img src='img/responseButtonOffersNo0L3.png' class='respPic'></div></div>","null","17","Mega Mangos","Fruit/mango.png","Lost","0.65,0.2","9","0.65","243","49","",""
"html-keyboard-response","156","189738","0.0-11.0-3.48","610c736500a4b33398fef94f","bdp_rwlrn","Sat Apr 08 2023 11:39:04 GMT-0400 (Eastern Daylight Time)","417421","Trustworthy,Untrustworthy","","null","","","","feedback","","<div class='respPicDiv'><img src='img/responseButtonOffersNo0_wht.png' class='respPic'></div><div class='trialDiv'><img src='Fruit/mango.png'><br><font class='baseline'><strong>Mega Mangos</strong><p><strong><font class='negOutcome'>You LOST</font><p>You bet: 3</strong></font> &nbsp; &nbsp; &nbsp; &nbsp; &nbsp; &nbsp;<font class='negOutcome'>You receive: <strong>0</strong></font></div>","null","17","Mega Mangos","Fruit/mango.png","Lost","0.65,0.2","9","0.65","243","49","",""
"html-keyboard-response","157","190750","0.0-11.0-1.49","610c736500a4b33398fef94f","bdp_rwlrn","Sat Apr 08 2023 11:39:04 GMT-0400 (Eastern Daylight Time)","417421","Trustworthy,Untrustworthy","","1012","","","","decision","","<div class='trialDiv'><img src='Fruit/orange.png'><br><font class='baseline'><strong>Odds are Orange</strong><p>Choose number of points to bet.</font><div class='respPicDiv'><img src='img/responseButtonOffersNo0L.png' class='respPic'></div></div>","5","17","Odds are Orange","Fruit/orange.png","Won","0.35,0.8","9","0.35","248","50","",""
"html-keyboard-response","158","191011","0.0-11.0-2.49","610c736500a4b33398fef94f","bdp_rwlrn","Sat Apr 08 2023 11:39:04 GMT-0400 (Eastern Daylight Time)","417421","Trustworthy,Untrustworthy","","null","","","","decisionFB","","<div class='trialDiv'><img src='Fruit/orange.png'><br><font class='baseline'><strong>Odds are Orange</strong><p>Choose number of points to bet.</font><div class='respPicDiv'><img src='img/responseButtonOffersNo0L5.png' class='respPic'></div></div>","null","17","Odds are Orange","Fruit/orange.png","Won","0.35,0.8","9","0.35","243","50","",""
"html-keyboard-response","159","192026","0.0-11.0-3.49","610c736500a4b33398fef94f","bdp_rwlrn","Sat Apr 08 2023 11:39:04 GMT-0400 (Eastern Daylight Time)","417421","Trustworthy,Untrustworthy","","null","","","","feedback","","<div class='respPicDiv'><img src='img/responseButtonOffersNo0_wht.png' class='respPic'></div><div class='trialDiv'><img src='Fruit/orange.png'><br><font class='baseline'><strong>Odds are Orange</strong><p><strong><font class='posOutcome'>You WON</font><p>You bet: 5</strong></font> &nbsp; &nbsp; &nbsp; &nbsp; &nbsp; &nbsp;<font class='posOutcome'>you receive: <strong>10</strong></font></div>","null","17","Odds are Orange","Fruit/orange.png","Won","0.35,0.8","9","0.35","253","50","",""
"html-keyboard-response","160","193171","0.0-11.0-1.50","610c736500a4b33398fef94f","bdp_rwlrn","Sat Apr 08 2023 11:39:04 GMT-0400 (Eastern Daylight Time)","417421","Trustworthy,Untrustworthy","","1145","","","","decision","","<div class='trialDiv'><img src='Fruit/lime.png'><br><font class='baseline'><strong>Limin' Large</strong><p>Choose number of points to bet.</font><div class='respPicDiv'><img src='img/responseButtonOffersNo0L.png' class='respPic'></div></div>","3","17","Limin' Large","Fruit/lime.png","Won","0.2,0.8","13","0.2","258","51","",""
"html-keyboard-response","161","193421","0.0-11.0-2.50","610c736500a4b33398fef94f","bdp_rwlrn","Sat Apr 08 2023 11:39:04 GMT-0400 (Eastern Daylight Time)","417421","Trustworthy,Untrustworthy","","null","","","","decisionFB","","<div class='trialDiv'><img src='Fruit/lime.png'><br><font class='baseline'><strong>Limin' Large</strong><p>Choose number of points to bet.</font><div class='respPicDiv'><img src='img/responseButtonOffersNo0L3.png' class='respPic'></div></div>","null","17","Limin' Large","Fruit/lime.png","Won","0.2,0.8","13","0.2","255","51","",""
"html-keyboard-response","162","194433","0.0-11.0-3.50","610c736500a4b33398fef94f","bdp_rwlrn","Sat Apr 08 2023 11:39:04 GMT-0400 (Eastern Daylight Time)","417421","Trustworthy,Untrustworthy","","null","","","","feedback","","<div class='respPicDiv'><img src='img/responseButtonOffersNo0_wht.png' class='respPic'></div><div class='trialDiv'><img src='Fruit/lime.png'><br><font class='baseline'><strong>Limin' Large</strong><p><strong><font class='posOutcome'>You WON</font><p>You bet: 3</strong></font> &nbsp; &nbsp; &nbsp; &nbsp; &nbsp; &nbsp;<font class='posOutcome'>you receive: <strong>6</strong></font></div>","null","17","Limin' Large","Fruit/lime.png","Won","0.2,0.8","13","0.2","261","51","",""
"html-keyboard-response","163","195566","0.0-11.0-1.51","610c736500a4b33398fef94f","bdp_rwlrn","Sat Apr 08 2023 11:39:04 GMT-0400 (Eastern Daylight Time)","417421","Trustworthy,Untrustworthy","","1132","","","","decision","","<div class='trialDiv'><img src='Fruit/mango.png'><br><font class='baseline'><strong>Mega Mangos</strong><p>Choose number of points to bet.</font><div class='respPicDiv'><img src='img/responseButtonOffersNo0L.png' class='respPic'></div></div>","3","18","Mega Mangos","Fruit/mango.png","Lost","0.65,0.2","9","0.65","266","52","",""
"html-keyboard-response","164","195825","0.0-11.0-2.51","610c736500a4b33398fef94f","bdp_rwlrn","Sat Apr 08 2023 11:39:04 GMT-0400 (Eastern Daylight Time)","417421","Trustworthy,Untrustworthy","","null","","","","decisionFB","","<div class='trialDiv'><img src='Fruit/mango.png'><br><font class='baseline'><strong>Mega Mangos</strong><p>Choose number of points to bet.</font><div class='respPicDiv'><img src='img/responseButtonOffersNo0L3.png' class='respPic'></div></div>","null","18","Mega Mangos","Fruit/mango.png","Lost","0.65,0.2","9","0.65","263","52","",""
