"trial_type","trial_index","time_elapsed","internal_node_id","subject_id","task","startTime","totalTime","labels","view_history","rt","event","trial","time","trialtype","success","stimulus","key_press","ltround","name","fileID","outcome","lottotype","lottoswpt","lottocurrpshare","point_total","round","faceID","face"
"pavlovia","0","2","0.0-0.0","5fd8025bcfda8b1165a0b16e","bdp_rwlrn","Sun Mar 12 2023 21:33:46 GMT-0500 (アメリカ中部夏時間)","531762","Untrustworthy,Trustworthy","","","","","","","","","","","","","","","","","","","",""
"instructions","1","8862","0.0-1.0","5fd8025bcfda8b1165a0b16e","bdp_rwlrn","Sun Mar 12 2023 21:33:46 GMT-0500 (アメリカ中部夏時間)","531762","Untrustworthy,Trustworthy","[{""page_index"":0,""viewing_time"":8859}]","8859","","","","","","","","","","","","","","","","","",""
"","","","","5fd8025bcfda8b1165a0b16e","bdp_rwlrn","Sun Mar 12 2023 21:33:46 GMT-0500 (アメリカ中部夏時間)","531762","Untrustworthy,Trustworthy","","","fullscreenenter","2","11904","fullscreenenter","","","","","","","","","","","","","",""
"fullscreen","2","12887","0.0-2.0","5fd8025bcfda8b1165a0b16e","bdp_rwlrn","Sun Mar 12 2023 21:33:46 GMT-0500 (アメリカ中部夏時間)","531762","Untrustworthy,Trustworthy","","","","","","","true","","","","","","","","","","","","",""
"instructions","3","87669","0.0-4.0","5fd8025bcfda8b1165a0b16e","bdp_rwlrn","Sun Mar 12 2023 21:33:46 GMT-0500 (アメリカ中部夏時間)","531762","Untrustworthy,Trustworthy","[{""page_index"":0,""viewing_time"":13487},{""page_index"":1,""viewing_time"":22867},{""page_index"":2,""viewing_time"":6648},{""page_index"":3,""viewing_time"":10321},{""page_index"":4,""viewing_time"":17730},{""page_index"":5,""viewing_time"":3728}]","74781","","","","","","","","","","","","","","","","","",""
"html-keyboard-response","4","93854","0.0-5.0","5fd8025bcfda8b1165a0b16e","bdp_rwlrn","Sun Mar 12 2023 21:33:46 GMT-0500 (アメリカ中部夏時間)","531762","Untrustworthy,Trustworthy","","6184","","","","","","<div class='header' style='text-align:left; position: absolute; top: 5%; left: 5%;'><small>Task 3 of 5</small></div><div class='instruxDiv'><p><strong>1) What is the maximum number of points you can choose to bet on a lottery?</strong></p><p>a) 0</p><p>b) 1</p><p>c) 5</p>","C","","","","","","","","","","",""
"html-keyboard-response","5","95310","0.0-6.0","5fd8025bcfda8b1165a0b16e","bdp_rwlrn","Sun Mar 12 2023 21:33:46 GMT-0500 (アメリカ中部夏時間)","531762","Untrustworthy,Trustworthy","","1354","","","","","","<div class='header' style='text-align:left; position: absolute; top: 5%; left: 5%;'><small>Task 3 of 5</small></div><div class='instruxDiv'><p><strong>1) What is the maximum number of points you can choose to bet on a lottery?</strong></p><p>a) 1</p><p>b) 1</p><p style='color:#00FF00'>c) 5</p><h3 style='color:#00FF00'>Correct!</h3><h3 class='center-content'>The correct response is c).</h3><h3 class='center-content'>The maximum number of points you can choose to bet on a lottery is 5 points.</h3><p><em>Press SPACEBAR to continue</em></p></div>"," ","","","","","","","","","","",""
"html-keyboard-response","6","100543","0.0-7.0","5fd8025bcfda8b1165a0b16e","bdp_rwlrn","Sun Mar 12 2023 21:33:46 GMT-0500 (アメリカ中部夏時間)","531762","Untrustworthy,Trustworthy","","5131","","","","","","<div class='header' style='text-align:left; position: absolute; top: 5%; left: 5%;'><small>Task 3 of 5</small></div><div class='instruxDiv'><p><strong>2) How many points can you win each round?</strong></p><p>a) 10 points</p><p>b) Double what you bet</p><p>c) Quadruple what you bet</p>","B","","","","","","","","","","",""
"html-keyboard-response","7","102071","0.0-8.0","5fd8025bcfda8b1165a0b16e","bdp_rwlrn","Sun Mar 12 2023 21:33:46 GMT-0500 (アメリカ中部夏時間)","531762","Untrustworthy,Trustworthy","","1427","","","","","","<div class='header' style='text-align:left; position: absolute; top: 5%; left: 5%;'><small>Task 3 of 5</small></div><div class='instruxDiv'><p><strong>2) How many points can you win each round?</strong></p><p>a) 10 points</p><p style='color:#00FF00'>b) Double what you bet</p><p>c) Quadruple what you bet</p><h3 style='color:#00FF00'>Correct!</h3><h3 class='center-content'>The correct response is b).</h3><h3 class='center-content'>You can win double the amount of points you bet.</h3><p><em>Press SPACEBAR to continue</em></p></div>"," ","","","","","","","","","","",""
"html-keyboard-response","8","107183","0.0-9.0","5fd8025bcfda8b1165a0b16e","bdp_rwlrn","Sun Mar 12 2023 21:33:46 GMT-0500 (アメリカ中部夏時間)","531762","Untrustworthy,Trustworthy","","null","","","","","","<div class='header' style='text-align:left; position: absolute; top: 5%; left: 5%;'><small>Task 3 of 5</small></div><div class='instruxDiv'><p>Thank you for completing the quiz<p>These are the actual lotteries you will be playing in the next block:<p><div class='tc' align='center'><img class='introPic' src='Fruit/melon.png'><br><strong>Melon Millions</strong></div><div class='bl' align='center'><img class='introPic' src='Fruit/watermelon.png'><br><strong>Watermelon Win$</strong></div><div class='br' align='center'><img class='introPic' src='Fruit/grapes.png'><br><strong>Great Grapes</strong></div></div><p>Across <strong>66 rounds</strong> you will play each lottery <strong>22 times</strong> (in random order).<p style='align:center; color:white'><font <em>Press SPACEBAR to continue</em></p>","null","","","","","","","","","","",""
"instructions","9","118360","0.0-10.0","5fd8025bcfda8b1165a0b16e","bdp_rwlrn","Sun Mar 12 2023 21:33:46 GMT-0500 (アメリカ中部夏時間)","531762","Untrustworthy,Trustworthy","[{""page_index"":0,""viewing_time"":7048},{""page_index"":1,""viewing_time"":4128}]","11176","","","","","","","","","","","","","","","","","",""
"html-keyboard-response","10","120393","0.0-11.0-1.0","5fd8025bcfda8b1165a0b16e","bdp_rwlrn","Sun Mar 12 2023 21:33:46 GMT-0500 (アメリカ中部夏時間)","531762","Untrustworthy,Trustworthy","","1932","","","","decision","","<div class='trialDiv'><img src='Fruit/watermelon.png'><br><font class='baseline'><strong>Watermelon Win$</strong><p>Choose number of points to bet.</font><div class='respPicDiv'><img src='img/responseButtonOffersNo0L.png' class='respPic'></div></div>","2","1","Watermelon Win$","Fruit/watermelon.png","Lost","0.35,0.65","10","0.35","5","1","",""
"html-keyboard-response","11","120644","0.0-11.0-2.0","5fd8025bcfda8b1165a0b16e","bdp_rwlrn","Sun Mar 12 2023 21:33:46 GMT-0500 (アメリカ中部夏時間)","531762","Untrustworthy,Trustworthy","","null","","","","decisionFB","","<div class='trialDiv'><img src='Fruit/watermelon.png'><br><font class='baseline'><strong>Watermelon Win$</strong><p>Choose number of points to bet.</font><div class='respPicDiv'><img src='img/responseButtonOffersNo0L2.png' class='respPic'></div></div>","null","1","Watermelon Win$","Fruit/watermelon.png","Lost","0.35,0.65","10","0.35","3","1","",""
"html-keyboard-response","12","121646","0.0-11.0-3.0","5fd8025bcfda8b1165a0b16e","bdp_rwlrn","Sun Mar 12 2023 21:33:46 GMT-0500 (アメリカ中部夏時間)","531762","Untrustworthy,Trustworthy","","null","","","","feedback","","<div class='respPicDiv'><img src='img/responseButtonOffersNo0_wht.png' class='respPic'></div><div class='trialDiv'><img src='Fruit/watermelon.png'><br><font class='baseline'><strong>Watermelon Win$</strong><p><strong><font class='negOutcome'>You LOST</font><p>You bet: 2</strong></font> &nbsp; &nbsp; &nbsp; &nbsp; &nbsp; &nbsp;<font class='negOutcome'>You receive: <strong>0</strong></font></div>","null","1","Watermelon Win$","Fruit/watermelon.png","Lost","0.35,0.65","10","0.35","3","1","",""
"html-keyboard-response","13","123073","0.0-11.0-1.1","5fd8025bcfda8b1165a0b16e","bdp_rwlrn","Sun Mar 12 2023 21:33:46 GMT-0500 (アメリカ中部夏時間)","531762","Untrustworthy,Trustworthy","","1427","","","","decision","","<div class='trialDiv'><img src='Fruit/melon.png'><br><font class='baseline'><strong>Melon Millions</strong><p>Choose number of points to bet.</font><div class='respPicDiv'><img src='img/responseButtonOffersNo0L.png' class='respPic'></div></div>","5","1","Melon Millions","Fruit/melon.png","Lost","0.65,0.2","13","0.65","8","2","",""
"html-keyboard-response","14","123324","0.0-11.0-2.1","5fd8025bcfda8b1165a0b16e","bdp_rwlrn","Sun Mar 12 2023 21:33:46 GMT-0500 (アメリカ中部夏時間)","531762","Untrustworthy,Trustworthy","","null","","","","decisionFB","","<div class='trialDiv'><img src='Fruit/melon.png'><br><font class='baseline'><strong>Melon Millions</strong><p>Choose number of points to bet.</font><div class='respPicDiv'><img src='img/responseButtonOffersNo0L5.png' class='respPic'></div></div>","null","1","Melon Millions","Fruit/melon.png","Lost","0.65,0.2","13","0.65","3","2","",""
"html-keyboard-response","15","124326","0.0-11.0-3.1","5fd8025bcfda8b1165a0b16e","bdp_rwlrn","Sun Mar 12 2023 21:33:46 GMT-0500 (アメリカ中部夏時間)","531762","Untrustworthy,Trustworthy","","null","","","","feedback","","<div class='respPicDiv'><img src='img/responseButtonOffersNo0_wht.png' class='respPic'></div><div class='trialDiv'><img src='Fruit/melon.png'><br><font class='baseline'><strong>Melon Millions</strong><p><strong><font class='negOutcome'>You LOST</font><p>You bet: 5</strong></font> &nbsp; &nbsp; &nbsp; &nbsp; &nbsp; &nbsp;<font class='negOutcome'>You receive: <strong>0</strong></font></div>","null","1","Melon Millions","Fruit/melon.png","Lost","0.65,0.2","13","0.65","3","2","",""
"html-keyboard-response","16","125929","0.0-11.0-1.2","5fd8025bcfda8b1165a0b16e","bdp_rwlrn","Sun Mar 12 2023 21:33:46 GMT-0500 (アメリカ中部夏時間)","531762","Untrustworthy,Trustworthy","","1603","","","","decision","","<div class='trialDiv'><img src='Fruit/grapes.png'><br><font class='baseline'><strong>Great Grapes</strong><p>Choose number of points to bet.</font><div class='respPicDiv'><img src='img/responseButtonOffersNo0L.png' class='respPic'></div></div>","1","1","Great Grapes","Fruit/grapes.png","Lost","0.2,0.65","8","0.2","8","3","",""
"html-keyboard-response","17","126181","0.0-11.0-2.2","5fd8025bcfda8b1165a0b16e","bdp_rwlrn","Sun Mar 12 2023 21:33:46 GMT-0500 (アメリカ中部夏時間)","531762","Untrustworthy,Trustworthy","","null","","","","decisionFB","","<div class='trialDiv'><img src='Fruit/grapes.png'><br><font class='baseline'><strong>Great Grapes</strong><p>Choose number of points to bet.</font><div class='respPicDiv'><img src='img/responseButtonOffersNo0L1.png' class='respPic'></div></div>","null","1","Great Grapes","Fruit/grapes.png","Lost","0.2,0.65","8","0.2","7","3","",""
"html-keyboard-response","18","127182","0.0-11.0-3.2","5fd8025bcfda8b1165a0b16e","bdp_rwlrn","Sun Mar 12 2023 21:33:46 GMT-0500 (アメリカ中部夏時間)","531762","Untrustworthy,Trustworthy","","null","","","","feedback","","<div class='respPicDiv'><img src='img/responseButtonOffersNo0_wht.png' class='respPic'></div><div class='trialDiv'><img src='Fruit/grapes.png'><br><font class='baseline'><strong>Great Grapes</strong><p><strong><font class='negOutcome'>You LOST</font><p>You bet: 1</strong></font> &nbsp; &nbsp; &nbsp; &nbsp; &nbsp; &nbsp;<font class='negOutcome'>You receive: <strong>0</strong></font></div>","null","1","Great Grapes","Fruit/grapes.png","Lost","0.2,0.65","8","0.2","7","3","",""
"html-keyboard-response","19","128737","0.0-11.0-1.3","5fd8025bcfda8b1165a0b16e","bdp_rwlrn","Sun Mar 12 2023 21:33:46 GMT-0500 (アメリカ中部夏時間)","531762","Untrustworthy,Trustworthy","","1555","","","","decision","","<div class='trialDiv'><img src='Fruit/watermelon.png'><br><font class='baseline'><strong>Watermelon Win$</strong><p>Choose number of points to bet.</font><div class='respPicDiv'><img src='img/responseButtonOffersNo0L.png' class='respPic'></div></div>","2","2","Watermelon Win$","Fruit/watermelon.png","Won","0.35,0.65","10","0.35","12","4","",""
"html-keyboard-response","20","128988","0.0-11.0-2.3","5fd8025bcfda8b1165a0b16e","bdp_rwlrn","Sun Mar 12 2023 21:33:46 GMT-0500 (アメリカ中部夏時間)","531762","Untrustworthy,Trustworthy","","null","","","","decisionFB","","<div class='trialDiv'><img src='Fruit/watermelon.png'><br><font class='baseline'><strong>Watermelon Win$</strong><p>Choose number of points to bet.</font><div class='respPicDiv'><img src='img/responseButtonOffersNo0L2.png' class='respPic'></div></div>","null","2","Watermelon Win$","Fruit/watermelon.png","Won","0.35,0.65","10","0.35","10","4","",""
"html-keyboard-response","21","129989","0.0-11.0-3.3","5fd8025bcfda8b1165a0b16e","bdp_rwlrn","Sun Mar 12 2023 21:33:46 GMT-0500 (アメリカ中部夏時間)","531762","Untrustworthy,Trustworthy","","null","","","","feedback","","<div class='respPicDiv'><img src='img/responseButtonOffersNo0_wht.png' class='respPic'></div><div class='trialDiv'><img src='Fruit/watermelon.png'><br><font class='baseline'><strong>Watermelon Win$</strong><p><strong><font class='posOutcome'>You WON</font><p>You bet: 2</strong></font> &nbsp; &nbsp; &nbsp; &nbsp; &nbsp; &nbsp;<font class='posOutcome'>you receive: <strong>4</strong></font></div>","null","2","Watermelon Win$","Fruit/watermelon.png","Won","0.35,0.65","10","0.35","14","4","",""
"html-keyboard-response","22","132466","0.0-11.0-1.4","5fd8025bcfda8b1165a0b16e","bdp_rwlrn","Sun Mar 12 2023 21:33:46 GMT-0500 (アメリカ中部夏時間)","531762","Untrustworthy,Trustworthy","","2476","","","","decision","","<div class='trialDiv'><img src='Fruit/melon.png'><br><font class='baseline'><strong>Melon Millions</strong><p>Choose number of points to bet.</font><div class='respPicDiv'><img src='img/responseButtonOffersNo0L.png' class='respPic'></div></div>","1","2","Melon Millions","Fruit/melon.png","Won","0.65,0.2","13","0.65","19","5","",""
"html-keyboard-response","23","132718","0.0-11.0-2.4","5fd8025bcfda8b1165a0b16e","bdp_rwlrn","Sun Mar 12 2023 21:33:46 GMT-0500 (アメリカ中部夏時間)","531762","Untrustworthy,Trustworthy","","null","","","","decisionFB","","<div class='trialDiv'><img src='Fruit/melon.png'><br><font class='baseline'><strong>Melon Millions</strong><p>Choose number of points to bet.</font><div class='respPicDiv'><img src='img/responseButtonOffersNo0L1.png' class='respPic'></div></div>","null","2","Melon Millions","Fruit/melon.png","Won","0.65,0.2","13","0.65","18","5","",""
"html-keyboard-response","24","133720","0.0-11.0-3.4","5fd8025bcfda8b1165a0b16e","bdp_rwlrn","Sun Mar 12 2023 21:33:46 GMT-0500 (アメリカ中部夏時間)","531762","Untrustworthy,Trustworthy","","null","","","","feedback","","<div class='respPicDiv'><img src='img/responseButtonOffersNo0_wht.png' class='respPic'></div><div class='trialDiv'><img src='Fruit/melon.png'><br><font class='baseline'><strong>Melon Millions</strong><p><strong><font class='posOutcome'>You WON</font><p>You bet: 1</strong></font> &nbsp; &nbsp; &nbsp; &nbsp; &nbsp; &nbsp;<font class='posOutcome'>you receive: <strong>2</strong></font></div>","null","2","Melon Millions","Fruit/melon.png","Won","0.65,0.2","13","0.65","20","5","",""
"html-keyboard-response","25","134450","0.0-11.0-1.5","5fd8025bcfda8b1165a0b16e","bdp_rwlrn","Sun Mar 12 2023 21:33:46 GMT-0500 (アメリカ中部夏時間)","531762","Untrustworthy,Trustworthy","","730","","","","decision","","<div class='trialDiv'><img src='Fruit/grapes.png'><br><font class='baseline'><strong>Great Grapes</strong><p>Choose number of points to bet.</font><div class='respPicDiv'><img src='img/responseButtonOffersNo0L.png' class='respPic'></div></div>","5","2","Great Grapes","Fruit/grapes.png","Lost","0.2,0.65","8","0.2","25","6","",""
"html-keyboard-response","26","134713","0.0-11.0-2.5","5fd8025bcfda8b1165a0b16e","bdp_rwlrn","Sun Mar 12 2023 21:33:46 GMT-0500 (アメリカ中部夏時間)","531762","Untrustworthy,Trustworthy","","null","","","","decisionFB","","<div class='trialDiv'><img src='Fruit/grapes.png'><br><font class='baseline'><strong>Great Grapes</strong><p>Choose number of points to bet.</font><div class='respPicDiv'><img src='img/responseButtonOffersNo0L5.png' class='respPic'></div></div>","null","2","Great Grapes","Fruit/grapes.png","Lost","0.2,0.65","8","0.2","20","6","",""
"html-keyboard-response","27","135714","0.0-11.0-3.5","5fd8025bcfda8b1165a0b16e","bdp_rwlrn","Sun Mar 12 2023 21:33:46 GMT-0500 (アメリカ中部夏時間)","531762","Untrustworthy,Trustworthy","","null","","","","feedback","","<div class='respPicDiv'><img src='img/responseButtonOffersNo0_wht.png' class='respPic'></div><div class='trialDiv'><img src='Fruit/grapes.png'><br><font class='baseline'><strong>Great Grapes</strong><p><strong><font class='negOutcome'>You LOST</font><p>You bet: 5</strong></font> &nbsp; &nbsp; &nbsp; &nbsp; &nbsp; &nbsp;<font class='negOutcome'>You receive: <strong>0</strong></font></div>","null","2","Great Grapes","Fruit/grapes.png","Lost","0.2,0.65","8","0.2","20","6","",""
"html-keyboard-response","28","136826","0.0-11.0-1.6","5fd8025bcfda8b1165a0b16e","bdp_rwlrn","Sun Mar 12 2023 21:33:46 GMT-0500 (アメリカ中部夏時間)","531762","Untrustworthy,Trustworthy","","1111","","","","decision","","<div class='trialDiv'><img src='Fruit/watermelon.png'><br><font class='baseline'><strong>Watermelon Win$</strong><p>Choose number of points to bet.</font><div class='respPicDiv'><img src='img/responseButtonOffersNo0L.png' class='respPic'></div></div>","5","3","Watermelon Win$","Fruit/watermelon.png","Lost","0.35,0.65","10","0.35","25","7","",""
"html-keyboard-response","29","137078","0.0-11.0-2.6","5fd8025bcfda8b1165a0b16e","bdp_rwlrn","Sun Mar 12 2023 21:33:46 GMT-0500 (アメリカ中部夏時間)","531762","Untrustworthy,Trustworthy","","null","","","","decisionFB","","<div class='trialDiv'><img src='Fruit/watermelon.png'><br><font class='baseline'><strong>Watermelon Win$</strong><p>Choose number of points to bet.</font><div class='respPicDiv'><img src='img/responseButtonOffersNo0L5.png' class='respPic'></div></div>","null","3","Watermelon Win$","Fruit/watermelon.png","Lost","0.35,0.65","10","0.35","20","7","",""
"html-keyboard-response","30","138079","0.0-11.0-3.6","5fd8025bcfda8b1165a0b16e","bdp_rwlrn","Sun Mar 12 2023 21:33:46 GMT-0500 (アメリカ中部夏時間)","531762","Untrustworthy,Trustworthy","","null","","","","feedback","","<div class='respPicDiv'><img src='img/responseButtonOffersNo0_wht.png' class='respPic'></div><div class='trialDiv'><img src='Fruit/watermelon.png'><br><font class='baseline'><strong>Watermelon Win$</strong><p><strong><font class='negOutcome'>You LOST</font><p>You bet: 5</strong></font> &nbsp; &nbsp; &nbsp; &nbsp; &nbsp; &nbsp;<font class='negOutcome'>You receive: <strong>0</strong></font></div>","null","3","Watermelon Win$","Fruit/watermelon.png","Lost","0.35,0.65","10","0.35","20","7","",""
"html-keyboard-response","31","140058","0.0-11.0-1.7","5fd8025bcfda8b1165a0b16e","bdp_rwlrn","Sun Mar 12 2023 21:33:46 GMT-0500 (アメリカ中部夏時間)","531762","Untrustworthy,Trustworthy","","1978","","","","decision","","<div class='trialDiv'><img src='Fruit/grapes.png'><br><font class='baseline'><strong>Great Grapes</strong><p>Choose number of points to bet.</font><div class='respPicDiv'><img src='img/responseButtonOffersNo0L.png' class='respPic'></div></div>","1","3","Great Grapes","Fruit/grapes.png","Lost","0.2,0.65","8","0.2","25","8","",""
"html-keyboard-response","32","140310","0.0-11.0-2.7","5fd8025bcfda8b1165a0b16e","bdp_rwlrn","Sun Mar 12 2023 21:33:46 GMT-0500 (アメリカ中部夏時間)","531762","Untrustworthy,Trustworthy","","null","","","","decisionFB","","<div class='trialDiv'><img src='Fruit/grapes.png'><br><font class='baseline'><strong>Great Grapes</strong><p>Choose number of points to bet.</font><div class='respPicDiv'><img src='img/responseButtonOffersNo0L1.png' class='respPic'></div></div>","null","3","Great Grapes","Fruit/grapes.png","Lost","0.2,0.65","8","0.2","24","8","",""
"html-keyboard-response","33","141312","0.0-11.0-3.7","5fd8025bcfda8b1165a0b16e","bdp_rwlrn","Sun Mar 12 2023 21:33:46 GMT-0500 (アメリカ中部夏時間)","531762","Untrustworthy,Trustworthy","","null","","","","feedback","","<div class='respPicDiv'><img src='img/responseButtonOffersNo0_wht.png' class='respPic'></div><div class='trialDiv'><img src='Fruit/grapes.png'><br><font class='baseline'><strong>Great Grapes</strong><p><strong><font class='negOutcome'>You LOST</font><p>You bet: 1</strong></font> &nbsp; &nbsp; &nbsp; &nbsp; &nbsp; &nbsp;<font class='negOutcome'>You receive: <strong>0</strong></font></div>","null","3","Great Grapes","Fruit/grapes.png","Lost","0.2,0.65","8","0.2","24","8","",""
"html-keyboard-response","34","141899","0.0-11.0-1.8","5fd8025bcfda8b1165a0b16e","bdp_rwlrn","Sun Mar 12 2023 21:33:46 GMT-0500 (アメリカ中部夏時間)","531762","Untrustworthy,Trustworthy","","587","","","","decision","","<div class='trialDiv'><img src='Fruit/melon.png'><br><font class='baseline'><strong>Melon Millions</strong><p>Choose number of points to bet.</font><div class='respPicDiv'><img src='img/responseButtonOffersNo0L.png' class='respPic'></div></div>","1","3","Melon Millions","Fruit/melon.png","Won","0.65,0.2","13","0.65","29","9","",""
"html-keyboard-response","35","142150","0.0-11.0-2.8","5fd8025bcfda8b1165a0b16e","bdp_rwlrn","Sun Mar 12 2023 21:33:46 GMT-0500 (アメリカ中部夏時間)","531762","Untrustworthy,Trustworthy","","null","","","","decisionFB","","<div class='trialDiv'><img src='Fruit/melon.png'><br><font class='baseline'><strong>Melon Millions</strong><p>Choose number of points to bet.</font><div class='respPicDiv'><img src='img/responseButtonOffersNo0L1.png' class='respPic'></div></div>","null","3","Melon Millions","Fruit/melon.png","Won","0.65,0.2","13","0.65","28","9","",""
"html-keyboard-response","36","143151","0.0-11.0-3.8","5fd8025bcfda8b1165a0b16e","bdp_rwlrn","Sun Mar 12 2023 21:33:46 GMT-0500 (アメリカ中部夏時間)","531762","Untrustworthy,Trustworthy","","null","","","","feedback","","<div class='respPicDiv'><img src='img/responseButtonOffersNo0_wht.png' class='respPic'></div><div class='trialDiv'><img src='Fruit/melon.png'><br><font class='baseline'><strong>Melon Millions</strong><p><strong><font class='posOutcome'>You WON</font><p>You bet: 1</strong></font> &nbsp; &nbsp; &nbsp; &nbsp; &nbsp; &nbsp;<font class='posOutcome'>you receive: <strong>2</strong></font></div>","null","3","Melon Millions","Fruit/melon.png","Won","0.65,0.2","13","0.65","30","9","",""
"html-keyboard-response","37","143947","0.0-11.0-1.9","5fd8025bcfda8b1165a0b16e","bdp_rwlrn","Sun Mar 12 2023 21:33:46 GMT-0500 (アメリカ中部夏時間)","531762","Untrustworthy,Trustworthy","","795","","","","decision","","<div class='trialDiv'><img src='Fruit/watermelon.png'><br><font class='baseline'><strong>Watermelon Win$</strong><p>Choose number of points to bet.</font><div class='respPicDiv'><img src='img/responseButtonOffersNo0L.png' class='respPic'></div></div>","1","4","Watermelon Win$","Fruit/watermelon.png","Lost","0.35,0.65","10","0.35","35","10","",""
"html-keyboard-response","38","144213","0.0-11.0-2.9","5fd8025bcfda8b1165a0b16e","bdp_rwlrn","Sun Mar 12 2023 21:33:46 GMT-0500 (アメリカ中部夏時間)","531762","Untrustworthy,Trustworthy","","null","","","","decisionFB","","<div class='trialDiv'><img src='Fruit/watermelon.png'><br><font class='baseline'><strong>Watermelon Win$</strong><p>Choose number of points to bet.</font><div class='respPicDiv'><img src='img/responseButtonOffersNo0L1.png' class='respPic'></div></div>","null","4","Watermelon Win$","Fruit/watermelon.png","Lost","0.35,0.65","10","0.35","34","10","",""
"html-keyboard-response","39","145214","0.0-11.0-3.9","5fd8025bcfda8b1165a0b16e","bdp_rwlrn","Sun Mar 12 2023 21:33:46 GMT-0500 (アメリカ中部夏時間)","531762","Untrustworthy,Trustworthy","","null","","","","feedback","","<div class='respPicDiv'><img src='img/responseButtonOffersNo0_wht.png' class='respPic'></div><div class='trialDiv'><img src='Fruit/watermelon.png'><br><font class='baseline'><strong>Watermelon Win$</strong><p><strong><font class='negOutcome'>You LOST</font><p>You bet: 1</strong></font> &nbsp; &nbsp; &nbsp; &nbsp; &nbsp; &nbsp;<font class='negOutcome'>You receive: <strong>0</strong></font></div>","null","4","Watermelon Win$","Fruit/watermelon.png","Lost","0.35,0.65","10","0.35","34","10","",""
"html-keyboard-response","40","146107","0.0-11.0-1.10","5fd8025bcfda8b1165a0b16e","bdp_rwlrn","Sun Mar 12 2023 21:33:46 GMT-0500 (アメリカ中部夏時間)","531762","Untrustworthy,Trustworthy","","892","","","","decision","","<div class='trialDiv'><img src='Fruit/grapes.png'><br><font class='baseline'><strong>Great Grapes</strong><p>Choose number of points to bet.</font><div class='respPicDiv'><img src='img/responseButtonOffersNo0L.png' class='respPic'></div></div>","1","4","Great Grapes","Fruit/grapes.png","Lost","0.2,0.65","8","0.2","39","11","",""
"html-keyboard-response","41","146367","0.0-11.0-2.10","5fd8025bcfda8b1165a0b16e","bdp_rwlrn","Sun Mar 12 2023 21:33:46 GMT-0500 (アメリカ中部夏時間)","531762","Untrustworthy,Trustworthy","","null","","","","decisionFB","","<div class='trialDiv'><img src='Fruit/grapes.png'><br><font class='baseline'><strong>Great Grapes</strong><p>Choose number of points to bet.</font><div class='respPicDiv'><img src='img/responseButtonOffersNo0L1.png' class='respPic'></div></div>","null","4","Great Grapes","Fruit/grapes.png","Lost","0.2,0.65","8","0.2","38","11","",""
"html-keyboard-response","42","147378","0.0-11.0-3.10","5fd8025bcfda8b1165a0b16e","bdp_rwlrn","Sun Mar 12 2023 21:33:46 GMT-0500 (アメリカ中部夏時間)","531762","Untrustworthy,Trustworthy","","null","","","","feedback","","<div class='respPicDiv'><img src='img/responseButtonOffersNo0_wht.png' class='respPic'></div><div class='trialDiv'><img src='Fruit/grapes.png'><br><font class='baseline'><strong>Great Grapes</strong><p><strong><font class='negOutcome'>You LOST</font><p>You bet: 1</strong></font> &nbsp; &nbsp; &nbsp; &nbsp; &nbsp; &nbsp;<font class='negOutcome'>You receive: <strong>0</strong></font></div>","null","4","Great Grapes","Fruit/grapes.png","Lost","0.2,0.65","8","0.2","38","11","",""
"html-keyboard-response","43","148844","0.0-11.0-1.11","5fd8025bcfda8b1165a0b16e","bdp_rwlrn","Sun Mar 12 2023 21:33:46 GMT-0500 (アメリカ中部夏時間)","531762","Untrustworthy,Trustworthy","","1466","","","","decision","","<div class='trialDiv'><img src='Fruit/melon.png'><br><font class='baseline'><strong>Melon Millions</strong><p>Choose number of points to bet.</font><div class='respPicDiv'><img src='img/responseButtonOffersNo0L.png' class='respPic'></div></div>","1","4","Melon Millions","Fruit/melon.png","Lost","0.65,0.2","13","0.65","43","12","",""
"html-keyboard-response","44","149096","0.0-11.0-2.11","5fd8025bcfda8b1165a0b16e","bdp_rwlrn","Sun Mar 12 2023 21:33:46 GMT-0500 (アメリカ中部夏時間)","531762","Untrustworthy,Trustworthy","","null","","","","decisionFB","","<div class='trialDiv'><img src='Fruit/melon.png'><br><font class='baseline'><strong>Melon Millions</strong><p>Choose number of points to bet.</font><div class='respPicDiv'><img src='img/responseButtonOffersNo0L1.png' class='respPic'></div></div>","null","4","Melon Millions","Fruit/melon.png","Lost","0.65,0.2","13","0.65","42","12","",""
"html-keyboard-response","45","150097","0.0-11.0-3.11","5fd8025bcfda8b1165a0b16e","bdp_rwlrn","Sun Mar 12 2023 21:33:46 GMT-0500 (アメリカ中部夏時間)","531762","Untrustworthy,Trustworthy","","null","","","","feedback","","<div class='respPicDiv'><img src='img/responseButtonOffersNo0_wht.png' class='respPic'></div><div class='trialDiv'><img src='Fruit/melon.png'><br><font class='baseline'><strong>Melon Millions</strong><p><strong><font class='negOutcome'>You LOST</font><p>You bet: 1</strong></font> &nbsp; &nbsp; &nbsp; &nbsp; &nbsp; &nbsp;<font class='negOutcome'>You receive: <strong>0</strong></font></div>","null","4","Melon Millions","Fruit/melon.png","Lost","0.65,0.2","13","0.65","42","12","",""
"html-keyboard-response","46","151156","0.0-11.0-1.12","5fd8025bcfda8b1165a0b16e","bdp_rwlrn","Sun Mar 12 2023 21:33:46 GMT-0500 (アメリカ中部夏時間)","531762","Untrustworthy,Trustworthy","","1058","","","","decision","","<div class='trialDiv'><img src='Fruit/grapes.png'><br><font class='baseline'><strong>Great Grapes</strong><p>Choose number of points to bet.</font><div class='respPicDiv'><img src='img/responseButtonOffersNo0L.png' class='respPic'></div></div>","1","5","Great Grapes","Fruit/grapes.png","Lost","0.2,0.65","8","0.2","47","13","",""
"html-keyboard-response","47","151407","0.0-11.0-2.12","5fd8025bcfda8b1165a0b16e","bdp_rwlrn","Sun Mar 12 2023 21:33:46 GMT-0500 (アメリカ中部夏時間)","531762","Untrustworthy,Trustworthy","","null","","","","decisionFB","","<div class='trialDiv'><img src='Fruit/grapes.png'><br><font class='baseline'><strong>Great Grapes</strong><p>Choose number of points to bet.</font><div class='respPicDiv'><img src='img/responseButtonOffersNo0L1.png' class='respPic'></div></div>","null","5","Great Grapes","Fruit/grapes.png","Lost","0.2,0.65","8","0.2","46","13","",""
"html-keyboard-response","48","152418","0.0-11.0-3.12","5fd8025bcfda8b1165a0b16e","bdp_rwlrn","Sun Mar 12 2023 21:33:46 GMT-0500 (アメリカ中部夏時間)","531762","Untrustworthy,Trustworthy","","null","","","","feedback","","<div class='respPicDiv'><img src='img/responseButtonOffersNo0_wht.png' class='respPic'></div><div class='trialDiv'><img src='Fruit/grapes.png'><br><font class='baseline'><strong>Great Grapes</strong><p><strong><font class='negOutcome'>You LOST</font><p>You bet: 1</strong></font> &nbsp; &nbsp; &nbsp; &nbsp; &nbsp; &nbsp;<font class='negOutcome'>You receive: <strong>0</strong></font></div>","null","5","Great Grapes","Fruit/grapes.png","Lost","0.2,0.65","8","0.2","46","13","",""
"html-keyboard-response","49","153476","0.0-11.0-1.13","5fd8025bcfda8b1165a0b16e","bdp_rwlrn","Sun Mar 12 2023 21:33:46 GMT-0500 (アメリカ中部夏時間)","531762","Untrustworthy,Trustworthy","","1058","","","","decision","","<div class='trialDiv'><img src='Fruit/watermelon.png'><br><font class='baseline'><strong>Watermelon Win$</strong><p>Choose number of points to bet.</font><div class='respPicDiv'><img src='img/responseButtonOffersNo0L.png' class='respPic'></div></div>","5","5","Watermelon Win$","Fruit/watermelon.png","Lost","0.35,0.65","10","0.35","51","14","",""
"html-keyboard-response","50","153728","0.0-11.0-2.13","5fd8025bcfda8b1165a0b16e","bdp_rwlrn","Sun Mar 12 2023 21:33:46 GMT-0500 (アメリカ中部夏時間)","531762","Untrustworthy,Trustworthy","","null","","","","decisionFB","","<div class='trialDiv'><img src='Fruit/watermelon.png'><br><font class='baseline'><strong>Watermelon Win$</strong><p>Choose number of points to bet.</font><div class='respPicDiv'><img src='img/responseButtonOffersNo0L5.png' class='respPic'></div></div>","null","5","Watermelon Win$","Fruit/watermelon.png","Lost","0.35,0.65","10","0.35","46","14","",""
"html-keyboard-response","51","154744","0.0-11.0-3.13","5fd8025bcfda8b1165a0b16e","bdp_rwlrn","Sun Mar 12 2023 21:33:46 GMT-0500 (アメリカ中部夏時間)","531762","Untrustworthy,Trustworthy","","null","","","","feedback","","<div class='respPicDiv'><img src='img/responseButtonOffersNo0_wht.png' class='respPic'></div><div class='trialDiv'><img src='Fruit/watermelon.png'><br><font class='baseline'><strong>Watermelon Win$</strong><p><strong><font class='negOutcome'>You LOST</font><p>You bet: 5</strong></font> &nbsp; &nbsp; &nbsp; &nbsp; &nbsp; &nbsp;<font class='negOutcome'>You receive: <strong>0</strong></font></div>","null","5","Watermelon Win$","Fruit/watermelon.png","Lost","0.35,0.65","10","0.35","46","14","",""
"html-keyboard-response","52","155660","0.0-11.0-1.14","5fd8025bcfda8b1165a0b16e","bdp_rwlrn","Sun Mar 12 2023 21:33:46 GMT-0500 (アメリカ中部夏時間)","531762","Untrustworthy,Trustworthy","","916","","","","decision","","<div class='trialDiv'><img src='Fruit/melon.png'><br><font class='baseline'><strong>Melon Millions</strong><p>Choose number of points to bet.</font><div class='respPicDiv'><img src='img/responseButtonOffersNo0L.png' class='respPic'></div></div>","1","5","Melon Millions","Fruit/melon.png","Won","0.65,0.2","13","0.65","51","15","",""
"html-keyboard-response","53","155911","0.0-11.0-2.14","5fd8025bcfda8b1165a0b16e","bdp_rwlrn","Sun Mar 12 2023 21:33:46 GMT-0500 (アメリカ中部夏時間)","531762","Untrustworthy,Trustworthy","","null","","","","decisionFB","","<div class='trialDiv'><img src='Fruit/melon.png'><br><font class='baseline'><strong>Melon Millions</strong><p>Choose number of points to bet.</font><div class='respPicDiv'><img src='img/responseButtonOffersNo0L1.png' class='respPic'></div></div>","null","5","Melon Millions","Fruit/melon.png","Won","0.65,0.2","13","0.65","50","15","",""
"html-keyboard-response","54","156912","0.0-11.0-3.14","5fd8025bcfda8b1165a0b16e","bdp_rwlrn","Sun Mar 12 2023 21:33:46 GMT-0500 (アメリカ中部夏時間)","531762","Untrustworthy,Trustworthy","","null","","","","feedback","","<div class='respPicDiv'><img src='img/responseButtonOffersNo0_wht.png' class='respPic'></div><div class='trialDiv'><img src='Fruit/melon.png'><br><font class='baseline'><strong>Melon Millions</strong><p><strong><font class='posOutcome'>You WON</font><p>You bet: 1</strong></font> &nbsp; &nbsp; &nbsp; &nbsp; &nbsp; &nbsp;<font class='posOutcome'>you receive: <strong>2</strong></font></div>","null","5","Melon Millions","Fruit/melon.png","Won","0.65,0.2","13","0.65","52","15","",""
"html-keyboard-response","55","157757","0.0-11.0-1.15","5fd8025bcfda8b1165a0b16e","bdp_rwlrn","Sun Mar 12 2023 21:33:46 GMT-0500 (アメリカ中部夏時間)","531762","Untrustworthy,Trustworthy","","844","","","","decision","","<div class='trialDiv'><img src='Fruit/grapes.png'><br><font class='baseline'><strong>Great Grapes</strong><p>Choose number of points to bet.</font><div class='respPicDiv'><img src='img/responseButtonOffersNo0L.png' class='respPic'></div></div>","1","6","Great Grapes","Fruit/grapes.png","Lost","0.2,0.65","8","0.2","57","16","",""
"html-keyboard-response","56","158009","0.0-11.0-2.15","5fd8025bcfda8b1165a0b16e","bdp_rwlrn","Sun Mar 12 2023 21:33:46 GMT-0500 (アメリカ中部夏時間)","531762","Untrustworthy,Trustworthy","","null","","","","decisionFB","","<div class='trialDiv'><img src='Fruit/grapes.png'><br><font class='baseline'><strong>Great Grapes</strong><p>Choose number of points to bet.</font><div class='respPicDiv'><img src='img/responseButtonOffersNo0L1.png' class='respPic'></div></div>","null","6","Great Grapes","Fruit/grapes.png","Lost","0.2,0.65","8","0.2","56","16","",""
"html-keyboard-response","57","159010","0.0-11.0-3.15","5fd8025bcfda8b1165a0b16e","bdp_rwlrn","Sun Mar 12 2023 21:33:46 GMT-0500 (アメリカ中部夏時間)","531762","Untrustworthy,Trustworthy","","null","","","","feedback","","<div class='respPicDiv'><img src='img/responseButtonOffersNo0_wht.png' class='respPic'></div><div class='trialDiv'><img src='Fruit/grapes.png'><br><font class='baseline'><strong>Great Grapes</strong><p><strong><font class='negOutcome'>You LOST</font><p>You bet: 1</strong></font> &nbsp; &nbsp; &nbsp; &nbsp; &nbsp; &nbsp;<font class='negOutcome'>You receive: <strong>0</strong></font></div>","null","6","Great Grapes","Fruit/grapes.png","Lost","0.2,0.65","8","0.2","56","16","",""
"html-keyboard-response","58","159733","0.0-11.0-1.16","5fd8025bcfda8b1165a0b16e","bdp_rwlrn","Sun Mar 12 2023 21:33:46 GMT-0500 (アメリカ中部夏時間)","531762","Untrustworthy,Trustworthy","","723","","","","decision","","<div class='trialDiv'><img src='Fruit/melon.png'><br><font class='baseline'><strong>Melon Millions</strong><p>Choose number of points to bet.</font><div class='respPicDiv'><img src='img/responseButtonOffersNo0L.png' class='respPic'></div></div>","5","6","Melon Millions","Fruit/melon.png","Won","0.65,0.2","13","0.65","61","17","",""
"html-keyboard-response","59","159984","0.0-11.0-2.16","5fd8025bcfda8b1165a0b16e","bdp_rwlrn","Sun Mar 12 2023 21:33:46 GMT-0500 (アメリカ中部夏時間)","531762","Untrustworthy,Trustworthy","","null","","","","decisionFB","","<div class='trialDiv'><img src='Fruit/melon.png'><br><font class='baseline'><strong>Melon Millions</strong><p>Choose number of points to bet.</font><div class='respPicDiv'><img src='img/responseButtonOffersNo0L5.png' class='respPic'></div></div>","null","6","Melon Millions","Fruit/melon.png","Won","0.65,0.2","13","0.65","56","17","",""
"html-keyboard-response","60","160986","0.0-11.0-3.16","5fd8025bcfda8b1165a0b16e","bdp_rwlrn","Sun Mar 12 2023 21:33:46 GMT-0500 (アメリカ中部夏時間)","531762","Untrustworthy,Trustworthy","","null","","","","feedback","","<div class='respPicDiv'><img src='img/responseButtonOffersNo0_wht.png' class='respPic'></div><div class='trialDiv'><img src='Fruit/melon.png'><br><font class='baseline'><strong>Melon Millions</strong><p><strong><font class='posOutcome'>You WON</font><p>You bet: 5</strong></font> &nbsp; &nbsp; &nbsp; &nbsp; &nbsp; &nbsp;<font class='posOutcome'>you receive: <strong>10</strong></font></div>","null","6","Melon Millions","Fruit/melon.png","Won","0.65,0.2","13","0.65","66","17","",""
"html-keyboard-response","61","161981","0.0-11.0-1.17","5fd8025bcfda8b1165a0b16e","bdp_rwlrn","Sun Mar 12 2023 21:33:46 GMT-0500 (アメリカ中部夏時間)","531762","Untrustworthy,Trustworthy","","995","","","","decision","","<div class='trialDiv'><img src='Fruit/watermelon.png'><br><font class='baseline'><strong>Watermelon Win$</strong><p>Choose number of points to bet.</font><div class='respPicDiv'><img src='img/responseButtonOffersNo0L.png' class='respPic'></div></div>","1","6","Watermelon Win$","Fruit/watermelon.png","Won","0.35,0.65","10","0.35","71","18","",""
"html-keyboard-response","62","162233","0.0-11.0-2.17","5fd8025bcfda8b1165a0b16e","bdp_rwlrn","Sun Mar 12 2023 21:33:46 GMT-0500 (アメリカ中部夏時間)","531762","Untrustworthy,Trustworthy","","null","","","","decisionFB","","<div class='trialDiv'><img src='Fruit/watermelon.png'><br><font class='baseline'><strong>Watermelon Win$</strong><p>Choose number of points to bet.</font><div class='respPicDiv'><img src='img/responseButtonOffersNo0L1.png' class='respPic'></div></div>","null","6","Watermelon Win$","Fruit/watermelon.png","Won","0.35,0.65","10","0.35","70","18","",""
"html-keyboard-response","63","163235","0.0-11.0-3.17","5fd8025bcfda8b1165a0b16e","bdp_rwlrn","Sun Mar 12 2023 21:33:46 GMT-0500 (アメリカ中部夏時間)","531762","Untrustworthy,Trustworthy","","null","","","","feedback","","<div class='respPicDiv'><img src='img/responseButtonOffersNo0_wht.png' class='respPic'></div><div class='trialDiv'><img src='Fruit/watermelon.png'><br><font class='baseline'><strong>Watermelon Win$</strong><p><strong><font class='posOutcome'>You WON</font><p>You bet: 1</strong></font> &nbsp; &nbsp; &nbsp; &nbsp; &nbsp; &nbsp;<font class='posOutcome'>you receive: <strong>2</strong></font></div>","null","6","Watermelon Win$","Fruit/watermelon.png","Won","0.35,0.65","10","0.35","72","18","",""
"html-keyboard-response","64","163925","0.0-11.0-1.18","5fd8025bcfda8b1165a0b16e","bdp_rwlrn","Sun Mar 12 2023 21:33:46 GMT-0500 (アメリカ中部夏時間)","531762","Untrustworthy,Trustworthy","","689","","","","decision","","<div class='trialDiv'><img src='Fruit/grapes.png'><br><font class='baseline'><strong>Great Grapes</strong><p>Choose number of points to bet.</font><div class='respPicDiv'><img src='img/responseButtonOffersNo0L.png' class='respPic'></div></div>","1","7","Great Grapes","Fruit/grapes.png","Lost","0.2,0.65","8","0.2","77","19","",""
"html-keyboard-response","65","164188","0.0-11.0-2.18","5fd8025bcfda8b1165a0b16e","bdp_rwlrn","Sun Mar 12 2023 21:33:46 GMT-0500 (アメリカ中部夏時間)","531762","Untrustworthy,Trustworthy","","null","","","","decisionFB","","<div class='trialDiv'><img src='Fruit/grapes.png'><br><font class='baseline'><strong>Great Grapes</strong><p>Choose number of points to bet.</font><div class='respPicDiv'><img src='img/responseButtonOffersNo0L1.png' class='respPic'></div></div>","null","7","Great Grapes","Fruit/grapes.png","Lost","0.2,0.65","8","0.2","76","19","",""
"html-keyboard-response","66","165189","0.0-11.0-3.18","5fd8025bcfda8b1165a0b16e","bdp_rwlrn","Sun Mar 12 2023 21:33:46 GMT-0500 (アメリカ中部夏時間)","531762","Untrustworthy,Trustworthy","","null","","","","feedback","","<div class='respPicDiv'><img src='img/responseButtonOffersNo0_wht.png' class='respPic'></div><div class='trialDiv'><img src='Fruit/grapes.png'><br><font class='baseline'><strong>Great Grapes</strong><p><strong><font class='negOutcome'>You LOST</font><p>You bet: 1</strong></font> &nbsp; &nbsp; &nbsp; &nbsp; &nbsp; &nbsp;<font class='negOutcome'>You receive: <strong>0</strong></font></div>","null","7","Great Grapes","Fruit/grapes.png","Lost","0.2,0.65","8","0.2","76","19","",""
"html-keyboard-response","67","168757","0.0-11.0-1.19","5fd8025bcfda8b1165a0b16e","bdp_rwlrn","Sun Mar 12 2023 21:33:46 GMT-0500 (アメリカ中部夏時間)","531762","Untrustworthy,Trustworthy","","3568","","","","decision","","<div class='trialDiv'><img src='Fruit/watermelon.png'><br><font class='baseline'><strong>Watermelon Win$</strong><p>Choose number of points to bet.</font><div class='respPicDiv'><img src='img/responseButtonOffersNo0L.png' class='respPic'></div></div>","5","7","Watermelon Win$","Fruit/watermelon.png","Lost","0.35,0.65","10","0.35","81","20","",""
"html-keyboard-response","68","169009","0.0-11.0-2.19","5fd8025bcfda8b1165a0b16e","bdp_rwlrn","Sun Mar 12 2023 21:33:46 GMT-0500 (アメリカ中部夏時間)","531762","Untrustworthy,Trustworthy","","null","","","","decisionFB","","<div class='trialDiv'><img src='Fruit/watermelon.png'><br><font class='baseline'><strong>Watermelon Win$</strong><p>Choose number of points to bet.</font><div class='respPicDiv'><img src='img/responseButtonOffersNo0L5.png' class='respPic'></div></div>","null","7","Watermelon Win$","Fruit/watermelon.png","Lost","0.35,0.65","10","0.35","76","20","",""
"html-keyboard-response","69","170010","0.0-11.0-3.19","5fd8025bcfda8b1165a0b16e","bdp_rwlrn","Sun Mar 12 2023 21:33:46 GMT-0500 (アメリカ中部夏時間)","531762","Untrustworthy,Trustworthy","","null","","","","feedback","","<div class='respPicDiv'><img src='img/responseButtonOffersNo0_wht.png' class='respPic'></div><div class='trialDiv'><img src='Fruit/watermelon.png'><br><font class='baseline'><strong>Watermelon Win$</strong><p><strong><font class='negOutcome'>You LOST</font><p>You bet: 5</strong></font> &nbsp; &nbsp; &nbsp; &nbsp; &nbsp; &nbsp;<font class='negOutcome'>You receive: <strong>0</strong></font></div>","null","7","Watermelon Win$","Fruit/watermelon.png","Lost","0.35,0.65","10","0.35","76","20","",""
"html-keyboard-response","70","170838","0.0-11.0-1.20","5fd8025bcfda8b1165a0b16e","bdp_rwlrn","Sun Mar 12 2023 21:33:46 GMT-0500 (アメリカ中部夏時間)","531762","Untrustworthy,Trustworthy","","828","","","","decision","","<div class='trialDiv'><img src='Fruit/melon.png'><br><font class='baseline'><strong>Melon Millions</strong><p>Choose number of points to bet.</font><div class='respPicDiv'><img src='img/responseButtonOffersNo0L.png' class='respPic'></div></div>","5","7","Melon Millions","Fruit/melon.png","Won","0.65,0.2","13","0.65","81","21","",""
"html-keyboard-response","71","171090","0.0-11.0-2.20","5fd8025bcfda8b1165a0b16e","bdp_rwlrn","Sun Mar 12 2023 21:33:46 GMT-0500 (アメリカ中部夏時間)","531762","Untrustworthy,Trustworthy","","null","","","","decisionFB","","<div class='trialDiv'><img src='Fruit/melon.png'><br><font class='baseline'><strong>Melon Millions</strong><p>Choose number of points to bet.</font><div class='respPicDiv'><img src='img/responseButtonOffersNo0L5.png' class='respPic'></div></div>","null","7","Melon Millions","Fruit/melon.png","Won","0.65,0.2","13","0.65","76","21","",""
"html-keyboard-response","72","172091","0.0-11.0-3.20","5fd8025bcfda8b1165a0b16e","bdp_rwlrn","Sun Mar 12 2023 21:33:46 GMT-0500 (アメリカ中部夏時間)","531762","Untrustworthy,Trustworthy","","null","","","","feedback","","<div class='respPicDiv'><img src='img/responseButtonOffersNo0_wht.png' class='respPic'></div><div class='trialDiv'><img src='Fruit/melon.png'><br><font class='baseline'><strong>Melon Millions</strong><p><strong><font class='posOutcome'>You WON</font><p>You bet: 5</strong></font> &nbsp; &nbsp; &nbsp; &nbsp; &nbsp; &nbsp;<font class='posOutcome'>you receive: <strong>10</strong></font></div>","null","7","Melon Millions","Fruit/melon.png","Won","0.65,0.2","13","0.65","86","21","",""
"html-keyboard-response","73","173678","0.0-11.0-1.21","5fd8025bcfda8b1165a0b16e","bdp_rwlrn","Sun Mar 12 2023 21:33:46 GMT-0500 (アメリカ中部夏時間)","531762","Untrustworthy,Trustworthy","","1586","","","","decision","","<div class='trialDiv'><img src='Fruit/watermelon.png'><br><font class='baseline'><strong>Watermelon Win$</strong><p>Choose number of points to bet.</font><div class='respPicDiv'><img src='img/responseButtonOffersNo0L.png' class='respPic'></div></div>","1","8","Watermelon Win$","Fruit/watermelon.png","Won","0.35,0.65","10","0.35","91","22","",""
"html-keyboard-response","74","173928","0.0-11.0-2.21","5fd8025bcfda8b1165a0b16e","bdp_rwlrn","Sun Mar 12 2023 21:33:46 GMT-0500 (アメリカ中部夏時間)","531762","Untrustworthy,Trustworthy","","null","","","","decisionFB","","<div class='trialDiv'><img src='Fruit/watermelon.png'><br><font class='baseline'><strong>Watermelon Win$</strong><p>Choose number of points to bet.</font><div class='respPicDiv'><img src='img/responseButtonOffersNo0L1.png' class='respPic'></div></div>","null","8","Watermelon Win$","Fruit/watermelon.png","Won","0.35,0.65","10","0.35","90","22","",""
"html-keyboard-response","75","174930","0.0-11.0-3.21","5fd8025bcfda8b1165a0b16e","bdp_rwlrn","Sun Mar 12 2023 21:33:46 GMT-0500 (アメリカ中部夏時間)","531762","Untrustworthy,Trustworthy","","null","","","","feedback","","<div class='respPicDiv'><img src='img/responseButtonOffersNo0_wht.png' class='respPic'></div><div class='trialDiv'><img src='Fruit/watermelon.png'><br><font class='baseline'><strong>Watermelon Win$</strong><p><strong><font class='posOutcome'>You WON</font><p>You bet: 1</strong></font> &nbsp; &nbsp; &nbsp; &nbsp; &nbsp; &nbsp;<font class='posOutcome'>you receive: <strong>2</strong></font></div>","null","8","Watermelon Win$","Fruit/watermelon.png","Won","0.35,0.65","10","0.35","92","22","",""
"html-keyboard-response","76","176222","0.0-11.0-1.22","5fd8025bcfda8b1165a0b16e","bdp_rwlrn","Sun Mar 12 2023 21:33:46 GMT-0500 (アメリカ中部夏時間)","531762","Untrustworthy,Trustworthy","","1292","","","","decision","","<div class='trialDiv'><img src='Fruit/melon.png'><br><font class='baseline'><strong>Melon Millions</strong><p>Choose number of points to bet.</font><div class='respPicDiv'><img src='img/responseButtonOffersNo0L.png' class='respPic'></div></div>","5","8","Melon Millions","Fruit/melon.png","Lost","0.65,0.2","13","0.65","97","23","",""
"html-keyboard-response","77","176474","0.0-11.0-2.22","5fd8025bcfda8b1165a0b16e","bdp_rwlrn","Sun Mar 12 2023 21:33:46 GMT-0500 (アメリカ中部夏時間)","531762","Untrustworthy,Trustworthy","","null","","","","decisionFB","","<div class='trialDiv'><img src='Fruit/melon.png'><br><font class='baseline'><strong>Melon Millions</strong><p>Choose number of points to bet.</font><div class='respPicDiv'><img src='img/responseButtonOffersNo0L5.png' class='respPic'></div></div>","null","8","Melon Millions","Fruit/melon.png","Lost","0.65,0.2","13","0.65","92","23","",""
"html-keyboard-response","78","177477","0.0-11.0-3.22","5fd8025bcfda8b1165a0b16e","bdp_rwlrn","Sun Mar 12 2023 21:33:46 GMT-0500 (アメリカ中部夏時間)","531762","Untrustworthy,Trustworthy","","null","","","","feedback","","<div class='respPicDiv'><img src='img/responseButtonOffersNo0_wht.png' class='respPic'></div><div class='trialDiv'><img src='Fruit/melon.png'><br><font class='baseline'><strong>Melon Millions</strong><p><strong><font class='negOutcome'>You LOST</font><p>You bet: 5</strong></font> &nbsp; &nbsp; &nbsp; &nbsp; &nbsp; &nbsp;<font class='negOutcome'>You receive: <strong>0</strong></font></div>","null","8","Melon Millions","Fruit/melon.png","Lost","0.65,0.2","13","0.65","92","23","",""
"html-keyboard-response","79","178454","0.0-11.0-1.23","5fd8025bcfda8b1165a0b16e","bdp_rwlrn","Sun Mar 12 2023 21:33:46 GMT-0500 (アメリカ中部夏時間)","531762","Untrustworthy,Trustworthy","","977","","","","decision","","<div class='trialDiv'><img src='Fruit/grapes.png'><br><font class='baseline'><strong>Great Grapes</strong><p>Choose number of points to bet.</font><div class='respPicDiv'><img src='img/responseButtonOffersNo0L.png' class='respPic'></div></div>","1","8","Great Grapes","Fruit/grapes.png","Lost","0.2,0.65","8","0.2","97","24","",""
"html-keyboard-response","80","178707","0.0-11.0-2.23","5fd8025bcfda8b1165a0b16e","bdp_rwlrn","Sun Mar 12 2023 21:33:46 GMT-0500 (アメリカ中部夏時間)","531762","Untrustworthy,Trustworthy","","null","","","","decisionFB","","<div class='trialDiv'><img src='Fruit/grapes.png'><br><font class='baseline'><strong>Great Grapes</strong><p>Choose number of points to bet.</font><div class='respPicDiv'><img src='img/responseButtonOffersNo0L1.png' class='respPic'></div></div>","null","8","Great Grapes","Fruit/grapes.png","Lost","0.2,0.65","8","0.2","96","24","",""
"html-keyboard-response","81","179708","0.0-11.0-3.23","5fd8025bcfda8b1165a0b16e","bdp_rwlrn","Sun Mar 12 2023 21:33:46 GMT-0500 (アメリカ中部夏時間)","531762","Untrustworthy,Trustworthy","","null","","","","feedback","","<div class='respPicDiv'><img src='img/responseButtonOffersNo0_wht.png' class='respPic'></div><div class='trialDiv'><img src='Fruit/grapes.png'><br><font class='baseline'><strong>Great Grapes</strong><p><strong><font class='negOutcome'>You LOST</font><p>You bet: 1</strong></font> &nbsp; &nbsp; &nbsp; &nbsp; &nbsp; &nbsp;<font class='negOutcome'>You receive: <strong>0</strong></font></div>","null","8","Great Grapes","Fruit/grapes.png","Lost","0.2,0.65","8","0.2","96","24","",""
"html-keyboard-response","82","180575","0.0-11.0-1.24","5fd8025bcfda8b1165a0b16e","bdp_rwlrn","Sun Mar 12 2023 21:33:46 GMT-0500 (アメリカ中部夏時間)","531762","Untrustworthy,Trustworthy","","867","","","","decision","","<div class='trialDiv'><img src='Fruit/melon.png'><br><font class='baseline'><strong>Melon Millions</strong><p>Choose number of points to bet.</font><div class='respPicDiv'><img src='img/responseButtonOffersNo0L.png' class='respPic'></div></div>","5","9","Melon Millions","Fruit/melon.png","Lost","0.65,0.2","13","0.65","101","25","",""
"html-keyboard-response","83","180828","0.0-11.0-2.24","5fd8025bcfda8b1165a0b16e","bdp_rwlrn","Sun Mar 12 2023 21:33:46 GMT-0500 (アメリカ中部夏時間)","531762","Untrustworthy,Trustworthy","","null","","","","decisionFB","","<div class='trialDiv'><img src='Fruit/melon.png'><br><font class='baseline'><strong>Melon Millions</strong><p>Choose number of points to bet.</font><div class='respPicDiv'><img src='img/responseButtonOffersNo0L5.png' class='respPic'></div></div>","null","9","Melon Millions","Fruit/melon.png","Lost","0.65,0.2","13","0.65","96","25","",""
"html-keyboard-response","84","181829","0.0-11.0-3.24","5fd8025bcfda8b1165a0b16e","bdp_rwlrn","Sun Mar 12 2023 21:33:46 GMT-0500 (アメリカ中部夏時間)","531762","Untrustworthy,Trustworthy","","null","","","","feedback","","<div class='respPicDiv'><img src='img/responseButtonOffersNo0_wht.png' class='respPic'></div><div class='trialDiv'><img src='Fruit/melon.png'><br><font class='baseline'><strong>Melon Millions</strong><p><strong><font class='negOutcome'>You LOST</font><p>You bet: 5</strong></font> &nbsp; &nbsp; &nbsp; &nbsp; &nbsp; &nbsp;<font class='negOutcome'>You receive: <strong>0</strong></font></div>","null","9","Melon Millions","Fruit/melon.png","Lost","0.65,0.2","13","0.65","96","25","",""
"html-keyboard-response","85","183135","0.0-11.0-1.25","5fd8025bcfda8b1165a0b16e","bdp_rwlrn","Sun Mar 12 2023 21:33:46 GMT-0500 (アメリカ中部夏時間)","531762","Untrustworthy,Trustworthy","","1306","","","","decision","","<div class='trialDiv'><img src='Fruit/grapes.png'><br><font class='baseline'><strong>Great Grapes</strong><p>Choose number of points to bet.</font><div class='respPicDiv'><img src='img/responseButtonOffersNo0L.png' class='respPic'></div></div>","1","9","Great Grapes","Fruit/grapes.png","Won","0.2,0.65","8","0.2","101","26","",""
"html-keyboard-response","86","183387","0.0-11.0-2.25","5fd8025bcfda8b1165a0b16e","bdp_rwlrn","Sun Mar 12 2023 21:33:46 GMT-0500 (アメリカ中部夏時間)","531762","Untrustworthy,Trustworthy","","null","","","","decisionFB","","<div class='trialDiv'><img src='Fruit/grapes.png'><br><font class='baseline'><strong>Great Grapes</strong><p>Choose number of points to bet.</font><div class='respPicDiv'><img src='img/responseButtonOffersNo0L1.png' class='respPic'></div></div>","null","9","Great Grapes","Fruit/grapes.png","Won","0.2,0.65","8","0.2","100","26","",""
"html-keyboard-response","87","184388","0.0-11.0-3.25","5fd8025bcfda8b1165a0b16e","bdp_rwlrn","Sun Mar 12 2023 21:33:46 GMT-0500 (アメリカ中部夏時間)","531762","Untrustworthy,Trustworthy","","null","","","","feedback","","<div class='respPicDiv'><img src='img/responseButtonOffersNo0_wht.png' class='respPic'></div><div class='trialDiv'><img src='Fruit/grapes.png'><br><font class='baseline'><strong>Great Grapes</strong><p><strong><font class='posOutcome'>You WON</font><p>You bet: 1</strong></font> &nbsp; &nbsp; &nbsp; &nbsp; &nbsp; &nbsp;<font class='posOutcome'>you receive: <strong>2</strong></font></div>","null","9","Great Grapes","Fruit/grapes.png","Won","0.2,0.65","8","0.2","102","26","",""
"html-keyboard-response","88","185575","0.0-11.0-1.26","5fd8025bcfda8b1165a0b16e","bdp_rwlrn","Sun Mar 12 2023 21:33:46 GMT-0500 (アメリカ中部夏時間)","531762","Untrustworthy,Trustworthy","","1187","","","","decision","","<div class='trialDiv'><img src='Fruit/watermelon.png'><br><font class='baseline'><strong>Watermelon Win$</strong><p>Choose number of points to bet.</font><div class='respPicDiv'><img src='img/responseButtonOffersNo0L.png' class='respPic'></div></div>","5","9","Watermelon Win$","Fruit/watermelon.png","Lost","0.35,0.65","10","0.35","107","27","",""
"html-keyboard-response","89","185828","0.0-11.0-2.26","5fd8025bcfda8b1165a0b16e","bdp_rwlrn","Sun Mar 12 2023 21:33:46 GMT-0500 (アメリカ中部夏時間)","531762","Untrustworthy,Trustworthy","","null","","","","decisionFB","","<div class='trialDiv'><img src='Fruit/watermelon.png'><br><font class='baseline'><strong>Watermelon Win$</strong><p>Choose number of points to bet.</font><div class='respPicDiv'><img src='img/responseButtonOffersNo0L5.png' class='respPic'></div></div>","null","9","Watermelon Win$","Fruit/watermelon.png","Lost","0.35,0.65","10","0.35","102","27","",""
"html-keyboard-response","90","186829","0.0-11.0-3.26","5fd8025bcfda8b1165a0b16e","bdp_rwlrn","Sun Mar 12 2023 21:33:46 GMT-0500 (アメリカ中部夏時間)","531762","Untrustworthy,Trustworthy","","null","","","","feedback","","<div class='respPicDiv'><img src='img/responseButtonOffersNo0_wht.png' class='respPic'></div><div class='trialDiv'><img src='Fruit/watermelon.png'><br><font class='baseline'><strong>Watermelon Win$</strong><p><strong><font class='negOutcome'>You LOST</font><p>You bet: 5</strong></font> &nbsp; &nbsp; &nbsp; &nbsp; &nbsp; &nbsp;<font class='negOutcome'>You receive: <strong>0</strong></font></div>","null","9","Watermelon Win$","Fruit/watermelon.png","Lost","0.35,0.65","10","0.35","102","27","",""
"html-keyboard-response","91","187247","0.0-11.0-1.27","5fd8025bcfda8b1165a0b16e","bdp_rwlrn","Sun Mar 12 2023 21:33:46 GMT-0500 (アメリカ中部夏時間)","531762","Untrustworthy,Trustworthy","","418","","","","decision","","<div class='trialDiv'><img src='Fruit/grapes.png'><br><font class='baseline'><strong>Great Grapes</strong><p>Choose number of points to bet.</font><div class='respPicDiv'><img src='img/responseButtonOffersNo0L.png' class='respPic'></div></div>","1","10","Great Grapes","Fruit/grapes.png","Won","0.2,0.65","8","0.2","107","28","",""
"html-keyboard-response","92","187508","0.0-11.0-2.27","5fd8025bcfda8b1165a0b16e","bdp_rwlrn","Sun Mar 12 2023 21:33:46 GMT-0500 (アメリカ中部夏時間)","531762","Untrustworthy,Trustworthy","","null","","","","decisionFB","","<div class='trialDiv'><img src='Fruit/grapes.png'><br><font class='baseline'><strong>Great Grapes</strong><p>Choose number of points to bet.</font><div class='respPicDiv'><img src='img/responseButtonOffersNo0L1.png' class='respPic'></div></div>","null","10","Great Grapes","Fruit/grapes.png","Won","0.2,0.65","8","0.2","106","28","",""
"html-keyboard-response","93","188509","0.0-11.0-3.27","5fd8025bcfda8b1165a0b16e","bdp_rwlrn","Sun Mar 12 2023 21:33:46 GMT-0500 (アメリカ中部夏時間)","531762","Untrustworthy,Trustworthy","","null","","","","feedback","","<div class='respPicDiv'><img src='img/responseButtonOffersNo0_wht.png' class='respPic'></div><div class='trialDiv'><img src='Fruit/grapes.png'><br><font class='baseline'><strong>Great Grapes</strong><p><strong><font class='posOutcome'>You WON</font><p>You bet: 1</strong></font> &nbsp; &nbsp; &nbsp; &nbsp; &nbsp; &nbsp;<font class='posOutcome'>you receive: <strong>2</strong></font></div>","null","10","Great Grapes","Fruit/grapes.png","Won","0.2,0.65","8","0.2","108","28","",""
"html-keyboard-response","94","189896","0.0-11.0-1.28","5fd8025bcfda8b1165a0b16e","bdp_rwlrn","Sun Mar 12 2023 21:33:46 GMT-0500 (アメリカ中部夏時間)","531762","Untrustworthy,Trustworthy","","1386","","","","decision","","<div class='trialDiv'><img src='Fruit/watermelon.png'><br><font class='baseline'><strong>Watermelon Win$</strong><p>Choose number of points to bet.</font><div class='respPicDiv'><img src='img/responseButtonOffersNo0L.png' class='respPic'></div></div>","2","10","Watermelon Win$","Fruit/watermelon.png","Won","0.35,0.65","10","0.35","113","29","",""
"html-keyboard-response","95","190147","0.0-11.0-2.28","5fd8025bcfda8b1165a0b16e","bdp_rwlrn","Sun Mar 12 2023 21:33:46 GMT-0500 (アメリカ中部夏時間)","531762","Untrustworthy,Trustworthy","","null","","","","decisionFB","","<div class='trialDiv'><img src='Fruit/watermelon.png'><br><font class='baseline'><strong>Watermelon Win$</strong><p>Choose number of points to bet.</font><div class='respPicDiv'><img src='img/responseButtonOffersNo0L2.png' class='respPic'></div></div>","null","10","Watermelon Win$","Fruit/watermelon.png","Won","0.35,0.65","10","0.35","111","29","",""
"html-keyboard-response","96","191148","0.0-11.0-3.28","5fd8025bcfda8b1165a0b16e","bdp_rwlrn","Sun Mar 12 2023 21:33:46 GMT-0500 (アメリカ中部夏時間)","531762","Untrustworthy,Trustworthy","","null","","","","feedback","","<div class='respPicDiv'><img src='img/responseButtonOffersNo0_wht.png' class='respPic'></div><div class='trialDiv'><img src='Fruit/watermelon.png'><br><font class='baseline'><strong>Watermelon Win$</strong><p><strong><font class='posOutcome'>You WON</font><p>You bet: 2</strong></font> &nbsp; &nbsp; &nbsp; &nbsp; &nbsp; &nbsp;<font class='posOutcome'>you receive: <strong>4</strong></font></div>","null","10","Watermelon Win$","Fruit/watermelon.png","Won","0.35,0.65","10","0.35","115","29","",""
"html-keyboard-response","97","192344","0.0-11.0-1.29","5fd8025bcfda8b1165a0b16e","bdp_rwlrn","Sun Mar 12 2023 21:33:46 GMT-0500 (アメリカ中部夏時間)","531762","Untrustworthy,Trustworthy","","1196","","","","decision","","<div class='trialDiv'><img src='Fruit/melon.png'><br><font class='baseline'><strong>Melon Millions</strong><p>Choose number of points to bet.</font><div class='respPicDiv'><img src='img/responseButtonOffersNo0L.png' class='respPic'></div></div>","2","10","Melon Millions","Fruit/melon.png","Won","0.65,0.2","13","0.65","120","30","",""
"html-keyboard-response","98","192596","0.0-11.0-2.29","5fd8025bcfda8b1165a0b16e","bdp_rwlrn","Sun Mar 12 2023 21:33:46 GMT-0500 (アメリカ中部夏時間)","531762","Untrustworthy,Trustworthy","","null","","","","decisionFB","","<div class='trialDiv'><img src='Fruit/melon.png'><br><font class='baseline'><strong>Melon Millions</strong><p>Choose number of points to bet.</font><div class='respPicDiv'><img src='img/responseButtonOffersNo0L2.png' class='respPic'></div></div>","null","10","Melon Millions","Fruit/melon.png","Won","0.65,0.2","13","0.65","118","30","",""
"html-keyboard-response","99","193597","0.0-11.0-3.29","5fd8025bcfda8b1165a0b16e","bdp_rwlrn","Sun Mar 12 2023 21:33:46 GMT-0500 (アメリカ中部夏時間)","531762","Untrustworthy,Trustworthy","","null","","","","feedback","","<div class='respPicDiv'><img src='img/responseButtonOffersNo0_wht.png' class='respPic'></div><div class='trialDiv'><img src='Fruit/melon.png'><br><font class='baseline'><strong>Melon Millions</strong><p><strong><font class='posOutcome'>You WON</font><p>You bet: 2</strong></font> &nbsp; &nbsp; &nbsp; &nbsp; &nbsp; &nbsp;<font class='posOutcome'>you receive: <strong>4</strong></font></div>","null","10","Melon Millions","Fruit/melon.png","Won","0.65,0.2","13","0.65","122","30","",""
"html-keyboard-response","100","195225","0.0-11.0-1.30","5fd8025bcfda8b1165a0b16e","bdp_rwlrn","Sun Mar 12 2023 21:33:46 GMT-0500 (アメリカ中部夏時間)","531762","Untrustworthy,Trustworthy","","1628","","","","decision","","<div class='trialDiv'><img src='Fruit/grapes.png'><br><font class='baseline'><strong>Great Grapes</strong><p>Choose number of points to bet.</font><div class='respPicDiv'><img src='img/responseButtonOffersNo0L.png' class='respPic'></div></div>","3","11","Great Grapes","Fruit/grapes.png","Won","0.2,0.65","8","0.2","127","31","",""
"html-keyboard-response","101","195476","0.0-11.0-2.30","5fd8025bcfda8b1165a0b16e","bdp_rwlrn","Sun Mar 12 2023 21:33:46 GMT-0500 (アメリカ中部夏時間)","531762","Untrustworthy,Trustworthy","","null","","","","decisionFB","","<div class='trialDiv'><img src='Fruit/grapes.png'><br><font class='baseline'><strong>Great Grapes</strong><p>Choose number of points to bet.</font><div class='respPicDiv'><img src='img/responseButtonOffersNo0L3.png' class='respPic'></div></div>","null","11","Great Grapes","Fruit/grapes.png","Won","0.2,0.65","8","0.2","124","31","",""
"html-keyboard-response","102","196478","0.0-11.0-3.30","5fd8025bcfda8b1165a0b16e","bdp_rwlrn","Sun Mar 12 2023 21:33:46 GMT-0500 (アメリカ中部夏時間)","531762","Untrustworthy,Trustworthy","","null","","","","feedback","","<div class='respPicDiv'><img src='img/responseButtonOffersNo0_wht.png' class='respPic'></div><div class='trialDiv'><img src='Fruit/grapes.png'><br><font class='baseline'><strong>Great Grapes</strong><p><strong><font class='posOutcome'>You WON</font><p>You bet: 3</strong></font> &nbsp; &nbsp; &nbsp; &nbsp; &nbsp; &nbsp;<font class='posOutcome'>you receive: <strong>6</strong></font></div>","null","11","Great Grapes","Fruit/grapes.png","Won","0.2,0.65","8","0.2","130","31","",""
"html-keyboard-response","103","198016","0.0-11.0-1.31","5fd8025bcfda8b1165a0b16e","bdp_rwlrn","Sun Mar 12 2023 21:33:46 GMT-0500 (アメリカ中部夏時間)","531762","Untrustworthy,Trustworthy","","1538","","","","decision","","<div class='trialDiv'><img src='Fruit/melon.png'><br><font class='baseline'><strong>Melon Millions</strong><p>Choose number of points to bet.</font><div class='respPicDiv'><img src='img/responseButtonOffersNo0L.png' class='respPic'></div></div>","5","11","Melon Millions","Fruit/melon.png","Lost","0.65,0.2","13","0.65","135","32","",""
"html-keyboard-response","104","198269","0.0-11.0-2.31","5fd8025bcfda8b1165a0b16e","bdp_rwlrn","Sun Mar 12 2023 21:33:46 GMT-0500 (アメリカ中部夏時間)","531762","Untrustworthy,Trustworthy","","null","","","","decisionFB","","<div class='trialDiv'><img src='Fruit/melon.png'><br><font class='baseline'><strong>Melon Millions</strong><p>Choose number of points to bet.</font><div class='respPicDiv'><img src='img/responseButtonOffersNo0L5.png' class='respPic'></div></div>","null","11","Melon Millions","Fruit/melon.png","Lost","0.65,0.2","13","0.65","130","32","",""
"html-keyboard-response","105","199271","0.0-11.0-3.31","5fd8025bcfda8b1165a0b16e","bdp_rwlrn","Sun Mar 12 2023 21:33:46 GMT-0500 (アメリカ中部夏時間)","531762","Untrustworthy,Trustworthy","","null","","","","feedback","","<div class='respPicDiv'><img src='img/responseButtonOffersNo0_wht.png' class='respPic'></div><div class='trialDiv'><img src='Fruit/melon.png'><br><font class='baseline'><strong>Melon Millions</strong><p><strong><font class='negOutcome'>You LOST</font><p>You bet: 5</strong></font> &nbsp; &nbsp; &nbsp; &nbsp; &nbsp; &nbsp;<font class='negOutcome'>You receive: <strong>0</strong></font></div>","null","11","Melon Millions","Fruit/melon.png","Lost","0.65,0.2","13","0.65","130","32","",""
"html-keyboard-response","106","200801","0.0-11.0-1.32","5fd8025bcfda8b1165a0b16e","bdp_rwlrn","Sun Mar 12 2023 21:33:46 GMT-0500 (アメリカ中部夏時間)","531762","Untrustworthy,Trustworthy","","1529","","","","decision","","<div class='trialDiv'><img src='Fruit/watermelon.png'><br><font class='baseline'><strong>Watermelon Win$</strong><p>Choose number of points to bet.</font><div class='respPicDiv'><img src='img/responseButtonOffersNo0L.png' class='respPic'></div></div>","1","11","Watermelon Win$","Fruit/watermelon.png","Won","0.35,0.65","10","0.35","135","33","",""
"html-keyboard-response","107","201052","0.0-11.0-2.32","5fd8025bcfda8b1165a0b16e","bdp_rwlrn","Sun Mar 12 2023 21:33:46 GMT-0500 (アメリカ中部夏時間)","531762","Untrustworthy,Trustworthy","","null","","","","decisionFB","","<div class='trialDiv'><img src='Fruit/watermelon.png'><br><font class='baseline'><strong>Watermelon Win$</strong><p>Choose number of points to bet.</font><div class='respPicDiv'><img src='img/responseButtonOffersNo0L1.png' class='respPic'></div></div>","null","11","Watermelon Win$","Fruit/watermelon.png","Won","0.35,0.65","10","0.35","134","33","",""
"html-keyboard-response","108","202054","0.0-11.0-3.32","5fd8025bcfda8b1165a0b16e","bdp_rwlrn","Sun Mar 12 2023 21:33:46 GMT-0500 (アメリカ中部夏時間)","531762","Untrustworthy,Trustworthy","","null","","","","feedback","","<div class='respPicDiv'><img src='img/responseButtonOffersNo0_wht.png' class='respPic'></div><div class='trialDiv'><img src='Fruit/watermelon.png'><br><font class='baseline'><strong>Watermelon Win$</strong><p><strong><font class='posOutcome'>You WON</font><p>You bet: 1</strong></font> &nbsp; &nbsp; &nbsp; &nbsp; &nbsp; &nbsp;<font class='posOutcome'>you receive: <strong>2</strong></font></div>","null","11","Watermelon Win$","Fruit/watermelon.png","Won","0.35,0.65","10","0.35","136","33","",""
"html-keyboard-response","109","202729","0.0-11.0-1.33","5fd8025bcfda8b1165a0b16e","bdp_rwlrn","Sun Mar 12 2023 21:33:46 GMT-0500 (アメリカ中部夏時間)","531762","Untrustworthy,Trustworthy","","675","","","","decision","","<div class='trialDiv'><img src='Fruit/grapes.png'><br><font class='baseline'><strong>Great Grapes</strong><p>Choose number of points to bet.</font><div class='respPicDiv'><img src='img/responseButtonOffersNo0L.png' class='respPic'></div></div>","2","12","Great Grapes","Fruit/grapes.png","Lost","0.2,0.65","8","0.2","141","34","",""
"html-keyboard-response","110","202981","0.0-11.0-2.33","5fd8025bcfda8b1165a0b16e","bdp_rwlrn","Sun Mar 12 2023 21:33:46 GMT-0500 (アメリカ中部夏時間)","531762","Untrustworthy,Trustworthy","","null","","","","decisionFB","","<div class='trialDiv'><img src='Fruit/grapes.png'><br><font class='baseline'><strong>Great Grapes</strong><p>Choose number of points to bet.</font><div class='respPicDiv'><img src='img/responseButtonOffersNo0L2.png' class='respPic'></div></div>","null","12","Great Grapes","Fruit/grapes.png","Lost","0.2,0.65","8","0.2","139","34","",""
"html-keyboard-response","111","203982","0.0-11.0-3.33","5fd8025bcfda8b1165a0b16e","bdp_rwlrn","Sun Mar 12 2023 21:33:46 GMT-0500 (アメリカ中部夏時間)","531762","Untrustworthy,Trustworthy","","null","","","","feedback","","<div class='respPicDiv'><img src='img/responseButtonOffersNo0_wht.png' class='respPic'></div><div class='trialDiv'><img src='Fruit/grapes.png'><br><font class='baseline'><strong>Great Grapes</strong><p><strong><font class='negOutcome'>You LOST</font><p>You bet: 2</strong></font> &nbsp; &nbsp; &nbsp; &nbsp; &nbsp; &nbsp;<font class='negOutcome'>You receive: <strong>0</strong></font></div>","null","12","Great Grapes","Fruit/grapes.png","Lost","0.2,0.65","8","0.2","139","34","",""
"html-keyboard-response","112","206658","0.0-11.0-1.34","5fd8025bcfda8b1165a0b16e","bdp_rwlrn","Sun Mar 12 2023 21:33:46 GMT-0500 (アメリカ中部夏時間)","531762","Untrustworthy,Trustworthy","","2676","","","","decision","","<div class='trialDiv'><img src='Fruit/melon.png'><br><font class='baseline'><strong>Melon Millions</strong><p>Choose number of points to bet.</font><div class='respPicDiv'><img src='img/responseButtonOffersNo0L.png' class='respPic'></div></div>","5","12","Melon Millions","Fruit/melon.png","Won","0.65,0.2","13","0.65","144","35","",""
"html-keyboard-response","113","206910","0.0-11.0-2.34","5fd8025bcfda8b1165a0b16e","bdp_rwlrn","Sun Mar 12 2023 21:33:46 GMT-0500 (アメリカ中部夏時間)","531762","Untrustworthy,Trustworthy","","null","","","","decisionFB","","<div class='trialDiv'><img src='Fruit/melon.png'><br><font class='baseline'><strong>Melon Millions</strong><p>Choose number of points to bet.</font><div class='respPicDiv'><img src='img/responseButtonOffersNo0L5.png' class='respPic'></div></div>","null","12","Melon Millions","Fruit/melon.png","Won","0.65,0.2","13","0.65","139","35","",""
"html-keyboard-response","114","207911","0.0-11.0-3.34","5fd8025bcfda8b1165a0b16e","bdp_rwlrn","Sun Mar 12 2023 21:33:46 GMT-0500 (アメリカ中部夏時間)","531762","Untrustworthy,Trustworthy","","null","","","","feedback","","<div class='respPicDiv'><img src='img/responseButtonOffersNo0_wht.png' class='respPic'></div><div class='trialDiv'><img src='Fruit/melon.png'><br><font class='baseline'><strong>Melon Millions</strong><p><strong><font class='posOutcome'>You WON</font><p>You bet: 5</strong></font> &nbsp; &nbsp; &nbsp; &nbsp; &nbsp; &nbsp;<font class='posOutcome'>you receive: <strong>10</strong></font></div>","null","12","Melon Millions","Fruit/melon.png","Won","0.65,0.2","13","0.65","149","35","",""
"html-keyboard-response","115","208785","0.0-11.0-1.35","5fd8025bcfda8b1165a0b16e","bdp_rwlrn","Sun Mar 12 2023 21:33:46 GMT-0500 (アメリカ中部夏時間)","531762","Untrustworthy,Trustworthy","","874","","","","decision","","<div class='trialDiv'><img src='Fruit/watermelon.png'><br><font class='baseline'><strong>Watermelon Win$</strong><p>Choose number of points to bet.</font><div class='respPicDiv'><img src='img/responseButtonOffersNo0L.png' class='respPic'></div></div>","1","12","Watermelon Win$","Fruit/watermelon.png","Lost","0.35,0.65","10","0.35","154","36","",""
"html-keyboard-response","116","209037","0.0-11.0-2.35","5fd8025bcfda8b1165a0b16e","bdp_rwlrn","Sun Mar 12 2023 21:33:46 GMT-0500 (アメリカ中部夏時間)","531762","Untrustworthy,Trustworthy","","null","","","","decisionFB","","<div class='trialDiv'><img src='Fruit/watermelon.png'><br><font class='baseline'><strong>Watermelon Win$</strong><p>Choose number of points to bet.</font><div class='respPicDiv'><img src='img/responseButtonOffersNo0L1.png' class='respPic'></div></div>","null","12","Watermelon Win$","Fruit/watermelon.png","Lost","0.35,0.65","10","0.35","153","36","",""
"html-keyboard-response","117","210038","0.0-11.0-3.35","5fd8025bcfda8b1165a0b16e","bdp_rwlrn","Sun Mar 12 2023 21:33:46 GMT-0500 (アメリカ中部夏時間)","531762","Untrustworthy,Trustworthy","","null","","","","feedback","","<div class='respPicDiv'><img src='img/responseButtonOffersNo0_wht.png' class='respPic'></div><div class='trialDiv'><img src='Fruit/watermelon.png'><br><font class='baseline'><strong>Watermelon Win$</strong><p><strong><font class='negOutcome'>You LOST</font><p>You bet: 1</strong></font> &nbsp; &nbsp; &nbsp; &nbsp; &nbsp; &nbsp;<font class='negOutcome'>You receive: <strong>0</strong></font></div>","null","12","Watermelon Win$","Fruit/watermelon.png","Lost","0.35,0.65","10","0.35","153","36","",""
"html-keyboard-response","118","211954","0.0-11.0-1.36","5fd8025bcfda8b1165a0b16e","bdp_rwlrn","Sun Mar 12 2023 21:33:46 GMT-0500 (アメリカ中部夏時間)","531762","Untrustworthy,Trustworthy","","1916","","","","decision","","<div class='trialDiv'><img src='Fruit/melon.png'><br><font class='baseline'><strong>Melon Millions</strong><p>Choose number of points to bet.</font><div class='respPicDiv'><img src='img/responseButtonOffersNo0L.png' class='respPic'></div></div>","2","13","Melon Millions","Fruit/melon.png","Won","0.65,0.2","13","0.65","158","37","",""
"html-keyboard-response","119","212205","0.0-11.0-2.36","5fd8025bcfda8b1165a0b16e","bdp_rwlrn","Sun Mar 12 2023 21:33:46 GMT-0500 (アメリカ中部夏時間)","531762","Untrustworthy,Trustworthy","","null","","","","decisionFB","","<div class='trialDiv'><img src='Fruit/melon.png'><br><font class='baseline'><strong>Melon Millions</strong><p>Choose number of points to bet.</font><div class='respPicDiv'><img src='img/responseButtonOffersNo0L2.png' class='respPic'></div></div>","null","13","Melon Millions","Fruit/melon.png","Won","0.65,0.2","13","0.65","156","37","",""
"html-keyboard-response","120","213207","0.0-11.0-3.36","5fd8025bcfda8b1165a0b16e","bdp_rwlrn","Sun Mar 12 2023 21:33:46 GMT-0500 (アメリカ中部夏時間)","531762","Untrustworthy,Trustworthy","","null","","","","feedback","","<div class='respPicDiv'><img src='img/responseButtonOffersNo0_wht.png' class='respPic'></div><div class='trialDiv'><img src='Fruit/melon.png'><br><font class='baseline'><strong>Melon Millions</strong><p><strong><font class='posOutcome'>You WON</font><p>You bet: 2</strong></font> &nbsp; &nbsp; &nbsp; &nbsp; &nbsp; &nbsp;<font class='posOutcome'>you receive: <strong>4</strong></font></div>","null","13","Melon Millions","Fruit/melon.png","Won","0.65,0.2","13","0.65","160","37","",""
"html-keyboard-response","121","215186","0.0-11.0-1.37","5fd8025bcfda8b1165a0b16e","bdp_rwlrn","Sun Mar 12 2023 21:33:46 GMT-0500 (アメリカ中部夏時間)","531762","Untrustworthy,Trustworthy","","1979","","","","decision","","<div class='trialDiv'><img src='Fruit/grapes.png'><br><font class='baseline'><strong>Great Grapes</strong><p>Choose number of points to bet.</font><div class='respPicDiv'><img src='img/responseButtonOffersNo0L.png' class='respPic'></div></div>","2","13","Great Grapes","Fruit/grapes.png","Lost","0.2,0.65","8","0.2","165","38","",""
"html-keyboard-response","122","215438","0.0-11.0-2.37","5fd8025bcfda8b1165a0b16e","bdp_rwlrn","Sun Mar 12 2023 21:33:46 GMT-0500 (アメリカ中部夏時間)","531762","Untrustworthy,Trustworthy","","null","","","","decisionFB","","<div class='trialDiv'><img src='Fruit/grapes.png'><br><font class='baseline'><strong>Great Grapes</strong><p>Choose number of points to bet.</font><div class='respPicDiv'><img src='img/responseButtonOffersNo0L2.png' class='respPic'></div></div>","null","13","Great Grapes","Fruit/grapes.png","Lost","0.2,0.65","8","0.2","163","38","",""
"html-keyboard-response","123","216440","0.0-11.0-3.37","5fd8025bcfda8b1165a0b16e","bdp_rwlrn","Sun Mar 12 2023 21:33:46 GMT-0500 (アメリカ中部夏時間)","531762","Untrustworthy,Trustworthy","","null","","","","feedback","","<div class='respPicDiv'><img src='img/responseButtonOffersNo0_wht.png' class='respPic'></div><div class='trialDiv'><img src='Fruit/grapes.png'><br><font class='baseline'><strong>Great Grapes</strong><p><strong><font class='negOutcome'>You LOST</font><p>You bet: 2</strong></font> &nbsp; &nbsp; &nbsp; &nbsp; &nbsp; &nbsp;<font class='negOutcome'>You receive: <strong>0</strong></font></div>","null","13","Great Grapes","Fruit/grapes.png","Lost","0.2,0.65","8","0.2","163","38","",""
"html-keyboard-response","124","218427","0.0-11.0-1.38","5fd8025bcfda8b1165a0b16e","bdp_rwlrn","Sun Mar 12 2023 21:33:46 GMT-0500 (アメリカ中部夏時間)","531762","Untrustworthy,Trustworthy","","1987","","","","decision","","<div class='trialDiv'><img src='Fruit/watermelon.png'><br><font class='baseline'><strong>Watermelon Win$</strong><p>Choose number of points to bet.</font><div class='respPicDiv'><img src='img/responseButtonOffersNo0L.png' class='respPic'></div></div>","3","13","Watermelon Win$","Fruit/watermelon.png","Won","0.35,0.65","10","0.35","168","39","",""
"html-keyboard-response","125","218678","0.0-11.0-2.38","5fd8025bcfda8b1165a0b16e","bdp_rwlrn","Sun Mar 12 2023 21:33:46 GMT-0500 (アメリカ中部夏時間)","531762","Untrustworthy,Trustworthy","","null","","","","decisionFB","","<div class='trialDiv'><img src='Fruit/watermelon.png'><br><font class='baseline'><strong>Watermelon Win$</strong><p>Choose number of points to bet.</font><div class='respPicDiv'><img src='img/responseButtonOffersNo0L3.png' class='respPic'></div></div>","null","13","Watermelon Win$","Fruit/watermelon.png","Won","0.35,0.65","10","0.35","165","39","",""
"html-keyboard-response","126","219679","0.0-11.0-3.38","5fd8025bcfda8b1165a0b16e","bdp_rwlrn","Sun Mar 12 2023 21:33:46 GMT-0500 (アメリカ中部夏時間)","531762","Untrustworthy,Trustworthy","","null","","","","feedback","","<div class='respPicDiv'><img src='img/responseButtonOffersNo0_wht.png' class='respPic'></div><div class='trialDiv'><img src='Fruit/watermelon.png'><br><font class='baseline'><strong>Watermelon Win$</strong><p><strong><font class='posOutcome'>You WON</font><p>You bet: 3</strong></font> &nbsp; &nbsp; &nbsp; &nbsp; &nbsp; &nbsp;<font class='posOutcome'>you receive: <strong>6</strong></font></div>","null","13","Watermelon Win$","Fruit/watermelon.png","Won","0.35,0.65","10","0.35","171","39","",""
"html-keyboard-response","127","221811","0.0-11.0-1.39","5fd8025bcfda8b1165a0b16e","bdp_rwlrn","Sun Mar 12 2023 21:33:46 GMT-0500 (アメリカ中部夏時間)","531762","Untrustworthy,Trustworthy","","2132","","","","decision","","<div class='trialDiv'><img src='Fruit/melon.png'><br><font class='baseline'><strong>Melon Millions</strong><p>Choose number of points to bet.</font><div class='respPicDiv'><img src='img/responseButtonOffersNo0L.png' class='respPic'></div></div>","1","14","Melon Millions","Fruit/melon.png","Won","0.65,0.2","13","0.65","176","40","",""
"html-keyboard-response","128","222062","0.0-11.0-2.39","5fd8025bcfda8b1165a0b16e","bdp_rwlrn","Sun Mar 12 2023 21:33:46 GMT-0500 (アメリカ中部夏時間)","531762","Untrustworthy,Trustworthy","","null","","","","decisionFB","","<div class='trialDiv'><img src='Fruit/melon.png'><br><font class='baseline'><strong>Melon Millions</strong><p>Choose number of points to bet.</font><div class='respPicDiv'><img src='img/responseButtonOffersNo0L1.png' class='respPic'></div></div>","null","14","Melon Millions","Fruit/melon.png","Won","0.65,0.2","13","0.65","175","40","",""
"html-keyboard-response","129","223063","0.0-11.0-3.39","5fd8025bcfda8b1165a0b16e","bdp_rwlrn","Sun Mar 12 2023 21:33:46 GMT-0500 (アメリカ中部夏時間)","531762","Untrustworthy,Trustworthy","","null","","","","feedback","","<div class='respPicDiv'><img src='img/responseButtonOffersNo0_wht.png' class='respPic'></div><div class='trialDiv'><img src='Fruit/melon.png'><br><font class='baseline'><strong>Melon Millions</strong><p><strong><font class='posOutcome'>You WON</font><p>You bet: 1</strong></font> &nbsp; &nbsp; &nbsp; &nbsp; &nbsp; &nbsp;<font class='posOutcome'>you receive: <strong>2</strong></font></div>","null","14","Melon Millions","Fruit/melon.png","Won","0.65,0.2","13","0.65","177","40","",""
"html-keyboard-response","130","226259","0.0-11.0-1.40","5fd8025bcfda8b1165a0b16e","bdp_rwlrn","Sun Mar 12 2023 21:33:46 GMT-0500 (アメリカ中部夏時間)","531762","Untrustworthy,Trustworthy","","3195","","","","decision","","<div class='trialDiv'><img src='Fruit/watermelon.png'><br><font class='baseline'><strong>Watermelon Win$</strong><p>Choose number of points to bet.</font><div class='respPicDiv'><img src='img/responseButtonOffersNo0L.png' class='respPic'></div></div>","2","14","Watermelon Win$","Fruit/watermelon.png","Won","0.35,0.65","10","0.35","182","41","",""
"html-keyboard-response","131","226511","0.0-11.0-2.40","5fd8025bcfda8b1165a0b16e","bdp_rwlrn","Sun Mar 12 2023 21:33:46 GMT-0500 (アメリカ中部夏時間)","531762","Untrustworthy,Trustworthy","","null","","","","decisionFB","","<div class='trialDiv'><img src='Fruit/watermelon.png'><br><font class='baseline'><strong>Watermelon Win$</strong><p>Choose number of points to bet.</font><div class='respPicDiv'><img src='img/responseButtonOffersNo0L2.png' class='respPic'></div></div>","null","14","Watermelon Win$","Fruit/watermelon.png","Won","0.35,0.65","10","0.35","180","41","",""
"html-keyboard-response","132","227511","0.0-11.0-3.40","5fd8025bcfda8b1165a0b16e","bdp_rwlrn","Sun Mar 12 2023 21:33:46 GMT-0500 (アメリカ中部夏時間)","531762","Untrustworthy,Trustworthy","","null","","","","feedback","","<div class='respPicDiv'><img src='img/responseButtonOffersNo0_wht.png' class='respPic'></div><div class='trialDiv'><img src='Fruit/watermelon.png'><br><font class='baseline'><strong>Watermelon Win$</strong><p><strong><font class='posOutcome'>You WON</font><p>You bet: 2</strong></font> &nbsp; &nbsp; &nbsp; &nbsp; &nbsp; &nbsp;<font class='posOutcome'>you receive: <strong>4</strong></font></div>","null","14","Watermelon Win$","Fruit/watermelon.png","Won","0.35,0.65","10","0.35","184","41","",""
"html-keyboard-response","133","227956","0.0-11.0-1.41","5fd8025bcfda8b1165a0b16e","bdp_rwlrn","Sun Mar 12 2023 21:33:46 GMT-0500 (アメリカ中部夏時間)","531762","Untrustworthy,Trustworthy","","443","","","","decision","","<div class='trialDiv'><img src='Fruit/grapes.png'><br><font class='baseline'><strong>Great Grapes</strong><p>Choose number of points to bet.</font><div class='respPicDiv'><img src='img/responseButtonOffersNo0L.png' class='respPic'></div></div>","1","14","Great Grapes","Fruit/grapes.png","Lost","0.2,0.65","8","0.2","189","42","",""
"html-keyboard-response","134","228208","0.0-11.0-2.41","5fd8025bcfda8b1165a0b16e","bdp_rwlrn","Sun Mar 12 2023 21:33:46 GMT-0500 (アメリカ中部夏時間)","531762","Untrustworthy,Trustworthy","","null","","","","decisionFB","","<div class='trialDiv'><img src='Fruit/grapes.png'><br><font class='baseline'><strong>Great Grapes</strong><p>Choose number of points to bet.</font><div class='respPicDiv'><img src='img/responseButtonOffersNo0L1.png' class='respPic'></div></div>","null","14","Great Grapes","Fruit/grapes.png","Lost","0.2,0.65","8","0.2","188","42","",""
"html-keyboard-response","135","229209","0.0-11.0-3.41","5fd8025bcfda8b1165a0b16e","bdp_rwlrn","Sun Mar 12 2023 21:33:46 GMT-0500 (アメリカ中部夏時間)","531762","Untrustworthy,Trustworthy","","null","","","","feedback","","<div class='respPicDiv'><img src='img/responseButtonOffersNo0_wht.png' class='respPic'></div><div class='trialDiv'><img src='Fruit/grapes.png'><br><font class='baseline'><strong>Great Grapes</strong><p><strong><font class='negOutcome'>You LOST</font><p>You bet: 1</strong></font> &nbsp; &nbsp; &nbsp; &nbsp; &nbsp; &nbsp;<font class='negOutcome'>You receive: <strong>0</strong></font></div>","null","14","Great Grapes","Fruit/grapes.png","Lost","0.2,0.65","8","0.2","188","42","",""
"html-keyboard-response","136","232012","0.0-11.0-1.42","5fd8025bcfda8b1165a0b16e","bdp_rwlrn","Sun Mar 12 2023 21:33:46 GMT-0500 (アメリカ中部夏時間)","531762","Untrustworthy,Trustworthy","","2803","","","","decision","","<div class='trialDiv'><img src='Fruit/watermelon.png'><br><font class='baseline'><strong>Watermelon Win$</strong><p>Choose number of points to bet.</font><div class='respPicDiv'><img src='img/responseButtonOffersNo0L.png' class='respPic'></div></div>","5","15","Watermelon Win$","Fruit/watermelon.png","Won","0.35,0.65","10","0.35","193","43","",""
"html-keyboard-response","137","232264","0.0-11.0-2.42","5fd8025bcfda8b1165a0b16e","bdp_rwlrn","Sun Mar 12 2023 21:33:46 GMT-0500 (アメリカ中部夏時間)","531762","Untrustworthy,Trustworthy","","null","","","","decisionFB","","<div class='trialDiv'><img src='Fruit/watermelon.png'><br><font class='baseline'><strong>Watermelon Win$</strong><p>Choose number of points to bet.</font><div class='respPicDiv'><img src='img/responseButtonOffersNo0L5.png' class='respPic'></div></div>","null","15","Watermelon Win$","Fruit/watermelon.png","Won","0.35,0.65","10","0.35","188","43","",""
"html-keyboard-response","138","233267","0.0-11.0-3.42","5fd8025bcfda8b1165a0b16e","bdp_rwlrn","Sun Mar 12 2023 21:33:46 GMT-0500 (アメリカ中部夏時間)","531762","Untrustworthy,Trustworthy","","null","","","","feedback","","<div class='respPicDiv'><img src='img/responseButtonOffersNo0_wht.png' class='respPic'></div><div class='trialDiv'><img src='Fruit/watermelon.png'><br><font class='baseline'><strong>Watermelon Win$</strong><p><strong><font class='posOutcome'>You WON</font><p>You bet: 5</strong></font> &nbsp; &nbsp; &nbsp; &nbsp; &nbsp; &nbsp;<font class='posOutcome'>you receive: <strong>10</strong></font></div>","null","15","Watermelon Win$","Fruit/watermelon.png","Won","0.35,0.65","10","0.35","198","43","",""
"html-keyboard-response","139","236460","0.0-11.0-1.43","5fd8025bcfda8b1165a0b16e","bdp_rwlrn","Sun Mar 12 2023 21:33:46 GMT-0500 (アメリカ中部夏時間)","531762","Untrustworthy,Trustworthy","","3193","","","","decision","","<div class='trialDiv'><img src='Fruit/melon.png'><br><font class='baseline'><strong>Melon Millions</strong><p>Choose number of points to bet.</font><div class='respPicDiv'><img src='img/responseButtonOffersNo0L.png' class='respPic'></div></div>","5","15","Melon Millions","Fruit/melon.png","Lost","0.65,0.2","13","0.65","203","44","",""
"html-keyboard-response","140","236712","0.0-11.0-2.43","5fd8025bcfda8b1165a0b16e","bdp_rwlrn","Sun Mar 12 2023 21:33:46 GMT-0500 (アメリカ中部夏時間)","531762","Untrustworthy,Trustworthy","","null","","","","decisionFB","","<div class='trialDiv'><img src='Fruit/melon.png'><br><font class='baseline'><strong>Melon Millions</strong><p>Choose number of points to bet.</font><div class='respPicDiv'><img src='img/responseButtonOffersNo0L5.png' class='respPic'></div></div>","null","15","Melon Millions","Fruit/melon.png","Lost","0.65,0.2","13","0.65","198","44","",""
"html-keyboard-response","141","237713","0.0-11.0-3.43","5fd8025bcfda8b1165a0b16e","bdp_rwlrn","Sun Mar 12 2023 21:33:46 GMT-0500 (アメリカ中部夏時間)","531762","Untrustworthy,Trustworthy","","null","","","","feedback","","<div class='respPicDiv'><img src='img/responseButtonOffersNo0_wht.png' class='respPic'></div><div class='trialDiv'><img src='Fruit/melon.png'><br><font class='baseline'><strong>Melon Millions</strong><p><strong><font class='negOutcome'>You LOST</font><p>You bet: 5</strong></font> &nbsp; &nbsp; &nbsp; &nbsp; &nbsp; &nbsp;<font class='negOutcome'>You receive: <strong>0</strong></font></div>","null","15","Melon Millions","Fruit/melon.png","Lost","0.65,0.2","13","0.65","198","44","",""
"html-keyboard-response","142","238516","0.0-11.0-1.44","5fd8025bcfda8b1165a0b16e","bdp_rwlrn","Sun Mar 12 2023 21:33:46 GMT-0500 (アメリカ中部夏時間)","531762","Untrustworthy,Trustworthy","","802","","","","decision","","<div class='trialDiv'><img src='Fruit/grapes.png'><br><font class='baseline'><strong>Great Grapes</strong><p>Choose number of points to bet.</font><div class='respPicDiv'><img src='img/responseButtonOffersNo0L.png' class='respPic'></div></div>","1","15","Great Grapes","Fruit/grapes.png","Won","0.2,0.65","8","0.2","203","45","",""
"html-keyboard-response","143","238768","0.0-11.0-2.44","5fd8025bcfda8b1165a0b16e","bdp_rwlrn","Sun Mar 12 2023 21:33:46 GMT-0500 (アメリカ中部夏時間)","531762","Untrustworthy,Trustworthy","","null","","","","decisionFB","","<div class='trialDiv'><img src='Fruit/grapes.png'><br><font class='baseline'><strong>Great Grapes</strong><p>Choose number of points to bet.</font><div class='respPicDiv'><img src='img/responseButtonOffersNo0L1.png' class='respPic'></div></div>","null","15","Great Grapes","Fruit/grapes.png","Won","0.2,0.65","8","0.2","202","45","",""
"html-keyboard-response","144","239770","0.0-11.0-3.44","5fd8025bcfda8b1165a0b16e","bdp_rwlrn","Sun Mar 12 2023 21:33:46 GMT-0500 (アメリカ中部夏時間)","531762","Untrustworthy,Trustworthy","","null","","","","feedback","","<div class='respPicDiv'><img src='img/responseButtonOffersNo0_wht.png' class='respPic'></div><div class='trialDiv'><img src='Fruit/grapes.png'><br><font class='baseline'><strong>Great Grapes</strong><p><strong><font class='posOutcome'>You WON</font><p>You bet: 1</strong></font> &nbsp; &nbsp; &nbsp; &nbsp; &nbsp; &nbsp;<font class='posOutcome'>you receive: <strong>2</strong></font></div>","null","15","Great Grapes","Fruit/grapes.png","Won","0.2,0.65","8","0.2","204","45","",""
"html-keyboard-response","145","240973","0.0-11.0-1.45","5fd8025bcfda8b1165a0b16e","bdp_rwlrn","Sun Mar 12 2023 21:33:46 GMT-0500 (アメリカ中部夏時間)","531762","Untrustworthy,Trustworthy","","1203","","","","decision","","<div class='trialDiv'><img src='Fruit/watermelon.png'><br><font class='baseline'><strong>Watermelon Win$</strong><p>Choose number of points to bet.</font><div class='respPicDiv'><img src='img/responseButtonOffersNo0L.png' class='respPic'></div></div>","2","16","Watermelon Win$","Fruit/watermelon.png","Won","0.35,0.65","10","0.35","209","46","",""
"html-keyboard-response","146","241224","0.0-11.0-2.45","5fd8025bcfda8b1165a0b16e","bdp_rwlrn","Sun Mar 12 2023 21:33:46 GMT-0500 (アメリカ中部夏時間)","531762","Untrustworthy,Trustworthy","","null","","","","decisionFB","","<div class='trialDiv'><img src='Fruit/watermelon.png'><br><font class='baseline'><strong>Watermelon Win$</strong><p>Choose number of points to bet.</font><div class='respPicDiv'><img src='img/responseButtonOffersNo0L2.png' class='respPic'></div></div>","null","16","Watermelon Win$","Fruit/watermelon.png","Won","0.35,0.65","10","0.35","207","46","",""
"html-keyboard-response","147","242226","0.0-11.0-3.45","5fd8025bcfda8b1165a0b16e","bdp_rwlrn","Sun Mar 12 2023 21:33:46 GMT-0500 (アメリカ中部夏時間)","531762","Untrustworthy,Trustworthy","","null","","","","feedback","","<div class='respPicDiv'><img src='img/responseButtonOffersNo0_wht.png' class='respPic'></div><div class='trialDiv'><img src='Fruit/watermelon.png'><br><font class='baseline'><strong>Watermelon Win$</strong><p><strong><font class='posOutcome'>You WON</font><p>You bet: 2</strong></font> &nbsp; &nbsp; &nbsp; &nbsp; &nbsp; &nbsp;<font class='posOutcome'>you receive: <strong>4</strong></font></div>","null","16","Watermelon Win$","Fruit/watermelon.png","Won","0.35,0.65","10","0.35","211","46","",""
"html-keyboard-response","148","243797","0.0-11.0-1.46","5fd8025bcfda8b1165a0b16e","bdp_rwlrn","Sun Mar 12 2023 21:33:46 GMT-0500 (アメリカ中部夏時間)","531762","Untrustworthy,Trustworthy","","1571","","","","decision","","<div class='trialDiv'><img src='Fruit/melon.png'><br><font class='baseline'><strong>Melon Millions</strong><p>Choose number of points to bet.</font><div class='respPicDiv'><img src='img/responseButtonOffersNo0L.png' class='respPic'></div></div>","1","16","Melon Millions","Fruit/melon.png","Lost","0.65,0.2","13","0.65","216","47","",""
"html-keyboard-response","149","244049","0.0-11.0-2.46","5fd8025bcfda8b1165a0b16e","bdp_rwlrn","Sun Mar 12 2023 21:33:46 GMT-0500 (アメリカ中部夏時間)","531762","Untrustworthy,Trustworthy","","null","","","","decisionFB","","<div class='trialDiv'><img src='Fruit/melon.png'><br><font class='baseline'><strong>Melon Millions</strong><p>Choose number of points to bet.</font><div class='respPicDiv'><img src='img/responseButtonOffersNo0L1.png' class='respPic'></div></div>","null","16","Melon Millions","Fruit/melon.png","Lost","0.65,0.2","13","0.65","215","47","",""
"html-keyboard-response","150","245050","0.0-11.0-3.46","5fd8025bcfda8b1165a0b16e","bdp_rwlrn","Sun Mar 12 2023 21:33:46 GMT-0500 (アメリカ中部夏時間)","531762","Untrustworthy,Trustworthy","","null","","","","feedback","","<div class='respPicDiv'><img src='img/responseButtonOffersNo0_wht.png' class='respPic'></div><div class='trialDiv'><img src='Fruit/melon.png'><br><font class='baseline'><strong>Melon Millions</strong><p><strong><font class='negOutcome'>You LOST</font><p>You bet: 1</strong></font> &nbsp; &nbsp; &nbsp; &nbsp; &nbsp; &nbsp;<font class='negOutcome'>You receive: <strong>0</strong></font></div>","null","16","Melon Millions","Fruit/melon.png","Lost","0.65,0.2","13","0.65","215","47","",""
"html-keyboard-response","151","246469","0.0-11.0-1.47","5fd8025bcfda8b1165a0b16e","bdp_rwlrn","Sun Mar 12 2023 21:33:46 GMT-0500 (アメリカ中部夏時間)","531762","Untrustworthy,Trustworthy","","1419","","","","decision","","<div class='trialDiv'><img src='Fruit/grapes.png'><br><font class='baseline'><strong>Great Grapes</strong><p>Choose number of points to bet.</font><div class='respPicDiv'><img src='img/responseButtonOffersNo0L.png' class='respPic'></div></div>","5","16","Great Grapes","Fruit/grapes.png","Won","0.2,0.65","8","0.2","220","48","",""
"html-keyboard-response","152","246721","0.0-11.0-2.47","5fd8025bcfda8b1165a0b16e","bdp_rwlrn","Sun Mar 12 2023 21:33:46 GMT-0500 (アメリカ中部夏時間)","531762","Untrustworthy,Trustworthy","","null","","","","decisionFB","","<div class='trialDiv'><img src='Fruit/grapes.png'><br><font class='baseline'><strong>Great Grapes</strong><p>Choose number of points to bet.</font><div class='respPicDiv'><img src='img/responseButtonOffersNo0L5.png' class='respPic'></div></div>","null","16","Great Grapes","Fruit/grapes.png","Won","0.2,0.65","8","0.2","215","48","",""
"html-keyboard-response","153","247723","0.0-11.0-3.47","5fd8025bcfda8b1165a0b16e","bdp_rwlrn","Sun Mar 12 2023 21:33:46 GMT-0500 (アメリカ中部夏時間)","531762","Untrustworthy,Trustworthy","","null","","","","feedback","","<div class='respPicDiv'><img src='img/responseButtonOffersNo0_wht.png' class='respPic'></div><div class='trialDiv'><img src='Fruit/grapes.png'><br><font class='baseline'><strong>Great Grapes</strong><p><strong><font class='posOutcome'>You WON</font><p>You bet: 5</strong></font> &nbsp; &nbsp; &nbsp; &nbsp; &nbsp; &nbsp;<font class='posOutcome'>you receive: <strong>10</strong></font></div>","null","16","Great Grapes","Fruit/grapes.png","Won","0.2,0.65","8","0.2","225","48","",""
"html-keyboard-response","154","249870","0.0-11.0-1.48","5fd8025bcfda8b1165a0b16e","bdp_rwlrn","Sun Mar 12 2023 21:33:46 GMT-0500 (アメリカ中部夏時間)","531762","Untrustworthy,Trustworthy","","2147","","","","decision","","<div class='trialDiv'><img src='Fruit/watermelon.png'><br><font class='baseline'><strong>Watermelon Win$</strong><p>Choose number of points to bet.</font><div class='respPicDiv'><img src='img/responseButtonOffersNo0L.png' class='respPic'></div></div>","3","17","Watermelon Win$","Fruit/watermelon.png","Won","0.35,0.65","10","0.35","230","49","",""
"html-keyboard-response","155","250120","0.0-11.0-2.48","5fd8025bcfda8b1165a0b16e","bdp_rwlrn","Sun Mar 12 2023 21:33:46 GMT-0500 (アメリカ中部夏時間)","531762","Untrustworthy,Trustworthy","","null","","","","decisionFB","","<div class='trialDiv'><img src='Fruit/watermelon.png'><br><font class='baseline'><strong>Watermelon Win$</strong><p>Choose number of points to bet.</font><div class='respPicDiv'><img src='img/responseButtonOffersNo0L3.png' class='respPic'></div></div>","null","17","Watermelon Win$","Fruit/watermelon.png","Won","0.35,0.65","10","0.35","227","49","",""
"html-keyboard-response","156","251122","0.0-11.0-3.48","5fd8025bcfda8b1165a0b16e","bdp_rwlrn","Sun Mar 12 2023 21:33:46 GMT-0500 (アメリカ中部夏時間)","531762","Untrustworthy,Trustworthy","","null","","","","feedback","","<div class='respPicDiv'><img src='img/responseButtonOffersNo0_wht.png' class='respPic'></div><div class='trialDiv'><img src='Fruit/watermelon.png'><br><font class='baseline'><strong>Watermelon Win$</strong><p><strong><font class='posOutcome'>You WON</font><p>You bet: 3</strong></font> &nbsp; &nbsp; &nbsp; &nbsp; &nbsp; &nbsp;<font class='posOutcome'>you receive: <strong>6</strong></font></div>","null","17","Watermelon Win$","Fruit/watermelon.png","Won","0.35,0.65","10","0.35","233","49","",""
"html-keyboard-response","157","252030","0.0-11.0-1.49","5fd8025bcfda8b1165a0b16e","bdp_rwlrn","Sun Mar 12 2023 21:33:46 GMT-0500 (アメリカ中部夏時間)","531762","Untrustworthy,Trustworthy","","907","","","","decision","","<div class='trialDiv'><img src='Fruit/melon.png'><br><font class='baseline'><strong>Melon Millions</strong><p>Choose number of points to bet.</font><div class='respPicDiv'><img src='img/responseButtonOffersNo0L.png' class='respPic'></div></div>","1","17","Melon Millions","Fruit/melon.png","Lost","0.65,0.2","13","0.65","238","50","",""
"html-keyboard-response","158","252281","0.0-11.0-2.49","5fd8025bcfda8b1165a0b16e","bdp_rwlrn","Sun Mar 12 2023 21:33:46 GMT-0500 (アメリカ中部夏時間)","531762","Untrustworthy,Trustworthy","","null","","","","decisionFB","","<div class='trialDiv'><img src='Fruit/melon.png'><br><font class='baseline'><strong>Melon Millions</strong><p>Choose number of points to bet.</font><div class='respPicDiv'><img src='img/responseButtonOffersNo0L1.png' class='respPic'></div></div>","null","17","Melon Millions","Fruit/melon.png","Lost","0.65,0.2","13","0.65","237","50","",""
"html-keyboard-response","159","253282","0.0-11.0-3.49","5fd8025bcfda8b1165a0b16e","bdp_rwlrn","Sun Mar 12 2023 21:33:46 GMT-0500 (アメリカ中部夏時間)","531762","Untrustworthy,Trustworthy","","null","","","","feedback","","<div class='respPicDiv'><img src='img/responseButtonOffersNo0_wht.png' class='respPic'></div><div class='trialDiv'><img src='Fruit/melon.png'><br><font class='baseline'><strong>Melon Millions</strong><p><strong><font class='negOutcome'>You LOST</font><p>You bet: 1</strong></font> &nbsp; &nbsp; &nbsp; &nbsp; &nbsp; &nbsp;<font class='negOutcome'>You receive: <strong>0</strong></font></div>","null","17","Melon Millions","Fruit/melon.png","Lost","0.65,0.2","13","0.65","237","50","",""
"html-keyboard-response","160","253710","0.0-11.0-1.50","5fd8025bcfda8b1165a0b16e","bdp_rwlrn","Sun Mar 12 2023 21:33:46 GMT-0500 (アメリカ中部夏時間)","531762","Untrustworthy,Trustworthy","","428","","","","decision","","<div class='trialDiv'><img src='Fruit/grapes.png'><br><font class='baseline'><strong>Great Grapes</strong><p>Choose number of points to bet.</font><div class='respPicDiv'><img src='img/responseButtonOffersNo0L.png' class='respPic'></div></div>","5","17","Great Grapes","Fruit/grapes.png","Won","0.2,0.65","8","0.2","242","51","",""
"html-keyboard-response","161","253961","0.0-11.0-2.50","5fd8025bcfda8b1165a0b16e","bdp_rwlrn","Sun Mar 12 2023 21:33:46 GMT-0500 (アメリカ中部夏時間)","531762","Untrustworthy,Trustworthy","","null","","","","decisionFB","","<div class='trialDiv'><img src='Fruit/grapes.png'><br><font class='baseline'><strong>Great Grapes</strong><p>Choose number of points to bet.</font><div class='respPicDiv'><img src='img/responseButtonOffersNo0L5.png' class='respPic'></div></div>","null","17","Great Grapes","Fruit/grapes.png","Won","0.2,0.65","8","0.2","237","51","",""
"html-keyboard-response","162","254963","0.0-11.0-3.50","5fd8025bcfda8b1165a0b16e","bdp_rwlrn","Sun Mar 12 2023 21:33:46 GMT-0500 (アメリカ中部夏時間)","531762","Untrustworthy,Trustworthy","","null","","","","feedback","","<div class='respPicDiv'><img src='img/responseButtonOffersNo0_wht.png' class='respPic'></div><div class='trialDiv'><img src='Fruit/grapes.png'><br><font class='baseline'><strong>Great Grapes</strong><p><strong><font class='posOutcome'>You WON</font><p>You bet: 5</strong></font> &nbsp; &nbsp; &nbsp; &nbsp; &nbsp; &nbsp;<font class='posOutcome'>you receive: <strong>10</strong></font></div>","null","17","Great Grapes","Fruit/grapes.png","Won","0.2,0.65","8","0.2","247","51","",""
"html-keyboard-response","163","255791","0.0-11.0-1.51","5fd8025bcfda8b1165a0b16e","bdp_rwlrn","Sun Mar 12 2023 21:33:46 GMT-0500 (アメリカ中部夏時間)","531762","Untrustworthy,Trustworthy","","828","","","","decision","","<div class='trialDiv'><img src='Fruit/melon.png'><br><font class='baseline'><strong>Melon Millions</strong><p>Choose number of points to bet.</font><div class='respPicDiv'><img src='img/responseButtonOffersNo0L.png' class='respPic'></div></div>","1","18","Melon Millions","Fruit/melon.png","Lost","0.65,0.2","13","0.65","252","52","",""
"html-keyboard-response","164","256056","0.0-11.0-2.51","5fd8025bcfda8b1165a0b16e","bdp_rwlrn","Sun Mar 12 2023 21:33:46 GMT-0500 (アメリカ中部夏時間)","531762","Untrustworthy,Trustworthy","","null","","","","decisionFB","","<div class='trialDiv'><img src='Fruit/melon.png'><br><font class='baseline'><strong>Melon Millions</strong><p>Choose number of points to bet.</font><div class='respPicDiv'><img src='img/responseButtonOffersNo0L1.png' class='respPic'></div></div>","null","18","Melon Millions","Fruit/melon.png","Lost","0.65,0.2","13","0.65","251","52","",""
"html-keyboard-response","165","257058","0.0-11.0-3.51","5fd8025bcfda8b1165a0b16e","bdp_rwlrn","Sun Mar 12 2023 21:33:46 GMT-0500 (アメリカ中部夏時間)","531762","Untrustworthy,Trustworthy","","null","","","","feedback","","<div class='respPicDiv'><img src='img/responseButtonOffersNo0_wht.png' class='respPic'></div><div class='trialDiv'><img src='Fruit/melon.png'><br><font class='baseline'><strong>Melon Millions</strong><p><strong><font class='negOutcome'>You LOST</font><p>You bet: 1</strong></font> &nbsp; &nbsp; &nbsp; &nbsp; &nbsp; &nbsp;<font class='negOutcome'>You receive: <strong>0</strong></font></div>","null","18","Melon Millions","Fruit/melon.png","Lost","0.65,0.2","13","0.65","251","52","",""
