"trial_type","trial_index","time_elapsed","internal_node_id","subject_id","task","startTime","totalTime","labels","view_history","rt","event","trial","time","trialtype","success","stimulus","key_press","ltround","name","fileID","outcome","lottotype","lottoswpt","lottocurrpshare","point_total","round","faceID","face"
"pavlovia","0","2","0.0-0.0","5f2f86864fd821374b4367bc","bdp_rwlrn","Fri Mar 10 2023 11:28:27 GMT-0800 (Pacific Standard Time)","317618","Untrustworthy,Trustworthy","","","","","","","","","","","","","","","","","","","",""
"instructions","1","4106","0.0-1.0","5f2f86864fd821374b4367bc","bdp_rwlrn","Fri Mar 10 2023 11:28:27 GMT-0800 (Pacific Standard Time)","317618","Untrustworthy,Trustworthy","[{""page_index"":0,""viewing_time"":4103}]","4104","","","","","","","","","","","","","","","","","",""
"","","","","5f2f86864fd821374b4367bc","bdp_rwlrn","Fri Mar 10 2023 11:28:27 GMT-0800 (Pacific Standard Time)","317618","Untrustworthy,Trustworthy","","","fullscreenenter","2","8279","fullscreenenter","","","","","","","","","","","","","",""
"fullscreen","2","9251","0.0-2.0","5f2f86864fd821374b4367bc","bdp_rwlrn","Fri Mar 10 2023 11:28:27 GMT-0800 (Pacific Standard Time)","317618","Untrustworthy,Trustworthy","","","","","","","true","","","","","","","","","","","","",""
"","","","","5f2f86864fd821374b4367bc","bdp_rwlrn","Fri Mar 10 2023 11:28:27 GMT-0800 (Pacific Standard Time)","317618","Untrustworthy,Trustworthy","","","fullscreenexit","3","10854","fullscreenexit","","","","","","","","","","","","","",""
"instructions","3","39535","0.0-4.0","5f2f86864fd821374b4367bc","bdp_rwlrn","Fri Mar 10 2023 11:28:27 GMT-0800 (Pacific Standard Time)","317618","Untrustworthy,Trustworthy","[{""page_index"":0,""viewing_time"":9169},{""page_index"":1,""viewing_time"":9345},{""page_index"":2,""viewing_time"":1888},{""page_index"":3,""viewing_time"":5327},{""page_index"":4,""viewing_time"":3620},{""page_index"":5,""viewing_time"":933}]","30282","","","","","","","","","","","","","","","","","",""
"html-keyboard-response","4","44274","0.0-5.0","5f2f86864fd821374b4367bc","bdp_rwlrn","Fri Mar 10 2023 11:28:27 GMT-0800 (Pacific Standard Time)","317618","Untrustworthy,Trustworthy","","4736","","","","","","<div class='header' style='text-align:left; position: absolute; top: 5%; left: 5%;'><small>Task 3 of 5</small></div><div class='instruxDiv'><p><strong>1) What is the maximum number of points you can choose to bet on a lottery?</strong></p><p>a) 0</p><p>b) 1</p><p>c) 5</p>","B","","","","","","","","","","",""
"html-keyboard-response","5","46266","0.0-6.0","5f2f86864fd821374b4367bc","bdp_rwlrn","Fri Mar 10 2023 11:28:27 GMT-0800 (Pacific Standard Time)","317618","Untrustworthy,Trustworthy","","1889","","","","","","<div class='header' style='text-align:left; position: absolute; top: 5%; left: 5%;'><small>Task 3 of 5</small></div><div class='instruxDiv'><p><strong>1) What is the maximum number of points you can choose to bet on a lottery?</strong></p><p>a) 0</p><p style='color:#FF0000'>b) 1</p><p>c) 5</p><h3 style='color:#FF0000'>Incorrect!</h3><h3 class='center-content'>The correct response is c).</h3><h3 class='center-content'>The maximum number of points you can choose to bet on a lottery is 5 points.</h3><p><em>Press SPACEBAR to continue</em></p></div>"," ","","","","","","","","","","",""
"html-keyboard-response","6","49131","0.0-7.0","5f2f86864fd821374b4367bc","bdp_rwlrn","Fri Mar 10 2023 11:28:27 GMT-0800 (Pacific Standard Time)","317618","Untrustworthy,Trustworthy","","2763","","","","","","<div class='header' style='text-align:left; position: absolute; top: 5%; left: 5%;'><small>Task 3 of 5</small></div><div class='instruxDiv'><p><strong>2) How many points can you win each round?</strong></p><p>a) 10 points</p><p>b) Double what you bet</p><p>c) Quadruple what you bet</p>","B","","","","","","","","","","",""
"html-keyboard-response","7","50123","0.0-8.0","5f2f86864fd821374b4367bc","bdp_rwlrn","Fri Mar 10 2023 11:28:27 GMT-0800 (Pacific Standard Time)","317618","Untrustworthy,Trustworthy","","890","","","","","","<div class='header' style='text-align:left; position: absolute; top: 5%; left: 5%;'><small>Task 3 of 5</small></div><div class='instruxDiv'><p><strong>2) How many points can you win each round?</strong></p><p>a) 10 points</p><p style='color:#00FF00'>b) Double what you bet</p><p>c) Quadruple what you bet</p><h3 style='color:#00FF00'>Correct!</h3><h3 class='center-content'>The correct response is b).</h3><h3 class='center-content'>You can win double the amount of points you bet.</h3><p><em>Press SPACEBAR to continue</em></p></div>"," ","","","","","","","","","","",""
"html-keyboard-response","8","55226","0.0-9.0","5f2f86864fd821374b4367bc","bdp_rwlrn","Fri Mar 10 2023 11:28:27 GMT-0800 (Pacific Standard Time)","317618","Untrustworthy,Trustworthy","","null","","","","","","<div class='header' style='text-align:left; position: absolute; top: 5%; left: 5%;'><small>Task 3 of 5</small></div><div class='instruxDiv'><p>Thank you for completing the quiz<p>These are the actual lotteries you will be playing in the next block:<p><div class='tc' align='center'><img class='introPic' src='Fruit/pears.png'><br><strong>Pears Aplenty</strong></div><div class='bl' align='center'><img class='introPic' src='Fruit/papayas.png'><br><strong>Papaya Payday</strong></div><div class='br' align='center'><img class='introPic' src='Fruit/apple.png'><br><strong>Awesome Apples</strong></div></div><p>Across <strong>66 rounds</strong> you will play each lottery <strong>22 times</strong> (in random order).<p style='align:center; color:white'><font <em>Press SPACEBAR to continue</em></p>","null","","","","","","","","","","",""
"instructions","9","57225","0.0-10.0","5f2f86864fd821374b4367bc","bdp_rwlrn","Fri Mar 10 2023 11:28:27 GMT-0800 (Pacific Standard Time)","317618","Untrustworthy,Trustworthy","[{""page_index"":0,""viewing_time"":528},{""page_index"":1,""viewing_time"":1470}]","1998","","","","","","","","","","","","","","","","","",""
"html-keyboard-response","10","60354","0.0-11.0-1.0","5f2f86864fd821374b4367bc","bdp_rwlrn","Fri Mar 10 2023 11:28:27 GMT-0800 (Pacific Standard Time)","317618","Untrustworthy,Trustworthy","","3025","","","","decision","","<div class='trialDiv'><img src='Fruit/papayas.png'><br><font class='baseline'><strong>Papaya Payday</strong><p>Choose number of points to bet.</font><div class='respPicDiv'><img src='img/responseButtonOffersNo0L.png' class='respPic'></div></div>","1","1","Papaya Payday","Fruit/papayas.png","Won","0.2,0.65","13","0.2","5","1","",""
"html-keyboard-response","11","60606","0.0-11.0-2.0","5f2f86864fd821374b4367bc","bdp_rwlrn","Fri Mar 10 2023 11:28:27 GMT-0800 (Pacific Standard Time)","317618","Untrustworthy,Trustworthy","","null","","","","decisionFB","","<div class='trialDiv'><img src='Fruit/papayas.png'><br><font class='baseline'><strong>Papaya Payday</strong><p>Choose number of points to bet.</font><div class='respPicDiv'><img src='img/responseButtonOffersNo0L1.png' class='respPic'></div></div>","null","1","Papaya Payday","Fruit/papayas.png","Won","0.2,0.65","13","0.2","4","1","",""
"html-keyboard-response","12","61609","0.0-11.0-3.0","5f2f86864fd821374b4367bc","bdp_rwlrn","Fri Mar 10 2023 11:28:27 GMT-0800 (Pacific Standard Time)","317618","Untrustworthy,Trustworthy","","null","","","","feedback","","<div class='respPicDiv'><img src='img/responseButtonOffersNo0_wht.png' class='respPic'></div><div class='trialDiv'><img src='Fruit/papayas.png'><br><font class='baseline'><strong>Papaya Payday</strong><p><strong><font class='posOutcome'>You WON</font><p>You bet: 1</strong></font> &nbsp; &nbsp; &nbsp; &nbsp; &nbsp; &nbsp;<font class='posOutcome'>you receive: <strong>2</strong></font></div>","null","1","Papaya Payday","Fruit/papayas.png","Won","0.2,0.65","13","0.2","6","1","",""
"html-keyboard-response","13","62017","0.0-11.0-1.1","5f2f86864fd821374b4367bc","bdp_rwlrn","Fri Mar 10 2023 11:28:27 GMT-0800 (Pacific Standard Time)","317618","Untrustworthy,Trustworthy","","407","","","","decision","","<div class='trialDiv'><img src='Fruit/pears.png'><br><font class='baseline'><strong>Pears Aplenty</strong><p>Choose number of points to bet.</font><div class='respPicDiv'><img src='img/responseButtonOffersNo0L.png' class='respPic'></div></div>","2","1","Pears Aplenty","Fruit/pears.png","Won","0.8,0.35","13","0.8","11","2","",""
"html-keyboard-response","14","62269","0.0-11.0-2.1","5f2f86864fd821374b4367bc","bdp_rwlrn","Fri Mar 10 2023 11:28:27 GMT-0800 (Pacific Standard Time)","317618","Untrustworthy,Trustworthy","","null","","","","decisionFB","","<div class='trialDiv'><img src='Fruit/pears.png'><br><font class='baseline'><strong>Pears Aplenty</strong><p>Choose number of points to bet.</font><div class='respPicDiv'><img src='img/responseButtonOffersNo0L2.png' class='respPic'></div></div>","null","1","Pears Aplenty","Fruit/pears.png","Won","0.8,0.35","13","0.8","9","2","",""
"html-keyboard-response","15","63272","0.0-11.0-3.1","5f2f86864fd821374b4367bc","bdp_rwlrn","Fri Mar 10 2023 11:28:27 GMT-0800 (Pacific Standard Time)","317618","Untrustworthy,Trustworthy","","null","","","","feedback","","<div class='respPicDiv'><img src='img/responseButtonOffersNo0_wht.png' class='respPic'></div><div class='trialDiv'><img src='Fruit/pears.png'><br><font class='baseline'><strong>Pears Aplenty</strong><p><strong><font class='posOutcome'>You WON</font><p>You bet: 2</strong></font> &nbsp; &nbsp; &nbsp; &nbsp; &nbsp; &nbsp;<font class='posOutcome'>you receive: <strong>4</strong></font></div>","null","1","Pears Aplenty","Fruit/pears.png","Won","0.8,0.35","13","0.8","13","2","",""
"html-keyboard-response","16","63589","0.0-11.0-1.2","5f2f86864fd821374b4367bc","bdp_rwlrn","Fri Mar 10 2023 11:28:27 GMT-0800 (Pacific Standard Time)","317618","Untrustworthy,Trustworthy","","315","","","","decision","","<div class='trialDiv'><img src='Fruit/apple.png'><br><font class='baseline'><strong>Awesome Apples</strong><p>Choose number of points to bet.</font><div class='respPicDiv'><img src='img/responseButtonOffersNo0L.png' class='respPic'></div></div>","1","1","Awesome Apples","Fruit/apple.png","Won","0.8,0.2","9","0.8","18","3","",""
"html-keyboard-response","17","63841","0.0-11.0-2.2","5f2f86864fd821374b4367bc","bdp_rwlrn","Fri Mar 10 2023 11:28:27 GMT-0800 (Pacific Standard Time)","317618","Untrustworthy,Trustworthy","","null","","","","decisionFB","","<div class='trialDiv'><img src='Fruit/apple.png'><br><font class='baseline'><strong>Awesome Apples</strong><p>Choose number of points to bet.</font><div class='respPicDiv'><img src='img/responseButtonOffersNo0L1.png' class='respPic'></div></div>","null","1","Awesome Apples","Fruit/apple.png","Won","0.8,0.2","9","0.8","17","3","",""
"html-keyboard-response","18","64844","0.0-11.0-3.2","5f2f86864fd821374b4367bc","bdp_rwlrn","Fri Mar 10 2023 11:28:27 GMT-0800 (Pacific Standard Time)","317618","Untrustworthy,Trustworthy","","null","","","","feedback","","<div class='respPicDiv'><img src='img/responseButtonOffersNo0_wht.png' class='respPic'></div><div class='trialDiv'><img src='Fruit/apple.png'><br><font class='baseline'><strong>Awesome Apples</strong><p><strong><font class='posOutcome'>You WON</font><p>You bet: 1</strong></font> &nbsp; &nbsp; &nbsp; &nbsp; &nbsp; &nbsp;<font class='posOutcome'>you receive: <strong>2</strong></font></div>","null","1","Awesome Apples","Fruit/apple.png","Won","0.8,0.2","9","0.8","19","3","",""
"html-keyboard-response","19","65114","0.0-11.0-1.3","5f2f86864fd821374b4367bc","bdp_rwlrn","Fri Mar 10 2023 11:28:27 GMT-0800 (Pacific Standard Time)","317618","Untrustworthy,Trustworthy","","270","","","","decision","","<div class='trialDiv'><img src='Fruit/pears.png'><br><font class='baseline'><strong>Pears Aplenty</strong><p>Choose number of points to bet.</font><div class='respPicDiv'><img src='img/responseButtonOffersNo0L.png' class='respPic'></div></div>","1","2","Pears Aplenty","Fruit/pears.png","Won","0.8,0.35","13","0.8","24","4","",""
"html-keyboard-response","20","65367","0.0-11.0-2.3","5f2f86864fd821374b4367bc","bdp_rwlrn","Fri Mar 10 2023 11:28:27 GMT-0800 (Pacific Standard Time)","317618","Untrustworthy,Trustworthy","","null","","","","decisionFB","","<div class='trialDiv'><img src='Fruit/pears.png'><br><font class='baseline'><strong>Pears Aplenty</strong><p>Choose number of points to bet.</font><div class='respPicDiv'><img src='img/responseButtonOffersNo0L1.png' class='respPic'></div></div>","null","2","Pears Aplenty","Fruit/pears.png","Won","0.8,0.35","13","0.8","23","4","",""
"html-keyboard-response","21","66369","0.0-11.0-3.3","5f2f86864fd821374b4367bc","bdp_rwlrn","Fri Mar 10 2023 11:28:27 GMT-0800 (Pacific Standard Time)","317618","Untrustworthy,Trustworthy","","null","","","","feedback","","<div class='respPicDiv'><img src='img/responseButtonOffersNo0_wht.png' class='respPic'></div><div class='trialDiv'><img src='Fruit/pears.png'><br><font class='baseline'><strong>Pears Aplenty</strong><p><strong><font class='posOutcome'>You WON</font><p>You bet: 1</strong></font> &nbsp; &nbsp; &nbsp; &nbsp; &nbsp; &nbsp;<font class='posOutcome'>you receive: <strong>2</strong></font></div>","null","2","Pears Aplenty","Fruit/pears.png","Won","0.8,0.35","13","0.8","25","4","",""
"html-keyboard-response","22","66634","0.0-11.0-1.4","5f2f86864fd821374b4367bc","bdp_rwlrn","Fri Mar 10 2023 11:28:27 GMT-0800 (Pacific Standard Time)","317618","Untrustworthy,Trustworthy","","264","","","","decision","","<div class='trialDiv'><img src='Fruit/apple.png'><br><font class='baseline'><strong>Awesome Apples</strong><p>Choose number of points to bet.</font><div class='respPicDiv'><img src='img/responseButtonOffersNo0L.png' class='respPic'></div></div>","2","2","Awesome Apples","Fruit/apple.png","Won","0.8,0.2","9","0.8","30","5","",""
"html-keyboard-response","23","66886","0.0-11.0-2.4","5f2f86864fd821374b4367bc","bdp_rwlrn","Fri Mar 10 2023 11:28:27 GMT-0800 (Pacific Standard Time)","317618","Untrustworthy,Trustworthy","","null","","","","decisionFB","","<div class='trialDiv'><img src='Fruit/apple.png'><br><font class='baseline'><strong>Awesome Apples</strong><p>Choose number of points to bet.</font><div class='respPicDiv'><img src='img/responseButtonOffersNo0L2.png' class='respPic'></div></div>","null","2","Awesome Apples","Fruit/apple.png","Won","0.8,0.2","9","0.8","28","5","",""
"html-keyboard-response","24","67888","0.0-11.0-3.4","5f2f86864fd821374b4367bc","bdp_rwlrn","Fri Mar 10 2023 11:28:27 GMT-0800 (Pacific Standard Time)","317618","Untrustworthy,Trustworthy","","null","","","","feedback","","<div class='respPicDiv'><img src='img/responseButtonOffersNo0_wht.png' class='respPic'></div><div class='trialDiv'><img src='Fruit/apple.png'><br><font class='baseline'><strong>Awesome Apples</strong><p><strong><font class='posOutcome'>You WON</font><p>You bet: 2</strong></font> &nbsp; &nbsp; &nbsp; &nbsp; &nbsp; &nbsp;<font class='posOutcome'>you receive: <strong>4</strong></font></div>","null","2","Awesome Apples","Fruit/apple.png","Won","0.8,0.2","9","0.8","32","5","",""
"html-keyboard-response","25","68115","0.0-11.0-1.5","5f2f86864fd821374b4367bc","bdp_rwlrn","Fri Mar 10 2023 11:28:27 GMT-0800 (Pacific Standard Time)","317618","Untrustworthy,Trustworthy","","225","","","","decision","","<div class='trialDiv'><img src='Fruit/papayas.png'><br><font class='baseline'><strong>Papaya Payday</strong><p>Choose number of points to bet.</font><div class='respPicDiv'><img src='img/responseButtonOffersNo0L.png' class='respPic'></div></div>","1","2","Papaya Payday","Fruit/papayas.png","Won","0.2,0.65","13","0.2","37","6","",""
"html-keyboard-response","26","68368","0.0-11.0-2.5","5f2f86864fd821374b4367bc","bdp_rwlrn","Fri Mar 10 2023 11:28:27 GMT-0800 (Pacific Standard Time)","317618","Untrustworthy,Trustworthy","","null","","","","decisionFB","","<div class='trialDiv'><img src='Fruit/papayas.png'><br><font class='baseline'><strong>Papaya Payday</strong><p>Choose number of points to bet.</font><div class='respPicDiv'><img src='img/responseButtonOffersNo0L1.png' class='respPic'></div></div>","null","2","Papaya Payday","Fruit/papayas.png","Won","0.2,0.65","13","0.2","36","6","",""
"html-keyboard-response","27","69370","0.0-11.0-3.5","5f2f86864fd821374b4367bc","bdp_rwlrn","Fri Mar 10 2023 11:28:27 GMT-0800 (Pacific Standard Time)","317618","Untrustworthy,Trustworthy","","null","","","","feedback","","<div class='respPicDiv'><img src='img/responseButtonOffersNo0_wht.png' class='respPic'></div><div class='trialDiv'><img src='Fruit/papayas.png'><br><font class='baseline'><strong>Papaya Payday</strong><p><strong><font class='posOutcome'>You WON</font><p>You bet: 1</strong></font> &nbsp; &nbsp; &nbsp; &nbsp; &nbsp; &nbsp;<font class='posOutcome'>you receive: <strong>2</strong></font></div>","null","2","Papaya Payday","Fruit/papayas.png","Won","0.2,0.65","13","0.2","38","6","",""
"html-keyboard-response","28","69835","0.0-11.0-1.6","5f2f86864fd821374b4367bc","bdp_rwlrn","Fri Mar 10 2023 11:28:27 GMT-0800 (Pacific Standard Time)","317618","Untrustworthy,Trustworthy","","463","","","","decision","","<div class='trialDiv'><img src='Fruit/pears.png'><br><font class='baseline'><strong>Pears Aplenty</strong><p>Choose number of points to bet.</font><div class='respPicDiv'><img src='img/responseButtonOffersNo0L.png' class='respPic'></div></div>","5","3","Pears Aplenty","Fruit/pears.png","Won","0.8,0.35","13","0.8","43","7","",""
"html-keyboard-response","29","70087","0.0-11.0-2.6","5f2f86864fd821374b4367bc","bdp_rwlrn","Fri Mar 10 2023 11:28:27 GMT-0800 (Pacific Standard Time)","317618","Untrustworthy,Trustworthy","","null","","","","decisionFB","","<div class='trialDiv'><img src='Fruit/pears.png'><br><font class='baseline'><strong>Pears Aplenty</strong><p>Choose number of points to bet.</font><div class='respPicDiv'><img src='img/responseButtonOffersNo0L5.png' class='respPic'></div></div>","null","3","Pears Aplenty","Fruit/pears.png","Won","0.8,0.35","13","0.8","38","7","",""
"html-keyboard-response","30","71090","0.0-11.0-3.6","5f2f86864fd821374b4367bc","bdp_rwlrn","Fri Mar 10 2023 11:28:27 GMT-0800 (Pacific Standard Time)","317618","Untrustworthy,Trustworthy","","null","","","","feedback","","<div class='respPicDiv'><img src='img/responseButtonOffersNo0_wht.png' class='respPic'></div><div class='trialDiv'><img src='Fruit/pears.png'><br><font class='baseline'><strong>Pears Aplenty</strong><p><strong><font class='posOutcome'>You WON</font><p>You bet: 5</strong></font> &nbsp; &nbsp; &nbsp; &nbsp; &nbsp; &nbsp;<font class='posOutcome'>you receive: <strong>10</strong></font></div>","null","3","Pears Aplenty","Fruit/pears.png","Won","0.8,0.35","13","0.8","48","7","",""
"html-keyboard-response","31","71419","0.0-11.0-1.7","5f2f86864fd821374b4367bc","bdp_rwlrn","Fri Mar 10 2023 11:28:27 GMT-0800 (Pacific Standard Time)","317618","Untrustworthy,Trustworthy","","328","","","","decision","","<div class='trialDiv'><img src='Fruit/papayas.png'><br><font class='baseline'><strong>Papaya Payday</strong><p>Choose number of points to bet.</font><div class='respPicDiv'><img src='img/responseButtonOffersNo0L.png' class='respPic'></div></div>","5","3","Papaya Payday","Fruit/papayas.png","Lost","0.2,0.65","13","0.2","53","8","",""
"html-keyboard-response","32","71671","0.0-11.0-2.7","5f2f86864fd821374b4367bc","bdp_rwlrn","Fri Mar 10 2023 11:28:27 GMT-0800 (Pacific Standard Time)","317618","Untrustworthy,Trustworthy","","null","","","","decisionFB","","<div class='trialDiv'><img src='Fruit/papayas.png'><br><font class='baseline'><strong>Papaya Payday</strong><p>Choose number of points to bet.</font><div class='respPicDiv'><img src='img/responseButtonOffersNo0L5.png' class='respPic'></div></div>","null","3","Papaya Payday","Fruit/papayas.png","Lost","0.2,0.65","13","0.2","48","8","",""
"html-keyboard-response","33","72672","0.0-11.0-3.7","5f2f86864fd821374b4367bc","bdp_rwlrn","Fri Mar 10 2023 11:28:27 GMT-0800 (Pacific Standard Time)","317618","Untrustworthy,Trustworthy","","null","","","","feedback","","<div class='respPicDiv'><img src='img/responseButtonOffersNo0_wht.png' class='respPic'></div><div class='trialDiv'><img src='Fruit/papayas.png'><br><font class='baseline'><strong>Papaya Payday</strong><p><strong><font class='negOutcome'>You LOST</font><p>You bet: 5</strong></font> &nbsp; &nbsp; &nbsp; &nbsp; &nbsp; &nbsp;<font class='negOutcome'>You receive: <strong>0</strong></font></div>","null","3","Papaya Payday","Fruit/papayas.png","Lost","0.2,0.65","13","0.2","48","8","",""
"html-keyboard-response","34","72971","0.0-11.0-1.8","5f2f86864fd821374b4367bc","bdp_rwlrn","Fri Mar 10 2023 11:28:27 GMT-0800 (Pacific Standard Time)","317618","Untrustworthy,Trustworthy","","297","","","","decision","","<div class='trialDiv'><img src='Fruit/apple.png'><br><font class='baseline'><strong>Awesome Apples</strong><p>Choose number of points to bet.</font><div class='respPicDiv'><img src='img/responseButtonOffersNo0L.png' class='respPic'></div></div>","5","3","Awesome Apples","Fruit/apple.png","Lost","0.8,0.2","9","0.8","53","9","",""
"html-keyboard-response","35","73224","0.0-11.0-2.8","5f2f86864fd821374b4367bc","bdp_rwlrn","Fri Mar 10 2023 11:28:27 GMT-0800 (Pacific Standard Time)","317618","Untrustworthy,Trustworthy","","null","","","","decisionFB","","<div class='trialDiv'><img src='Fruit/apple.png'><br><font class='baseline'><strong>Awesome Apples</strong><p>Choose number of points to bet.</font><div class='respPicDiv'><img src='img/responseButtonOffersNo0L5.png' class='respPic'></div></div>","null","3","Awesome Apples","Fruit/apple.png","Lost","0.8,0.2","9","0.8","48","9","",""
"html-keyboard-response","36","74227","0.0-11.0-3.8","5f2f86864fd821374b4367bc","bdp_rwlrn","Fri Mar 10 2023 11:28:27 GMT-0800 (Pacific Standard Time)","317618","Untrustworthy,Trustworthy","","null","","","","feedback","","<div class='respPicDiv'><img src='img/responseButtonOffersNo0_wht.png' class='respPic'></div><div class='trialDiv'><img src='Fruit/apple.png'><br><font class='baseline'><strong>Awesome Apples</strong><p><strong><font class='negOutcome'>You LOST</font><p>You bet: 5</strong></font> &nbsp; &nbsp; &nbsp; &nbsp; &nbsp; &nbsp;<font class='negOutcome'>You receive: <strong>0</strong></font></div>","null","3","Awesome Apples","Fruit/apple.png","Lost","0.8,0.2","9","0.8","48","9","",""
"html-keyboard-response","37","74478","0.0-11.0-1.9","5f2f86864fd821374b4367bc","bdp_rwlrn","Fri Mar 10 2023 11:28:27 GMT-0800 (Pacific Standard Time)","317618","Untrustworthy,Trustworthy","","250","","","","decision","","<div class='trialDiv'><img src='Fruit/pears.png'><br><font class='baseline'><strong>Pears Aplenty</strong><p>Choose number of points to bet.</font><div class='respPicDiv'><img src='img/responseButtonOffersNo0L.png' class='respPic'></div></div>","5","4","Pears Aplenty","Fruit/pears.png","Won","0.8,0.35","13","0.8","53","10","",""
"html-keyboard-response","38","74730","0.0-11.0-2.9","5f2f86864fd821374b4367bc","bdp_rwlrn","Fri Mar 10 2023 11:28:27 GMT-0800 (Pacific Standard Time)","317618","Untrustworthy,Trustworthy","","null","","","","decisionFB","","<div class='trialDiv'><img src='Fruit/pears.png'><br><font class='baseline'><strong>Pears Aplenty</strong><p>Choose number of points to bet.</font><div class='respPicDiv'><img src='img/responseButtonOffersNo0L5.png' class='respPic'></div></div>","null","4","Pears Aplenty","Fruit/pears.png","Won","0.8,0.35","13","0.8","48","10","",""
"html-keyboard-response","39","75731","0.0-11.0-3.9","5f2f86864fd821374b4367bc","bdp_rwlrn","Fri Mar 10 2023 11:28:27 GMT-0800 (Pacific Standard Time)","317618","Untrustworthy,Trustworthy","","null","","","","feedback","","<div class='respPicDiv'><img src='img/responseButtonOffersNo0_wht.png' class='respPic'></div><div class='trialDiv'><img src='Fruit/pears.png'><br><font class='baseline'><strong>Pears Aplenty</strong><p><strong><font class='posOutcome'>You WON</font><p>You bet: 5</strong></font> &nbsp; &nbsp; &nbsp; &nbsp; &nbsp; &nbsp;<font class='posOutcome'>you receive: <strong>10</strong></font></div>","null","4","Pears Aplenty","Fruit/pears.png","Won","0.8,0.35","13","0.8","58","10","",""
"html-keyboard-response","40","75978","0.0-11.0-1.10","5f2f86864fd821374b4367bc","bdp_rwlrn","Fri Mar 10 2023 11:28:27 GMT-0800 (Pacific Standard Time)","317618","Untrustworthy,Trustworthy","","246","","","","decision","","<div class='trialDiv'><img src='Fruit/papayas.png'><br><font class='baseline'><strong>Papaya Payday</strong><p>Choose number of points to bet.</font><div class='respPicDiv'><img src='img/responseButtonOffersNo0L.png' class='respPic'></div></div>","1","4","Papaya Payday","Fruit/papayas.png","Won","0.2,0.65","13","0.2","63","11","",""
"html-keyboard-response","41","76230","0.0-11.0-2.10","5f2f86864fd821374b4367bc","bdp_rwlrn","Fri Mar 10 2023 11:28:27 GMT-0800 (Pacific Standard Time)","317618","Untrustworthy,Trustworthy","","null","","","","decisionFB","","<div class='trialDiv'><img src='Fruit/papayas.png'><br><font class='baseline'><strong>Papaya Payday</strong><p>Choose number of points to bet.</font><div class='respPicDiv'><img src='img/responseButtonOffersNo0L1.png' class='respPic'></div></div>","null","4","Papaya Payday","Fruit/papayas.png","Won","0.2,0.65","13","0.2","62","11","",""
"html-keyboard-response","42","77231","0.0-11.0-3.10","5f2f86864fd821374b4367bc","bdp_rwlrn","Fri Mar 10 2023 11:28:27 GMT-0800 (Pacific Standard Time)","317618","Untrustworthy,Trustworthy","","null","","","","feedback","","<div class='respPicDiv'><img src='img/responseButtonOffersNo0_wht.png' class='respPic'></div><div class='trialDiv'><img src='Fruit/papayas.png'><br><font class='baseline'><strong>Papaya Payday</strong><p><strong><font class='posOutcome'>You WON</font><p>You bet: 1</strong></font> &nbsp; &nbsp; &nbsp; &nbsp; &nbsp; &nbsp;<font class='posOutcome'>you receive: <strong>2</strong></font></div>","null","4","Papaya Payday","Fruit/papayas.png","Won","0.2,0.65","13","0.2","64","11","",""
"html-keyboard-response","43","77490","0.0-11.0-1.11","5f2f86864fd821374b4367bc","bdp_rwlrn","Fri Mar 10 2023 11:28:27 GMT-0800 (Pacific Standard Time)","317618","Untrustworthy,Trustworthy","","258","","","","decision","","<div class='trialDiv'><img src='Fruit/apple.png'><br><font class='baseline'><strong>Awesome Apples</strong><p>Choose number of points to bet.</font><div class='respPicDiv'><img src='img/responseButtonOffersNo0L.png' class='respPic'></div></div>","2","4","Awesome Apples","Fruit/apple.png","Won","0.8,0.2","9","0.8","69","12","",""
"html-keyboard-response","44","77742","0.0-11.0-2.11","5f2f86864fd821374b4367bc","bdp_rwlrn","Fri Mar 10 2023 11:28:27 GMT-0800 (Pacific Standard Time)","317618","Untrustworthy,Trustworthy","","null","","","","decisionFB","","<div class='trialDiv'><img src='Fruit/apple.png'><br><font class='baseline'><strong>Awesome Apples</strong><p>Choose number of points to bet.</font><div class='respPicDiv'><img src='img/responseButtonOffersNo0L2.png' class='respPic'></div></div>","null","4","Awesome Apples","Fruit/apple.png","Won","0.8,0.2","9","0.8","67","12","",""
"html-keyboard-response","45","78746","0.0-11.0-3.11","5f2f86864fd821374b4367bc","bdp_rwlrn","Fri Mar 10 2023 11:28:27 GMT-0800 (Pacific Standard Time)","317618","Untrustworthy,Trustworthy","","null","","","","feedback","","<div class='respPicDiv'><img src='img/responseButtonOffersNo0_wht.png' class='respPic'></div><div class='trialDiv'><img src='Fruit/apple.png'><br><font class='baseline'><strong>Awesome Apples</strong><p><strong><font class='posOutcome'>You WON</font><p>You bet: 2</strong></font> &nbsp; &nbsp; &nbsp; &nbsp; &nbsp; &nbsp;<font class='posOutcome'>you receive: <strong>4</strong></font></div>","null","4","Awesome Apples","Fruit/apple.png","Won","0.8,0.2","9","0.8","71","12","",""
"html-keyboard-response","46","78978","0.0-11.0-1.12","5f2f86864fd821374b4367bc","bdp_rwlrn","Fri Mar 10 2023 11:28:27 GMT-0800 (Pacific Standard Time)","317618","Untrustworthy,Trustworthy","","231","","","","decision","","<div class='trialDiv'><img src='Fruit/papayas.png'><br><font class='baseline'><strong>Papaya Payday</strong><p>Choose number of points to bet.</font><div class='respPicDiv'><img src='img/responseButtonOffersNo0L.png' class='respPic'></div></div>","1","5","Papaya Payday","Fruit/papayas.png","Lost","0.2,0.65","13","0.2","76","13","",""
"html-keyboard-response","47","79229","0.0-11.0-2.12","5f2f86864fd821374b4367bc","bdp_rwlrn","Fri Mar 10 2023 11:28:27 GMT-0800 (Pacific Standard Time)","317618","Untrustworthy,Trustworthy","","null","","","","decisionFB","","<div class='trialDiv'><img src='Fruit/papayas.png'><br><font class='baseline'><strong>Papaya Payday</strong><p>Choose number of points to bet.</font><div class='respPicDiv'><img src='img/responseButtonOffersNo0L1.png' class='respPic'></div></div>","null","5","Papaya Payday","Fruit/papayas.png","Lost","0.2,0.65","13","0.2","75","13","",""
"html-keyboard-response","48","80231","0.0-11.0-3.12","5f2f86864fd821374b4367bc","bdp_rwlrn","Fri Mar 10 2023 11:28:27 GMT-0800 (Pacific Standard Time)","317618","Untrustworthy,Trustworthy","","null","","","","feedback","","<div class='respPicDiv'><img src='img/responseButtonOffersNo0_wht.png' class='respPic'></div><div class='trialDiv'><img src='Fruit/papayas.png'><br><font class='baseline'><strong>Papaya Payday</strong><p><strong><font class='negOutcome'>You LOST</font><p>You bet: 1</strong></font> &nbsp; &nbsp; &nbsp; &nbsp; &nbsp; &nbsp;<font class='negOutcome'>You receive: <strong>0</strong></font></div>","null","5","Papaya Payday","Fruit/papayas.png","Lost","0.2,0.65","13","0.2","75","13","",""
"html-keyboard-response","49","80426","0.0-11.0-1.13","5f2f86864fd821374b4367bc","bdp_rwlrn","Fri Mar 10 2023 11:28:27 GMT-0800 (Pacific Standard Time)","317618","Untrustworthy,Trustworthy","","193","","","","decision","","<div class='trialDiv'><img src='Fruit/pears.png'><br><font class='baseline'><strong>Pears Aplenty</strong><p>Choose number of points to bet.</font><div class='respPicDiv'><img src='img/responseButtonOffersNo0L.png' class='respPic'></div></div>","1","5","Pears Aplenty","Fruit/pears.png","Won","0.8,0.35","13","0.8","80","14","",""
"html-keyboard-response","50","80679","0.0-11.0-2.13","5f2f86864fd821374b4367bc","bdp_rwlrn","Fri Mar 10 2023 11:28:27 GMT-0800 (Pacific Standard Time)","317618","Untrustworthy,Trustworthy","","null","","","","decisionFB","","<div class='trialDiv'><img src='Fruit/pears.png'><br><font class='baseline'><strong>Pears Aplenty</strong><p>Choose number of points to bet.</font><div class='respPicDiv'><img src='img/responseButtonOffersNo0L1.png' class='respPic'></div></div>","null","5","Pears Aplenty","Fruit/pears.png","Won","0.8,0.35","13","0.8","79","14","",""
"html-keyboard-response","51","81681","0.0-11.0-3.13","5f2f86864fd821374b4367bc","bdp_rwlrn","Fri Mar 10 2023 11:28:27 GMT-0800 (Pacific Standard Time)","317618","Untrustworthy,Trustworthy","","null","","","","feedback","","<div class='respPicDiv'><img src='img/responseButtonOffersNo0_wht.png' class='respPic'></div><div class='trialDiv'><img src='Fruit/pears.png'><br><font class='baseline'><strong>Pears Aplenty</strong><p><strong><font class='posOutcome'>You WON</font><p>You bet: 1</strong></font> &nbsp; &nbsp; &nbsp; &nbsp; &nbsp; &nbsp;<font class='posOutcome'>you receive: <strong>2</strong></font></div>","null","5","Pears Aplenty","Fruit/pears.png","Won","0.8,0.35","13","0.8","81","14","",""
"html-keyboard-response","52","81937","0.0-11.0-1.14","5f2f86864fd821374b4367bc","bdp_rwlrn","Fri Mar 10 2023 11:28:27 GMT-0800 (Pacific Standard Time)","317618","Untrustworthy,Trustworthy","","255","","","","decision","","<div class='trialDiv'><img src='Fruit/apple.png'><br><font class='baseline'><strong>Awesome Apples</strong><p>Choose number of points to bet.</font><div class='respPicDiv'><img src='img/responseButtonOffersNo0L.png' class='respPic'></div></div>","1","5","Awesome Apples","Fruit/apple.png","Won","0.8,0.2","9","0.8","86","15","",""
"html-keyboard-response","53","82189","0.0-11.0-2.14","5f2f86864fd821374b4367bc","bdp_rwlrn","Fri Mar 10 2023 11:28:27 GMT-0800 (Pacific Standard Time)","317618","Untrustworthy,Trustworthy","","null","","","","decisionFB","","<div class='trialDiv'><img src='Fruit/apple.png'><br><font class='baseline'><strong>Awesome Apples</strong><p>Choose number of points to bet.</font><div class='respPicDiv'><img src='img/responseButtonOffersNo0L1.png' class='respPic'></div></div>","null","5","Awesome Apples","Fruit/apple.png","Won","0.8,0.2","9","0.8","85","15","",""
"html-keyboard-response","54","83191","0.0-11.0-3.14","5f2f86864fd821374b4367bc","bdp_rwlrn","Fri Mar 10 2023 11:28:27 GMT-0800 (Pacific Standard Time)","317618","Untrustworthy,Trustworthy","","null","","","","feedback","","<div class='respPicDiv'><img src='img/responseButtonOffersNo0_wht.png' class='respPic'></div><div class='trialDiv'><img src='Fruit/apple.png'><br><font class='baseline'><strong>Awesome Apples</strong><p><strong><font class='posOutcome'>You WON</font><p>You bet: 1</strong></font> &nbsp; &nbsp; &nbsp; &nbsp; &nbsp; &nbsp;<font class='posOutcome'>you receive: <strong>2</strong></font></div>","null","5","Awesome Apples","Fruit/apple.png","Won","0.8,0.2","9","0.8","87","15","",""
"html-keyboard-response","55","83409","0.0-11.0-1.15","5f2f86864fd821374b4367bc","bdp_rwlrn","Fri Mar 10 2023 11:28:27 GMT-0800 (Pacific Standard Time)","317618","Untrustworthy,Trustworthy","","217","","","","decision","","<div class='trialDiv'><img src='Fruit/pears.png'><br><font class='baseline'><strong>Pears Aplenty</strong><p>Choose number of points to bet.</font><div class='respPicDiv'><img src='img/responseButtonOffersNo0L.png' class='respPic'></div></div>","1","6","Pears Aplenty","Fruit/pears.png","Won","0.8,0.35","13","0.8","92","16","",""
"html-keyboard-response","56","83661","0.0-11.0-2.15","5f2f86864fd821374b4367bc","bdp_rwlrn","Fri Mar 10 2023 11:28:27 GMT-0800 (Pacific Standard Time)","317618","Untrustworthy,Trustworthy","","null","","","","decisionFB","","<div class='trialDiv'><img src='Fruit/pears.png'><br><font class='baseline'><strong>Pears Aplenty</strong><p>Choose number of points to bet.</font><div class='respPicDiv'><img src='img/responseButtonOffersNo0L1.png' class='respPic'></div></div>","null","6","Pears Aplenty","Fruit/pears.png","Won","0.8,0.35","13","0.8","91","16","",""
"html-keyboard-response","57","84663","0.0-11.0-3.15","5f2f86864fd821374b4367bc","bdp_rwlrn","Fri Mar 10 2023 11:28:27 GMT-0800 (Pacific Standard Time)","317618","Untrustworthy,Trustworthy","","null","","","","feedback","","<div class='respPicDiv'><img src='img/responseButtonOffersNo0_wht.png' class='respPic'></div><div class='trialDiv'><img src='Fruit/pears.png'><br><font class='baseline'><strong>Pears Aplenty</strong><p><strong><font class='posOutcome'>You WON</font><p>You bet: 1</strong></font> &nbsp; &nbsp; &nbsp; &nbsp; &nbsp; &nbsp;<font class='posOutcome'>you receive: <strong>2</strong></font></div>","null","6","Pears Aplenty","Fruit/pears.png","Won","0.8,0.35","13","0.8","93","16","",""
"html-keyboard-response","58","84877","0.0-11.0-1.16","5f2f86864fd821374b4367bc","bdp_rwlrn","Fri Mar 10 2023 11:28:27 GMT-0800 (Pacific Standard Time)","317618","Untrustworthy,Trustworthy","","212","","","","decision","","<div class='trialDiv'><img src='Fruit/apple.png'><br><font class='baseline'><strong>Awesome Apples</strong><p>Choose number of points to bet.</font><div class='respPicDiv'><img src='img/responseButtonOffersNo0L.png' class='respPic'></div></div>","1","6","Awesome Apples","Fruit/apple.png","Won","0.8,0.2","9","0.8","98","17","",""
"html-keyboard-response","59","85130","0.0-11.0-2.16","5f2f86864fd821374b4367bc","bdp_rwlrn","Fri Mar 10 2023 11:28:27 GMT-0800 (Pacific Standard Time)","317618","Untrustworthy,Trustworthy","","null","","","","decisionFB","","<div class='trialDiv'><img src='Fruit/apple.png'><br><font class='baseline'><strong>Awesome Apples</strong><p>Choose number of points to bet.</font><div class='respPicDiv'><img src='img/responseButtonOffersNo0L1.png' class='respPic'></div></div>","null","6","Awesome Apples","Fruit/apple.png","Won","0.8,0.2","9","0.8","97","17","",""
"html-keyboard-response","60","86133","0.0-11.0-3.16","5f2f86864fd821374b4367bc","bdp_rwlrn","Fri Mar 10 2023 11:28:27 GMT-0800 (Pacific Standard Time)","317618","Untrustworthy,Trustworthy","","null","","","","feedback","","<div class='respPicDiv'><img src='img/responseButtonOffersNo0_wht.png' class='respPic'></div><div class='trialDiv'><img src='Fruit/apple.png'><br><font class='baseline'><strong>Awesome Apples</strong><p><strong><font class='posOutcome'>You WON</font><p>You bet: 1</strong></font> &nbsp; &nbsp; &nbsp; &nbsp; &nbsp; &nbsp;<font class='posOutcome'>you receive: <strong>2</strong></font></div>","null","6","Awesome Apples","Fruit/apple.png","Won","0.8,0.2","9","0.8","99","17","",""
"html-keyboard-response","61","86354","0.0-11.0-1.17","5f2f86864fd821374b4367bc","bdp_rwlrn","Fri Mar 10 2023 11:28:27 GMT-0800 (Pacific Standard Time)","317618","Untrustworthy,Trustworthy","","219","","","","decision","","<div class='trialDiv'><img src='Fruit/papayas.png'><br><font class='baseline'><strong>Papaya Payday</strong><p>Choose number of points to bet.</font><div class='respPicDiv'><img src='img/responseButtonOffersNo0L.png' class='respPic'></div></div>","1","6","Papaya Payday","Fruit/papayas.png","Lost","0.2,0.65","13","0.2","104","18","",""
"html-keyboard-response","62","86604","0.0-11.0-2.17","5f2f86864fd821374b4367bc","bdp_rwlrn","Fri Mar 10 2023 11:28:27 GMT-0800 (Pacific Standard Time)","317618","Untrustworthy,Trustworthy","","null","","","","decisionFB","","<div class='trialDiv'><img src='Fruit/papayas.png'><br><font class='baseline'><strong>Papaya Payday</strong><p>Choose number of points to bet.</font><div class='respPicDiv'><img src='img/responseButtonOffersNo0L1.png' class='respPic'></div></div>","null","6","Papaya Payday","Fruit/papayas.png","Lost","0.2,0.65","13","0.2","103","18","",""
"html-keyboard-response","63","87606","0.0-11.0-3.17","5f2f86864fd821374b4367bc","bdp_rwlrn","Fri Mar 10 2023 11:28:27 GMT-0800 (Pacific Standard Time)","317618","Untrustworthy,Trustworthy","","null","","","","feedback","","<div class='respPicDiv'><img src='img/responseButtonOffersNo0_wht.png' class='respPic'></div><div class='trialDiv'><img src='Fruit/papayas.png'><br><font class='baseline'><strong>Papaya Payday</strong><p><strong><font class='negOutcome'>You LOST</font><p>You bet: 1</strong></font> &nbsp; &nbsp; &nbsp; &nbsp; &nbsp; &nbsp;<font class='negOutcome'>You receive: <strong>0</strong></font></div>","null","6","Papaya Payday","Fruit/papayas.png","Lost","0.2,0.65","13","0.2","103","18","",""
"html-keyboard-response","64","87730","0.0-11.0-1.18","5f2f86864fd821374b4367bc","bdp_rwlrn","Fri Mar 10 2023 11:28:27 GMT-0800 (Pacific Standard Time)","317618","Untrustworthy,Trustworthy","","121","","","","decision","","<div class='trialDiv'><img src='Fruit/apple.png'><br><font class='baseline'><strong>Awesome Apples</strong><p>Choose number of points to bet.</font><div class='respPicDiv'><img src='img/responseButtonOffersNo0L.png' class='respPic'></div></div>","1","7","Awesome Apples","Fruit/apple.png","Won","0.8,0.2","9","0.8","108","19","",""
"html-keyboard-response","65","87981","0.0-11.0-2.18","5f2f86864fd821374b4367bc","bdp_rwlrn","Fri Mar 10 2023 11:28:27 GMT-0800 (Pacific Standard Time)","317618","Untrustworthy,Trustworthy","","null","","","","decisionFB","","<div class='trialDiv'><img src='Fruit/apple.png'><br><font class='baseline'><strong>Awesome Apples</strong><p>Choose number of points to bet.</font><div class='respPicDiv'><img src='img/responseButtonOffersNo0L1.png' class='respPic'></div></div>","null","7","Awesome Apples","Fruit/apple.png","Won","0.8,0.2","9","0.8","107","19","",""
"html-keyboard-response","66","88983","0.0-11.0-3.18","5f2f86864fd821374b4367bc","bdp_rwlrn","Fri Mar 10 2023 11:28:27 GMT-0800 (Pacific Standard Time)","317618","Untrustworthy,Trustworthy","","null","","","","feedback","","<div class='respPicDiv'><img src='img/responseButtonOffersNo0_wht.png' class='respPic'></div><div class='trialDiv'><img src='Fruit/apple.png'><br><font class='baseline'><strong>Awesome Apples</strong><p><strong><font class='posOutcome'>You WON</font><p>You bet: 1</strong></font> &nbsp; &nbsp; &nbsp; &nbsp; &nbsp; &nbsp;<font class='posOutcome'>you receive: <strong>2</strong></font></div>","null","7","Awesome Apples","Fruit/apple.png","Won","0.8,0.2","9","0.8","109","19","",""
"html-keyboard-response","67","89137","0.0-11.0-1.19","5f2f86864fd821374b4367bc","bdp_rwlrn","Fri Mar 10 2023 11:28:27 GMT-0800 (Pacific Standard Time)","317618","Untrustworthy,Trustworthy","","153","","","","decision","","<div class='trialDiv'><img src='Fruit/pears.png'><br><font class='baseline'><strong>Pears Aplenty</strong><p>Choose number of points to bet.</font><div class='respPicDiv'><img src='img/responseButtonOffersNo0L.png' class='respPic'></div></div>","1","7","Pears Aplenty","Fruit/pears.png","Won","0.8,0.35","13","0.8","114","20","",""
"html-keyboard-response","68","89394","0.0-11.0-2.19","5f2f86864fd821374b4367bc","bdp_rwlrn","Fri Mar 10 2023 11:28:27 GMT-0800 (Pacific Standard Time)","317618","Untrustworthy,Trustworthy","","null","","","","decisionFB","","<div class='trialDiv'><img src='Fruit/pears.png'><br><font class='baseline'><strong>Pears Aplenty</strong><p>Choose number of points to bet.</font><div class='respPicDiv'><img src='img/responseButtonOffersNo0L1.png' class='respPic'></div></div>","null","7","Pears Aplenty","Fruit/pears.png","Won","0.8,0.35","13","0.8","113","20","",""
"html-keyboard-response","69","90396","0.0-11.0-3.19","5f2f86864fd821374b4367bc","bdp_rwlrn","Fri Mar 10 2023 11:28:27 GMT-0800 (Pacific Standard Time)","317618","Untrustworthy,Trustworthy","","null","","","","feedback","","<div class='respPicDiv'><img src='img/responseButtonOffersNo0_wht.png' class='respPic'></div><div class='trialDiv'><img src='Fruit/pears.png'><br><font class='baseline'><strong>Pears Aplenty</strong><p><strong><font class='posOutcome'>You WON</font><p>You bet: 1</strong></font> &nbsp; &nbsp; &nbsp; &nbsp; &nbsp; &nbsp;<font class='posOutcome'>you receive: <strong>2</strong></font></div>","null","7","Pears Aplenty","Fruit/pears.png","Won","0.8,0.35","13","0.8","115","20","",""
"html-keyboard-response","70","91074","0.0-11.0-1.20","5f2f86864fd821374b4367bc","bdp_rwlrn","Fri Mar 10 2023 11:28:27 GMT-0800 (Pacific Standard Time)","317618","Untrustworthy,Trustworthy","","678","","","","decision","","<div class='trialDiv'><img src='Fruit/papayas.png'><br><font class='baseline'><strong>Papaya Payday</strong><p>Choose number of points to bet.</font><div class='respPicDiv'><img src='img/responseButtonOffersNo0L.png' class='respPic'></div></div>","1","7","Papaya Payday","Fruit/papayas.png","Lost","0.2,0.65","13","0.2","120","21","",""
"html-keyboard-response","71","91326","0.0-11.0-2.20","5f2f86864fd821374b4367bc","bdp_rwlrn","Fri Mar 10 2023 11:28:27 GMT-0800 (Pacific Standard Time)","317618","Untrustworthy,Trustworthy","","null","","","","decisionFB","","<div class='trialDiv'><img src='Fruit/papayas.png'><br><font class='baseline'><strong>Papaya Payday</strong><p>Choose number of points to bet.</font><div class='respPicDiv'><img src='img/responseButtonOffersNo0L1.png' class='respPic'></div></div>","null","7","Papaya Payday","Fruit/papayas.png","Lost","0.2,0.65","13","0.2","119","21","",""
"html-keyboard-response","72","92328","0.0-11.0-3.20","5f2f86864fd821374b4367bc","bdp_rwlrn","Fri Mar 10 2023 11:28:27 GMT-0800 (Pacific Standard Time)","317618","Untrustworthy,Trustworthy","","null","","","","feedback","","<div class='respPicDiv'><img src='img/responseButtonOffersNo0_wht.png' class='respPic'></div><div class='trialDiv'><img src='Fruit/papayas.png'><br><font class='baseline'><strong>Papaya Payday</strong><p><strong><font class='negOutcome'>You LOST</font><p>You bet: 1</strong></font> &nbsp; &nbsp; &nbsp; &nbsp; &nbsp; &nbsp;<font class='negOutcome'>You receive: <strong>0</strong></font></div>","null","7","Papaya Payday","Fruit/papayas.png","Lost","0.2,0.65","13","0.2","119","21","",""
"html-keyboard-response","73","93802","0.0-11.0-1.21","5f2f86864fd821374b4367bc","bdp_rwlrn","Fri Mar 10 2023 11:28:27 GMT-0800 (Pacific Standard Time)","317618","Untrustworthy,Trustworthy","","1472","","","","decision","","<div class='trialDiv'><img src='Fruit/pears.png'><br><font class='baseline'><strong>Pears Aplenty</strong><p>Choose number of points to bet.</font><div class='respPicDiv'><img src='img/responseButtonOffersNo0L.png' class='respPic'></div></div>","5","8","Pears Aplenty","Fruit/pears.png","Won","0.8,0.35","13","0.8","124","22","",""
"html-keyboard-response","74","94053","0.0-11.0-2.21","5f2f86864fd821374b4367bc","bdp_rwlrn","Fri Mar 10 2023 11:28:27 GMT-0800 (Pacific Standard Time)","317618","Untrustworthy,Trustworthy","","null","","","","decisionFB","","<div class='trialDiv'><img src='Fruit/pears.png'><br><font class='baseline'><strong>Pears Aplenty</strong><p>Choose number of points to bet.</font><div class='respPicDiv'><img src='img/responseButtonOffersNo0L5.png' class='respPic'></div></div>","null","8","Pears Aplenty","Fruit/pears.png","Won","0.8,0.35","13","0.8","119","22","",""
"html-keyboard-response","75","95055","0.0-11.0-3.21","5f2f86864fd821374b4367bc","bdp_rwlrn","Fri Mar 10 2023 11:28:27 GMT-0800 (Pacific Standard Time)","317618","Untrustworthy,Trustworthy","","null","","","","feedback","","<div class='respPicDiv'><img src='img/responseButtonOffersNo0_wht.png' class='respPic'></div><div class='trialDiv'><img src='Fruit/pears.png'><br><font class='baseline'><strong>Pears Aplenty</strong><p><strong><font class='posOutcome'>You WON</font><p>You bet: 5</strong></font> &nbsp; &nbsp; &nbsp; &nbsp; &nbsp; &nbsp;<font class='posOutcome'>you receive: <strong>10</strong></font></div>","null","8","Pears Aplenty","Fruit/pears.png","Won","0.8,0.35","13","0.8","129","22","",""
"html-keyboard-response","76","95546","0.0-11.0-1.22","5f2f86864fd821374b4367bc","bdp_rwlrn","Fri Mar 10 2023 11:28:27 GMT-0800 (Pacific Standard Time)","317618","Untrustworthy,Trustworthy","","489","","","","decision","","<div class='trialDiv'><img src='Fruit/apple.png'><br><font class='baseline'><strong>Awesome Apples</strong><p>Choose number of points to bet.</font><div class='respPicDiv'><img src='img/responseButtonOffersNo0L.png' class='respPic'></div></div>","5","8","Awesome Apples","Fruit/apple.png","Won","0.8,0.2","9","0.8","134","23","",""
"html-keyboard-response","77","95797","0.0-11.0-2.22","5f2f86864fd821374b4367bc","bdp_rwlrn","Fri Mar 10 2023 11:28:27 GMT-0800 (Pacific Standard Time)","317618","Untrustworthy,Trustworthy","","null","","","","decisionFB","","<div class='trialDiv'><img src='Fruit/apple.png'><br><font class='baseline'><strong>Awesome Apples</strong><p>Choose number of points to bet.</font><div class='respPicDiv'><img src='img/responseButtonOffersNo0L5.png' class='respPic'></div></div>","null","8","Awesome Apples","Fruit/apple.png","Won","0.8,0.2","9","0.8","129","23","",""
"html-keyboard-response","78","96799","0.0-11.0-3.22","5f2f86864fd821374b4367bc","bdp_rwlrn","Fri Mar 10 2023 11:28:27 GMT-0800 (Pacific Standard Time)","317618","Untrustworthy,Trustworthy","","null","","","","feedback","","<div class='respPicDiv'><img src='img/responseButtonOffersNo0_wht.png' class='respPic'></div><div class='trialDiv'><img src='Fruit/apple.png'><br><font class='baseline'><strong>Awesome Apples</strong><p><strong><font class='posOutcome'>You WON</font><p>You bet: 5</strong></font> &nbsp; &nbsp; &nbsp; &nbsp; &nbsp; &nbsp;<font class='posOutcome'>you receive: <strong>10</strong></font></div>","null","8","Awesome Apples","Fruit/apple.png","Won","0.8,0.2","9","0.8","139","23","",""
"html-keyboard-response","79","98066","0.0-11.0-1.23","5f2f86864fd821374b4367bc","bdp_rwlrn","Fri Mar 10 2023 11:28:27 GMT-0800 (Pacific Standard Time)","317618","Untrustworthy,Trustworthy","","1265","","","","decision","","<div class='trialDiv'><img src='Fruit/papayas.png'><br><font class='baseline'><strong>Papaya Payday</strong><p>Choose number of points to bet.</font><div class='respPicDiv'><img src='img/responseButtonOffersNo0L.png' class='respPic'></div></div>","1","8","Papaya Payday","Fruit/papayas.png","Lost","0.2,0.65","13","0.2","144","24","",""
"html-keyboard-response","80","98318","0.0-11.0-2.23","5f2f86864fd821374b4367bc","bdp_rwlrn","Fri Mar 10 2023 11:28:27 GMT-0800 (Pacific Standard Time)","317618","Untrustworthy,Trustworthy","","null","","","","decisionFB","","<div class='trialDiv'><img src='Fruit/papayas.png'><br><font class='baseline'><strong>Papaya Payday</strong><p>Choose number of points to bet.</font><div class='respPicDiv'><img src='img/responseButtonOffersNo0L1.png' class='respPic'></div></div>","null","8","Papaya Payday","Fruit/papayas.png","Lost","0.2,0.65","13","0.2","143","24","",""
"html-keyboard-response","81","99321","0.0-11.0-3.23","5f2f86864fd821374b4367bc","bdp_rwlrn","Fri Mar 10 2023 11:28:27 GMT-0800 (Pacific Standard Time)","317618","Untrustworthy,Trustworthy","","null","","","","feedback","","<div class='respPicDiv'><img src='img/responseButtonOffersNo0_wht.png' class='respPic'></div><div class='trialDiv'><img src='Fruit/papayas.png'><br><font class='baseline'><strong>Papaya Payday</strong><p><strong><font class='negOutcome'>You LOST</font><p>You bet: 1</strong></font> &nbsp; &nbsp; &nbsp; &nbsp; &nbsp; &nbsp;<font class='negOutcome'>You receive: <strong>0</strong></font></div>","null","8","Papaya Payday","Fruit/papayas.png","Lost","0.2,0.65","13","0.2","143","24","",""
"html-keyboard-response","82","99738","0.0-11.0-1.24","5f2f86864fd821374b4367bc","bdp_rwlrn","Fri Mar 10 2023 11:28:27 GMT-0800 (Pacific Standard Time)","317618","Untrustworthy,Trustworthy","","416","","","","decision","","<div class='trialDiv'><img src='Fruit/pears.png'><br><font class='baseline'><strong>Pears Aplenty</strong><p>Choose number of points to bet.</font><div class='respPicDiv'><img src='img/responseButtonOffersNo0L.png' class='respPic'></div></div>","5","9","Pears Aplenty","Fruit/pears.png","Won","0.8,0.35","13","0.8","148","25","",""
"html-keyboard-response","83","99991","0.0-11.0-2.24","5f2f86864fd821374b4367bc","bdp_rwlrn","Fri Mar 10 2023 11:28:27 GMT-0800 (Pacific Standard Time)","317618","Untrustworthy,Trustworthy","","null","","","","decisionFB","","<div class='trialDiv'><img src='Fruit/pears.png'><br><font class='baseline'><strong>Pears Aplenty</strong><p>Choose number of points to bet.</font><div class='respPicDiv'><img src='img/responseButtonOffersNo0L5.png' class='respPic'></div></div>","null","9","Pears Aplenty","Fruit/pears.png","Won","0.8,0.35","13","0.8","143","25","",""
"html-keyboard-response","84","100992","0.0-11.0-3.24","5f2f86864fd821374b4367bc","bdp_rwlrn","Fri Mar 10 2023 11:28:27 GMT-0800 (Pacific Standard Time)","317618","Untrustworthy,Trustworthy","","null","","","","feedback","","<div class='respPicDiv'><img src='img/responseButtonOffersNo0_wht.png' class='respPic'></div><div class='trialDiv'><img src='Fruit/pears.png'><br><font class='baseline'><strong>Pears Aplenty</strong><p><strong><font class='posOutcome'>You WON</font><p>You bet: 5</strong></font> &nbsp; &nbsp; &nbsp; &nbsp; &nbsp; &nbsp;<font class='posOutcome'>you receive: <strong>10</strong></font></div>","null","9","Pears Aplenty","Fruit/pears.png","Won","0.8,0.35","13","0.8","153","25","",""
"html-keyboard-response","85","101394","0.0-11.0-1.25","5f2f86864fd821374b4367bc","bdp_rwlrn","Fri Mar 10 2023 11:28:27 GMT-0800 (Pacific Standard Time)","317618","Untrustworthy,Trustworthy","","399","","","","decision","","<div class='trialDiv'><img src='Fruit/apple.png'><br><font class='baseline'><strong>Awesome Apples</strong><p>Choose number of points to bet.</font><div class='respPicDiv'><img src='img/responseButtonOffersNo0L.png' class='respPic'></div></div>","5","9","Awesome Apples","Fruit/apple.png","Lost","0.8,0.2","9","0.8","158","26","",""
"html-keyboard-response","86","101645","0.0-11.0-2.25","5f2f86864fd821374b4367bc","bdp_rwlrn","Fri Mar 10 2023 11:28:27 GMT-0800 (Pacific Standard Time)","317618","Untrustworthy,Trustworthy","","null","","","","decisionFB","","<div class='trialDiv'><img src='Fruit/apple.png'><br><font class='baseline'><strong>Awesome Apples</strong><p>Choose number of points to bet.</font><div class='respPicDiv'><img src='img/responseButtonOffersNo0L5.png' class='respPic'></div></div>","null","9","Awesome Apples","Fruit/apple.png","Lost","0.8,0.2","9","0.8","153","26","",""
"html-keyboard-response","87","102648","0.0-11.0-3.25","5f2f86864fd821374b4367bc","bdp_rwlrn","Fri Mar 10 2023 11:28:27 GMT-0800 (Pacific Standard Time)","317618","Untrustworthy,Trustworthy","","null","","","","feedback","","<div class='respPicDiv'><img src='img/responseButtonOffersNo0_wht.png' class='respPic'></div><div class='trialDiv'><img src='Fruit/apple.png'><br><font class='baseline'><strong>Awesome Apples</strong><p><strong><font class='negOutcome'>You LOST</font><p>You bet: 5</strong></font> &nbsp; &nbsp; &nbsp; &nbsp; &nbsp; &nbsp;<font class='negOutcome'>You receive: <strong>0</strong></font></div>","null","9","Awesome Apples","Fruit/apple.png","Lost","0.8,0.2","9","0.8","153","26","",""
"html-keyboard-response","88","102875","0.0-11.0-1.26","5f2f86864fd821374b4367bc","bdp_rwlrn","Fri Mar 10 2023 11:28:27 GMT-0800 (Pacific Standard Time)","317618","Untrustworthy,Trustworthy","","224","","","","decision","","<div class='trialDiv'><img src='Fruit/papayas.png'><br><font class='baseline'><strong>Papaya Payday</strong><p>Choose number of points to bet.</font><div class='respPicDiv'><img src='img/responseButtonOffersNo0L.png' class='respPic'></div></div>","1","9","Papaya Payday","Fruit/papayas.png","Lost","0.2,0.65","13","0.2","158","27","",""
"html-keyboard-response","89","103127","0.0-11.0-2.26","5f2f86864fd821374b4367bc","bdp_rwlrn","Fri Mar 10 2023 11:28:27 GMT-0800 (Pacific Standard Time)","317618","Untrustworthy,Trustworthy","","null","","","","decisionFB","","<div class='trialDiv'><img src='Fruit/papayas.png'><br><font class='baseline'><strong>Papaya Payday</strong><p>Choose number of points to bet.</font><div class='respPicDiv'><img src='img/responseButtonOffersNo0L1.png' class='respPic'></div></div>","null","9","Papaya Payday","Fruit/papayas.png","Lost","0.2,0.65","13","0.2","157","27","",""
"html-keyboard-response","90","104131","0.0-11.0-3.26","5f2f86864fd821374b4367bc","bdp_rwlrn","Fri Mar 10 2023 11:28:27 GMT-0800 (Pacific Standard Time)","317618","Untrustworthy,Trustworthy","","null","","","","feedback","","<div class='respPicDiv'><img src='img/responseButtonOffersNo0_wht.png' class='respPic'></div><div class='trialDiv'><img src='Fruit/papayas.png'><br><font class='baseline'><strong>Papaya Payday</strong><p><strong><font class='negOutcome'>You LOST</font><p>You bet: 1</strong></font> &nbsp; &nbsp; &nbsp; &nbsp; &nbsp; &nbsp;<font class='negOutcome'>You receive: <strong>0</strong></font></div>","null","9","Papaya Payday","Fruit/papayas.png","Lost","0.2,0.65","13","0.2","157","27","",""
"html-keyboard-response","91","104353","0.0-11.0-1.27","5f2f86864fd821374b4367bc","bdp_rwlrn","Fri Mar 10 2023 11:28:27 GMT-0800 (Pacific Standard Time)","317618","Untrustworthy,Trustworthy","","221","","","","decision","","<div class='trialDiv'><img src='Fruit/pears.png'><br><font class='baseline'><strong>Pears Aplenty</strong><p>Choose number of points to bet.</font><div class='respPicDiv'><img src='img/responseButtonOffersNo0L.png' class='respPic'></div></div>","1","10","Pears Aplenty","Fruit/pears.png","Won","0.8,0.35","13","0.8","162","28","",""
"html-keyboard-response","92","104605","0.0-11.0-2.27","5f2f86864fd821374b4367bc","bdp_rwlrn","Fri Mar 10 2023 11:28:27 GMT-0800 (Pacific Standard Time)","317618","Untrustworthy,Trustworthy","","null","","","","decisionFB","","<div class='trialDiv'><img src='Fruit/pears.png'><br><font class='baseline'><strong>Pears Aplenty</strong><p>Choose number of points to bet.</font><div class='respPicDiv'><img src='img/responseButtonOffersNo0L1.png' class='respPic'></div></div>","null","10","Pears Aplenty","Fruit/pears.png","Won","0.8,0.35","13","0.8","161","28","",""
"html-keyboard-response","93","105608","0.0-11.0-3.27","5f2f86864fd821374b4367bc","bdp_rwlrn","Fri Mar 10 2023 11:28:27 GMT-0800 (Pacific Standard Time)","317618","Untrustworthy,Trustworthy","","null","","","","feedback","","<div class='respPicDiv'><img src='img/responseButtonOffersNo0_wht.png' class='respPic'></div><div class='trialDiv'><img src='Fruit/pears.png'><br><font class='baseline'><strong>Pears Aplenty</strong><p><strong><font class='posOutcome'>You WON</font><p>You bet: 1</strong></font> &nbsp; &nbsp; &nbsp; &nbsp; &nbsp; &nbsp;<font class='posOutcome'>you receive: <strong>2</strong></font></div>","null","10","Pears Aplenty","Fruit/pears.png","Won","0.8,0.35","13","0.8","163","28","",""
"html-keyboard-response","94","105803","0.0-11.0-1.28","5f2f86864fd821374b4367bc","bdp_rwlrn","Fri Mar 10 2023 11:28:27 GMT-0800 (Pacific Standard Time)","317618","Untrustworthy,Trustworthy","","194","","","","decision","","<div class='trialDiv'><img src='Fruit/papayas.png'><br><font class='baseline'><strong>Papaya Payday</strong><p>Choose number of points to bet.</font><div class='respPicDiv'><img src='img/responseButtonOffersNo0L.png' class='respPic'></div></div>","1","10","Papaya Payday","Fruit/papayas.png","Lost","0.2,0.65","13","0.2","168","29","",""
"html-keyboard-response","95","106055","0.0-11.0-2.28","5f2f86864fd821374b4367bc","bdp_rwlrn","Fri Mar 10 2023 11:28:27 GMT-0800 (Pacific Standard Time)","317618","Untrustworthy,Trustworthy","","null","","","","decisionFB","","<div class='trialDiv'><img src='Fruit/papayas.png'><br><font class='baseline'><strong>Papaya Payday</strong><p>Choose number of points to bet.</font><div class='respPicDiv'><img src='img/responseButtonOffersNo0L1.png' class='respPic'></div></div>","null","10","Papaya Payday","Fruit/papayas.png","Lost","0.2,0.65","13","0.2","167","29","",""
"html-keyboard-response","96","107058","0.0-11.0-3.28","5f2f86864fd821374b4367bc","bdp_rwlrn","Fri Mar 10 2023 11:28:27 GMT-0800 (Pacific Standard Time)","317618","Untrustworthy,Trustworthy","","null","","","","feedback","","<div class='respPicDiv'><img src='img/responseButtonOffersNo0_wht.png' class='respPic'></div><div class='trialDiv'><img src='Fruit/papayas.png'><br><font class='baseline'><strong>Papaya Payday</strong><p><strong><font class='negOutcome'>You LOST</font><p>You bet: 1</strong></font> &nbsp; &nbsp; &nbsp; &nbsp; &nbsp; &nbsp;<font class='negOutcome'>You receive: <strong>0</strong></font></div>","null","10","Papaya Payday","Fruit/papayas.png","Lost","0.2,0.65","13","0.2","167","29","",""
"html-keyboard-response","97","107082","0.0-11.0-1.29","5f2f86864fd821374b4367bc","bdp_rwlrn","Fri Mar 10 2023 11:28:27 GMT-0800 (Pacific Standard Time)","317618","Untrustworthy,Trustworthy","","23","","","","decision","","<div class='trialDiv'><img src='Fruit/apple.png'><br><font class='baseline'><strong>Awesome Apples</strong><p>Choose number of points to bet.</font><div class='respPicDiv'><img src='img/responseButtonOffersNo0L.png' class='respPic'></div></div>","1","10","Awesome Apples","Fruit/apple.png","Won","0.8,0.2","9","0.8","172","30","",""
"html-keyboard-response","98","107333","0.0-11.0-2.29","5f2f86864fd821374b4367bc","bdp_rwlrn","Fri Mar 10 2023 11:28:27 GMT-0800 (Pacific Standard Time)","317618","Untrustworthy,Trustworthy","","null","","","","decisionFB","","<div class='trialDiv'><img src='Fruit/apple.png'><br><font class='baseline'><strong>Awesome Apples</strong><p>Choose number of points to bet.</font><div class='respPicDiv'><img src='img/responseButtonOffersNo0L1.png' class='respPic'></div></div>","null","10","Awesome Apples","Fruit/apple.png","Won","0.8,0.2","9","0.8","171","30","",""
"html-keyboard-response","99","108337","0.0-11.0-3.29","5f2f86864fd821374b4367bc","bdp_rwlrn","Fri Mar 10 2023 11:28:27 GMT-0800 (Pacific Standard Time)","317618","Untrustworthy,Trustworthy","","null","","","","feedback","","<div class='respPicDiv'><img src='img/responseButtonOffersNo0_wht.png' class='respPic'></div><div class='trialDiv'><img src='Fruit/apple.png'><br><font class='baseline'><strong>Awesome Apples</strong><p><strong><font class='posOutcome'>You WON</font><p>You bet: 1</strong></font> &nbsp; &nbsp; &nbsp; &nbsp; &nbsp; &nbsp;<font class='posOutcome'>you receive: <strong>2</strong></font></div>","null","10","Awesome Apples","Fruit/apple.png","Won","0.8,0.2","9","0.8","173","30","",""
"html-keyboard-response","100","108555","0.0-11.0-1.30","5f2f86864fd821374b4367bc","bdp_rwlrn","Fri Mar 10 2023 11:28:27 GMT-0800 (Pacific Standard Time)","317618","Untrustworthy,Trustworthy","","217","","","","decision","","<div class='trialDiv'><img src='Fruit/pears.png'><br><font class='baseline'><strong>Pears Aplenty</strong><p>Choose number of points to bet.</font><div class='respPicDiv'><img src='img/responseButtonOffersNo0L.png' class='respPic'></div></div>","1","11","Pears Aplenty","Fruit/pears.png","Lost","0.8,0.35","13","0.8","178","31","",""
"html-keyboard-response","101","108807","0.0-11.0-2.30","5f2f86864fd821374b4367bc","bdp_rwlrn","Fri Mar 10 2023 11:28:27 GMT-0800 (Pacific Standard Time)","317618","Untrustworthy,Trustworthy","","null","","","","decisionFB","","<div class='trialDiv'><img src='Fruit/pears.png'><br><font class='baseline'><strong>Pears Aplenty</strong><p>Choose number of points to bet.</font><div class='respPicDiv'><img src='img/responseButtonOffersNo0L1.png' class='respPic'></div></div>","null","11","Pears Aplenty","Fruit/pears.png","Lost","0.8,0.35","13","0.8","177","31","",""
"html-keyboard-response","102","109808","0.0-11.0-3.30","5f2f86864fd821374b4367bc","bdp_rwlrn","Fri Mar 10 2023 11:28:27 GMT-0800 (Pacific Standard Time)","317618","Untrustworthy,Trustworthy","","null","","","","feedback","","<div class='respPicDiv'><img src='img/responseButtonOffersNo0_wht.png' class='respPic'></div><div class='trialDiv'><img src='Fruit/pears.png'><br><font class='baseline'><strong>Pears Aplenty</strong><p><strong><font class='negOutcome'>You LOST</font><p>You bet: 1</strong></font> &nbsp; &nbsp; &nbsp; &nbsp; &nbsp; &nbsp;<font class='negOutcome'>You receive: <strong>0</strong></font></div>","null","11","Pears Aplenty","Fruit/pears.png","Lost","0.8,0.35","13","0.8","177","31","",""
"html-keyboard-response","103","110130","0.0-11.0-1.31","5f2f86864fd821374b4367bc","bdp_rwlrn","Fri Mar 10 2023 11:28:27 GMT-0800 (Pacific Standard Time)","317618","Untrustworthy,Trustworthy","","321","","","","decision","","<div class='trialDiv'><img src='Fruit/apple.png'><br><font class='baseline'><strong>Awesome Apples</strong><p>Choose number of points to bet.</font><div class='respPicDiv'><img src='img/responseButtonOffersNo0L.png' class='respPic'></div></div>","1","11","Awesome Apples","Fruit/apple.png","Lost","0.8,0.2","9","0.8","182","32","",""
"html-keyboard-response","104","110383","0.0-11.0-2.31","5f2f86864fd821374b4367bc","bdp_rwlrn","Fri Mar 10 2023 11:28:27 GMT-0800 (Pacific Standard Time)","317618","Untrustworthy,Trustworthy","","null","","","","decisionFB","","<div class='trialDiv'><img src='Fruit/apple.png'><br><font class='baseline'><strong>Awesome Apples</strong><p>Choose number of points to bet.</font><div class='respPicDiv'><img src='img/responseButtonOffersNo0L1.png' class='respPic'></div></div>","null","11","Awesome Apples","Fruit/apple.png","Lost","0.8,0.2","9","0.8","181","32","",""
"html-keyboard-response","105","111386","0.0-11.0-3.31","5f2f86864fd821374b4367bc","bdp_rwlrn","Fri Mar 10 2023 11:28:27 GMT-0800 (Pacific Standard Time)","317618","Untrustworthy,Trustworthy","","null","","","","feedback","","<div class='respPicDiv'><img src='img/responseButtonOffersNo0_wht.png' class='respPic'></div><div class='trialDiv'><img src='Fruit/apple.png'><br><font class='baseline'><strong>Awesome Apples</strong><p><strong><font class='negOutcome'>You LOST</font><p>You bet: 1</strong></font> &nbsp; &nbsp; &nbsp; &nbsp; &nbsp; &nbsp;<font class='negOutcome'>You receive: <strong>0</strong></font></div>","null","11","Awesome Apples","Fruit/apple.png","Lost","0.8,0.2","9","0.8","181","32","",""
"html-keyboard-response","106","111633","0.0-11.0-1.32","5f2f86864fd821374b4367bc","bdp_rwlrn","Fri Mar 10 2023 11:28:27 GMT-0800 (Pacific Standard Time)","317618","Untrustworthy,Trustworthy","","247","","","","decision","","<div class='trialDiv'><img src='Fruit/papayas.png'><br><font class='baseline'><strong>Papaya Payday</strong><p>Choose number of points to bet.</font><div class='respPicDiv'><img src='img/responseButtonOffersNo0L.png' class='respPic'></div></div>","1","11","Papaya Payday","Fruit/papayas.png","Lost","0.2,0.65","13","0.2","186","33","",""
"html-keyboard-response","107","111887","0.0-11.0-2.32","5f2f86864fd821374b4367bc","bdp_rwlrn","Fri Mar 10 2023 11:28:27 GMT-0800 (Pacific Standard Time)","317618","Untrustworthy,Trustworthy","","null","","","","decisionFB","","<div class='trialDiv'><img src='Fruit/papayas.png'><br><font class='baseline'><strong>Papaya Payday</strong><p>Choose number of points to bet.</font><div class='respPicDiv'><img src='img/responseButtonOffersNo0L1.png' class='respPic'></div></div>","null","11","Papaya Payday","Fruit/papayas.png","Lost","0.2,0.65","13","0.2","185","33","",""
"html-keyboard-response","108","112889","0.0-11.0-3.32","5f2f86864fd821374b4367bc","bdp_rwlrn","Fri Mar 10 2023 11:28:27 GMT-0800 (Pacific Standard Time)","317618","Untrustworthy,Trustworthy","","null","","","","feedback","","<div class='respPicDiv'><img src='img/responseButtonOffersNo0_wht.png' class='respPic'></div><div class='trialDiv'><img src='Fruit/papayas.png'><br><font class='baseline'><strong>Papaya Payday</strong><p><strong><font class='negOutcome'>You LOST</font><p>You bet: 1</strong></font> &nbsp; &nbsp; &nbsp; &nbsp; &nbsp; &nbsp;<font class='negOutcome'>You receive: <strong>0</strong></font></div>","null","11","Papaya Payday","Fruit/papayas.png","Lost","0.2,0.65","13","0.2","185","33","",""
"html-keyboard-response","109","113284","0.0-11.0-1.33","5f2f86864fd821374b4367bc","bdp_rwlrn","Fri Mar 10 2023 11:28:27 GMT-0800 (Pacific Standard Time)","317618","Untrustworthy,Trustworthy","","394","","","","decision","","<div class='trialDiv'><img src='Fruit/pears.png'><br><font class='baseline'><strong>Pears Aplenty</strong><p>Choose number of points to bet.</font><div class='respPicDiv'><img src='img/responseButtonOffersNo0L.png' class='respPic'></div></div>","1","12","Pears Aplenty","Fruit/pears.png","Won","0.8,0.35","13","0.8","190","34","",""
"html-keyboard-response","110","113537","0.0-11.0-2.33","5f2f86864fd821374b4367bc","bdp_rwlrn","Fri Mar 10 2023 11:28:27 GMT-0800 (Pacific Standard Time)","317618","Untrustworthy,Trustworthy","","null","","","","decisionFB","","<div class='trialDiv'><img src='Fruit/pears.png'><br><font class='baseline'><strong>Pears Aplenty</strong><p>Choose number of points to bet.</font><div class='respPicDiv'><img src='img/responseButtonOffersNo0L1.png' class='respPic'></div></div>","null","12","Pears Aplenty","Fruit/pears.png","Won","0.8,0.35","13","0.8","189","34","",""
"html-keyboard-response","111","114540","0.0-11.0-3.33","5f2f86864fd821374b4367bc","bdp_rwlrn","Fri Mar 10 2023 11:28:27 GMT-0800 (Pacific Standard Time)","317618","Untrustworthy,Trustworthy","","null","","","","feedback","","<div class='respPicDiv'><img src='img/responseButtonOffersNo0_wht.png' class='respPic'></div><div class='trialDiv'><img src='Fruit/pears.png'><br><font class='baseline'><strong>Pears Aplenty</strong><p><strong><font class='posOutcome'>You WON</font><p>You bet: 1</strong></font> &nbsp; &nbsp; &nbsp; &nbsp; &nbsp; &nbsp;<font class='posOutcome'>you receive: <strong>2</strong></font></div>","null","12","Pears Aplenty","Fruit/pears.png","Won","0.8,0.35","13","0.8","191","34","",""
"html-keyboard-response","112","115139","0.0-11.0-1.34","5f2f86864fd821374b4367bc","bdp_rwlrn","Fri Mar 10 2023 11:28:27 GMT-0800 (Pacific Standard Time)","317618","Untrustworthy,Trustworthy","","598","","","","decision","","<div class='trialDiv'><img src='Fruit/apple.png'><br><font class='baseline'><strong>Awesome Apples</strong><p>Choose number of points to bet.</font><div class='respPicDiv'><img src='img/responseButtonOffersNo0L.png' class='respPic'></div></div>","1","12","Awesome Apples","Fruit/apple.png","Lost","0.8,0.2","9","0.8","196","35","",""
"html-keyboard-response","113","115391","0.0-11.0-2.34","5f2f86864fd821374b4367bc","bdp_rwlrn","Fri Mar 10 2023 11:28:27 GMT-0800 (Pacific Standard Time)","317618","Untrustworthy,Trustworthy","","null","","","","decisionFB","","<div class='trialDiv'><img src='Fruit/apple.png'><br><font class='baseline'><strong>Awesome Apples</strong><p>Choose number of points to bet.</font><div class='respPicDiv'><img src='img/responseButtonOffersNo0L1.png' class='respPic'></div></div>","null","12","Awesome Apples","Fruit/apple.png","Lost","0.8,0.2","9","0.8","195","35","",""
"html-keyboard-response","114","116393","0.0-11.0-3.34","5f2f86864fd821374b4367bc","bdp_rwlrn","Fri Mar 10 2023 11:28:27 GMT-0800 (Pacific Standard Time)","317618","Untrustworthy,Trustworthy","","null","","","","feedback","","<div class='respPicDiv'><img src='img/responseButtonOffersNo0_wht.png' class='respPic'></div><div class='trialDiv'><img src='Fruit/apple.png'><br><font class='baseline'><strong>Awesome Apples</strong><p><strong><font class='negOutcome'>You LOST</font><p>You bet: 1</strong></font> &nbsp; &nbsp; &nbsp; &nbsp; &nbsp; &nbsp;<font class='negOutcome'>You receive: <strong>0</strong></font></div>","null","12","Awesome Apples","Fruit/apple.png","Lost","0.8,0.2","9","0.8","195","35","",""
"html-keyboard-response","115","117826","0.0-11.0-1.35","5f2f86864fd821374b4367bc","bdp_rwlrn","Fri Mar 10 2023 11:28:27 GMT-0800 (Pacific Standard Time)","317618","Untrustworthy,Trustworthy","","1432","","","","decision","","<div class='trialDiv'><img src='Fruit/papayas.png'><br><font class='baseline'><strong>Papaya Payday</strong><p>Choose number of points to bet.</font><div class='respPicDiv'><img src='img/responseButtonOffersNo0L.png' class='respPic'></div></div>","1","12","Papaya Payday","Fruit/papayas.png","Lost","0.2,0.65","13","0.2","200","36","",""
"html-keyboard-response","116","118078","0.0-11.0-2.35","5f2f86864fd821374b4367bc","bdp_rwlrn","Fri Mar 10 2023 11:28:27 GMT-0800 (Pacific Standard Time)","317618","Untrustworthy,Trustworthy","","null","","","","decisionFB","","<div class='trialDiv'><img src='Fruit/papayas.png'><br><font class='baseline'><strong>Papaya Payday</strong><p>Choose number of points to bet.</font><div class='respPicDiv'><img src='img/responseButtonOffersNo0L1.png' class='respPic'></div></div>","null","12","Papaya Payday","Fruit/papayas.png","Lost","0.2,0.65","13","0.2","199","36","",""
"html-keyboard-response","117","119080","0.0-11.0-3.35","5f2f86864fd821374b4367bc","bdp_rwlrn","Fri Mar 10 2023 11:28:27 GMT-0800 (Pacific Standard Time)","317618","Untrustworthy,Trustworthy","","null","","","","feedback","","<div class='respPicDiv'><img src='img/responseButtonOffersNo0_wht.png' class='respPic'></div><div class='trialDiv'><img src='Fruit/papayas.png'><br><font class='baseline'><strong>Papaya Payday</strong><p><strong><font class='negOutcome'>You LOST</font><p>You bet: 1</strong></font> &nbsp; &nbsp; &nbsp; &nbsp; &nbsp; &nbsp;<font class='negOutcome'>You receive: <strong>0</strong></font></div>","null","12","Papaya Payday","Fruit/papayas.png","Lost","0.2,0.65","13","0.2","199","36","",""
"html-keyboard-response","118","120891","0.0-11.0-1.36","5f2f86864fd821374b4367bc","bdp_rwlrn","Fri Mar 10 2023 11:28:27 GMT-0800 (Pacific Standard Time)","317618","Untrustworthy,Trustworthy","","1810","","","","decision","","<div class='trialDiv'><img src='Fruit/pears.png'><br><font class='baseline'><strong>Pears Aplenty</strong><p>Choose number of points to bet.</font><div class='respPicDiv'><img src='img/responseButtonOffersNo0L.png' class='respPic'></div></div>","1","13","Pears Aplenty","Fruit/pears.png","Lost","0.8,0.35","13","0.8","204","37","",""
"html-keyboard-response","119","121153","0.0-11.0-2.36","5f2f86864fd821374b4367bc","bdp_rwlrn","Fri Mar 10 2023 11:28:27 GMT-0800 (Pacific Standard Time)","317618","Untrustworthy,Trustworthy","","null","","","","decisionFB","","<div class='trialDiv'><img src='Fruit/pears.png'><br><font class='baseline'><strong>Pears Aplenty</strong><p>Choose number of points to bet.</font><div class='respPicDiv'><img src='img/responseButtonOffersNo0L1.png' class='respPic'></div></div>","null","13","Pears Aplenty","Fruit/pears.png","Lost","0.8,0.35","13","0.8","203","37","",""
"html-keyboard-response","120","122155","0.0-11.0-3.36","5f2f86864fd821374b4367bc","bdp_rwlrn","Fri Mar 10 2023 11:28:27 GMT-0800 (Pacific Standard Time)","317618","Untrustworthy,Trustworthy","","null","","","","feedback","","<div class='respPicDiv'><img src='img/responseButtonOffersNo0_wht.png' class='respPic'></div><div class='trialDiv'><img src='Fruit/pears.png'><br><font class='baseline'><strong>Pears Aplenty</strong><p><strong><font class='negOutcome'>You LOST</font><p>You bet: 1</strong></font> &nbsp; &nbsp; &nbsp; &nbsp; &nbsp; &nbsp;<font class='negOutcome'>You receive: <strong>0</strong></font></div>","null","13","Pears Aplenty","Fruit/pears.png","Lost","0.8,0.35","13","0.8","203","37","",""
"html-keyboard-response","121","122281","0.0-11.0-1.37","5f2f86864fd821374b4367bc","bdp_rwlrn","Fri Mar 10 2023 11:28:27 GMT-0800 (Pacific Standard Time)","317618","Untrustworthy,Trustworthy","","126","","","","decision","","<div class='trialDiv'><img src='Fruit/apple.png'><br><font class='baseline'><strong>Awesome Apples</strong><p>Choose number of points to bet.</font><div class='respPicDiv'><img src='img/responseButtonOffersNo0L.png' class='respPic'></div></div>","1","13","Awesome Apples","Fruit/apple.png","Lost","0.8,0.2","9","0.8","208","38","",""
"html-keyboard-response","122","122533","0.0-11.0-2.37","5f2f86864fd821374b4367bc","bdp_rwlrn","Fri Mar 10 2023 11:28:27 GMT-0800 (Pacific Standard Time)","317618","Untrustworthy,Trustworthy","","null","","","","decisionFB","","<div class='trialDiv'><img src='Fruit/apple.png'><br><font class='baseline'><strong>Awesome Apples</strong><p>Choose number of points to bet.</font><div class='respPicDiv'><img src='img/responseButtonOffersNo0L1.png' class='respPic'></div></div>","null","13","Awesome Apples","Fruit/apple.png","Lost","0.8,0.2","9","0.8","207","38","",""
"html-keyboard-response","123","123536","0.0-11.0-3.37","5f2f86864fd821374b4367bc","bdp_rwlrn","Fri Mar 10 2023 11:28:27 GMT-0800 (Pacific Standard Time)","317618","Untrustworthy,Trustworthy","","null","","","","feedback","","<div class='respPicDiv'><img src='img/responseButtonOffersNo0_wht.png' class='respPic'></div><div class='trialDiv'><img src='Fruit/apple.png'><br><font class='baseline'><strong>Awesome Apples</strong><p><strong><font class='negOutcome'>You LOST</font><p>You bet: 1</strong></font> &nbsp; &nbsp; &nbsp; &nbsp; &nbsp; &nbsp;<font class='negOutcome'>You receive: <strong>0</strong></font></div>","null","13","Awesome Apples","Fruit/apple.png","Lost","0.8,0.2","9","0.8","207","38","",""
"html-keyboard-response","124","124442","0.0-11.0-1.38","5f2f86864fd821374b4367bc","bdp_rwlrn","Fri Mar 10 2023 11:28:27 GMT-0800 (Pacific Standard Time)","317618","Untrustworthy,Trustworthy","","904","","","","decision","","<div class='trialDiv'><img src='Fruit/papayas.png'><br><font class='baseline'><strong>Papaya Payday</strong><p>Choose number of points to bet.</font><div class='respPicDiv'><img src='img/responseButtonOffersNo0L.png' class='respPic'></div></div>","1","13","Papaya Payday","Fruit/papayas.png","Lost","0.2,0.65","13","0.2","212","39","",""
"html-keyboard-response","125","124693","0.0-11.0-2.38","5f2f86864fd821374b4367bc","bdp_rwlrn","Fri Mar 10 2023 11:28:27 GMT-0800 (Pacific Standard Time)","317618","Untrustworthy,Trustworthy","","null","","","","decisionFB","","<div class='trialDiv'><img src='Fruit/papayas.png'><br><font class='baseline'><strong>Papaya Payday</strong><p>Choose number of points to bet.</font><div class='respPicDiv'><img src='img/responseButtonOffersNo0L1.png' class='respPic'></div></div>","null","13","Papaya Payday","Fruit/papayas.png","Lost","0.2,0.65","13","0.2","211","39","",""
"html-keyboard-response","126","125696","0.0-11.0-3.38","5f2f86864fd821374b4367bc","bdp_rwlrn","Fri Mar 10 2023 11:28:27 GMT-0800 (Pacific Standard Time)","317618","Untrustworthy,Trustworthy","","null","","","","feedback","","<div class='respPicDiv'><img src='img/responseButtonOffersNo0_wht.png' class='respPic'></div><div class='trialDiv'><img src='Fruit/papayas.png'><br><font class='baseline'><strong>Papaya Payday</strong><p><strong><font class='negOutcome'>You LOST</font><p>You bet: 1</strong></font> &nbsp; &nbsp; &nbsp; &nbsp; &nbsp; &nbsp;<font class='negOutcome'>You receive: <strong>0</strong></font></div>","null","13","Papaya Payday","Fruit/papayas.png","Lost","0.2,0.65","13","0.2","211","39","",""
"html-keyboard-response","127","125891","0.0-11.0-1.39","5f2f86864fd821374b4367bc","bdp_rwlrn","Fri Mar 10 2023 11:28:27 GMT-0800 (Pacific Standard Time)","317618","Untrustworthy,Trustworthy","","193","","","","decision","","<div class='trialDiv'><img src='Fruit/pears.png'><br><font class='baseline'><strong>Pears Aplenty</strong><p>Choose number of points to bet.</font><div class='respPicDiv'><img src='img/responseButtonOffersNo0L.png' class='respPic'></div></div>","1","14","Pears Aplenty","Fruit/pears.png","Won","0.8,0.35","13","0.8","216","40","",""
"html-keyboard-response","128","126143","0.0-11.0-2.39","5f2f86864fd821374b4367bc","bdp_rwlrn","Fri Mar 10 2023 11:28:27 GMT-0800 (Pacific Standard Time)","317618","Untrustworthy,Trustworthy","","null","","","","decisionFB","","<div class='trialDiv'><img src='Fruit/pears.png'><br><font class='baseline'><strong>Pears Aplenty</strong><p>Choose number of points to bet.</font><div class='respPicDiv'><img src='img/responseButtonOffersNo0L1.png' class='respPic'></div></div>","null","14","Pears Aplenty","Fruit/pears.png","Won","0.8,0.35","13","0.8","215","40","",""
"html-keyboard-response","129","127147","0.0-11.0-3.39","5f2f86864fd821374b4367bc","bdp_rwlrn","Fri Mar 10 2023 11:28:27 GMT-0800 (Pacific Standard Time)","317618","Untrustworthy,Trustworthy","","null","","","","feedback","","<div class='respPicDiv'><img src='img/responseButtonOffersNo0_wht.png' class='respPic'></div><div class='trialDiv'><img src='Fruit/pears.png'><br><font class='baseline'><strong>Pears Aplenty</strong><p><strong><font class='posOutcome'>You WON</font><p>You bet: 1</strong></font> &nbsp; &nbsp; &nbsp; &nbsp; &nbsp; &nbsp;<font class='posOutcome'>you receive: <strong>2</strong></font></div>","null","14","Pears Aplenty","Fruit/pears.png","Won","0.8,0.35","13","0.8","217","40","",""
"html-keyboard-response","130","127259","0.0-11.0-1.40","5f2f86864fd821374b4367bc","bdp_rwlrn","Fri Mar 10 2023 11:28:27 GMT-0800 (Pacific Standard Time)","317618","Untrustworthy,Trustworthy","","111","","","","decision","","<div class='trialDiv'><img src='Fruit/apple.png'><br><font class='baseline'><strong>Awesome Apples</strong><p>Choose number of points to bet.</font><div class='respPicDiv'><img src='img/responseButtonOffersNo0L.png' class='respPic'></div></div>","1","14","Awesome Apples","Fruit/apple.png","Won","0.8,0.2","9","0.8","222","41","",""
"html-keyboard-response","131","127511","0.0-11.0-2.40","5f2f86864fd821374b4367bc","bdp_rwlrn","Fri Mar 10 2023 11:28:27 GMT-0800 (Pacific Standard Time)","317618","Untrustworthy,Trustworthy","","null","","","","decisionFB","","<div class='trialDiv'><img src='Fruit/apple.png'><br><font class='baseline'><strong>Awesome Apples</strong><p>Choose number of points to bet.</font><div class='respPicDiv'><img src='img/responseButtonOffersNo0L1.png' class='respPic'></div></div>","null","14","Awesome Apples","Fruit/apple.png","Won","0.8,0.2","9","0.8","221","41","",""
"html-keyboard-response","132","128515","0.0-11.0-3.40","5f2f86864fd821374b4367bc","bdp_rwlrn","Fri Mar 10 2023 11:28:27 GMT-0800 (Pacific Standard Time)","317618","Untrustworthy,Trustworthy","","null","","","","feedback","","<div class='respPicDiv'><img src='img/responseButtonOffersNo0_wht.png' class='respPic'></div><div class='trialDiv'><img src='Fruit/apple.png'><br><font class='baseline'><strong>Awesome Apples</strong><p><strong><font class='posOutcome'>You WON</font><p>You bet: 1</strong></font> &nbsp; &nbsp; &nbsp; &nbsp; &nbsp; &nbsp;<font class='posOutcome'>you receive: <strong>2</strong></font></div>","null","14","Awesome Apples","Fruit/apple.png","Won","0.8,0.2","9","0.8","223","41","",""
"html-keyboard-response","133","130746","0.0-11.0-1.41","5f2f86864fd821374b4367bc","bdp_rwlrn","Fri Mar 10 2023 11:28:27 GMT-0800 (Pacific Standard Time)","317618","Untrustworthy,Trustworthy","","2230","","","","decision","","<div class='trialDiv'><img src='Fruit/papayas.png'><br><font class='baseline'><strong>Papaya Payday</strong><p>Choose number of points to bet.</font><div class='respPicDiv'><img src='img/responseButtonOffersNo0L.png' class='respPic'></div></div>","1","14","Papaya Payday","Fruit/papayas.png","Won","0.2,0.65","13","0.2","228","42","",""
"html-keyboard-response","134","130998","0.0-11.0-2.41","5f2f86864fd821374b4367bc","bdp_rwlrn","Fri Mar 10 2023 11:28:27 GMT-0800 (Pacific Standard Time)","317618","Untrustworthy,Trustworthy","","null","","","","decisionFB","","<div class='trialDiv'><img src='Fruit/papayas.png'><br><font class='baseline'><strong>Papaya Payday</strong><p>Choose number of points to bet.</font><div class='respPicDiv'><img src='img/responseButtonOffersNo0L1.png' class='respPic'></div></div>","null","14","Papaya Payday","Fruit/papayas.png","Won","0.2,0.65","13","0.2","227","42","",""
"html-keyboard-response","135","132001","0.0-11.0-3.41","5f2f86864fd821374b4367bc","bdp_rwlrn","Fri Mar 10 2023 11:28:27 GMT-0800 (Pacific Standard Time)","317618","Untrustworthy,Trustworthy","","null","","","","feedback","","<div class='respPicDiv'><img src='img/responseButtonOffersNo0_wht.png' class='respPic'></div><div class='trialDiv'><img src='Fruit/papayas.png'><br><font class='baseline'><strong>Papaya Payday</strong><p><strong><font class='posOutcome'>You WON</font><p>You bet: 1</strong></font> &nbsp; &nbsp; &nbsp; &nbsp; &nbsp; &nbsp;<font class='posOutcome'>you receive: <strong>2</strong></font></div>","null","14","Papaya Payday","Fruit/papayas.png","Won","0.2,0.65","13","0.2","229","42","",""
"html-keyboard-response","136","132018","0.0-11.0-1.42","5f2f86864fd821374b4367bc","bdp_rwlrn","Fri Mar 10 2023 11:28:27 GMT-0800 (Pacific Standard Time)","317618","Untrustworthy,Trustworthy","","15","","","","decision","","<div class='trialDiv'><img src='Fruit/pears.png'><br><font class='baseline'><strong>Pears Aplenty</strong><p>Choose number of points to bet.</font><div class='respPicDiv'><img src='img/responseButtonOffersNo0L.png' class='respPic'></div></div>","1","15","Pears Aplenty","Fruit/pears.png","Won","0.8,0.35","13","0.8","234","43","",""
"html-keyboard-response","137","132269","0.0-11.0-2.42","5f2f86864fd821374b4367bc","bdp_rwlrn","Fri Mar 10 2023 11:28:27 GMT-0800 (Pacific Standard Time)","317618","Untrustworthy,Trustworthy","","null","","","","decisionFB","","<div class='trialDiv'><img src='Fruit/pears.png'><br><font class='baseline'><strong>Pears Aplenty</strong><p>Choose number of points to bet.</font><div class='respPicDiv'><img src='img/responseButtonOffersNo0L1.png' class='respPic'></div></div>","null","15","Pears Aplenty","Fruit/pears.png","Won","0.8,0.35","13","0.8","233","43","",""
"html-keyboard-response","138","133271","0.0-11.0-3.42","5f2f86864fd821374b4367bc","bdp_rwlrn","Fri Mar 10 2023 11:28:27 GMT-0800 (Pacific Standard Time)","317618","Untrustworthy,Trustworthy","","null","","","","feedback","","<div class='respPicDiv'><img src='img/responseButtonOffersNo0_wht.png' class='respPic'></div><div class='trialDiv'><img src='Fruit/pears.png'><br><font class='baseline'><strong>Pears Aplenty</strong><p><strong><font class='posOutcome'>You WON</font><p>You bet: 1</strong></font> &nbsp; &nbsp; &nbsp; &nbsp; &nbsp; &nbsp;<font class='posOutcome'>you receive: <strong>2</strong></font></div>","null","15","Pears Aplenty","Fruit/pears.png","Won","0.8,0.35","13","0.8","235","43","",""
"html-keyboard-response","139","133419","0.0-11.0-1.43","5f2f86864fd821374b4367bc","bdp_rwlrn","Fri Mar 10 2023 11:28:27 GMT-0800 (Pacific Standard Time)","317618","Untrustworthy,Trustworthy","","146","","","","decision","","<div class='trialDiv'><img src='Fruit/papayas.png'><br><font class='baseline'><strong>Papaya Payday</strong><p>Choose number of points to bet.</font><div class='respPicDiv'><img src='img/responseButtonOffersNo0L.png' class='respPic'></div></div>","1","15","Papaya Payday","Fruit/papayas.png","Lost","0.2,0.65","13","0.2","240","44","",""
"html-keyboard-response","140","133671","0.0-11.0-2.43","5f2f86864fd821374b4367bc","bdp_rwlrn","Fri Mar 10 2023 11:28:27 GMT-0800 (Pacific Standard Time)","317618","Untrustworthy,Trustworthy","","null","","","","decisionFB","","<div class='trialDiv'><img src='Fruit/papayas.png'><br><font class='baseline'><strong>Papaya Payday</strong><p>Choose number of points to bet.</font><div class='respPicDiv'><img src='img/responseButtonOffersNo0L1.png' class='respPic'></div></div>","null","15","Papaya Payday","Fruit/papayas.png","Lost","0.2,0.65","13","0.2","239","44","",""
"html-keyboard-response","141","134672","0.0-11.0-3.43","5f2f86864fd821374b4367bc","bdp_rwlrn","Fri Mar 10 2023 11:28:27 GMT-0800 (Pacific Standard Time)","317618","Untrustworthy,Trustworthy","","null","","","","feedback","","<div class='respPicDiv'><img src='img/responseButtonOffersNo0_wht.png' class='respPic'></div><div class='trialDiv'><img src='Fruit/papayas.png'><br><font class='baseline'><strong>Papaya Payday</strong><p><strong><font class='negOutcome'>You LOST</font><p>You bet: 1</strong></font> &nbsp; &nbsp; &nbsp; &nbsp; &nbsp; &nbsp;<font class='negOutcome'>You receive: <strong>0</strong></font></div>","null","15","Papaya Payday","Fruit/papayas.png","Lost","0.2,0.65","13","0.2","239","44","",""
"html-keyboard-response","142","134730","0.0-11.0-1.44","5f2f86864fd821374b4367bc","bdp_rwlrn","Fri Mar 10 2023 11:28:27 GMT-0800 (Pacific Standard Time)","317618","Untrustworthy,Trustworthy","","56","","","","decision","","<div class='trialDiv'><img src='Fruit/apple.png'><br><font class='baseline'><strong>Awesome Apples</strong><p>Choose number of points to bet.</font><div class='respPicDiv'><img src='img/responseButtonOffersNo0L.png' class='respPic'></div></div>","1","15","Awesome Apples","Fruit/apple.png","Won","0.8,0.2","9","0.8","244","45","",""
"html-keyboard-response","143","134983","0.0-11.0-2.44","5f2f86864fd821374b4367bc","bdp_rwlrn","Fri Mar 10 2023 11:28:27 GMT-0800 (Pacific Standard Time)","317618","Untrustworthy,Trustworthy","","null","","","","decisionFB","","<div class='trialDiv'><img src='Fruit/apple.png'><br><font class='baseline'><strong>Awesome Apples</strong><p>Choose number of points to bet.</font><div class='respPicDiv'><img src='img/responseButtonOffersNo0L1.png' class='respPic'></div></div>","null","15","Awesome Apples","Fruit/apple.png","Won","0.8,0.2","9","0.8","243","45","",""
"html-keyboard-response","144","135986","0.0-11.0-3.44","5f2f86864fd821374b4367bc","bdp_rwlrn","Fri Mar 10 2023 11:28:27 GMT-0800 (Pacific Standard Time)","317618","Untrustworthy,Trustworthy","","null","","","","feedback","","<div class='respPicDiv'><img src='img/responseButtonOffersNo0_wht.png' class='respPic'></div><div class='trialDiv'><img src='Fruit/apple.png'><br><font class='baseline'><strong>Awesome Apples</strong><p><strong><font class='posOutcome'>You WON</font><p>You bet: 1</strong></font> &nbsp; &nbsp; &nbsp; &nbsp; &nbsp; &nbsp;<font class='posOutcome'>you receive: <strong>2</strong></font></div>","null","15","Awesome Apples","Fruit/apple.png","Won","0.8,0.2","9","0.8","245","45","",""
"html-keyboard-response","145","139490","0.0-11.0-1.45","5f2f86864fd821374b4367bc","bdp_rwlrn","Fri Mar 10 2023 11:28:27 GMT-0800 (Pacific Standard Time)","317618","Untrustworthy,Trustworthy","","3504","","","","decision","","<div class='trialDiv'><img src='Fruit/pears.png'><br><font class='baseline'><strong>Pears Aplenty</strong><p>Choose number of points to bet.</font><div class='respPicDiv'><img src='img/responseButtonOffersNo0L.png' class='respPic'></div></div>","1","16","Pears Aplenty","Fruit/pears.png","Lost","0.8,0.35","13","0.8","250","46","",""
"html-keyboard-response","146","139741","0.0-11.0-2.45","5f2f86864fd821374b4367bc","bdp_rwlrn","Fri Mar 10 2023 11:28:27 GMT-0800 (Pacific Standard Time)","317618","Untrustworthy,Trustworthy","","null","","","","decisionFB","","<div class='trialDiv'><img src='Fruit/pears.png'><br><font class='baseline'><strong>Pears Aplenty</strong><p>Choose number of points to bet.</font><div class='respPicDiv'><img src='img/responseButtonOffersNo0L1.png' class='respPic'></div></div>","null","16","Pears Aplenty","Fruit/pears.png","Lost","0.8,0.35","13","0.8","249","46","",""
"html-keyboard-response","147","140744","0.0-11.0-3.45","5f2f86864fd821374b4367bc","bdp_rwlrn","Fri Mar 10 2023 11:28:27 GMT-0800 (Pacific Standard Time)","317618","Untrustworthy,Trustworthy","","null","","","","feedback","","<div class='respPicDiv'><img src='img/responseButtonOffersNo0_wht.png' class='respPic'></div><div class='trialDiv'><img src='Fruit/pears.png'><br><font class='baseline'><strong>Pears Aplenty</strong><p><strong><font class='negOutcome'>You LOST</font><p>You bet: 1</strong></font> &nbsp; &nbsp; &nbsp; &nbsp; &nbsp; &nbsp;<font class='negOutcome'>You receive: <strong>0</strong></font></div>","null","16","Pears Aplenty","Fruit/pears.png","Lost","0.8,0.35","13","0.8","249","46","",""
"html-keyboard-response","148","140915","0.0-11.0-1.46","5f2f86864fd821374b4367bc","bdp_rwlrn","Fri Mar 10 2023 11:28:27 GMT-0800 (Pacific Standard Time)","317618","Untrustworthy,Trustworthy","","169","","","","decision","","<div class='trialDiv'><img src='Fruit/apple.png'><br><font class='baseline'><strong>Awesome Apples</strong><p>Choose number of points to bet.</font><div class='respPicDiv'><img src='img/responseButtonOffersNo0L.png' class='respPic'></div></div>","1","16","Awesome Apples","Fruit/apple.png","Lost","0.8,0.2","9","0.8","254","47","",""
"html-keyboard-response","149","141167","0.0-11.0-2.46","5f2f86864fd821374b4367bc","bdp_rwlrn","Fri Mar 10 2023 11:28:27 GMT-0800 (Pacific Standard Time)","317618","Untrustworthy,Trustworthy","","null","","","","decisionFB","","<div class='trialDiv'><img src='Fruit/apple.png'><br><font class='baseline'><strong>Awesome Apples</strong><p>Choose number of points to bet.</font><div class='respPicDiv'><img src='img/responseButtonOffersNo0L1.png' class='respPic'></div></div>","null","16","Awesome Apples","Fruit/apple.png","Lost","0.8,0.2","9","0.8","253","47","",""
"html-keyboard-response","150","142169","0.0-11.0-3.46","5f2f86864fd821374b4367bc","bdp_rwlrn","Fri Mar 10 2023 11:28:27 GMT-0800 (Pacific Standard Time)","317618","Untrustworthy,Trustworthy","","null","","","","feedback","","<div class='respPicDiv'><img src='img/responseButtonOffersNo0_wht.png' class='respPic'></div><div class='trialDiv'><img src='Fruit/apple.png'><br><font class='baseline'><strong>Awesome Apples</strong><p><strong><font class='negOutcome'>You LOST</font><p>You bet: 1</strong></font> &nbsp; &nbsp; &nbsp; &nbsp; &nbsp; &nbsp;<font class='negOutcome'>You receive: <strong>0</strong></font></div>","null","16","Awesome Apples","Fruit/apple.png","Lost","0.8,0.2","9","0.8","253","47","",""
"html-keyboard-response","151","146443","0.0-11.0-1.47","5f2f86864fd821374b4367bc","bdp_rwlrn","Fri Mar 10 2023 11:28:27 GMT-0800 (Pacific Standard Time)","317618","Untrustworthy,Trustworthy","","4272","","","","decision","","<div class='trialDiv'><img src='Fruit/papayas.png'><br><font class='baseline'><strong>Papaya Payday</strong><p>Choose number of points to bet.</font><div class='respPicDiv'><img src='img/responseButtonOffersNo0L.png' class='respPic'></div></div>","1","16","Papaya Payday","Fruit/papayas.png","Lost","0.2,0.65","13","0.2","258","48","",""
"html-keyboard-response","152","146697","0.0-11.0-2.47","5f2f86864fd821374b4367bc","bdp_rwlrn","Fri Mar 10 2023 11:28:27 GMT-0800 (Pacific Standard Time)","317618","Untrustworthy,Trustworthy","","null","","","","decisionFB","","<div class='trialDiv'><img src='Fruit/papayas.png'><br><font class='baseline'><strong>Papaya Payday</strong><p>Choose number of points to bet.</font><div class='respPicDiv'><img src='img/responseButtonOffersNo0L1.png' class='respPic'></div></div>","null","16","Papaya Payday","Fruit/papayas.png","Lost","0.2,0.65","13","0.2","257","48","",""
"html-keyboard-response","153","147698","0.0-11.0-3.47","5f2f86864fd821374b4367bc","bdp_rwlrn","Fri Mar 10 2023 11:28:27 GMT-0800 (Pacific Standard Time)","317618","Untrustworthy,Trustworthy","","null","","","","feedback","","<div class='respPicDiv'><img src='img/responseButtonOffersNo0_wht.png' class='respPic'></div><div class='trialDiv'><img src='Fruit/papayas.png'><br><font class='baseline'><strong>Papaya Payday</strong><p><strong><font class='negOutcome'>You LOST</font><p>You bet: 1</strong></font> &nbsp; &nbsp; &nbsp; &nbsp; &nbsp; &nbsp;<font class='negOutcome'>You receive: <strong>0</strong></font></div>","null","16","Papaya Payday","Fruit/papayas.png","Lost","0.2,0.65","13","0.2","257","48","",""
"html-keyboard-response","154","147826","0.0-11.0-1.48","5f2f86864fd821374b4367bc","bdp_rwlrn","Fri Mar 10 2023 11:28:27 GMT-0800 (Pacific Standard Time)","317618","Untrustworthy,Trustworthy","","126","","","","decision","","<div class='trialDiv'><img src='Fruit/apple.png'><br><font class='baseline'><strong>Awesome Apples</strong><p>Choose number of points to bet.</font><div class='respPicDiv'><img src='img/responseButtonOffersNo0L.png' class='respPic'></div></div>","1","17","Awesome Apples","Fruit/apple.png","Lost","0.8,0.2","9","0.8","262","49","",""
"html-keyboard-response","155","148086","0.0-11.0-2.48","5f2f86864fd821374b4367bc","bdp_rwlrn","Fri Mar 10 2023 11:28:27 GMT-0800 (Pacific Standard Time)","317618","Untrustworthy,Trustworthy","","null","","","","decisionFB","","<div class='trialDiv'><img src='Fruit/apple.png'><br><font class='baseline'><strong>Awesome Apples</strong><p>Choose number of points to bet.</font><div class='respPicDiv'><img src='img/responseButtonOffersNo0L1.png' class='respPic'></div></div>","null","17","Awesome Apples","Fruit/apple.png","Lost","0.8,0.2","9","0.8","261","49","",""
"html-keyboard-response","156","149089","0.0-11.0-3.48","5f2f86864fd821374b4367bc","bdp_rwlrn","Fri Mar 10 2023 11:28:27 GMT-0800 (Pacific Standard Time)","317618","Untrustworthy,Trustworthy","","null","","","","feedback","","<div class='respPicDiv'><img src='img/responseButtonOffersNo0_wht.png' class='respPic'></div><div class='trialDiv'><img src='Fruit/apple.png'><br><font class='baseline'><strong>Awesome Apples</strong><p><strong><font class='negOutcome'>You LOST</font><p>You bet: 1</strong></font> &nbsp; &nbsp; &nbsp; &nbsp; &nbsp; &nbsp;<font class='negOutcome'>You receive: <strong>0</strong></font></div>","null","17","Awesome Apples","Fruit/apple.png","Lost","0.8,0.2","9","0.8","261","49","",""
"html-keyboard-response","157","149098","0.0-11.0-1.49","5f2f86864fd821374b4367bc","bdp_rwlrn","Fri Mar 10 2023 11:28:27 GMT-0800 (Pacific Standard Time)","317618","Untrustworthy,Trustworthy","","8","","","","decision","","<div class='trialDiv'><img src='Fruit/papayas.png'><br><font class='baseline'><strong>Papaya Payday</strong><p>Choose number of points to bet.</font><div class='respPicDiv'><img src='img/responseButtonOffersNo0L.png' class='respPic'></div></div>","1","17","Papaya Payday","Fruit/papayas.png","Won","0.2,0.65","13","0.2","266","50","",""
"html-keyboard-response","158","149351","0.0-11.0-2.49","5f2f86864fd821374b4367bc","bdp_rwlrn","Fri Mar 10 2023 11:28:27 GMT-0800 (Pacific Standard Time)","317618","Untrustworthy,Trustworthy","","null","","","","decisionFB","","<div class='trialDiv'><img src='Fruit/papayas.png'><br><font class='baseline'><strong>Papaya Payday</strong><p>Choose number of points to bet.</font><div class='respPicDiv'><img src='img/responseButtonOffersNo0L1.png' class='respPic'></div></div>","null","17","Papaya Payday","Fruit/papayas.png","Won","0.2,0.65","13","0.2","265","50","",""
"html-keyboard-response","159","150353","0.0-11.0-3.49","5f2f86864fd821374b4367bc","bdp_rwlrn","Fri Mar 10 2023 11:28:27 GMT-0800 (Pacific Standard Time)","317618","Untrustworthy,Trustworthy","","null","","","","feedback","","<div class='respPicDiv'><img src='img/responseButtonOffersNo0_wht.png' class='respPic'></div><div class='trialDiv'><img src='Fruit/papayas.png'><br><font class='baseline'><strong>Papaya Payday</strong><p><strong><font class='posOutcome'>You WON</font><p>You bet: 1</strong></font> &nbsp; &nbsp; &nbsp; &nbsp; &nbsp; &nbsp;<font class='posOutcome'>you receive: <strong>2</strong></font></div>","null","17","Papaya Payday","Fruit/papayas.png","Won","0.2,0.65","13","0.2","267","50","",""
"html-keyboard-response","160","150457","0.0-11.0-1.50","5f2f86864fd821374b4367bc","bdp_rwlrn","Fri Mar 10 2023 11:28:27 GMT-0800 (Pacific Standard Time)","317618","Untrustworthy,Trustworthy","","103","","","","decision","","<div class='trialDiv'><img src='Fruit/pears.png'><br><font class='baseline'><strong>Pears Aplenty</strong><p>Choose number of points to bet.</font><div class='respPicDiv'><img src='img/responseButtonOffersNo0L.png' class='respPic'></div></div>","1","17","Pears Aplenty","Fruit/pears.png","Won","0.8,0.35","13","0.8","272","51","",""
"html-keyboard-response","161","150709","0.0-11.0-2.50","5f2f86864fd821374b4367bc","bdp_rwlrn","Fri Mar 10 2023 11:28:27 GMT-0800 (Pacific Standard Time)","317618","Untrustworthy,Trustworthy","","null","","","","decisionFB","","<div class='trialDiv'><img src='Fruit/pears.png'><br><font class='baseline'><strong>Pears Aplenty</strong><p>Choose number of points to bet.</font><div class='respPicDiv'><img src='img/responseButtonOffersNo0L1.png' class='respPic'></div></div>","null","17","Pears Aplenty","Fruit/pears.png","Won","0.8,0.35","13","0.8","271","51","",""
"html-keyboard-response","162","151711","0.0-11.0-3.50","5f2f86864fd821374b4367bc","bdp_rwlrn","Fri Mar 10 2023 11:28:27 GMT-0800 (Pacific Standard Time)","317618","Untrustworthy,Trustworthy","","null","","","","feedback","","<div class='respPicDiv'><img src='img/responseButtonOffersNo0_wht.png' class='respPic'></div><div class='trialDiv'><img src='Fruit/pears.png'><br><font class='baseline'><strong>Pears Aplenty</strong><p><strong><font class='posOutcome'>You WON</font><p>You bet: 1</strong></font> &nbsp; &nbsp; &nbsp; &nbsp; &nbsp; &nbsp;<font class='posOutcome'>you receive: <strong>2</strong></font></div>","null","17","Pears Aplenty","Fruit/pears.png","Won","0.8,0.35","13","0.8","273","51","",""
"html-keyboard-response","163","163482","0.0-11.0-1.51","5f2f86864fd821374b4367bc","bdp_rwlrn","Fri Mar 10 2023 11:28:27 GMT-0800 (Pacific Standard Time)","317618","Untrustworthy,Trustworthy","","11769","","","","decision","","<div class='trialDiv'><img src='Fruit/apple.png'><br><font class='baseline'><strong>Awesome Apples</strong><p>Choose number of points to bet.</font><div class='respPicDiv'><img src='img/responseButtonOffersNo0L.png' class='respPic'></div></div>","1","18","Awesome Apples","Fruit/apple.png","Lost","0.8,0.2","9","0.8","278","52","",""
