"event","trial","time","trialtype","numBlurs","subject_id","task","startTime","totalTime","labels","trial_type","trial_index","time_elapsed","internal_node_id","view_history","rt","success","stimulus","key_press","ltround","name","fileID","outcome","lottotype","lottoswpt","lottocurrpshare","point_total","round","faceID","face"
"blur","0","0","blurevent","1","63eafad399e87039254d1078","bdp_rwlrn","Tue Mar 14 2023 11:56:50 GMT-0600 (Central Standard Time)","343054","Trustworthy,Untrustworthy","","","","","","","","","","","","","","","","","","","",""
"focus","0","0","focusevent","","63eafad399e87039254d1078","bdp_rwlrn","Tue Mar 14 2023 11:56:50 GMT-0600 (Central Standard Time)","343054","Trustworthy,Untrustworthy","","","","","","","","","","","","","","","","","","","",""
"","","","","","63eafad399e87039254d1078","bdp_rwlrn","Tue Mar 14 2023 11:56:50 GMT-0600 (Central Standard Time)","343054","Trustworthy,Untrustworthy","pavlovia","0","6","0.0-0.0","","","","","","","","","","","","","","","",""
"blur","1","49","blurevent","2","63eafad399e87039254d1078","bdp_rwlrn","Tue Mar 14 2023 11:56:50 GMT-0600 (Central Standard Time)","343054","Trustworthy,Untrustworthy","","","","","","","","","","","","","","","","","","","",""
"focus","1","972","focusevent","","63eafad399e87039254d1078","bdp_rwlrn","Tue Mar 14 2023 11:56:50 GMT-0600 (Central Standard Time)","343054","Trustworthy,Untrustworthy","","","","","","","","","","","","","","","","","","","",""
"","","","","","63eafad399e87039254d1078","bdp_rwlrn","Tue Mar 14 2023 11:56:50 GMT-0600 (Central Standard Time)","343054","Trustworthy,Untrustworthy","instructions","1","2932","0.0-1.0","[{""page_index"":0,""viewing_time"":2924}]","2924","","","","","","","","","","","","","",""
"fullscreenenter","2","4892","fullscreenenter","","63eafad399e87039254d1078","bdp_rwlrn","Tue Mar 14 2023 11:56:50 GMT-0600 (Central Standard Time)","343054","Trustworthy,Untrustworthy","","","","","","","","","","","","","","","","","","","",""
"","","","","","63eafad399e87039254d1078","bdp_rwlrn","Tue Mar 14 2023 11:56:50 GMT-0600 (Central Standard Time)","343054","Trustworthy,Untrustworthy","fullscreen","2","5878","0.0-2.0","","","true","","","","","","","","","","","","",""
"","","","","","63eafad399e87039254d1078","bdp_rwlrn","Tue Mar 14 2023 11:56:50 GMT-0600 (Central Standard Time)","343054","Trustworthy,Untrustworthy","instructions","3","48155","0.0-4.0","[{""page_index"":0,""viewing_time"":7978},{""page_index"":1,""viewing_time"":5760},{""page_index"":2,""viewing_time"":22304},{""page_index"":3,""viewing_time"":1880},{""page_index"":4,""viewing_time"":3223},{""page_index"":5,""viewing_time"":1128}]","42273","","","","","","","","","","","","","",""
"","","","","","63eafad399e87039254d1078","bdp_rwlrn","Tue Mar 14 2023 11:56:50 GMT-0600 (Central Standard Time)","343054","Trustworthy,Untrustworthy","html-keyboard-response","4","54428","0.0-5.0","","6270","","<div class='header' style='text-align:left; position: absolute; top: 5%; left: 5%;'><small>Task 1 of 5</small></div><div class='instruxDiv'><p><strong>1) What is the maximum number of points you can choose to bet on a lottery?</strong></p><p>a) 0</p><p>b) 1</p><p>c) 5</p>","B","","","","","","","","","","",""
"","","","","","63eafad399e87039254d1078","bdp_rwlrn","Tue Mar 14 2023 11:56:50 GMT-0600 (Central Standard Time)","343054","Trustworthy,Untrustworthy","html-keyboard-response","5","58939","0.0-6.0","","4407","","<div class='header' style='text-align:left; position: absolute; top: 5%; left: 5%;'><small>Task 1 of 5</small></div><div class='instruxDiv'><p><strong>1) What is the maximum number of points you can choose to bet on a lottery?</strong></p><p>a) 0</p><p style='color:#FF0000'>b) 1</p><p>c) 5</p><h3 style='color:#FF0000'>Incorrect!</h3><h3 class='center-content'>The correct response is c).</h3><h3 class='center-content'>The maximum number of points you can choose to bet on a lottery is 5 points.</h3><p><em>Press SPACEBAR to continue</em></p></div>"," ","","","","","","","","","","",""
"","","","","","63eafad399e87039254d1078","bdp_rwlrn","Tue Mar 14 2023 11:56:50 GMT-0600 (Central Standard Time)","343054","Trustworthy,Untrustworthy","html-keyboard-response","6","66667","0.0-7.0","","7618","","<div class='header' style='text-align:left; position: absolute; top: 5%; left: 5%;'><small>Task 1 of 5</small></div><div class='instruxDiv'><p><strong>2) How many points can you win each round?</strong></p><p>a) 10 points</p><p>b) Double what you bet</p><p>c) Quadruple what you bet</p>","B","","","","","","","","","","",""
"","","","","","63eafad399e87039254d1078","bdp_rwlrn","Tue Mar 14 2023 11:56:50 GMT-0600 (Central Standard Time)","343054","Trustworthy,Untrustworthy","html-keyboard-response","7","68219","0.0-8.0","","1436","","<div class='header' style='text-align:left; position: absolute; top: 5%; left: 5%;'><small>Task 1 of 5</small></div><div class='instruxDiv'><p><strong>2) How many points can you win each round?</strong></p><p>a) 10 points</p><p style='color:#00FF00'>b) Double what you bet</p><p>c) Quadruple what you bet</p><h3 style='color:#00FF00'>Correct!</h3><h3 class='center-content'>The correct response is b).</h3><h3 class='center-content'>You can win double the amount of points you bet.</h3><p><em>Press SPACEBAR to continue</em></p></div>"," ","","","","","","","","","","",""
"","","","","","63eafad399e87039254d1078","bdp_rwlrn","Tue Mar 14 2023 11:56:50 GMT-0600 (Central Standard Time)","343054","Trustworthy,Untrustworthy","html-keyboard-response","8","73337","0.0-9.0","","null","","<div class='header' style='text-align:left; position: absolute; top: 5%; left: 5%;'><small>Task 1 of 5</small></div><div class='instruxDiv'><p>Thank you for completing the quiz<p>These are the actual lotteries you will be playing in the next block:<p><div class='tc' align='center'><img class='introPic' src='Fruit/papayas.png'><br><strong>Papaya Payday</strong></div><div class='bl' align='center'><img class='introPic' src='Fruit/pineapple.png'><br><strong>Primo Pineapple</strong></div><div class='br' align='center'><img class='introPic' src='Fruit/cherrie.png'><br><strong>Cherry Chances</strong></div></div><p>Across <strong>66 rounds</strong> you will play each lottery <strong>22 times</strong> (in random order).<p style='align:center; color:white'><font <em>Press SPACEBAR to continue</em></p>","null","","","","","","","","","","",""
"","","","","","63eafad399e87039254d1078","bdp_rwlrn","Tue Mar 14 2023 11:56:50 GMT-0600 (Central Standard Time)","343054","Trustworthy,Untrustworthy","instructions","9","75378","0.0-10.0","[{""page_index"":0,""viewing_time"":880},{""page_index"":1,""viewing_time"":1160}]","2040","","","","","","","","","","","","","",""
"","","","decision","","63eafad399e87039254d1078","bdp_rwlrn","Tue Mar 14 2023 11:56:50 GMT-0600 (Central Standard Time)","343054","Trustworthy,Untrustworthy","html-keyboard-response","10","76547","0.0-11.0-1.0","","1064","","<div class='trialDiv'><img src='Fruit/papayas.png'><br><font class='baseline'><strong>Papaya Payday</strong><p>Choose number of points to bet.</font><div class='respPicDiv'><img src='img/responseButtonOffersNo0L.png' class='respPic'></div></div>","3","1","Papaya Payday","Fruit/papayas.png","Lost","0.2,0.8","12","0.2","5","1","",""
"","","","decisionFB","","63eafad399e87039254d1078","bdp_rwlrn","Tue Mar 14 2023 11:56:50 GMT-0600 (Central Standard Time)","343054","Trustworthy,Untrustworthy","html-keyboard-response","11","76814","0.0-11.0-2.0","","null","","<div class='trialDiv'><img src='Fruit/papayas.png'><br><font class='baseline'><strong>Papaya Payday</strong><p>Choose number of points to bet.</font><div class='respPicDiv'><img src='img/responseButtonOffersNo0L3.png' class='respPic'></div></div>","null","1","Papaya Payday","Fruit/papayas.png","Lost","0.2,0.8","12","0.2","2","1","",""
"","","","feedback","","63eafad399e87039254d1078","bdp_rwlrn","Tue Mar 14 2023 11:56:50 GMT-0600 (Central Standard Time)","343054","Trustworthy,Untrustworthy","html-keyboard-response","12","77825","0.0-11.0-3.0","","null","","<div class='respPicDiv'><img src='img/responseButtonOffersNo0_wht.png' class='respPic'></div><div class='trialDiv'><img src='Fruit/papayas.png'><br><font class='baseline'><strong>Papaya Payday</strong><p><strong><font class='negOutcome'>You LOST</font><p>You bet: 3</strong></font> &nbsp; &nbsp; &nbsp; &nbsp; &nbsp; &nbsp;<font class='negOutcome'>You receive: <strong>0</strong></font></div>","null","1","Papaya Payday","Fruit/papayas.png","Lost","0.2,0.8","12","0.2","2","1","",""
"","","","decision","","63eafad399e87039254d1078","bdp_rwlrn","Tue Mar 14 2023 11:56:50 GMT-0600 (Central Standard Time)","343054","Trustworthy,Untrustworthy","html-keyboard-response","13","78507","0.0-11.0-1.1","","679","","<div class='trialDiv'><img src='Fruit/cherrie.png'><br><font class='baseline'><strong>Cherry Chances</strong><p>Choose number of points to bet.</font><div class='respPicDiv'><img src='img/responseButtonOffersNo0L.png' class='respPic'></div></div>","4","1","Cherry Chances","Fruit/cherrie.png","Won","0.8,0.35","8","0.8","7","2","",""
"","","","decisionFB","","63eafad399e87039254d1078","bdp_rwlrn","Tue Mar 14 2023 11:56:50 GMT-0600 (Central Standard Time)","343054","Trustworthy,Untrustworthy","html-keyboard-response","14","78773","0.0-11.0-2.1","","null","","<div class='trialDiv'><img src='Fruit/cherrie.png'><br><font class='baseline'><strong>Cherry Chances</strong><p>Choose number of points to bet.</font><div class='respPicDiv'><img src='img/responseButtonOffersNo0L4.png' class='respPic'></div></div>","null","1","Cherry Chances","Fruit/cherrie.png","Won","0.8,0.35","8","0.8","3","2","",""
"","","","feedback","","63eafad399e87039254d1078","bdp_rwlrn","Tue Mar 14 2023 11:56:50 GMT-0600 (Central Standard Time)","343054","Trustworthy,Untrustworthy","html-keyboard-response","15","79782","0.0-11.0-3.1","","null","","<div class='respPicDiv'><img src='img/responseButtonOffersNo0_wht.png' class='respPic'></div><div class='trialDiv'><img src='Fruit/cherrie.png'><br><font class='baseline'><strong>Cherry Chances</strong><p><strong><font class='posOutcome'>You WON</font><p>You bet: 4</strong></font> &nbsp; &nbsp; &nbsp; &nbsp; &nbsp; &nbsp;<font class='posOutcome'>you receive: <strong>8</strong></font></div>","null","1","Cherry Chances","Fruit/cherrie.png","Won","0.8,0.35","8","0.8","11","2","",""
"","","","decision","","63eafad399e87039254d1078","bdp_rwlrn","Tue Mar 14 2023 11:56:50 GMT-0600 (Central Standard Time)","343054","Trustworthy,Untrustworthy","html-keyboard-response","16","80906","0.0-11.0-1.2","","1123","","<div class='trialDiv'><img src='Fruit/pineapple.png'><br><font class='baseline'><strong>Primo Pineapple</strong><p>Choose number of points to bet.</font><div class='respPicDiv'><img src='img/responseButtonOffersNo0L.png' class='respPic'></div></div>","5","1","Primo Pineapple","Fruit/pineapple.png","Lost","0.35,0.8","10","0.35","16","3","",""
"","","","decisionFB","","63eafad399e87039254d1078","bdp_rwlrn","Tue Mar 14 2023 11:56:50 GMT-0600 (Central Standard Time)","343054","Trustworthy,Untrustworthy","html-keyboard-response","17","81171","0.0-11.0-2.2","","null","","<div class='trialDiv'><img src='Fruit/pineapple.png'><br><font class='baseline'><strong>Primo Pineapple</strong><p>Choose number of points to bet.</font><div class='respPicDiv'><img src='img/responseButtonOffersNo0L5.png' class='respPic'></div></div>","null","1","Primo Pineapple","Fruit/pineapple.png","Lost","0.35,0.8","10","0.35","11","3","",""
"","","","feedback","","63eafad399e87039254d1078","bdp_rwlrn","Tue Mar 14 2023 11:56:50 GMT-0600 (Central Standard Time)","343054","Trustworthy,Untrustworthy","html-keyboard-response","18","82184","0.0-11.0-3.2","","null","","<div class='respPicDiv'><img src='img/responseButtonOffersNo0_wht.png' class='respPic'></div><div class='trialDiv'><img src='Fruit/pineapple.png'><br><font class='baseline'><strong>Primo Pineapple</strong><p><strong><font class='negOutcome'>You LOST</font><p>You bet: 5</strong></font> &nbsp; &nbsp; &nbsp; &nbsp; &nbsp; &nbsp;<font class='negOutcome'>You receive: <strong>0</strong></font></div>","null","1","Primo Pineapple","Fruit/pineapple.png","Lost","0.35,0.8","10","0.35","11","3","",""
"","","","decision","","63eafad399e87039254d1078","bdp_rwlrn","Tue Mar 14 2023 11:56:50 GMT-0600 (Central Standard Time)","343054","Trustworthy,Untrustworthy","html-keyboard-response","19","82290","0.0-11.0-1.3","","104","","<div class='trialDiv'><img src='Fruit/cherrie.png'><br><font class='baseline'><strong>Cherry Chances</strong><p>Choose number of points to bet.</font><div class='respPicDiv'><img src='img/responseButtonOffersNo0L.png' class='respPic'></div></div>","1","2","Cherry Chances","Fruit/cherrie.png","Won","0.8,0.35","8","0.8","16","4","",""
"","","","decisionFB","","63eafad399e87039254d1078","bdp_rwlrn","Tue Mar 14 2023 11:56:50 GMT-0600 (Central Standard Time)","343054","Trustworthy,Untrustworthy","html-keyboard-response","20","82544","0.0-11.0-2.3","","null","","<div class='trialDiv'><img src='Fruit/cherrie.png'><br><font class='baseline'><strong>Cherry Chances</strong><p>Choose number of points to bet.</font><div class='respPicDiv'><img src='img/responseButtonOffersNo0L1.png' class='respPic'></div></div>","null","2","Cherry Chances","Fruit/cherrie.png","Won","0.8,0.35","8","0.8","15","4","",""
"","","","feedback","","63eafad399e87039254d1078","bdp_rwlrn","Tue Mar 14 2023 11:56:50 GMT-0600 (Central Standard Time)","343054","Trustworthy,Untrustworthy","html-keyboard-response","21","83556","0.0-11.0-3.3","","null","","<div class='respPicDiv'><img src='img/responseButtonOffersNo0_wht.png' class='respPic'></div><div class='trialDiv'><img src='Fruit/cherrie.png'><br><font class='baseline'><strong>Cherry Chances</strong><p><strong><font class='posOutcome'>You WON</font><p>You bet: 1</strong></font> &nbsp; &nbsp; &nbsp; &nbsp; &nbsp; &nbsp;<font class='posOutcome'>you receive: <strong>2</strong></font></div>","null","2","Cherry Chances","Fruit/cherrie.png","Won","0.8,0.35","8","0.8","17","4","",""
"","","","decision","","63eafad399e87039254d1078","bdp_rwlrn","Tue Mar 14 2023 11:56:50 GMT-0600 (Central Standard Time)","343054","Trustworthy,Untrustworthy","html-keyboard-response","22","84794","0.0-11.0-1.4","","1236","","<div class='trialDiv'><img src='Fruit/pineapple.png'><br><font class='baseline'><strong>Primo Pineapple</strong><p>Choose number of points to bet.</font><div class='respPicDiv'><img src='img/responseButtonOffersNo0L.png' class='respPic'></div></div>","4","2","Primo Pineapple","Fruit/pineapple.png","Lost","0.35,0.8","10","0.35","22","5","",""
"","","","decisionFB","","63eafad399e87039254d1078","bdp_rwlrn","Tue Mar 14 2023 11:56:50 GMT-0600 (Central Standard Time)","343054","Trustworthy,Untrustworthy","html-keyboard-response","23","85055","0.0-11.0-2.4","","null","","<div class='trialDiv'><img src='Fruit/pineapple.png'><br><font class='baseline'><strong>Primo Pineapple</strong><p>Choose number of points to bet.</font><div class='respPicDiv'><img src='img/responseButtonOffersNo0L4.png' class='respPic'></div></div>","null","2","Primo Pineapple","Fruit/pineapple.png","Lost","0.35,0.8","10","0.35","18","5","",""
"","","","feedback","","63eafad399e87039254d1078","bdp_rwlrn","Tue Mar 14 2023 11:56:50 GMT-0600 (Central Standard Time)","343054","Trustworthy,Untrustworthy","html-keyboard-response","24","86058","0.0-11.0-3.4","","null","","<div class='respPicDiv'><img src='img/responseButtonOffersNo0_wht.png' class='respPic'></div><div class='trialDiv'><img src='Fruit/pineapple.png'><br><font class='baseline'><strong>Primo Pineapple</strong><p><strong><font class='negOutcome'>You LOST</font><p>You bet: 4</strong></font> &nbsp; &nbsp; &nbsp; &nbsp; &nbsp; &nbsp;<font class='negOutcome'>You receive: <strong>0</strong></font></div>","null","2","Primo Pineapple","Fruit/pineapple.png","Lost","0.35,0.8","10","0.35","18","5","",""
"","","","decision","","63eafad399e87039254d1078","bdp_rwlrn","Tue Mar 14 2023 11:56:50 GMT-0600 (Central Standard Time)","343054","Trustworthy,Untrustworthy","html-keyboard-response","25","86498","0.0-11.0-1.5","","439","","<div class='trialDiv'><img src='Fruit/papayas.png'><br><font class='baseline'><strong>Papaya Payday</strong><p>Choose number of points to bet.</font><div class='respPicDiv'><img src='img/responseButtonOffersNo0L.png' class='respPic'></div></div>","1","2","Papaya Payday","Fruit/papayas.png","Lost","0.2,0.8","12","0.2","23","6","",""
"","","","decisionFB","","63eafad399e87039254d1078","bdp_rwlrn","Tue Mar 14 2023 11:56:50 GMT-0600 (Central Standard Time)","343054","Trustworthy,Untrustworthy","html-keyboard-response","26","86761","0.0-11.0-2.5","","null","","<div class='trialDiv'><img src='Fruit/papayas.png'><br><font class='baseline'><strong>Papaya Payday</strong><p>Choose number of points to bet.</font><div class='respPicDiv'><img src='img/responseButtonOffersNo0L1.png' class='respPic'></div></div>","null","2","Papaya Payday","Fruit/papayas.png","Lost","0.2,0.8","12","0.2","22","6","",""
"","","","feedback","","63eafad399e87039254d1078","bdp_rwlrn","Tue Mar 14 2023 11:56:50 GMT-0600 (Central Standard Time)","343054","Trustworthy,Untrustworthy","html-keyboard-response","27","87777","0.0-11.0-3.5","","null","","<div class='respPicDiv'><img src='img/responseButtonOffersNo0_wht.png' class='respPic'></div><div class='trialDiv'><img src='Fruit/papayas.png'><br><font class='baseline'><strong>Papaya Payday</strong><p><strong><font class='negOutcome'>You LOST</font><p>You bet: 1</strong></font> &nbsp; &nbsp; &nbsp; &nbsp; &nbsp; &nbsp;<font class='negOutcome'>You receive: <strong>0</strong></font></div>","null","2","Papaya Payday","Fruit/papayas.png","Lost","0.2,0.8","12","0.2","22","6","",""
"","","","decision","","63eafad399e87039254d1078","bdp_rwlrn","Tue Mar 14 2023 11:56:50 GMT-0600 (Central Standard Time)","343054","Trustworthy,Untrustworthy","html-keyboard-response","28","88402","0.0-11.0-1.6","","623","","<div class='trialDiv'><img src='Fruit/pineapple.png'><br><font class='baseline'><strong>Primo Pineapple</strong><p>Choose number of points to bet.</font><div class='respPicDiv'><img src='img/responseButtonOffersNo0L.png' class='respPic'></div></div>","1","3","Primo Pineapple","Fruit/pineapple.png","Lost","0.35,0.8","10","0.35","27","7","",""
"","","","decisionFB","","63eafad399e87039254d1078","bdp_rwlrn","Tue Mar 14 2023 11:56:50 GMT-0600 (Central Standard Time)","343054","Trustworthy,Untrustworthy","html-keyboard-response","29","88666","0.0-11.0-2.6","","null","","<div class='trialDiv'><img src='Fruit/pineapple.png'><br><font class='baseline'><strong>Primo Pineapple</strong><p>Choose number of points to bet.</font><div class='respPicDiv'><img src='img/responseButtonOffersNo0L1.png' class='respPic'></div></div>","null","3","Primo Pineapple","Fruit/pineapple.png","Lost","0.35,0.8","10","0.35","26","7","",""
"","","","feedback","","63eafad399e87039254d1078","bdp_rwlrn","Tue Mar 14 2023 11:56:50 GMT-0600 (Central Standard Time)","343054","Trustworthy,Untrustworthy","html-keyboard-response","30","89676","0.0-11.0-3.6","","null","","<div class='respPicDiv'><img src='img/responseButtonOffersNo0_wht.png' class='respPic'></div><div class='trialDiv'><img src='Fruit/pineapple.png'><br><font class='baseline'><strong>Primo Pineapple</strong><p><strong><font class='negOutcome'>You LOST</font><p>You bet: 1</strong></font> &nbsp; &nbsp; &nbsp; &nbsp; &nbsp; &nbsp;<font class='negOutcome'>You receive: <strong>0</strong></font></div>","null","3","Primo Pineapple","Fruit/pineapple.png","Lost","0.35,0.8","10","0.35","26","7","",""
"","","","decision","","63eafad399e87039254d1078","bdp_rwlrn","Tue Mar 14 2023 11:56:50 GMT-0600 (Central Standard Time)","343054","Trustworthy,Untrustworthy","html-keyboard-response","31","90002","0.0-11.0-1.7","","324","","<div class='trialDiv'><img src='Fruit/cherrie.png'><br><font class='baseline'><strong>Cherry Chances</strong><p>Choose number of points to bet.</font><div class='respPicDiv'><img src='img/responseButtonOffersNo0L.png' class='respPic'></div></div>","1","3","Cherry Chances","Fruit/cherrie.png","Won","0.8,0.35","8","0.8","31","8","",""
"","","","decisionFB","","63eafad399e87039254d1078","bdp_rwlrn","Tue Mar 14 2023 11:56:50 GMT-0600 (Central Standard Time)","343054","Trustworthy,Untrustworthy","html-keyboard-response","32","90269","0.0-11.0-2.7","","null","","<div class='trialDiv'><img src='Fruit/cherrie.png'><br><font class='baseline'><strong>Cherry Chances</strong><p>Choose number of points to bet.</font><div class='respPicDiv'><img src='img/responseButtonOffersNo0L1.png' class='respPic'></div></div>","null","3","Cherry Chances","Fruit/cherrie.png","Won","0.8,0.35","8","0.8","30","8","",""
"","","","feedback","","63eafad399e87039254d1078","bdp_rwlrn","Tue Mar 14 2023 11:56:50 GMT-0600 (Central Standard Time)","343054","Trustworthy,Untrustworthy","html-keyboard-response","33","91283","0.0-11.0-3.7","","null","","<div class='respPicDiv'><img src='img/responseButtonOffersNo0_wht.png' class='respPic'></div><div class='trialDiv'><img src='Fruit/cherrie.png'><br><font class='baseline'><strong>Cherry Chances</strong><p><strong><font class='posOutcome'>You WON</font><p>You bet: 1</strong></font> &nbsp; &nbsp; &nbsp; &nbsp; &nbsp; &nbsp;<font class='posOutcome'>you receive: <strong>2</strong></font></div>","null","3","Cherry Chances","Fruit/cherrie.png","Won","0.8,0.35","8","0.8","32","8","",""
"","","","decision","","63eafad399e87039254d1078","bdp_rwlrn","Tue Mar 14 2023 11:56:50 GMT-0600 (Central Standard Time)","343054","Trustworthy,Untrustworthy","html-keyboard-response","34","92394","0.0-11.0-1.8","","1109","","<div class='trialDiv'><img src='Fruit/papayas.png'><br><font class='baseline'><strong>Papaya Payday</strong><p>Choose number of points to bet.</font><div class='respPicDiv'><img src='img/responseButtonOffersNo0L.png' class='respPic'></div></div>","1","3","Papaya Payday","Fruit/papayas.png","Lost","0.2,0.8","12","0.2","37","9","",""
"","","","decisionFB","","63eafad399e87039254d1078","bdp_rwlrn","Tue Mar 14 2023 11:56:50 GMT-0600 (Central Standard Time)","343054","Trustworthy,Untrustworthy","html-keyboard-response","35","92657","0.0-11.0-2.8","","null","","<div class='trialDiv'><img src='Fruit/papayas.png'><br><font class='baseline'><strong>Papaya Payday</strong><p>Choose number of points to bet.</font><div class='respPicDiv'><img src='img/responseButtonOffersNo0L1.png' class='respPic'></div></div>","null","3","Papaya Payday","Fruit/papayas.png","Lost","0.2,0.8","12","0.2","36","9","",""
"","","","feedback","","63eafad399e87039254d1078","bdp_rwlrn","Tue Mar 14 2023 11:56:50 GMT-0600 (Central Standard Time)","343054","Trustworthy,Untrustworthy","html-keyboard-response","36","93671","0.0-11.0-3.8","","null","","<div class='respPicDiv'><img src='img/responseButtonOffersNo0_wht.png' class='respPic'></div><div class='trialDiv'><img src='Fruit/papayas.png'><br><font class='baseline'><strong>Papaya Payday</strong><p><strong><font class='negOutcome'>You LOST</font><p>You bet: 1</strong></font> &nbsp; &nbsp; &nbsp; &nbsp; &nbsp; &nbsp;<font class='negOutcome'>You receive: <strong>0</strong></font></div>","null","3","Papaya Payday","Fruit/papayas.png","Lost","0.2,0.8","12","0.2","36","9","",""
"","","","decision","","63eafad399e87039254d1078","bdp_rwlrn","Tue Mar 14 2023 11:56:50 GMT-0600 (Central Standard Time)","343054","Trustworthy,Untrustworthy","html-keyboard-response","37","95082","0.0-11.0-1.9","","1409","","<div class='trialDiv'><img src='Fruit/cherrie.png'><br><font class='baseline'><strong>Cherry Chances</strong><p>Choose number of points to bet.</font><div class='respPicDiv'><img src='img/responseButtonOffersNo0L.png' class='respPic'></div></div>","5","4","Cherry Chances","Fruit/cherrie.png","Won","0.8,0.35","8","0.8","41","10","",""
"","","","decisionFB","","63eafad399e87039254d1078","bdp_rwlrn","Tue Mar 14 2023 11:56:50 GMT-0600 (Central Standard Time)","343054","Trustworthy,Untrustworthy","html-keyboard-response","38","95339","0.0-11.0-2.9","","null","","<div class='trialDiv'><img src='Fruit/cherrie.png'><br><font class='baseline'><strong>Cherry Chances</strong><p>Choose number of points to bet.</font><div class='respPicDiv'><img src='img/responseButtonOffersNo0L5.png' class='respPic'></div></div>","null","4","Cherry Chances","Fruit/cherrie.png","Won","0.8,0.35","8","0.8","36","10","",""
"","","","feedback","","63eafad399e87039254d1078","bdp_rwlrn","Tue Mar 14 2023 11:56:50 GMT-0600 (Central Standard Time)","343054","Trustworthy,Untrustworthy","html-keyboard-response","39","96354","0.0-11.0-3.9","","null","","<div class='respPicDiv'><img src='img/responseButtonOffersNo0_wht.png' class='respPic'></div><div class='trialDiv'><img src='Fruit/cherrie.png'><br><font class='baseline'><strong>Cherry Chances</strong><p><strong><font class='posOutcome'>You WON</font><p>You bet: 5</strong></font> &nbsp; &nbsp; &nbsp; &nbsp; &nbsp; &nbsp;<font class='posOutcome'>you receive: <strong>10</strong></font></div>","null","4","Cherry Chances","Fruit/cherrie.png","Won","0.8,0.35","8","0.8","46","10","",""
"","","","decision","","63eafad399e87039254d1078","bdp_rwlrn","Tue Mar 14 2023 11:56:50 GMT-0600 (Central Standard Time)","343054","Trustworthy,Untrustworthy","html-keyboard-response","40","97434","0.0-11.0-1.10","","1078","","<div class='trialDiv'><img src='Fruit/pineapple.png'><br><font class='baseline'><strong>Primo Pineapple</strong><p>Choose number of points to bet.</font><div class='respPicDiv'><img src='img/responseButtonOffersNo0L.png' class='respPic'></div></div>","2","4","Primo Pineapple","Fruit/pineapple.png","Lost","0.35,0.8","10","0.35","51","11","",""
"","","","decisionFB","","63eafad399e87039254d1078","bdp_rwlrn","Tue Mar 14 2023 11:56:50 GMT-0600 (Central Standard Time)","343054","Trustworthy,Untrustworthy","html-keyboard-response","41","97691","0.0-11.0-2.10","","null","","<div class='trialDiv'><img src='Fruit/pineapple.png'><br><font class='baseline'><strong>Primo Pineapple</strong><p>Choose number of points to bet.</font><div class='respPicDiv'><img src='img/responseButtonOffersNo0L2.png' class='respPic'></div></div>","null","4","Primo Pineapple","Fruit/pineapple.png","Lost","0.35,0.8","10","0.35","49","11","",""
"","","","feedback","","63eafad399e87039254d1078","bdp_rwlrn","Tue Mar 14 2023 11:56:50 GMT-0600 (Central Standard Time)","343054","Trustworthy,Untrustworthy","html-keyboard-response","42","98705","0.0-11.0-3.10","","null","","<div class='respPicDiv'><img src='img/responseButtonOffersNo0_wht.png' class='respPic'></div><div class='trialDiv'><img src='Fruit/pineapple.png'><br><font class='baseline'><strong>Primo Pineapple</strong><p><strong><font class='negOutcome'>You LOST</font><p>You bet: 2</strong></font> &nbsp; &nbsp; &nbsp; &nbsp; &nbsp; &nbsp;<font class='negOutcome'>You receive: <strong>0</strong></font></div>","null","4","Primo Pineapple","Fruit/pineapple.png","Lost","0.35,0.8","10","0.35","49","11","",""
"","","","decision","","63eafad399e87039254d1078","bdp_rwlrn","Tue Mar 14 2023 11:56:50 GMT-0600 (Central Standard Time)","343054","Trustworthy,Untrustworthy","html-keyboard-response","43","99730","0.0-11.0-1.11","","1024","","<div class='trialDiv'><img src='Fruit/papayas.png'><br><font class='baseline'><strong>Papaya Payday</strong><p>Choose number of points to bet.</font><div class='respPicDiv'><img src='img/responseButtonOffersNo0L.png' class='respPic'></div></div>","1","4","Papaya Payday","Fruit/papayas.png","Lost","0.2,0.8","12","0.2","54","12","",""
"","","","decisionFB","","63eafad399e87039254d1078","bdp_rwlrn","Tue Mar 14 2023 11:56:50 GMT-0600 (Central Standard Time)","343054","Trustworthy,Untrustworthy","html-keyboard-response","44","99984","0.0-11.0-2.11","","null","","<div class='trialDiv'><img src='Fruit/papayas.png'><br><font class='baseline'><strong>Papaya Payday</strong><p>Choose number of points to bet.</font><div class='respPicDiv'><img src='img/responseButtonOffersNo0L1.png' class='respPic'></div></div>","null","4","Papaya Payday","Fruit/papayas.png","Lost","0.2,0.8","12","0.2","53","12","",""
"","","","feedback","","63eafad399e87039254d1078","bdp_rwlrn","Tue Mar 14 2023 11:56:50 GMT-0600 (Central Standard Time)","343054","Trustworthy,Untrustworthy","html-keyboard-response","45","101000","0.0-11.0-3.11","","null","","<div class='respPicDiv'><img src='img/responseButtonOffersNo0_wht.png' class='respPic'></div><div class='trialDiv'><img src='Fruit/papayas.png'><br><font class='baseline'><strong>Papaya Payday</strong><p><strong><font class='negOutcome'>You LOST</font><p>You bet: 1</strong></font> &nbsp; &nbsp; &nbsp; &nbsp; &nbsp; &nbsp;<font class='negOutcome'>You receive: <strong>0</strong></font></div>","null","4","Papaya Payday","Fruit/papayas.png","Lost","0.2,0.8","12","0.2","53","12","",""
"","","","decision","","63eafad399e87039254d1078","bdp_rwlrn","Tue Mar 14 2023 11:56:50 GMT-0600 (Central Standard Time)","343054","Trustworthy,Untrustworthy","html-keyboard-response","46","104482","0.0-11.0-1.12","","3481","","<div class='trialDiv'><img src='Fruit/cherrie.png'><br><font class='baseline'><strong>Cherry Chances</strong><p>Choose number of points to bet.</font><div class='respPicDiv'><img src='img/responseButtonOffersNo0L.png' class='respPic'></div></div>","5","5","Cherry Chances","Fruit/cherrie.png","Won","0.8,0.35","8","0.8","58","13","",""
"","","","decisionFB","","63eafad399e87039254d1078","bdp_rwlrn","Tue Mar 14 2023 11:56:50 GMT-0600 (Central Standard Time)","343054","Trustworthy,Untrustworthy","html-keyboard-response","47","104745","0.0-11.0-2.12","","null","","<div class='trialDiv'><img src='Fruit/cherrie.png'><br><font class='baseline'><strong>Cherry Chances</strong><p>Choose number of points to bet.</font><div class='respPicDiv'><img src='img/responseButtonOffersNo0L5.png' class='respPic'></div></div>","null","5","Cherry Chances","Fruit/cherrie.png","Won","0.8,0.35","8","0.8","53","13","",""
"","","","feedback","","63eafad399e87039254d1078","bdp_rwlrn","Tue Mar 14 2023 11:56:50 GMT-0600 (Central Standard Time)","343054","Trustworthy,Untrustworthy","html-keyboard-response","48","105748","0.0-11.0-3.12","","null","","<div class='respPicDiv'><img src='img/responseButtonOffersNo0_wht.png' class='respPic'></div><div class='trialDiv'><img src='Fruit/cherrie.png'><br><font class='baseline'><strong>Cherry Chances</strong><p><strong><font class='posOutcome'>You WON</font><p>You bet: 5</strong></font> &nbsp; &nbsp; &nbsp; &nbsp; &nbsp; &nbsp;<font class='posOutcome'>you receive: <strong>10</strong></font></div>","null","5","Cherry Chances","Fruit/cherrie.png","Won","0.8,0.35","8","0.8","63","13","",""
"","","","decision","","63eafad399e87039254d1078","bdp_rwlrn","Tue Mar 14 2023 11:56:50 GMT-0600 (Central Standard Time)","343054","Trustworthy,Untrustworthy","html-keyboard-response","49","106994","0.0-11.0-1.13","","1244","","<div class='trialDiv'><img src='Fruit/pineapple.png'><br><font class='baseline'><strong>Primo Pineapple</strong><p>Choose number of points to bet.</font><div class='respPicDiv'><img src='img/responseButtonOffersNo0L.png' class='respPic'></div></div>","2","5","Primo Pineapple","Fruit/pineapple.png","Won","0.35,0.8","10","0.35","68","14","",""
"","","","decisionFB","","63eafad399e87039254d1078","bdp_rwlrn","Tue Mar 14 2023 11:56:50 GMT-0600 (Central Standard Time)","343054","Trustworthy,Untrustworthy","html-keyboard-response","50","107249","0.0-11.0-2.13","","null","","<div class='trialDiv'><img src='Fruit/pineapple.png'><br><font class='baseline'><strong>Primo Pineapple</strong><p>Choose number of points to bet.</font><div class='respPicDiv'><img src='img/responseButtonOffersNo0L2.png' class='respPic'></div></div>","null","5","Primo Pineapple","Fruit/pineapple.png","Won","0.35,0.8","10","0.35","66","14","",""
"","","","feedback","","63eafad399e87039254d1078","bdp_rwlrn","Tue Mar 14 2023 11:56:50 GMT-0600 (Central Standard Time)","343054","Trustworthy,Untrustworthy","html-keyboard-response","51","108261","0.0-11.0-3.13","","null","","<div class='respPicDiv'><img src='img/responseButtonOffersNo0_wht.png' class='respPic'></div><div class='trialDiv'><img src='Fruit/pineapple.png'><br><font class='baseline'><strong>Primo Pineapple</strong><p><strong><font class='posOutcome'>You WON</font><p>You bet: 2</strong></font> &nbsp; &nbsp; &nbsp; &nbsp; &nbsp; &nbsp;<font class='posOutcome'>you receive: <strong>4</strong></font></div>","null","5","Primo Pineapple","Fruit/pineapple.png","Won","0.35,0.8","10","0.35","70","14","",""
"","","","decision","","63eafad399e87039254d1078","bdp_rwlrn","Tue Mar 14 2023 11:56:50 GMT-0600 (Central Standard Time)","343054","Trustworthy,Untrustworthy","html-keyboard-response","52","109218","0.0-11.0-1.14","","956","","<div class='trialDiv'><img src='Fruit/papayas.png'><br><font class='baseline'><strong>Papaya Payday</strong><p>Choose number of points to bet.</font><div class='respPicDiv'><img src='img/responseButtonOffersNo0L.png' class='respPic'></div></div>","2","5","Papaya Payday","Fruit/papayas.png","Lost","0.2,0.8","12","0.2","75","15","",""
"","","","decisionFB","","63eafad399e87039254d1078","bdp_rwlrn","Tue Mar 14 2023 11:56:50 GMT-0600 (Central Standard Time)","343054","Trustworthy,Untrustworthy","html-keyboard-response","53","109477","0.0-11.0-2.14","","null","","<div class='trialDiv'><img src='Fruit/papayas.png'><br><font class='baseline'><strong>Papaya Payday</strong><p>Choose number of points to bet.</font><div class='respPicDiv'><img src='img/responseButtonOffersNo0L2.png' class='respPic'></div></div>","null","5","Papaya Payday","Fruit/papayas.png","Lost","0.2,0.8","12","0.2","73","15","",""
"","","","feedback","","63eafad399e87039254d1078","bdp_rwlrn","Tue Mar 14 2023 11:56:50 GMT-0600 (Central Standard Time)","343054","Trustworthy,Untrustworthy","html-keyboard-response","54","110488","0.0-11.0-3.14","","null","","<div class='respPicDiv'><img src='img/responseButtonOffersNo0_wht.png' class='respPic'></div><div class='trialDiv'><img src='Fruit/papayas.png'><br><font class='baseline'><strong>Papaya Payday</strong><p><strong><font class='negOutcome'>You LOST</font><p>You bet: 2</strong></font> &nbsp; &nbsp; &nbsp; &nbsp; &nbsp; &nbsp;<font class='negOutcome'>You receive: <strong>0</strong></font></div>","null","5","Papaya Payday","Fruit/papayas.png","Lost","0.2,0.8","12","0.2","73","15","",""
"","","","decision","","63eafad399e87039254d1078","bdp_rwlrn","Tue Mar 14 2023 11:56:50 GMT-0600 (Central Standard Time)","343054","Trustworthy,Untrustworthy","html-keyboard-response","55","111178","0.0-11.0-1.15","","689","","<div class='trialDiv'><img src='Fruit/cherrie.png'><br><font class='baseline'><strong>Cherry Chances</strong><p>Choose number of points to bet.</font><div class='respPicDiv'><img src='img/responseButtonOffersNo0L.png' class='respPic'></div></div>","5","6","Cherry Chances","Fruit/cherrie.png","Won","0.8,0.35","8","0.8","78","16","",""
"","","","decisionFB","","63eafad399e87039254d1078","bdp_rwlrn","Tue Mar 14 2023 11:56:50 GMT-0600 (Central Standard Time)","343054","Trustworthy,Untrustworthy","html-keyboard-response","56","111432","0.0-11.0-2.15","","null","","<div class='trialDiv'><img src='Fruit/cherrie.png'><br><font class='baseline'><strong>Cherry Chances</strong><p>Choose number of points to bet.</font><div class='respPicDiv'><img src='img/responseButtonOffersNo0L5.png' class='respPic'></div></div>","null","6","Cherry Chances","Fruit/cherrie.png","Won","0.8,0.35","8","0.8","73","16","",""
"","","","feedback","","63eafad399e87039254d1078","bdp_rwlrn","Tue Mar 14 2023 11:56:50 GMT-0600 (Central Standard Time)","343054","Trustworthy,Untrustworthy","html-keyboard-response","57","112436","0.0-11.0-3.15","","null","","<div class='respPicDiv'><img src='img/responseButtonOffersNo0_wht.png' class='respPic'></div><div class='trialDiv'><img src='Fruit/cherrie.png'><br><font class='baseline'><strong>Cherry Chances</strong><p><strong><font class='posOutcome'>You WON</font><p>You bet: 5</strong></font> &nbsp; &nbsp; &nbsp; &nbsp; &nbsp; &nbsp;<font class='posOutcome'>you receive: <strong>10</strong></font></div>","null","6","Cherry Chances","Fruit/cherrie.png","Won","0.8,0.35","8","0.8","83","16","",""
"","","","decision","","63eafad399e87039254d1078","bdp_rwlrn","Tue Mar 14 2023 11:56:50 GMT-0600 (Central Standard Time)","343054","Trustworthy,Untrustworthy","html-keyboard-response","58","115506","0.0-11.0-1.16","","3068","","<div class='trialDiv'><img src='Fruit/papayas.png'><br><font class='baseline'><strong>Papaya Payday</strong><p>Choose number of points to bet.</font><div class='respPicDiv'><img src='img/responseButtonOffersNo0L.png' class='respPic'></div></div>","5","6","Papaya Payday","Fruit/papayas.png","Lost","0.2,0.8","12","0.2","88","17","",""
"","","","decisionFB","","63eafad399e87039254d1078","bdp_rwlrn","Tue Mar 14 2023 11:56:50 GMT-0600 (Central Standard Time)","343054","Trustworthy,Untrustworthy","html-keyboard-response","59","115768","0.0-11.0-2.16","","null","","<div class='trialDiv'><img src='Fruit/papayas.png'><br><font class='baseline'><strong>Papaya Payday</strong><p>Choose number of points to bet.</font><div class='respPicDiv'><img src='img/responseButtonOffersNo0L5.png' class='respPic'></div></div>","null","6","Papaya Payday","Fruit/papayas.png","Lost","0.2,0.8","12","0.2","83","17","",""
"","","","feedback","","63eafad399e87039254d1078","bdp_rwlrn","Tue Mar 14 2023 11:56:50 GMT-0600 (Central Standard Time)","343054","Trustworthy,Untrustworthy","html-keyboard-response","60","116773","0.0-11.0-3.16","","null","","<div class='respPicDiv'><img src='img/responseButtonOffersNo0_wht.png' class='respPic'></div><div class='trialDiv'><img src='Fruit/papayas.png'><br><font class='baseline'><strong>Papaya Payday</strong><p><strong><font class='negOutcome'>You LOST</font><p>You bet: 5</strong></font> &nbsp; &nbsp; &nbsp; &nbsp; &nbsp; &nbsp;<font class='negOutcome'>You receive: <strong>0</strong></font></div>","null","6","Papaya Payday","Fruit/papayas.png","Lost","0.2,0.8","12","0.2","83","17","",""
"","","","decision","","63eafad399e87039254d1078","bdp_rwlrn","Tue Mar 14 2023 11:56:50 GMT-0600 (Central Standard Time)","343054","Trustworthy,Untrustworthy","html-keyboard-response","61","119689","0.0-11.0-1.17","","2913","","<div class='trialDiv'><img src='Fruit/pineapple.png'><br><font class='baseline'><strong>Primo Pineapple</strong><p>Choose number of points to bet.</font><div class='respPicDiv'><img src='img/responseButtonOffersNo0L.png' class='respPic'></div></div>","1","6","Primo Pineapple","Fruit/pineapple.png","Won","0.35,0.8","10","0.35","88","18","",""
"","","","decisionFB","","63eafad399e87039254d1078","bdp_rwlrn","Tue Mar 14 2023 11:56:50 GMT-0600 (Central Standard Time)","343054","Trustworthy,Untrustworthy","html-keyboard-response","62","119943","0.0-11.0-2.17","","null","","<div class='trialDiv'><img src='Fruit/pineapple.png'><br><font class='baseline'><strong>Primo Pineapple</strong><p>Choose number of points to bet.</font><div class='respPicDiv'><img src='img/responseButtonOffersNo0L1.png' class='respPic'></div></div>","null","6","Primo Pineapple","Fruit/pineapple.png","Won","0.35,0.8","10","0.35","87","18","",""
"","","","feedback","","63eafad399e87039254d1078","bdp_rwlrn","Tue Mar 14 2023 11:56:50 GMT-0600 (Central Standard Time)","343054","Trustworthy,Untrustworthy","html-keyboard-response","63","120946","0.0-11.0-3.17","","null","","<div class='respPicDiv'><img src='img/responseButtonOffersNo0_wht.png' class='respPic'></div><div class='trialDiv'><img src='Fruit/pineapple.png'><br><font class='baseline'><strong>Primo Pineapple</strong><p><strong><font class='posOutcome'>You WON</font><p>You bet: 1</strong></font> &nbsp; &nbsp; &nbsp; &nbsp; &nbsp; &nbsp;<font class='posOutcome'>you receive: <strong>2</strong></font></div>","null","6","Primo Pineapple","Fruit/pineapple.png","Won","0.35,0.8","10","0.35","89","18","",""
"","","","decision","","63eafad399e87039254d1078","bdp_rwlrn","Tue Mar 14 2023 11:56:50 GMT-0600 (Central Standard Time)","343054","Trustworthy,Untrustworthy","html-keyboard-response","64","122106","0.0-11.0-1.18","","1158","","<div class='trialDiv'><img src='Fruit/papayas.png'><br><font class='baseline'><strong>Papaya Payday</strong><p>Choose number of points to bet.</font><div class='respPicDiv'><img src='img/responseButtonOffersNo0L.png' class='respPic'></div></div>","1","7","Papaya Payday","Fruit/papayas.png","Lost","0.2,0.8","12","0.2","94","19","",""
"","","","decisionFB","","63eafad399e87039254d1078","bdp_rwlrn","Tue Mar 14 2023 11:56:50 GMT-0600 (Central Standard Time)","343054","Trustworthy,Untrustworthy","html-keyboard-response","65","122369","0.0-11.0-2.18","","null","","<div class='trialDiv'><img src='Fruit/papayas.png'><br><font class='baseline'><strong>Papaya Payday</strong><p>Choose number of points to bet.</font><div class='respPicDiv'><img src='img/responseButtonOffersNo0L1.png' class='respPic'></div></div>","null","7","Papaya Payday","Fruit/papayas.png","Lost","0.2,0.8","12","0.2","93","19","",""
"","","","feedback","","63eafad399e87039254d1078","bdp_rwlrn","Tue Mar 14 2023 11:56:50 GMT-0600 (Central Standard Time)","343054","Trustworthy,Untrustworthy","html-keyboard-response","66","123386","0.0-11.0-3.18","","null","","<div class='respPicDiv'><img src='img/responseButtonOffersNo0_wht.png' class='respPic'></div><div class='trialDiv'><img src='Fruit/papayas.png'><br><font class='baseline'><strong>Papaya Payday</strong><p><strong><font class='negOutcome'>You LOST</font><p>You bet: 1</strong></font> &nbsp; &nbsp; &nbsp; &nbsp; &nbsp; &nbsp;<font class='negOutcome'>You receive: <strong>0</strong></font></div>","null","7","Papaya Payday","Fruit/papayas.png","Lost","0.2,0.8","12","0.2","93","19","",""
"","","","decision","","63eafad399e87039254d1078","bdp_rwlrn","Tue Mar 14 2023 11:56:50 GMT-0600 (Central Standard Time)","343054","Trustworthy,Untrustworthy","html-keyboard-response","67","124050","0.0-11.0-1.19","","662","","<div class='trialDiv'><img src='Fruit/pineapple.png'><br><font class='baseline'><strong>Primo Pineapple</strong><p>Choose number of points to bet.</font><div class='respPicDiv'><img src='img/responseButtonOffersNo0L.png' class='respPic'></div></div>","5","7","Primo Pineapple","Fruit/pineapple.png","Lost","0.35,0.8","10","0.35","98","20","",""
"","","","decisionFB","","63eafad399e87039254d1078","bdp_rwlrn","Tue Mar 14 2023 11:56:50 GMT-0600 (Central Standard Time)","343054","Trustworthy,Untrustworthy","html-keyboard-response","68","124308","0.0-11.0-2.19","","null","","<div class='trialDiv'><img src='Fruit/pineapple.png'><br><font class='baseline'><strong>Primo Pineapple</strong><p>Choose number of points to bet.</font><div class='respPicDiv'><img src='img/responseButtonOffersNo0L5.png' class='respPic'></div></div>","null","7","Primo Pineapple","Fruit/pineapple.png","Lost","0.35,0.8","10","0.35","93","20","",""
"","","","feedback","","63eafad399e87039254d1078","bdp_rwlrn","Tue Mar 14 2023 11:56:50 GMT-0600 (Central Standard Time)","343054","Trustworthy,Untrustworthy","html-keyboard-response","69","125312","0.0-11.0-3.19","","null","","<div class='respPicDiv'><img src='img/responseButtonOffersNo0_wht.png' class='respPic'></div><div class='trialDiv'><img src='Fruit/pineapple.png'><br><font class='baseline'><strong>Primo Pineapple</strong><p><strong><font class='negOutcome'>You LOST</font><p>You bet: 5</strong></font> &nbsp; &nbsp; &nbsp; &nbsp; &nbsp; &nbsp;<font class='negOutcome'>You receive: <strong>0</strong></font></div>","null","7","Primo Pineapple","Fruit/pineapple.png","Lost","0.35,0.8","10","0.35","93","20","",""
"","","","decision","","63eafad399e87039254d1078","bdp_rwlrn","Tue Mar 14 2023 11:56:50 GMT-0600 (Central Standard Time)","343054","Trustworthy,Untrustworthy","html-keyboard-response","70","126010","0.0-11.0-1.20","","697","","<div class='trialDiv'><img src='Fruit/cherrie.png'><br><font class='baseline'><strong>Cherry Chances</strong><p>Choose number of points to bet.</font><div class='respPicDiv'><img src='img/responseButtonOffersNo0L.png' class='respPic'></div></div>","5","7","Cherry Chances","Fruit/cherrie.png","Lost","0.8,0.35","8","0.8","98","21","",""
"","","","decisionFB","","63eafad399e87039254d1078","bdp_rwlrn","Tue Mar 14 2023 11:56:50 GMT-0600 (Central Standard Time)","343054","Trustworthy,Untrustworthy","html-keyboard-response","71","126263","0.0-11.0-2.20","","null","","<div class='trialDiv'><img src='Fruit/cherrie.png'><br><font class='baseline'><strong>Cherry Chances</strong><p>Choose number of points to bet.</font><div class='respPicDiv'><img src='img/responseButtonOffersNo0L5.png' class='respPic'></div></div>","null","7","Cherry Chances","Fruit/cherrie.png","Lost","0.8,0.35","8","0.8","93","21","",""
"","","","feedback","","63eafad399e87039254d1078","bdp_rwlrn","Tue Mar 14 2023 11:56:50 GMT-0600 (Central Standard Time)","343054","Trustworthy,Untrustworthy","html-keyboard-response","72","127275","0.0-11.0-3.20","","null","","<div class='respPicDiv'><img src='img/responseButtonOffersNo0_wht.png' class='respPic'></div><div class='trialDiv'><img src='Fruit/cherrie.png'><br><font class='baseline'><strong>Cherry Chances</strong><p><strong><font class='negOutcome'>You LOST</font><p>You bet: 5</strong></font> &nbsp; &nbsp; &nbsp; &nbsp; &nbsp; &nbsp;<font class='negOutcome'>You receive: <strong>0</strong></font></div>","null","7","Cherry Chances","Fruit/cherrie.png","Lost","0.8,0.35","8","0.8","93","21","",""
"","","","decision","","63eafad399e87039254d1078","bdp_rwlrn","Tue Mar 14 2023 11:56:50 GMT-0600 (Central Standard Time)","343054","Trustworthy,Untrustworthy","html-keyboard-response","73","128594","0.0-11.0-1.21","","1317","","<div class='trialDiv'><img src='Fruit/pineapple.png'><br><font class='baseline'><strong>Primo Pineapple</strong><p>Choose number of points to bet.</font><div class='respPicDiv'><img src='img/responseButtonOffersNo0L.png' class='respPic'></div></div>","1","8","Primo Pineapple","Fruit/pineapple.png","Won","0.35,0.8","10","0.35","98","22","",""
"","","","decisionFB","","63eafad399e87039254d1078","bdp_rwlrn","Tue Mar 14 2023 11:56:50 GMT-0600 (Central Standard Time)","343054","Trustworthy,Untrustworthy","html-keyboard-response","74","128849","0.0-11.0-2.21","","null","","<div class='trialDiv'><img src='Fruit/pineapple.png'><br><font class='baseline'><strong>Primo Pineapple</strong><p>Choose number of points to bet.</font><div class='respPicDiv'><img src='img/responseButtonOffersNo0L1.png' class='respPic'></div></div>","null","8","Primo Pineapple","Fruit/pineapple.png","Won","0.35,0.8","10","0.35","97","22","",""
"","","","feedback","","63eafad399e87039254d1078","bdp_rwlrn","Tue Mar 14 2023 11:56:50 GMT-0600 (Central Standard Time)","343054","Trustworthy,Untrustworthy","html-keyboard-response","75","129862","0.0-11.0-3.21","","null","","<div class='respPicDiv'><img src='img/responseButtonOffersNo0_wht.png' class='respPic'></div><div class='trialDiv'><img src='Fruit/pineapple.png'><br><font class='baseline'><strong>Primo Pineapple</strong><p><strong><font class='posOutcome'>You WON</font><p>You bet: 1</strong></font> &nbsp; &nbsp; &nbsp; &nbsp; &nbsp; &nbsp;<font class='posOutcome'>you receive: <strong>2</strong></font></div>","null","8","Primo Pineapple","Fruit/pineapple.png","Won","0.35,0.8","10","0.35","99","22","",""
"","","","decision","","63eafad399e87039254d1078","bdp_rwlrn","Tue Mar 14 2023 11:56:50 GMT-0600 (Central Standard Time)","343054","Trustworthy,Untrustworthy","html-keyboard-response","76","130858","0.0-11.0-1.22","","995","","<div class='trialDiv'><img src='Fruit/cherrie.png'><br><font class='baseline'><strong>Cherry Chances</strong><p>Choose number of points to bet.</font><div class='respPicDiv'><img src='img/responseButtonOffersNo0L.png' class='respPic'></div></div>","5","8","Cherry Chances","Fruit/cherrie.png","Won","0.8,0.35","8","0.8","104","23","",""
"","","","decisionFB","","63eafad399e87039254d1078","bdp_rwlrn","Tue Mar 14 2023 11:56:50 GMT-0600 (Central Standard Time)","343054","Trustworthy,Untrustworthy","html-keyboard-response","77","131122","0.0-11.0-2.22","","null","","<div class='trialDiv'><img src='Fruit/cherrie.png'><br><font class='baseline'><strong>Cherry Chances</strong><p>Choose number of points to bet.</font><div class='respPicDiv'><img src='img/responseButtonOffersNo0L5.png' class='respPic'></div></div>","null","8","Cherry Chances","Fruit/cherrie.png","Won","0.8,0.35","8","0.8","99","23","",""
"","","","feedback","","63eafad399e87039254d1078","bdp_rwlrn","Tue Mar 14 2023 11:56:50 GMT-0600 (Central Standard Time)","343054","Trustworthy,Untrustworthy","html-keyboard-response","78","132138","0.0-11.0-3.22","","null","","<div class='respPicDiv'><img src='img/responseButtonOffersNo0_wht.png' class='respPic'></div><div class='trialDiv'><img src='Fruit/cherrie.png'><br><font class='baseline'><strong>Cherry Chances</strong><p><strong><font class='posOutcome'>You WON</font><p>You bet: 5</strong></font> &nbsp; &nbsp; &nbsp; &nbsp; &nbsp; &nbsp;<font class='posOutcome'>you receive: <strong>10</strong></font></div>","null","8","Cherry Chances","Fruit/cherrie.png","Won","0.8,0.35","8","0.8","109","23","",""
"","","","decision","","63eafad399e87039254d1078","bdp_rwlrn","Tue Mar 14 2023 11:56:50 GMT-0600 (Central Standard Time)","343054","Trustworthy,Untrustworthy","html-keyboard-response","79","133442","0.0-11.0-1.23","","1302","","<div class='trialDiv'><img src='Fruit/papayas.png'><br><font class='baseline'><strong>Papaya Payday</strong><p>Choose number of points to bet.</font><div class='respPicDiv'><img src='img/responseButtonOffersNo0L.png' class='respPic'></div></div>","3","8","Papaya Payday","Fruit/papayas.png","Lost","0.2,0.8","12","0.2","114","24","",""
"","","","decisionFB","","63eafad399e87039254d1078","bdp_rwlrn","Tue Mar 14 2023 11:56:50 GMT-0600 (Central Standard Time)","343054","Trustworthy,Untrustworthy","html-keyboard-response","80","133694","0.0-11.0-2.23","","null","","<div class='trialDiv'><img src='Fruit/papayas.png'><br><font class='baseline'><strong>Papaya Payday</strong><p>Choose number of points to bet.</font><div class='respPicDiv'><img src='img/responseButtonOffersNo0L3.png' class='respPic'></div></div>","null","8","Papaya Payday","Fruit/papayas.png","Lost","0.2,0.8","12","0.2","111","24","",""
"","","","feedback","","63eafad399e87039254d1078","bdp_rwlrn","Tue Mar 14 2023 11:56:50 GMT-0600 (Central Standard Time)","343054","Trustworthy,Untrustworthy","html-keyboard-response","81","134704","0.0-11.0-3.23","","null","","<div class='respPicDiv'><img src='img/responseButtonOffersNo0_wht.png' class='respPic'></div><div class='trialDiv'><img src='Fruit/papayas.png'><br><font class='baseline'><strong>Papaya Payday</strong><p><strong><font class='negOutcome'>You LOST</font><p>You bet: 3</strong></font> &nbsp; &nbsp; &nbsp; &nbsp; &nbsp; &nbsp;<font class='negOutcome'>You receive: <strong>0</strong></font></div>","null","8","Papaya Payday","Fruit/papayas.png","Lost","0.2,0.8","12","0.2","111","24","",""
"","","","decision","","63eafad399e87039254d1078","bdp_rwlrn","Tue Mar 14 2023 11:56:50 GMT-0600 (Central Standard Time)","343054","Trustworthy,Untrustworthy","html-keyboard-response","82","136034","0.0-11.0-1.24","","1329","","<div class='trialDiv'><img src='Fruit/cherrie.png'><br><font class='baseline'><strong>Cherry Chances</strong><p>Choose number of points to bet.</font><div class='respPicDiv'><img src='img/responseButtonOffersNo0L.png' class='respPic'></div></div>","5","9","Cherry Chances","Fruit/cherrie.png","Lost","0.8,0.35","8","0.8","116","25","",""
"","","","decisionFB","","63eafad399e87039254d1078","bdp_rwlrn","Tue Mar 14 2023 11:56:50 GMT-0600 (Central Standard Time)","343054","Trustworthy,Untrustworthy","html-keyboard-response","83","136295","0.0-11.0-2.24","","null","","<div class='trialDiv'><img src='Fruit/cherrie.png'><br><font class='baseline'><strong>Cherry Chances</strong><p>Choose number of points to bet.</font><div class='respPicDiv'><img src='img/responseButtonOffersNo0L5.png' class='respPic'></div></div>","null","9","Cherry Chances","Fruit/cherrie.png","Lost","0.8,0.35","8","0.8","111","25","",""
"","","","feedback","","63eafad399e87039254d1078","bdp_rwlrn","Tue Mar 14 2023 11:56:50 GMT-0600 (Central Standard Time)","343054","Trustworthy,Untrustworthy","html-keyboard-response","84","137312","0.0-11.0-3.24","","null","","<div class='respPicDiv'><img src='img/responseButtonOffersNo0_wht.png' class='respPic'></div><div class='trialDiv'><img src='Fruit/cherrie.png'><br><font class='baseline'><strong>Cherry Chances</strong><p><strong><font class='negOutcome'>You LOST</font><p>You bet: 5</strong></font> &nbsp; &nbsp; &nbsp; &nbsp; &nbsp; &nbsp;<font class='negOutcome'>You receive: <strong>0</strong></font></div>","null","9","Cherry Chances","Fruit/cherrie.png","Lost","0.8,0.35","8","0.8","111","25","",""
"","","","decision","","63eafad399e87039254d1078","bdp_rwlrn","Tue Mar 14 2023 11:56:50 GMT-0600 (Central Standard Time)","343054","Trustworthy,Untrustworthy","html-keyboard-response","85","138714","0.0-11.0-1.25","","1400","","<div class='trialDiv'><img src='Fruit/papayas.png'><br><font class='baseline'><strong>Papaya Payday</strong><p>Choose number of points to bet.</font><div class='respPicDiv'><img src='img/responseButtonOffersNo0L.png' class='respPic'></div></div>","2","9","Papaya Payday","Fruit/papayas.png","Lost","0.2,0.8","12","0.2","116","26","",""
"","","","decisionFB","","63eafad399e87039254d1078","bdp_rwlrn","Tue Mar 14 2023 11:56:50 GMT-0600 (Central Standard Time)","343054","Trustworthy,Untrustworthy","html-keyboard-response","86","138980","0.0-11.0-2.25","","null","","<div class='trialDiv'><img src='Fruit/papayas.png'><br><font class='baseline'><strong>Papaya Payday</strong><p>Choose number of points to bet.</font><div class='respPicDiv'><img src='img/responseButtonOffersNo0L2.png' class='respPic'></div></div>","null","9","Papaya Payday","Fruit/papayas.png","Lost","0.2,0.8","12","0.2","114","26","",""
"","","","feedback","","63eafad399e87039254d1078","bdp_rwlrn","Tue Mar 14 2023 11:56:50 GMT-0600 (Central Standard Time)","343054","Trustworthy,Untrustworthy","html-keyboard-response","87","139994","0.0-11.0-3.25","","null","","<div class='respPicDiv'><img src='img/responseButtonOffersNo0_wht.png' class='respPic'></div><div class='trialDiv'><img src='Fruit/papayas.png'><br><font class='baseline'><strong>Papaya Payday</strong><p><strong><font class='negOutcome'>You LOST</font><p>You bet: 2</strong></font> &nbsp; &nbsp; &nbsp; &nbsp; &nbsp; &nbsp;<font class='negOutcome'>You receive: <strong>0</strong></font></div>","null","9","Papaya Payday","Fruit/papayas.png","Lost","0.2,0.8","12","0.2","114","26","",""
"","","","decision","","63eafad399e87039254d1078","bdp_rwlrn","Tue Mar 14 2023 11:56:50 GMT-0600 (Central Standard Time)","343054","Trustworthy,Untrustworthy","html-keyboard-response","88","140938","0.0-11.0-1.26","","942","","<div class='trialDiv'><img src='Fruit/pineapple.png'><br><font class='baseline'><strong>Primo Pineapple</strong><p>Choose number of points to bet.</font><div class='respPicDiv'><img src='img/responseButtonOffersNo0L.png' class='respPic'></div></div>","5","9","Primo Pineapple","Fruit/pineapple.png","Lost","0.35,0.8","10","0.35","119","27","",""
"","","","decisionFB","","63eafad399e87039254d1078","bdp_rwlrn","Tue Mar 14 2023 11:56:50 GMT-0600 (Central Standard Time)","343054","Trustworthy,Untrustworthy","html-keyboard-response","89","141194","0.0-11.0-2.26","","null","","<div class='trialDiv'><img src='Fruit/pineapple.png'><br><font class='baseline'><strong>Primo Pineapple</strong><p>Choose number of points to bet.</font><div class='respPicDiv'><img src='img/responseButtonOffersNo0L5.png' class='respPic'></div></div>","null","9","Primo Pineapple","Fruit/pineapple.png","Lost","0.35,0.8","10","0.35","114","27","",""
"","","","feedback","","63eafad399e87039254d1078","bdp_rwlrn","Tue Mar 14 2023 11:56:50 GMT-0600 (Central Standard Time)","343054","Trustworthy,Untrustworthy","html-keyboard-response","90","142197","0.0-11.0-3.26","","null","","<div class='respPicDiv'><img src='img/responseButtonOffersNo0_wht.png' class='respPic'></div><div class='trialDiv'><img src='Fruit/pineapple.png'><br><font class='baseline'><strong>Primo Pineapple</strong><p><strong><font class='negOutcome'>You LOST</font><p>You bet: 5</strong></font> &nbsp; &nbsp; &nbsp; &nbsp; &nbsp; &nbsp;<font class='negOutcome'>You receive: <strong>0</strong></font></div>","null","9","Primo Pineapple","Fruit/pineapple.png","Lost","0.35,0.8","10","0.35","114","27","",""
"","","","decision","","63eafad399e87039254d1078","bdp_rwlrn","Tue Mar 14 2023 11:56:50 GMT-0600 (Central Standard Time)","343054","Trustworthy,Untrustworthy","html-keyboard-response","91","143034","0.0-11.0-1.27","","835","","<div class='trialDiv'><img src='Fruit/cherrie.png'><br><font class='baseline'><strong>Cherry Chances</strong><p>Choose number of points to bet.</font><div class='respPicDiv'><img src='img/responseButtonOffersNo0L.png' class='respPic'></div></div>","5","10","Cherry Chances","Fruit/cherrie.png","Won","0.8,0.35","8","0.8","119","28","",""
"","","","decisionFB","","63eafad399e87039254d1078","bdp_rwlrn","Tue Mar 14 2023 11:56:50 GMT-0600 (Central Standard Time)","343054","Trustworthy,Untrustworthy","html-keyboard-response","92","143289","0.0-11.0-2.27","","null","","<div class='trialDiv'><img src='Fruit/cherrie.png'><br><font class='baseline'><strong>Cherry Chances</strong><p>Choose number of points to bet.</font><div class='respPicDiv'><img src='img/responseButtonOffersNo0L5.png' class='respPic'></div></div>","null","10","Cherry Chances","Fruit/cherrie.png","Won","0.8,0.35","8","0.8","114","28","",""
"","","","feedback","","63eafad399e87039254d1078","bdp_rwlrn","Tue Mar 14 2023 11:56:50 GMT-0600 (Central Standard Time)","343054","Trustworthy,Untrustworthy","html-keyboard-response","93","144302","0.0-11.0-3.27","","null","","<div class='respPicDiv'><img src='img/responseButtonOffersNo0_wht.png' class='respPic'></div><div class='trialDiv'><img src='Fruit/cherrie.png'><br><font class='baseline'><strong>Cherry Chances</strong><p><strong><font class='posOutcome'>You WON</font><p>You bet: 5</strong></font> &nbsp; &nbsp; &nbsp; &nbsp; &nbsp; &nbsp;<font class='posOutcome'>you receive: <strong>10</strong></font></div>","null","10","Cherry Chances","Fruit/cherrie.png","Won","0.8,0.35","8","0.8","124","28","",""
"","","","decision","","63eafad399e87039254d1078","bdp_rwlrn","Tue Mar 14 2023 11:56:50 GMT-0600 (Central Standard Time)","343054","Trustworthy,Untrustworthy","html-keyboard-response","94","145026","0.0-11.0-1.28","","722","","<div class='trialDiv'><img src='Fruit/papayas.png'><br><font class='baseline'><strong>Papaya Payday</strong><p>Choose number of points to bet.</font><div class='respPicDiv'><img src='img/responseButtonOffersNo0L.png' class='respPic'></div></div>","2","10","Papaya Payday","Fruit/papayas.png","Won","0.2,0.8","12","0.2","129","29","",""
"","","","decisionFB","","63eafad399e87039254d1078","bdp_rwlrn","Tue Mar 14 2023 11:56:50 GMT-0600 (Central Standard Time)","343054","Trustworthy,Untrustworthy","html-keyboard-response","95","145286","0.0-11.0-2.28","","null","","<div class='trialDiv'><img src='Fruit/papayas.png'><br><font class='baseline'><strong>Papaya Payday</strong><p>Choose number of points to bet.</font><div class='respPicDiv'><img src='img/responseButtonOffersNo0L2.png' class='respPic'></div></div>","null","10","Papaya Payday","Fruit/papayas.png","Won","0.2,0.8","12","0.2","127","29","",""
"","","","feedback","","63eafad399e87039254d1078","bdp_rwlrn","Tue Mar 14 2023 11:56:50 GMT-0600 (Central Standard Time)","343054","Trustworthy,Untrustworthy","html-keyboard-response","96","146298","0.0-11.0-3.28","","null","","<div class='respPicDiv'><img src='img/responseButtonOffersNo0_wht.png' class='respPic'></div><div class='trialDiv'><img src='Fruit/papayas.png'><br><font class='baseline'><strong>Papaya Payday</strong><p><strong><font class='posOutcome'>You WON</font><p>You bet: 2</strong></font> &nbsp; &nbsp; &nbsp; &nbsp; &nbsp; &nbsp;<font class='posOutcome'>you receive: <strong>4</strong></font></div>","null","10","Papaya Payday","Fruit/papayas.png","Won","0.2,0.8","12","0.2","131","29","",""
"","","","decision","","63eafad399e87039254d1078","bdp_rwlrn","Tue Mar 14 2023 11:56:50 GMT-0600 (Central Standard Time)","343054","Trustworthy,Untrustworthy","html-keyboard-response","97","146602","0.0-11.0-1.29","","303","","<div class='trialDiv'><img src='Fruit/pineapple.png'><br><font class='baseline'><strong>Primo Pineapple</strong><p>Choose number of points to bet.</font><div class='respPicDiv'><img src='img/responseButtonOffersNo0L.png' class='respPic'></div></div>","2","10","Primo Pineapple","Fruit/pineapple.png","Won","0.35,0.8","10","0.35","136","30","",""
"","","","decisionFB","","63eafad399e87039254d1078","bdp_rwlrn","Tue Mar 14 2023 11:56:50 GMT-0600 (Central Standard Time)","343054","Trustworthy,Untrustworthy","html-keyboard-response","98","146857","0.0-11.0-2.29","","null","","<div class='trialDiv'><img src='Fruit/pineapple.png'><br><font class='baseline'><strong>Primo Pineapple</strong><p>Choose number of points to bet.</font><div class='respPicDiv'><img src='img/responseButtonOffersNo0L2.png' class='respPic'></div></div>","null","10","Primo Pineapple","Fruit/pineapple.png","Won","0.35,0.8","10","0.35","134","30","",""
"","","","feedback","","63eafad399e87039254d1078","bdp_rwlrn","Tue Mar 14 2023 11:56:50 GMT-0600 (Central Standard Time)","343054","Trustworthy,Untrustworthy","html-keyboard-response","99","147874","0.0-11.0-3.29","","null","","<div class='respPicDiv'><img src='img/responseButtonOffersNo0_wht.png' class='respPic'></div><div class='trialDiv'><img src='Fruit/pineapple.png'><br><font class='baseline'><strong>Primo Pineapple</strong><p><strong><font class='posOutcome'>You WON</font><p>You bet: 2</strong></font> &nbsp; &nbsp; &nbsp; &nbsp; &nbsp; &nbsp;<font class='posOutcome'>you receive: <strong>4</strong></font></div>","null","10","Primo Pineapple","Fruit/pineapple.png","Won","0.35,0.8","10","0.35","138","30","",""
"","","","decision","","63eafad399e87039254d1078","bdp_rwlrn","Tue Mar 14 2023 11:56:50 GMT-0600 (Central Standard Time)","343054","Trustworthy,Untrustworthy","html-keyboard-response","100","148234","0.0-11.0-1.30","","356","","<div class='trialDiv'><img src='Fruit/cherrie.png'><br><font class='baseline'><strong>Cherry Chances</strong><p>Choose number of points to bet.</font><div class='respPicDiv'><img src='img/responseButtonOffersNo0L.png' class='respPic'></div></div>","5","11","Cherry Chances","Fruit/cherrie.png","Lost","0.8,0.35","8","0.8","143","31","",""
"","","","decisionFB","","63eafad399e87039254d1078","bdp_rwlrn","Tue Mar 14 2023 11:56:50 GMT-0600 (Central Standard Time)","343054","Trustworthy,Untrustworthy","html-keyboard-response","101","148499","0.0-11.0-2.30","","null","","<div class='trialDiv'><img src='Fruit/cherrie.png'><br><font class='baseline'><strong>Cherry Chances</strong><p>Choose number of points to bet.</font><div class='respPicDiv'><img src='img/responseButtonOffersNo0L5.png' class='respPic'></div></div>","null","11","Cherry Chances","Fruit/cherrie.png","Lost","0.8,0.35","8","0.8","138","31","",""
"","","","feedback","","63eafad399e87039254d1078","bdp_rwlrn","Tue Mar 14 2023 11:56:50 GMT-0600 (Central Standard Time)","343054","Trustworthy,Untrustworthy","html-keyboard-response","102","149513","0.0-11.0-3.30","","null","","<div class='respPicDiv'><img src='img/responseButtonOffersNo0_wht.png' class='respPic'></div><div class='trialDiv'><img src='Fruit/cherrie.png'><br><font class='baseline'><strong>Cherry Chances</strong><p><strong><font class='negOutcome'>You LOST</font><p>You bet: 5</strong></font> &nbsp; &nbsp; &nbsp; &nbsp; &nbsp; &nbsp;<font class='negOutcome'>You receive: <strong>0</strong></font></div>","null","11","Cherry Chances","Fruit/cherrie.png","Lost","0.8,0.35","8","0.8","138","31","",""
"","","","decision","","63eafad399e87039254d1078","bdp_rwlrn","Tue Mar 14 2023 11:56:50 GMT-0600 (Central Standard Time)","343054","Trustworthy,Untrustworthy","html-keyboard-response","103","149938","0.0-11.0-1.31","","424","","<div class='trialDiv'><img src='Fruit/papayas.png'><br><font class='baseline'><strong>Papaya Payday</strong><p>Choose number of points to bet.</font><div class='respPicDiv'><img src='img/responseButtonOffersNo0L.png' class='respPic'></div></div>","5","11","Papaya Payday","Fruit/papayas.png","Won","0.2,0.8","12","0.2","143","32","",""
"","","","decisionFB","","63eafad399e87039254d1078","bdp_rwlrn","Tue Mar 14 2023 11:56:50 GMT-0600 (Central Standard Time)","343054","Trustworthy,Untrustworthy","html-keyboard-response","104","150198","0.0-11.0-2.31","","null","","<div class='trialDiv'><img src='Fruit/papayas.png'><br><font class='baseline'><strong>Papaya Payday</strong><p>Choose number of points to bet.</font><div class='respPicDiv'><img src='img/responseButtonOffersNo0L5.png' class='respPic'></div></div>","null","11","Papaya Payday","Fruit/papayas.png","Won","0.2,0.8","12","0.2","138","32","",""
"","","","feedback","","63eafad399e87039254d1078","bdp_rwlrn","Tue Mar 14 2023 11:56:50 GMT-0600 (Central Standard Time)","343054","Trustworthy,Untrustworthy","html-keyboard-response","105","151212","0.0-11.0-3.31","","null","","<div class='respPicDiv'><img src='img/responseButtonOffersNo0_wht.png' class='respPic'></div><div class='trialDiv'><img src='Fruit/papayas.png'><br><font class='baseline'><strong>Papaya Payday</strong><p><strong><font class='posOutcome'>You WON</font><p>You bet: 5</strong></font> &nbsp; &nbsp; &nbsp; &nbsp; &nbsp; &nbsp;<font class='posOutcome'>you receive: <strong>10</strong></font></div>","null","11","Papaya Payday","Fruit/papayas.png","Won","0.2,0.8","12","0.2","148","32","",""
"","","","decision","","63eafad399e87039254d1078","bdp_rwlrn","Tue Mar 14 2023 11:56:50 GMT-0600 (Central Standard Time)","343054","Trustworthy,Untrustworthy","html-keyboard-response","106","151410","0.0-11.0-1.32","","197","","<div class='trialDiv'><img src='Fruit/pineapple.png'><br><font class='baseline'><strong>Primo Pineapple</strong><p>Choose number of points to bet.</font><div class='respPicDiv'><img src='img/responseButtonOffersNo0L.png' class='respPic'></div></div>","2","11","Primo Pineapple","Fruit/pineapple.png","Won","0.35,0.8","10","0.35","153","33","",""
"","","","decisionFB","","63eafad399e87039254d1078","bdp_rwlrn","Tue Mar 14 2023 11:56:50 GMT-0600 (Central Standard Time)","343054","Trustworthy,Untrustworthy","html-keyboard-response","107","151663","0.0-11.0-2.32","","null","","<div class='trialDiv'><img src='Fruit/pineapple.png'><br><font class='baseline'><strong>Primo Pineapple</strong><p>Choose number of points to bet.</font><div class='respPicDiv'><img src='img/responseButtonOffersNo0L2.png' class='respPic'></div></div>","null","11","Primo Pineapple","Fruit/pineapple.png","Won","0.35,0.8","10","0.35","151","33","",""
"","","","feedback","","63eafad399e87039254d1078","bdp_rwlrn","Tue Mar 14 2023 11:56:50 GMT-0600 (Central Standard Time)","343054","Trustworthy,Untrustworthy","html-keyboard-response","108","152667","0.0-11.0-3.32","","null","","<div class='respPicDiv'><img src='img/responseButtonOffersNo0_wht.png' class='respPic'></div><div class='trialDiv'><img src='Fruit/pineapple.png'><br><font class='baseline'><strong>Primo Pineapple</strong><p><strong><font class='posOutcome'>You WON</font><p>You bet: 2</strong></font> &nbsp; &nbsp; &nbsp; &nbsp; &nbsp; &nbsp;<font class='posOutcome'>you receive: <strong>4</strong></font></div>","null","11","Primo Pineapple","Fruit/pineapple.png","Won","0.35,0.8","10","0.35","155","33","",""
"","","","decision","","63eafad399e87039254d1078","bdp_rwlrn","Tue Mar 14 2023 11:56:50 GMT-0600 (Central Standard Time)","343054","Trustworthy,Untrustworthy","html-keyboard-response","109","152906","0.0-11.0-1.33","","237","","<div class='trialDiv'><img src='Fruit/papayas.png'><br><font class='baseline'><strong>Papaya Payday</strong><p>Choose number of points to bet.</font><div class='respPicDiv'><img src='img/responseButtonOffersNo0L.png' class='respPic'></div></div>","3","12","Papaya Payday","Fruit/papayas.png","Won","0.2,0.8","12","0.2","160","34","",""
"","","","decisionFB","","63eafad399e87039254d1078","bdp_rwlrn","Tue Mar 14 2023 11:56:50 GMT-0600 (Central Standard Time)","343054","Trustworthy,Untrustworthy","html-keyboard-response","110","153166","0.0-11.0-2.33","","null","","<div class='trialDiv'><img src='Fruit/papayas.png'><br><font class='baseline'><strong>Papaya Payday</strong><p>Choose number of points to bet.</font><div class='respPicDiv'><img src='img/responseButtonOffersNo0L3.png' class='respPic'></div></div>","null","12","Papaya Payday","Fruit/papayas.png","Won","0.2,0.8","12","0.2","157","34","",""
"","","","feedback","","63eafad399e87039254d1078","bdp_rwlrn","Tue Mar 14 2023 11:56:50 GMT-0600 (Central Standard Time)","343054","Trustworthy,Untrustworthy","html-keyboard-response","111","154173","0.0-11.0-3.33","","null","","<div class='respPicDiv'><img src='img/responseButtonOffersNo0_wht.png' class='respPic'></div><div class='trialDiv'><img src='Fruit/papayas.png'><br><font class='baseline'><strong>Papaya Payday</strong><p><strong><font class='posOutcome'>You WON</font><p>You bet: 3</strong></font> &nbsp; &nbsp; &nbsp; &nbsp; &nbsp; &nbsp;<font class='posOutcome'>you receive: <strong>6</strong></font></div>","null","12","Papaya Payday","Fruit/papayas.png","Won","0.2,0.8","12","0.2","163","34","",""
"","","","decision","","63eafad399e87039254d1078","bdp_rwlrn","Tue Mar 14 2023 11:56:50 GMT-0600 (Central Standard Time)","343054","Trustworthy,Untrustworthy","html-keyboard-response","112","155050","0.0-11.0-1.34","","876","","<div class='trialDiv'><img src='Fruit/cherrie.png'><br><font class='baseline'><strong>Cherry Chances</strong><p>Choose number of points to bet.</font><div class='respPicDiv'><img src='img/responseButtonOffersNo0L.png' class='respPic'></div></div>","5","12","Cherry Chances","Fruit/cherrie.png","Lost","0.8,0.35","8","0.8","168","35","",""
"","","","decisionFB","","63eafad399e87039254d1078","bdp_rwlrn","Tue Mar 14 2023 11:56:50 GMT-0600 (Central Standard Time)","343054","Trustworthy,Untrustworthy","html-keyboard-response","113","155304","0.0-11.0-2.34","","null","","<div class='trialDiv'><img src='Fruit/cherrie.png'><br><font class='baseline'><strong>Cherry Chances</strong><p>Choose number of points to bet.</font><div class='respPicDiv'><img src='img/responseButtonOffersNo0L5.png' class='respPic'></div></div>","null","12","Cherry Chances","Fruit/cherrie.png","Lost","0.8,0.35","8","0.8","163","35","",""
"","","","feedback","","63eafad399e87039254d1078","bdp_rwlrn","Tue Mar 14 2023 11:56:50 GMT-0600 (Central Standard Time)","343054","Trustworthy,Untrustworthy","html-keyboard-response","114","156317","0.0-11.0-3.34","","null","","<div class='respPicDiv'><img src='img/responseButtonOffersNo0_wht.png' class='respPic'></div><div class='trialDiv'><img src='Fruit/cherrie.png'><br><font class='baseline'><strong>Cherry Chances</strong><p><strong><font class='negOutcome'>You LOST</font><p>You bet: 5</strong></font> &nbsp; &nbsp; &nbsp; &nbsp; &nbsp; &nbsp;<font class='negOutcome'>You receive: <strong>0</strong></font></div>","null","12","Cherry Chances","Fruit/cherrie.png","Lost","0.8,0.35","8","0.8","163","35","",""
"","","","decision","","63eafad399e87039254d1078","bdp_rwlrn","Tue Mar 14 2023 11:56:50 GMT-0600 (Central Standard Time)","343054","Trustworthy,Untrustworthy","html-keyboard-response","115","156386","0.0-11.0-1.35","","67","","<div class='trialDiv'><img src='Fruit/pineapple.png'><br><font class='baseline'><strong>Primo Pineapple</strong><p>Choose number of points to bet.</font><div class='respPicDiv'><img src='img/responseButtonOffersNo0L.png' class='respPic'></div></div>","1","12","Primo Pineapple","Fruit/pineapple.png","Won","0.35,0.8","10","0.35","168","36","",""
"","","","decisionFB","","63eafad399e87039254d1078","bdp_rwlrn","Tue Mar 14 2023 11:56:50 GMT-0600 (Central Standard Time)","343054","Trustworthy,Untrustworthy","html-keyboard-response","116","156646","0.0-11.0-2.35","","null","","<div class='trialDiv'><img src='Fruit/pineapple.png'><br><font class='baseline'><strong>Primo Pineapple</strong><p>Choose number of points to bet.</font><div class='respPicDiv'><img src='img/responseButtonOffersNo0L1.png' class='respPic'></div></div>","null","12","Primo Pineapple","Fruit/pineapple.png","Won","0.35,0.8","10","0.35","167","36","",""
"","","","feedback","","63eafad399e87039254d1078","bdp_rwlrn","Tue Mar 14 2023 11:56:50 GMT-0600 (Central Standard Time)","343054","Trustworthy,Untrustworthy","html-keyboard-response","117","157663","0.0-11.0-3.35","","null","","<div class='respPicDiv'><img src='img/responseButtonOffersNo0_wht.png' class='respPic'></div><div class='trialDiv'><img src='Fruit/pineapple.png'><br><font class='baseline'><strong>Primo Pineapple</strong><p><strong><font class='posOutcome'>You WON</font><p>You bet: 1</strong></font> &nbsp; &nbsp; &nbsp; &nbsp; &nbsp; &nbsp;<font class='posOutcome'>you receive: <strong>2</strong></font></div>","null","12","Primo Pineapple","Fruit/pineapple.png","Won","0.35,0.8","10","0.35","169","36","",""
"","","","decision","","63eafad399e87039254d1078","bdp_rwlrn","Tue Mar 14 2023 11:56:50 GMT-0600 (Central Standard Time)","343054","Trustworthy,Untrustworthy","html-keyboard-response","118","158066","0.0-11.0-1.36","","402","","<div class='trialDiv'><img src='Fruit/papayas.png'><br><font class='baseline'><strong>Papaya Payday</strong><p>Choose number of points to bet.</font><div class='respPicDiv'><img src='img/responseButtonOffersNo0L.png' class='respPic'></div></div>","3","13","Papaya Payday","Fruit/papayas.png","Won","0.2,0.8","12","0.2","174","37","",""
"","","","decisionFB","","63eafad399e87039254d1078","bdp_rwlrn","Tue Mar 14 2023 11:56:50 GMT-0600 (Central Standard Time)","343054","Trustworthy,Untrustworthy","html-keyboard-response","119","158333","0.0-11.0-2.36","","null","","<div class='trialDiv'><img src='Fruit/papayas.png'><br><font class='baseline'><strong>Papaya Payday</strong><p>Choose number of points to bet.</font><div class='respPicDiv'><img src='img/responseButtonOffersNo0L3.png' class='respPic'></div></div>","null","13","Papaya Payday","Fruit/papayas.png","Won","0.2,0.8","12","0.2","171","37","",""
"","","","feedback","","63eafad399e87039254d1078","bdp_rwlrn","Tue Mar 14 2023 11:56:50 GMT-0600 (Central Standard Time)","343054","Trustworthy,Untrustworthy","html-keyboard-response","120","159346","0.0-11.0-3.36","","null","","<div class='respPicDiv'><img src='img/responseButtonOffersNo0_wht.png' class='respPic'></div><div class='trialDiv'><img src='Fruit/papayas.png'><br><font class='baseline'><strong>Papaya Payday</strong><p><strong><font class='posOutcome'>You WON</font><p>You bet: 3</strong></font> &nbsp; &nbsp; &nbsp; &nbsp; &nbsp; &nbsp;<font class='posOutcome'>you receive: <strong>6</strong></font></div>","null","13","Papaya Payday","Fruit/papayas.png","Won","0.2,0.8","12","0.2","177","37","",""
"","","","decision","","63eafad399e87039254d1078","bdp_rwlrn","Tue Mar 14 2023 11:56:50 GMT-0600 (Central Standard Time)","343054","Trustworthy,Untrustworthy","html-keyboard-response","121","159682","0.0-11.0-1.37","","334","","<div class='trialDiv'><img src='Fruit/cherrie.png'><br><font class='baseline'><strong>Cherry Chances</strong><p>Choose number of points to bet.</font><div class='respPicDiv'><img src='img/responseButtonOffersNo0L.png' class='respPic'></div></div>","5","13","Cherry Chances","Fruit/cherrie.png","Won","0.8,0.35","8","0.8","182","38","",""
"","","","decisionFB","","63eafad399e87039254d1078","bdp_rwlrn","Tue Mar 14 2023 11:56:50 GMT-0600 (Central Standard Time)","343054","Trustworthy,Untrustworthy","html-keyboard-response","122","159938","0.0-11.0-2.37","","null","","<div class='trialDiv'><img src='Fruit/cherrie.png'><br><font class='baseline'><strong>Cherry Chances</strong><p>Choose number of points to bet.</font><div class='respPicDiv'><img src='img/responseButtonOffersNo0L5.png' class='respPic'></div></div>","null","13","Cherry Chances","Fruit/cherrie.png","Won","0.8,0.35","8","0.8","177","38","",""
"","","","feedback","","63eafad399e87039254d1078","bdp_rwlrn","Tue Mar 14 2023 11:56:50 GMT-0600 (Central Standard Time)","343054","Trustworthy,Untrustworthy","html-keyboard-response","123","160953","0.0-11.0-3.37","","null","","<div class='respPicDiv'><img src='img/responseButtonOffersNo0_wht.png' class='respPic'></div><div class='trialDiv'><img src='Fruit/cherrie.png'><br><font class='baseline'><strong>Cherry Chances</strong><p><strong><font class='posOutcome'>You WON</font><p>You bet: 5</strong></font> &nbsp; &nbsp; &nbsp; &nbsp; &nbsp; &nbsp;<font class='posOutcome'>you receive: <strong>10</strong></font></div>","null","13","Cherry Chances","Fruit/cherrie.png","Won","0.8,0.35","8","0.8","187","38","",""
"","","","decision","","63eafad399e87039254d1078","bdp_rwlrn","Tue Mar 14 2023 11:56:50 GMT-0600 (Central Standard Time)","343054","Trustworthy,Untrustworthy","html-keyboard-response","124","161265","0.0-11.0-1.38","","310","","<div class='trialDiv'><img src='Fruit/pineapple.png'><br><font class='baseline'><strong>Primo Pineapple</strong><p>Choose number of points to bet.</font><div class='respPicDiv'><img src='img/responseButtonOffersNo0L.png' class='respPic'></div></div>","5","13","Primo Pineapple","Fruit/pineapple.png","Won","0.35,0.8","10","0.35","192","39","",""
"","","","decisionFB","","63eafad399e87039254d1078","bdp_rwlrn","Tue Mar 14 2023 11:56:50 GMT-0600 (Central Standard Time)","343054","Trustworthy,Untrustworthy","html-keyboard-response","125","161519","0.0-11.0-2.38","","null","","<div class='trialDiv'><img src='Fruit/pineapple.png'><br><font class='baseline'><strong>Primo Pineapple</strong><p>Choose number of points to bet.</font><div class='respPicDiv'><img src='img/responseButtonOffersNo0L5.png' class='respPic'></div></div>","null","13","Primo Pineapple","Fruit/pineapple.png","Won","0.35,0.8","10","0.35","187","39","",""
"","","","feedback","","63eafad399e87039254d1078","bdp_rwlrn","Tue Mar 14 2023 11:56:50 GMT-0600 (Central Standard Time)","343054","Trustworthy,Untrustworthy","html-keyboard-response","126","162531","0.0-11.0-3.38","","null","","<div class='respPicDiv'><img src='img/responseButtonOffersNo0_wht.png' class='respPic'></div><div class='trialDiv'><img src='Fruit/pineapple.png'><br><font class='baseline'><strong>Primo Pineapple</strong><p><strong><font class='posOutcome'>You WON</font><p>You bet: 5</strong></font> &nbsp; &nbsp; &nbsp; &nbsp; &nbsp; &nbsp;<font class='posOutcome'>you receive: <strong>10</strong></font></div>","null","13","Primo Pineapple","Fruit/pineapple.png","Won","0.35,0.8","10","0.35","197","39","",""
"","","","decision","","63eafad399e87039254d1078","bdp_rwlrn","Tue Mar 14 2023 11:56:50 GMT-0600 (Central Standard Time)","343054","Trustworthy,Untrustworthy","html-keyboard-response","127","162866","0.0-11.0-1.39","","333","","<div class='trialDiv'><img src='Fruit/papayas.png'><br><font class='baseline'><strong>Papaya Payday</strong><p>Choose number of points to bet.</font><div class='respPicDiv'><img src='img/responseButtonOffersNo0L.png' class='respPic'></div></div>","5","14","Papaya Payday","Fruit/papayas.png","Won","0.2,0.8","12","0.2","202","40","",""
"","","","decisionFB","","63eafad399e87039254d1078","bdp_rwlrn","Tue Mar 14 2023 11:56:50 GMT-0600 (Central Standard Time)","343054","Trustworthy,Untrustworthy","html-keyboard-response","128","163126","0.0-11.0-2.39","","null","","<div class='trialDiv'><img src='Fruit/papayas.png'><br><font class='baseline'><strong>Papaya Payday</strong><p>Choose number of points to bet.</font><div class='respPicDiv'><img src='img/responseButtonOffersNo0L5.png' class='respPic'></div></div>","null","14","Papaya Payday","Fruit/papayas.png","Won","0.2,0.8","12","0.2","197","40","",""
"","","","feedback","","63eafad399e87039254d1078","bdp_rwlrn","Tue Mar 14 2023 11:56:50 GMT-0600 (Central Standard Time)","343054","Trustworthy,Untrustworthy","html-keyboard-response","129","164140","0.0-11.0-3.39","","null","","<div class='respPicDiv'><img src='img/responseButtonOffersNo0_wht.png' class='respPic'></div><div class='trialDiv'><img src='Fruit/papayas.png'><br><font class='baseline'><strong>Papaya Payday</strong><p><strong><font class='posOutcome'>You WON</font><p>You bet: 5</strong></font> &nbsp; &nbsp; &nbsp; &nbsp; &nbsp; &nbsp;<font class='posOutcome'>you receive: <strong>10</strong></font></div>","null","14","Papaya Payday","Fruit/papayas.png","Won","0.2,0.8","12","0.2","207","40","",""
"","","","decision","","63eafad399e87039254d1078","bdp_rwlrn","Tue Mar 14 2023 11:56:50 GMT-0600 (Central Standard Time)","343054","Trustworthy,Untrustworthy","html-keyboard-response","130","164426","0.0-11.0-1.40","","286","","<div class='trialDiv'><img src='Fruit/cherrie.png'><br><font class='baseline'><strong>Cherry Chances</strong><p>Choose number of points to bet.</font><div class='respPicDiv'><img src='img/responseButtonOffersNo0L.png' class='respPic'></div></div>","5","14","Cherry Chances","Fruit/cherrie.png","Lost","0.8,0.35","8","0.8","212","41","",""
"","","","decisionFB","","63eafad399e87039254d1078","bdp_rwlrn","Tue Mar 14 2023 11:56:50 GMT-0600 (Central Standard Time)","343054","Trustworthy,Untrustworthy","html-keyboard-response","131","164686","0.0-11.0-2.40","","null","","<div class='trialDiv'><img src='Fruit/cherrie.png'><br><font class='baseline'><strong>Cherry Chances</strong><p>Choose number of points to bet.</font><div class='respPicDiv'><img src='img/responseButtonOffersNo0L5.png' class='respPic'></div></div>","null","14","Cherry Chances","Fruit/cherrie.png","Lost","0.8,0.35","8","0.8","207","41","",""
"","","","feedback","","63eafad399e87039254d1078","bdp_rwlrn","Tue Mar 14 2023 11:56:50 GMT-0600 (Central Standard Time)","343054","Trustworthy,Untrustworthy","html-keyboard-response","132","165696","0.0-11.0-3.40","","null","","<div class='respPicDiv'><img src='img/responseButtonOffersNo0_wht.png' class='respPic'></div><div class='trialDiv'><img src='Fruit/cherrie.png'><br><font class='baseline'><strong>Cherry Chances</strong><p><strong><font class='negOutcome'>You LOST</font><p>You bet: 5</strong></font> &nbsp; &nbsp; &nbsp; &nbsp; &nbsp; &nbsp;<font class='negOutcome'>You receive: <strong>0</strong></font></div>","null","14","Cherry Chances","Fruit/cherrie.png","Lost","0.8,0.35","8","0.8","207","41","",""
"","","","decision","","63eafad399e87039254d1078","bdp_rwlrn","Tue Mar 14 2023 11:56:50 GMT-0600 (Central Standard Time)","343054","Trustworthy,Untrustworthy","html-keyboard-response","133","165914","0.0-11.0-1.41","","216","","<div class='trialDiv'><img src='Fruit/pineapple.png'><br><font class='baseline'><strong>Primo Pineapple</strong><p>Choose number of points to bet.</font><div class='respPicDiv'><img src='img/responseButtonOffersNo0L.png' class='respPic'></div></div>","2","14","Primo Pineapple","Fruit/pineapple.png","Won","0.35,0.8","10","0.35","212","42","",""
"","","","decisionFB","","63eafad399e87039254d1078","bdp_rwlrn","Tue Mar 14 2023 11:56:50 GMT-0600 (Central Standard Time)","343054","Trustworthy,Untrustworthy","html-keyboard-response","134","166179","0.0-11.0-2.41","","null","","<div class='trialDiv'><img src='Fruit/pineapple.png'><br><font class='baseline'><strong>Primo Pineapple</strong><p>Choose number of points to bet.</font><div class='respPicDiv'><img src='img/responseButtonOffersNo0L2.png' class='respPic'></div></div>","null","14","Primo Pineapple","Fruit/pineapple.png","Won","0.35,0.8","10","0.35","210","42","",""
"","","","feedback","","63eafad399e87039254d1078","bdp_rwlrn","Tue Mar 14 2023 11:56:50 GMT-0600 (Central Standard Time)","343054","Trustworthy,Untrustworthy","html-keyboard-response","135","167195","0.0-11.0-3.41","","null","","<div class='respPicDiv'><img src='img/responseButtonOffersNo0_wht.png' class='respPic'></div><div class='trialDiv'><img src='Fruit/pineapple.png'><br><font class='baseline'><strong>Primo Pineapple</strong><p><strong><font class='posOutcome'>You WON</font><p>You bet: 2</strong></font> &nbsp; &nbsp; &nbsp; &nbsp; &nbsp; &nbsp;<font class='posOutcome'>you receive: <strong>4</strong></font></div>","null","14","Primo Pineapple","Fruit/pineapple.png","Won","0.35,0.8","10","0.35","214","42","",""
"","","","decision","","63eafad399e87039254d1078","bdp_rwlrn","Tue Mar 14 2023 11:56:50 GMT-0600 (Central Standard Time)","343054","Trustworthy,Untrustworthy","html-keyboard-response","136","167442","0.0-11.0-1.42","","245","","<div class='trialDiv'><img src='Fruit/papayas.png'><br><font class='baseline'><strong>Papaya Payday</strong><p>Choose number of points to bet.</font><div class='respPicDiv'><img src='img/responseButtonOffersNo0L.png' class='respPic'></div></div>","5","15","Papaya Payday","Fruit/papayas.png","Won","0.2,0.8","12","0.2","219","43","",""
"","","","decisionFB","","63eafad399e87039254d1078","bdp_rwlrn","Tue Mar 14 2023 11:56:50 GMT-0600 (Central Standard Time)","343054","Trustworthy,Untrustworthy","html-keyboard-response","137","167694","0.0-11.0-2.42","","null","","<div class='trialDiv'><img src='Fruit/papayas.png'><br><font class='baseline'><strong>Papaya Payday</strong><p>Choose number of points to bet.</font><div class='respPicDiv'><img src='img/responseButtonOffersNo0L5.png' class='respPic'></div></div>","null","15","Papaya Payday","Fruit/papayas.png","Won","0.2,0.8","12","0.2","214","43","",""
"","","","feedback","","63eafad399e87039254d1078","bdp_rwlrn","Tue Mar 14 2023 11:56:50 GMT-0600 (Central Standard Time)","343054","Trustworthy,Untrustworthy","html-keyboard-response","138","168709","0.0-11.0-3.42","","null","","<div class='respPicDiv'><img src='img/responseButtonOffersNo0_wht.png' class='respPic'></div><div class='trialDiv'><img src='Fruit/papayas.png'><br><font class='baseline'><strong>Papaya Payday</strong><p><strong><font class='posOutcome'>You WON</font><p>You bet: 5</strong></font> &nbsp; &nbsp; &nbsp; &nbsp; &nbsp; &nbsp;<font class='posOutcome'>you receive: <strong>10</strong></font></div>","null","15","Papaya Payday","Fruit/papayas.png","Won","0.2,0.8","12","0.2","224","43","",""
"","","","decision","","63eafad399e87039254d1078","bdp_rwlrn","Tue Mar 14 2023 11:56:50 GMT-0600 (Central Standard Time)","343054","Trustworthy,Untrustworthy","html-keyboard-response","139","169050","0.0-11.0-1.43","","339","","<div class='trialDiv'><img src='Fruit/pineapple.png'><br><font class='baseline'><strong>Primo Pineapple</strong><p>Choose number of points to bet.</font><div class='respPicDiv'><img src='img/responseButtonOffersNo0L.png' class='respPic'></div></div>","1","15","Primo Pineapple","Fruit/pineapple.png","Won","0.35,0.8","10","0.35","229","44","",""
"","","","decisionFB","","63eafad399e87039254d1078","bdp_rwlrn","Tue Mar 14 2023 11:56:50 GMT-0600 (Central Standard Time)","343054","Trustworthy,Untrustworthy","html-keyboard-response","140","169315","0.0-11.0-2.43","","null","","<div class='trialDiv'><img src='Fruit/pineapple.png'><br><font class='baseline'><strong>Primo Pineapple</strong><p>Choose number of points to bet.</font><div class='respPicDiv'><img src='img/responseButtonOffersNo0L1.png' class='respPic'></div></div>","null","15","Primo Pineapple","Fruit/pineapple.png","Won","0.35,0.8","10","0.35","228","44","",""
"","","","feedback","","63eafad399e87039254d1078","bdp_rwlrn","Tue Mar 14 2023 11:56:50 GMT-0600 (Central Standard Time)","343054","Trustworthy,Untrustworthy","html-keyboard-response","141","170326","0.0-11.0-3.43","","null","","<div class='respPicDiv'><img src='img/responseButtonOffersNo0_wht.png' class='respPic'></div><div class='trialDiv'><img src='Fruit/pineapple.png'><br><font class='baseline'><strong>Primo Pineapple</strong><p><strong><font class='posOutcome'>You WON</font><p>You bet: 1</strong></font> &nbsp; &nbsp; &nbsp; &nbsp; &nbsp; &nbsp;<font class='posOutcome'>you receive: <strong>2</strong></font></div>","null","15","Primo Pineapple","Fruit/pineapple.png","Won","0.35,0.8","10","0.35","230","44","",""
"","","","decision","","63eafad399e87039254d1078","bdp_rwlrn","Tue Mar 14 2023 11:56:50 GMT-0600 (Central Standard Time)","343054","Trustworthy,Untrustworthy","html-keyboard-response","142","170602","0.0-11.0-1.44","","274","","<div class='trialDiv'><img src='Fruit/cherrie.png'><br><font class='baseline'><strong>Cherry Chances</strong><p>Choose number of points to bet.</font><div class='respPicDiv'><img src='img/responseButtonOffersNo0L.png' class='respPic'></div></div>","5","15","Cherry Chances","Fruit/cherrie.png","Lost","0.8,0.35","8","0.8","235","45","",""
"","","","decisionFB","","63eafad399e87039254d1078","bdp_rwlrn","Tue Mar 14 2023 11:56:50 GMT-0600 (Central Standard Time)","343054","Trustworthy,Untrustworthy","html-keyboard-response","143","170855","0.0-11.0-2.44","","null","","<div class='trialDiv'><img src='Fruit/cherrie.png'><br><font class='baseline'><strong>Cherry Chances</strong><p>Choose number of points to bet.</font><div class='respPicDiv'><img src='img/responseButtonOffersNo0L5.png' class='respPic'></div></div>","null","15","Cherry Chances","Fruit/cherrie.png","Lost","0.8,0.35","8","0.8","230","45","",""
"","","","feedback","","63eafad399e87039254d1078","bdp_rwlrn","Tue Mar 14 2023 11:56:50 GMT-0600 (Central Standard Time)","343054","Trustworthy,Untrustworthy","html-keyboard-response","144","171872","0.0-11.0-3.44","","null","","<div class='respPicDiv'><img src='img/responseButtonOffersNo0_wht.png' class='respPic'></div><div class='trialDiv'><img src='Fruit/cherrie.png'><br><font class='baseline'><strong>Cherry Chances</strong><p><strong><font class='negOutcome'>You LOST</font><p>You bet: 5</strong></font> &nbsp; &nbsp; &nbsp; &nbsp; &nbsp; &nbsp;<font class='negOutcome'>You receive: <strong>0</strong></font></div>","null","15","Cherry Chances","Fruit/cherrie.png","Lost","0.8,0.35","8","0.8","230","45","",""
"","","","decision","","63eafad399e87039254d1078","bdp_rwlrn","Tue Mar 14 2023 11:56:50 GMT-0600 (Central Standard Time)","343054","Trustworthy,Untrustworthy","html-keyboard-response","145","172138","0.0-11.0-1.45","","264","","<div class='trialDiv'><img src='Fruit/pineapple.png'><br><font class='baseline'><strong>Primo Pineapple</strong><p>Choose number of points to bet.</font><div class='respPicDiv'><img src='img/responseButtonOffersNo0L.png' class='respPic'></div></div>","2","16","Primo Pineapple","Fruit/pineapple.png","Won","0.35,0.8","10","0.35","235","46","",""
"","","","decisionFB","","63eafad399e87039254d1078","bdp_rwlrn","Tue Mar 14 2023 11:56:50 GMT-0600 (Central Standard Time)","343054","Trustworthy,Untrustworthy","html-keyboard-response","146","172402","0.0-11.0-2.45","","null","","<div class='trialDiv'><img src='Fruit/pineapple.png'><br><font class='baseline'><strong>Primo Pineapple</strong><p>Choose number of points to bet.</font><div class='respPicDiv'><img src='img/responseButtonOffersNo0L2.png' class='respPic'></div></div>","null","16","Primo Pineapple","Fruit/pineapple.png","Won","0.35,0.8","10","0.35","233","46","",""
"","","","feedback","","63eafad399e87039254d1078","bdp_rwlrn","Tue Mar 14 2023 11:56:50 GMT-0600 (Central Standard Time)","343054","Trustworthy,Untrustworthy","html-keyboard-response","147","173416","0.0-11.0-3.45","","null","","<div class='respPicDiv'><img src='img/responseButtonOffersNo0_wht.png' class='respPic'></div><div class='trialDiv'><img src='Fruit/pineapple.png'><br><font class='baseline'><strong>Primo Pineapple</strong><p><strong><font class='posOutcome'>You WON</font><p>You bet: 2</strong></font> &nbsp; &nbsp; &nbsp; &nbsp; &nbsp; &nbsp;<font class='posOutcome'>you receive: <strong>4</strong></font></div>","null","16","Primo Pineapple","Fruit/pineapple.png","Won","0.35,0.8","10","0.35","237","46","",""
"","","","decision","","63eafad399e87039254d1078","bdp_rwlrn","Tue Mar 14 2023 11:56:50 GMT-0600 (Central Standard Time)","343054","Trustworthy,Untrustworthy","html-keyboard-response","148","173666","0.0-11.0-1.46","","247","","<div class='trialDiv'><img src='Fruit/papayas.png'><br><font class='baseline'><strong>Papaya Payday</strong><p>Choose number of points to bet.</font><div class='respPicDiv'><img src='img/responseButtonOffersNo0L.png' class='respPic'></div></div>","1","16","Papaya Payday","Fruit/papayas.png","Won","0.2,0.8","12","0.2","242","47","",""
"","","","decisionFB","","63eafad399e87039254d1078","bdp_rwlrn","Tue Mar 14 2023 11:56:50 GMT-0600 (Central Standard Time)","343054","Trustworthy,Untrustworthy","html-keyboard-response","149","173919","0.0-11.0-2.46","","null","","<div class='trialDiv'><img src='Fruit/papayas.png'><br><font class='baseline'><strong>Papaya Payday</strong><p>Choose number of points to bet.</font><div class='respPicDiv'><img src='img/responseButtonOffersNo0L1.png' class='respPic'></div></div>","null","16","Papaya Payday","Fruit/papayas.png","Won","0.2,0.8","12","0.2","241","47","",""
"","","","feedback","","63eafad399e87039254d1078","bdp_rwlrn","Tue Mar 14 2023 11:56:50 GMT-0600 (Central Standard Time)","343054","Trustworthy,Untrustworthy","html-keyboard-response","150","174930","0.0-11.0-3.46","","null","","<div class='respPicDiv'><img src='img/responseButtonOffersNo0_wht.png' class='respPic'></div><div class='trialDiv'><img src='Fruit/papayas.png'><br><font class='baseline'><strong>Papaya Payday</strong><p><strong><font class='posOutcome'>You WON</font><p>You bet: 1</strong></font> &nbsp; &nbsp; &nbsp; &nbsp; &nbsp; &nbsp;<font class='posOutcome'>you receive: <strong>2</strong></font></div>","null","16","Papaya Payday","Fruit/papayas.png","Won","0.2,0.8","12","0.2","243","47","",""
"","","","decision","","63eafad399e87039254d1078","bdp_rwlrn","Tue Mar 14 2023 11:56:50 GMT-0600 (Central Standard Time)","343054","Trustworthy,Untrustworthy","html-keyboard-response","151","175202","0.0-11.0-1.47","","270","","<div class='trialDiv'><img src='Fruit/cherrie.png'><br><font class='baseline'><strong>Cherry Chances</strong><p>Choose number of points to bet.</font><div class='respPicDiv'><img src='img/responseButtonOffersNo0L.png' class='respPic'></div></div>","5","16","Cherry Chances","Fruit/cherrie.png","Won","0.8,0.35","8","0.8","248","48","",""
"","","","decisionFB","","63eafad399e87039254d1078","bdp_rwlrn","Tue Mar 14 2023 11:56:50 GMT-0600 (Central Standard Time)","343054","Trustworthy,Untrustworthy","html-keyboard-response","152","175460","0.0-11.0-2.47","","null","","<div class='trialDiv'><img src='Fruit/cherrie.png'><br><font class='baseline'><strong>Cherry Chances</strong><p>Choose number of points to bet.</font><div class='respPicDiv'><img src='img/responseButtonOffersNo0L5.png' class='respPic'></div></div>","null","16","Cherry Chances","Fruit/cherrie.png","Won","0.8,0.35","8","0.8","243","48","",""
"","","","feedback","","63eafad399e87039254d1078","bdp_rwlrn","Tue Mar 14 2023 11:56:50 GMT-0600 (Central Standard Time)","343054","Trustworthy,Untrustworthy","html-keyboard-response","153","176476","0.0-11.0-3.47","","null","","<div class='respPicDiv'><img src='img/responseButtonOffersNo0_wht.png' class='respPic'></div><div class='trialDiv'><img src='Fruit/cherrie.png'><br><font class='baseline'><strong>Cherry Chances</strong><p><strong><font class='posOutcome'>You WON</font><p>You bet: 5</strong></font> &nbsp; &nbsp; &nbsp; &nbsp; &nbsp; &nbsp;<font class='posOutcome'>you receive: <strong>10</strong></font></div>","null","16","Cherry Chances","Fruit/cherrie.png","Won","0.8,0.35","8","0.8","253","48","",""
"","","","decision","","63eafad399e87039254d1078","bdp_rwlrn","Tue Mar 14 2023 11:56:50 GMT-0600 (Central Standard Time)","343054","Trustworthy,Untrustworthy","html-keyboard-response","154","176770","0.0-11.0-1.48","","292","","<div class='trialDiv'><img src='Fruit/pineapple.png'><br><font class='baseline'><strong>Primo Pineapple</strong><p>Choose number of points to bet.</font><div class='respPicDiv'><img src='img/responseButtonOffersNo0L.png' class='respPic'></div></div>","5","17","Primo Pineapple","Fruit/pineapple.png","Lost","0.35,0.8","10","0.35","258","49","",""
"","","","decisionFB","","63eafad399e87039254d1078","bdp_rwlrn","Tue Mar 14 2023 11:56:50 GMT-0600 (Central Standard Time)","343054","Trustworthy,Untrustworthy","html-keyboard-response","155","177036","0.0-11.0-2.48","","null","","<div class='trialDiv'><img src='Fruit/pineapple.png'><br><font class='baseline'><strong>Primo Pineapple</strong><p>Choose number of points to bet.</font><div class='respPicDiv'><img src='img/responseButtonOffersNo0L5.png' class='respPic'></div></div>","null","17","Primo Pineapple","Fruit/pineapple.png","Lost","0.35,0.8","10","0.35","253","49","",""
"","","","feedback","","63eafad399e87039254d1078","bdp_rwlrn","Tue Mar 14 2023 11:56:50 GMT-0600 (Central Standard Time)","343054","Trustworthy,Untrustworthy","html-keyboard-response","156","178051","0.0-11.0-3.48","","null","","<div class='respPicDiv'><img src='img/responseButtonOffersNo0_wht.png' class='respPic'></div><div class='trialDiv'><img src='Fruit/pineapple.png'><br><font class='baseline'><strong>Primo Pineapple</strong><p><strong><font class='negOutcome'>You LOST</font><p>You bet: 5</strong></font> &nbsp; &nbsp; &nbsp; &nbsp; &nbsp; &nbsp;<font class='negOutcome'>You receive: <strong>0</strong></font></div>","null","17","Primo Pineapple","Fruit/pineapple.png","Lost","0.35,0.8","10","0.35","253","49","",""
"","","","decision","","63eafad399e87039254d1078","bdp_rwlrn","Tue Mar 14 2023 11:56:50 GMT-0600 (Central Standard Time)","343054","Trustworthy,Untrustworthy","html-keyboard-response","157","178138","0.0-11.0-1.49","","85","","<div class='trialDiv'><img src='Fruit/papayas.png'><br><font class='baseline'><strong>Papaya Payday</strong><p>Choose number of points to bet.</font><div class='respPicDiv'><img src='img/responseButtonOffersNo0L.png' class='respPic'></div></div>","5","17","Papaya Payday","Fruit/papayas.png","Won","0.2,0.8","12","0.2","258","50","",""
"","","","decisionFB","","63eafad399e87039254d1078","bdp_rwlrn","Tue Mar 14 2023 11:56:50 GMT-0600 (Central Standard Time)","343054","Trustworthy,Untrustworthy","html-keyboard-response","158","178394","0.0-11.0-2.49","","null","","<div class='trialDiv'><img src='Fruit/papayas.png'><br><font class='baseline'><strong>Papaya Payday</strong><p>Choose number of points to bet.</font><div class='respPicDiv'><img src='img/responseButtonOffersNo0L5.png' class='respPic'></div></div>","null","17","Papaya Payday","Fruit/papayas.png","Won","0.2,0.8","12","0.2","253","50","",""
"","","","feedback","","63eafad399e87039254d1078","bdp_rwlrn","Tue Mar 14 2023 11:56:50 GMT-0600 (Central Standard Time)","343054","Trustworthy,Untrustworthy","html-keyboard-response","159","179406","0.0-11.0-3.49","","null","","<div class='respPicDiv'><img src='img/responseButtonOffersNo0_wht.png' class='respPic'></div><div class='trialDiv'><img src='Fruit/papayas.png'><br><font class='baseline'><strong>Papaya Payday</strong><p><strong><font class='posOutcome'>You WON</font><p>You bet: 5</strong></font> &nbsp; &nbsp; &nbsp; &nbsp; &nbsp; &nbsp;<font class='posOutcome'>you receive: <strong>10</strong></font></div>","null","17","Papaya Payday","Fruit/papayas.png","Won","0.2,0.8","12","0.2","263","50","",""
