"event","trial","time","trialtype","subject_id","task","startTime","totalTime","labels","trial_type","trial_index","time_elapsed","internal_node_id","view_history","rt","success","stimulus","key_press","ltround","name","fileID","outcome","lottotype","lottoswpt","lottocurrpshare","point_total","round","faceID","face"
"focus","0","0","focusevent","582009dd87f6b90001f13e40","bdp_rwlrn","Wed Mar 15 2023 13:05:00 GMT-0500 (Central Daylight Time)","380932","Trustworthy,Untrustworthy","","","","","","","","","","","","","","","","","","","",""
"","","","","582009dd87f6b90001f13e40","bdp_rwlrn","Wed Mar 15 2023 13:05:00 GMT-0500 (Central Daylight Time)","380932","Trustworthy,Untrustworthy","pavlovia","0","10","0.0-0.0","","","","","","","","","","","","","","","",""
"","","","","582009dd87f6b90001f13e40","bdp_rwlrn","Wed Mar 15 2023 13:05:00 GMT-0500 (Central Daylight Time)","380932","Trustworthy,Untrustworthy","instructions","1","5839","0.0-1.0","[{""page_index"":0,""viewing_time"":5828}]","5828","","","","","","","","","","","","","",""
"fullscreenexit","2","8176","fullscreenexit","582009dd87f6b90001f13e40","bdp_rwlrn","Wed Mar 15 2023 13:05:00 GMT-0500 (Central Daylight Time)","380932","Trustworthy,Untrustworthy","","","","","","","","","","","","","","","","","","","",""
"","","","","582009dd87f6b90001f13e40","bdp_rwlrn","Wed Mar 15 2023 13:05:00 GMT-0500 (Central Daylight Time)","380932","Trustworthy,Untrustworthy","fullscreen","2","8983","0.0-2.0","","","true","","","","","","","","","","","","",""
"","","","fullscreenfail","582009dd87f6b90001f13e40","bdp_rwlrn","Wed Mar 15 2023 13:05:00 GMT-0500 (Central Daylight Time)","380932","Trustworthy,Untrustworthy","image-keyboard-response","3","12456","0.0-3.0-0.0","","3466","","","32","","","","","","","","","","",""
"","","","","582009dd87f6b90001f13e40","bdp_rwlrn","Wed Mar 15 2023 13:05:00 GMT-0500 (Central Daylight Time)","380932","Trustworthy,Untrustworthy","instructions","4","76651","0.0-4.0","[{""page_index"":0,""viewing_time"":9959},{""page_index"":1,""viewing_time"":16586},{""page_index"":2,""viewing_time"":12970},{""page_index"":3,""viewing_time"":4590},{""page_index"":4,""viewing_time"":16052},{""page_index"":5,""viewing_time"":3770}]","63928","","","","","","","","","","","","","",""
"","","","","582009dd87f6b90001f13e40","bdp_rwlrn","Wed Mar 15 2023 13:05:00 GMT-0500 (Central Daylight Time)","380932","Trustworthy,Untrustworthy","html-keyboard-response","5","83791","0.0-5.0","","7134","","<div class='header' style='text-align:left; position: absolute; top: 5%; left: 5%;'><small>Task 1 of 5</small></div><div class='instruxDiv'><p><strong>1) What is the maximum number of points you can choose to bet on a lottery?</strong></p><p>a) 0</p><p>b) 1</p><p>c) 5</p>","C","","","","","","","","","","",""
"","","","","582009dd87f6b90001f13e40","bdp_rwlrn","Wed Mar 15 2023 13:05:00 GMT-0500 (Central Daylight Time)","380932","Trustworthy,Untrustworthy","html-keyboard-response","6","86695","0.0-6.0","","2796","","<div class='header' style='text-align:left; position: absolute; top: 5%; left: 5%;'><small>Task 1 of 5</small></div><div class='instruxDiv'><p><strong>1) What is the maximum number of points you can choose to bet on a lottery?</strong></p><p>a) 1</p><p>b) 1</p><p style='color:#00FF00'>c) 5</p><h3 style='color:#00FF00'>Correct!</h3><h3 class='center-content'>The correct response is c).</h3><h3 class='center-content'>The maximum number of points you can choose to bet on a lottery is 5 points.</h3><p><em>Press SPACEBAR to continue</em></p></div>"," ","","","","","","","","","","",""
"","","","","582009dd87f6b90001f13e40","bdp_rwlrn","Wed Mar 15 2023 13:05:00 GMT-0500 (Central Daylight Time)","380932","Trustworthy,Untrustworthy","html-keyboard-response","7","90221","0.0-7.0","","3414","","<div class='header' style='text-align:left; position: absolute; top: 5%; left: 5%;'><small>Task 1 of 5</small></div><div class='instruxDiv'><p><strong>2) How many points can you win each round?</strong></p><p>a) 10 points</p><p>b) Double what you bet</p><p>c) Quadruple what you bet</p>","B","","","","","","","","","","",""
"","","","","582009dd87f6b90001f13e40","bdp_rwlrn","Wed Mar 15 2023 13:05:00 GMT-0500 (Central Daylight Time)","380932","Trustworthy,Untrustworthy","html-keyboard-response","8","91082","0.0-8.0","","743","","<div class='header' style='text-align:left; position: absolute; top: 5%; left: 5%;'><small>Task 1 of 5</small></div><div class='instruxDiv'><p><strong>2) How many points can you win each round?</strong></p><p>a) 10 points</p><p style='color:#00FF00'>b) Double what you bet</p><p>c) Quadruple what you bet</p><h3 style='color:#00FF00'>Correct!</h3><h3 class='center-content'>The correct response is b).</h3><h3 class='center-content'>You can win double the amount of points you bet.</h3><p><em>Press SPACEBAR to continue</em></p></div>"," ","","","","","","","","","","",""
"","","","","582009dd87f6b90001f13e40","bdp_rwlrn","Wed Mar 15 2023 13:05:00 GMT-0500 (Central Daylight Time)","380932","Trustworthy,Untrustworthy","html-keyboard-response","9","96207","0.0-9.0","","null","","<div class='header' style='text-align:left; position: absolute; top: 5%; left: 5%;'><small>Task 1 of 5</small></div><div class='instruxDiv'><p>Thank you for completing the quiz<p>These are the actual lotteries you will be playing in the next block:<p><div class='tc' align='center'><img class='introPic' src='Fruit/lime.png'><br><strong>Limin' Large</strong></div><div class='bl' align='center'><img class='introPic' src='Fruit/lemon.png'><br><strong>Lucky Lemons</strong></div><div class='br' align='center'><img class='introPic' src='Fruit/pears.png'><br><strong>Pears Aplenty</strong></div></div><p>Across <strong>66 rounds</strong> you will play each lottery <strong>22 times</strong> (in random order).<p style='align:center; color:white'><font <em>Press SPACEBAR to continue</em></p>","null","","","","","","","","","","",""
"","","","","582009dd87f6b90001f13e40","bdp_rwlrn","Wed Mar 15 2023 13:05:00 GMT-0500 (Central Daylight Time)","380932","Trustworthy,Untrustworthy","instructions","10","102483","0.0-10.0","[{""page_index"":0,""viewing_time"":1762},{""page_index"":1,""viewing_time"":4512}]","6274","","","","","","","","","","","","","",""
"","","","decision","582009dd87f6b90001f13e40","bdp_rwlrn","Wed Mar 15 2023 13:05:00 GMT-0500 (Central Daylight Time)","380932","Trustworthy,Untrustworthy","html-keyboard-response","11","104025","0.0-11.0-1.0","","1424","","<div class='trialDiv'><img src='Fruit/pears.png'><br><font class='baseline'><strong>Pears Aplenty</strong><p>Choose number of points to bet.</font><div class='respPicDiv'><img src='img/responseButtonOffersNo0L.png' class='respPic'></div></div>","3","1","Pears Aplenty","Fruit/pears.png","Won","0.65,0.35","9","0.65","5","1","",""
"","","","decisionFB","582009dd87f6b90001f13e40","bdp_rwlrn","Wed Mar 15 2023 13:05:00 GMT-0500 (Central Daylight Time)","380932","Trustworthy,Untrustworthy","html-keyboard-response","12","104283","0.0-11.0-2.0","","null","","<div class='trialDiv'><img src='Fruit/pears.png'><br><font class='baseline'><strong>Pears Aplenty</strong><p>Choose number of points to bet.</font><div class='respPicDiv'><img src='img/responseButtonOffersNo0L3.png' class='respPic'></div></div>","null","1","Pears Aplenty","Fruit/pears.png","Won","0.65,0.35","9","0.65","2","1","",""
"","","","feedback","582009dd87f6b90001f13e40","bdp_rwlrn","Wed Mar 15 2023 13:05:00 GMT-0500 (Central Daylight Time)","380932","Trustworthy,Untrustworthy","html-keyboard-response","13","105297","0.0-11.0-3.0","","null","","<div class='respPicDiv'><img src='img/responseButtonOffersNo0_wht.png' class='respPic'></div><div class='trialDiv'><img src='Fruit/pears.png'><br><font class='baseline'><strong>Pears Aplenty</strong><p><strong><font class='posOutcome'>You WON</font><p>You bet: 3</strong></font> &nbsp; &nbsp; &nbsp; &nbsp; &nbsp; &nbsp;<font class='posOutcome'>you receive: <strong>6</strong></font></div>","null","1","Pears Aplenty","Fruit/pears.png","Won","0.65,0.35","9","0.65","8","1","",""
"","","","decision","582009dd87f6b90001f13e40","bdp_rwlrn","Wed Mar 15 2023 13:05:00 GMT-0500 (Central Daylight Time)","380932","Trustworthy,Untrustworthy","html-keyboard-response","14","106354","0.0-11.0-1.1","","1053","","<div class='trialDiv'><img src='Fruit/lime.png'><br><font class='baseline'><strong>Limin' Large</strong><p>Choose number of points to bet.</font><div class='respPicDiv'><img src='img/responseButtonOffersNo0L.png' class='respPic'></div></div>","2","1","Limin' Large","Fruit/lime.png","Won","0.35,0.8","12","0.35","13","2","",""
"","","","decisionFB","582009dd87f6b90001f13e40","bdp_rwlrn","Wed Mar 15 2023 13:05:00 GMT-0500 (Central Daylight Time)","380932","Trustworthy,Untrustworthy","html-keyboard-response","15","106607","0.0-11.0-2.1","","null","","<div class='trialDiv'><img src='Fruit/lime.png'><br><font class='baseline'><strong>Limin' Large</strong><p>Choose number of points to bet.</font><div class='respPicDiv'><img src='img/responseButtonOffersNo0L2.png' class='respPic'></div></div>","null","1","Limin' Large","Fruit/lime.png","Won","0.35,0.8","12","0.35","11","2","",""
"","","","feedback","582009dd87f6b90001f13e40","bdp_rwlrn","Wed Mar 15 2023 13:05:00 GMT-0500 (Central Daylight Time)","380932","Trustworthy,Untrustworthy","html-keyboard-response","16","107622","0.0-11.0-3.1","","null","","<div class='respPicDiv'><img src='img/responseButtonOffersNo0_wht.png' class='respPic'></div><div class='trialDiv'><img src='Fruit/lime.png'><br><font class='baseline'><strong>Limin' Large</strong><p><strong><font class='posOutcome'>You WON</font><p>You bet: 2</strong></font> &nbsp; &nbsp; &nbsp; &nbsp; &nbsp; &nbsp;<font class='posOutcome'>you receive: <strong>4</strong></font></div>","null","1","Limin' Large","Fruit/lime.png","Won","0.35,0.8","12","0.35","15","2","",""
"","","","decision","582009dd87f6b90001f13e40","bdp_rwlrn","Wed Mar 15 2023 13:05:00 GMT-0500 (Central Daylight Time)","380932","Trustworthy,Untrustworthy","html-keyboard-response","17","109830","0.0-11.0-1.2","","2204","","<div class='trialDiv'><img src='Fruit/lemon.png'><br><font class='baseline'><strong>Lucky Lemons</strong><p>Choose number of points to bet.</font><div class='respPicDiv'><img src='img/responseButtonOffersNo0L.png' class='respPic'></div></div>","2","1","Lucky Lemons","Fruit/lemon.png","Won","0.65,0.2","11","0.65","20","3","",""
"","","","decisionFB","582009dd87f6b90001f13e40","bdp_rwlrn","Wed Mar 15 2023 13:05:00 GMT-0500 (Central Daylight Time)","380932","Trustworthy,Untrustworthy","html-keyboard-response","18","110095","0.0-11.0-2.2","","null","","<div class='trialDiv'><img src='Fruit/lemon.png'><br><font class='baseline'><strong>Lucky Lemons</strong><p>Choose number of points to bet.</font><div class='respPicDiv'><img src='img/responseButtonOffersNo0L2.png' class='respPic'></div></div>","null","1","Lucky Lemons","Fruit/lemon.png","Won","0.65,0.2","11","0.65","18","3","",""
"","","","feedback","582009dd87f6b90001f13e40","bdp_rwlrn","Wed Mar 15 2023 13:05:00 GMT-0500 (Central Daylight Time)","380932","Trustworthy,Untrustworthy","html-keyboard-response","19","111111","0.0-11.0-3.2","","null","","<div class='respPicDiv'><img src='img/responseButtonOffersNo0_wht.png' class='respPic'></div><div class='trialDiv'><img src='Fruit/lemon.png'><br><font class='baseline'><strong>Lucky Lemons</strong><p><strong><font class='posOutcome'>You WON</font><p>You bet: 2</strong></font> &nbsp; &nbsp; &nbsp; &nbsp; &nbsp; &nbsp;<font class='posOutcome'>you receive: <strong>4</strong></font></div>","null","1","Lucky Lemons","Fruit/lemon.png","Won","0.65,0.2","11","0.65","22","3","",""
"","","","decision","582009dd87f6b90001f13e40","bdp_rwlrn","Wed Mar 15 2023 13:05:00 GMT-0500 (Central Daylight Time)","380932","Trustworthy,Untrustworthy","html-keyboard-response","20","112896","0.0-11.0-1.3","","1781","","<div class='trialDiv'><img src='Fruit/lime.png'><br><font class='baseline'><strong>Limin' Large</strong><p>Choose number of points to bet.</font><div class='respPicDiv'><img src='img/responseButtonOffersNo0L.png' class='respPic'></div></div>","3","2","Limin' Large","Fruit/lime.png","Lost","0.35,0.8","12","0.35","27","4","",""
"","","","decisionFB","582009dd87f6b90001f13e40","bdp_rwlrn","Wed Mar 15 2023 13:05:00 GMT-0500 (Central Daylight Time)","380932","Trustworthy,Untrustworthy","html-keyboard-response","21","113154","0.0-11.0-2.3","","null","","<div class='trialDiv'><img src='Fruit/lime.png'><br><font class='baseline'><strong>Limin' Large</strong><p>Choose number of points to bet.</font><div class='respPicDiv'><img src='img/responseButtonOffersNo0L3.png' class='respPic'></div></div>","null","2","Limin' Large","Fruit/lime.png","Lost","0.35,0.8","12","0.35","24","4","",""
"","","","feedback","582009dd87f6b90001f13e40","bdp_rwlrn","Wed Mar 15 2023 13:05:00 GMT-0500 (Central Daylight Time)","380932","Trustworthy,Untrustworthy","html-keyboard-response","22","114168","0.0-11.0-3.3","","null","","<div class='respPicDiv'><img src='img/responseButtonOffersNo0_wht.png' class='respPic'></div><div class='trialDiv'><img src='Fruit/lime.png'><br><font class='baseline'><strong>Limin' Large</strong><p><strong><font class='negOutcome'>You LOST</font><p>You bet: 3</strong></font> &nbsp; &nbsp; &nbsp; &nbsp; &nbsp; &nbsp;<font class='negOutcome'>You receive: <strong>0</strong></font></div>","null","2","Limin' Large","Fruit/lime.png","Lost","0.35,0.8","12","0.35","24","4","",""
"","","","decision","582009dd87f6b90001f13e40","bdp_rwlrn","Wed Mar 15 2023 13:05:00 GMT-0500 (Central Daylight Time)","380932","Trustworthy,Untrustworthy","html-keyboard-response","23","115804","0.0-11.0-1.4","","1633","","<div class='trialDiv'><img src='Fruit/pears.png'><br><font class='baseline'><strong>Pears Aplenty</strong><p>Choose number of points to bet.</font><div class='respPicDiv'><img src='img/responseButtonOffersNo0L.png' class='respPic'></div></div>","4","2","Pears Aplenty","Fruit/pears.png","Won","0.65,0.35","9","0.65","29","5","",""
"","","","decisionFB","582009dd87f6b90001f13e40","bdp_rwlrn","Wed Mar 15 2023 13:05:00 GMT-0500 (Central Daylight Time)","380932","Trustworthy,Untrustworthy","html-keyboard-response","24","116069","0.0-11.0-2.4","","null","","<div class='trialDiv'><img src='Fruit/pears.png'><br><font class='baseline'><strong>Pears Aplenty</strong><p>Choose number of points to bet.</font><div class='respPicDiv'><img src='img/responseButtonOffersNo0L4.png' class='respPic'></div></div>","null","2","Pears Aplenty","Fruit/pears.png","Won","0.65,0.35","9","0.65","25","5","",""
"","","","feedback","582009dd87f6b90001f13e40","bdp_rwlrn","Wed Mar 15 2023 13:05:00 GMT-0500 (Central Daylight Time)","380932","Trustworthy,Untrustworthy","html-keyboard-response","25","117083","0.0-11.0-3.4","","null","","<div class='respPicDiv'><img src='img/responseButtonOffersNo0_wht.png' class='respPic'></div><div class='trialDiv'><img src='Fruit/pears.png'><br><font class='baseline'><strong>Pears Aplenty</strong><p><strong><font class='posOutcome'>You WON</font><p>You bet: 4</strong></font> &nbsp; &nbsp; &nbsp; &nbsp; &nbsp; &nbsp;<font class='posOutcome'>you receive: <strong>8</strong></font></div>","null","2","Pears Aplenty","Fruit/pears.png","Won","0.65,0.35","9","0.65","33","5","",""
"","","","decision","582009dd87f6b90001f13e40","bdp_rwlrn","Wed Mar 15 2023 13:05:00 GMT-0500 (Central Daylight Time)","380932","Trustworthy,Untrustworthy","html-keyboard-response","26","118432","0.0-11.0-1.5","","1347","","<div class='trialDiv'><img src='Fruit/lemon.png'><br><font class='baseline'><strong>Lucky Lemons</strong><p>Choose number of points to bet.</font><div class='respPicDiv'><img src='img/responseButtonOffersNo0L.png' class='respPic'></div></div>","3","2","Lucky Lemons","Fruit/lemon.png","Won","0.65,0.2","11","0.65","38","6","",""
"","","","decisionFB","582009dd87f6b90001f13e40","bdp_rwlrn","Wed Mar 15 2023 13:05:00 GMT-0500 (Central Daylight Time)","380932","Trustworthy,Untrustworthy","html-keyboard-response","27","118698","0.0-11.0-2.5","","null","","<div class='trialDiv'><img src='Fruit/lemon.png'><br><font class='baseline'><strong>Lucky Lemons</strong><p>Choose number of points to bet.</font><div class='respPicDiv'><img src='img/responseButtonOffersNo0L3.png' class='respPic'></div></div>","null","2","Lucky Lemons","Fruit/lemon.png","Won","0.65,0.2","11","0.65","35","6","",""
"","","","feedback","582009dd87f6b90001f13e40","bdp_rwlrn","Wed Mar 15 2023 13:05:00 GMT-0500 (Central Daylight Time)","380932","Trustworthy,Untrustworthy","html-keyboard-response","28","119714","0.0-11.0-3.5","","null","","<div class='respPicDiv'><img src='img/responseButtonOffersNo0_wht.png' class='respPic'></div><div class='trialDiv'><img src='Fruit/lemon.png'><br><font class='baseline'><strong>Lucky Lemons</strong><p><strong><font class='posOutcome'>You WON</font><p>You bet: 3</strong></font> &nbsp; &nbsp; &nbsp; &nbsp; &nbsp; &nbsp;<font class='posOutcome'>you receive: <strong>6</strong></font></div>","null","2","Lucky Lemons","Fruit/lemon.png","Won","0.65,0.2","11","0.65","41","6","",""
"","","","decision","582009dd87f6b90001f13e40","bdp_rwlrn","Wed Mar 15 2023 13:05:00 GMT-0500 (Central Daylight Time)","380932","Trustworthy,Untrustworthy","html-keyboard-response","29","120755","0.0-11.0-1.6","","1037","","<div class='trialDiv'><img src='Fruit/lime.png'><br><font class='baseline'><strong>Limin' Large</strong><p>Choose number of points to bet.</font><div class='respPicDiv'><img src='img/responseButtonOffersNo0L.png' class='respPic'></div></div>","2","3","Limin' Large","Fruit/lime.png","Lost","0.35,0.8","12","0.35","46","7","",""
"","","","decisionFB","582009dd87f6b90001f13e40","bdp_rwlrn","Wed Mar 15 2023 13:05:00 GMT-0500 (Central Daylight Time)","380932","Trustworthy,Untrustworthy","html-keyboard-response","30","121019","0.0-11.0-2.6","","null","","<div class='trialDiv'><img src='Fruit/lime.png'><br><font class='baseline'><strong>Limin' Large</strong><p>Choose number of points to bet.</font><div class='respPicDiv'><img src='img/responseButtonOffersNo0L2.png' class='respPic'></div></div>","null","3","Limin' Large","Fruit/lime.png","Lost","0.35,0.8","12","0.35","44","7","",""
"","","","feedback","582009dd87f6b90001f13e40","bdp_rwlrn","Wed Mar 15 2023 13:05:00 GMT-0500 (Central Daylight Time)","380932","Trustworthy,Untrustworthy","html-keyboard-response","31","122032","0.0-11.0-3.6","","null","","<div class='respPicDiv'><img src='img/responseButtonOffersNo0_wht.png' class='respPic'></div><div class='trialDiv'><img src='Fruit/lime.png'><br><font class='baseline'><strong>Limin' Large</strong><p><strong><font class='negOutcome'>You LOST</font><p>You bet: 2</strong></font> &nbsp; &nbsp; &nbsp; &nbsp; &nbsp; &nbsp;<font class='negOutcome'>You receive: <strong>0</strong></font></div>","null","3","Limin' Large","Fruit/lime.png","Lost","0.35,0.8","12","0.35","44","7","",""
"","","","decision","582009dd87f6b90001f13e40","bdp_rwlrn","Wed Mar 15 2023 13:05:00 GMT-0500 (Central Daylight Time)","380932","Trustworthy,Untrustworthy","html-keyboard-response","32","124477","0.0-11.0-1.7","","2442","","<div class='trialDiv'><img src='Fruit/pears.png'><br><font class='baseline'><strong>Pears Aplenty</strong><p>Choose number of points to bet.</font><div class='respPicDiv'><img src='img/responseButtonOffersNo0L.png' class='respPic'></div></div>","3","3","Pears Aplenty","Fruit/pears.png","Won","0.65,0.35","9","0.65","49","8","",""
"","","","decisionFB","582009dd87f6b90001f13e40","bdp_rwlrn","Wed Mar 15 2023 13:05:00 GMT-0500 (Central Daylight Time)","380932","Trustworthy,Untrustworthy","html-keyboard-response","33","124736","0.0-11.0-2.7","","null","","<div class='trialDiv'><img src='Fruit/pears.png'><br><font class='baseline'><strong>Pears Aplenty</strong><p>Choose number of points to bet.</font><div class='respPicDiv'><img src='img/responseButtonOffersNo0L3.png' class='respPic'></div></div>","null","3","Pears Aplenty","Fruit/pears.png","Won","0.65,0.35","9","0.65","46","8","",""
"","","","feedback","582009dd87f6b90001f13e40","bdp_rwlrn","Wed Mar 15 2023 13:05:00 GMT-0500 (Central Daylight Time)","380932","Trustworthy,Untrustworthy","html-keyboard-response","34","125749","0.0-11.0-3.7","","null","","<div class='respPicDiv'><img src='img/responseButtonOffersNo0_wht.png' class='respPic'></div><div class='trialDiv'><img src='Fruit/pears.png'><br><font class='baseline'><strong>Pears Aplenty</strong><p><strong><font class='posOutcome'>You WON</font><p>You bet: 3</strong></font> &nbsp; &nbsp; &nbsp; &nbsp; &nbsp; &nbsp;<font class='posOutcome'>you receive: <strong>6</strong></font></div>","null","3","Pears Aplenty","Fruit/pears.png","Won","0.65,0.35","9","0.65","52","8","",""
"","","","decision","582009dd87f6b90001f13e40","bdp_rwlrn","Wed Mar 15 2023 13:05:00 GMT-0500 (Central Daylight Time)","380932","Trustworthy,Untrustworthy","html-keyboard-response","35","126570","0.0-11.0-1.8","","817","","<div class='trialDiv'><img src='Fruit/lemon.png'><br><font class='baseline'><strong>Lucky Lemons</strong><p>Choose number of points to bet.</font><div class='respPicDiv'><img src='img/responseButtonOffersNo0L.png' class='respPic'></div></div>","3","3","Lucky Lemons","Fruit/lemon.png","Won","0.65,0.2","11","0.65","57","9","",""
"","","","decisionFB","582009dd87f6b90001f13e40","bdp_rwlrn","Wed Mar 15 2023 13:05:00 GMT-0500 (Central Daylight Time)","380932","Trustworthy,Untrustworthy","html-keyboard-response","36","126824","0.0-11.0-2.8","","null","","<div class='trialDiv'><img src='Fruit/lemon.png'><br><font class='baseline'><strong>Lucky Lemons</strong><p>Choose number of points to bet.</font><div class='respPicDiv'><img src='img/responseButtonOffersNo0L3.png' class='respPic'></div></div>","null","3","Lucky Lemons","Fruit/lemon.png","Won","0.65,0.2","11","0.65","54","9","",""
"","","","feedback","582009dd87f6b90001f13e40","bdp_rwlrn","Wed Mar 15 2023 13:05:00 GMT-0500 (Central Daylight Time)","380932","Trustworthy,Untrustworthy","html-keyboard-response","37","127839","0.0-11.0-3.8","","null","","<div class='respPicDiv'><img src='img/responseButtonOffersNo0_wht.png' class='respPic'></div><div class='trialDiv'><img src='Fruit/lemon.png'><br><font class='baseline'><strong>Lucky Lemons</strong><p><strong><font class='posOutcome'>You WON</font><p>You bet: 3</strong></font> &nbsp; &nbsp; &nbsp; &nbsp; &nbsp; &nbsp;<font class='posOutcome'>you receive: <strong>6</strong></font></div>","null","3","Lucky Lemons","Fruit/lemon.png","Won","0.65,0.2","11","0.65","60","9","",""
"","","","decision","582009dd87f6b90001f13e40","bdp_rwlrn","Wed Mar 15 2023 13:05:00 GMT-0500 (Central Daylight Time)","380932","Trustworthy,Untrustworthy","html-keyboard-response","38","129757","0.0-11.0-1.9","","1915","","<div class='trialDiv'><img src='Fruit/pears.png'><br><font class='baseline'><strong>Pears Aplenty</strong><p>Choose number of points to bet.</font><div class='respPicDiv'><img src='img/responseButtonOffersNo0L.png' class='respPic'></div></div>","5","4","Pears Aplenty","Fruit/pears.png","Lost","0.65,0.35","9","0.65","65","10","",""
"","","","decisionFB","582009dd87f6b90001f13e40","bdp_rwlrn","Wed Mar 15 2023 13:05:00 GMT-0500 (Central Daylight Time)","380932","Trustworthy,Untrustworthy","html-keyboard-response","39","130024","0.0-11.0-2.9","","null","","<div class='trialDiv'><img src='Fruit/pears.png'><br><font class='baseline'><strong>Pears Aplenty</strong><p>Choose number of points to bet.</font><div class='respPicDiv'><img src='img/responseButtonOffersNo0L5.png' class='respPic'></div></div>","null","4","Pears Aplenty","Fruit/pears.png","Lost","0.65,0.35","9","0.65","60","10","",""
"","","","feedback","582009dd87f6b90001f13e40","bdp_rwlrn","Wed Mar 15 2023 13:05:00 GMT-0500 (Central Daylight Time)","380932","Trustworthy,Untrustworthy","html-keyboard-response","40","131037","0.0-11.0-3.9","","null","","<div class='respPicDiv'><img src='img/responseButtonOffersNo0_wht.png' class='respPic'></div><div class='trialDiv'><img src='Fruit/pears.png'><br><font class='baseline'><strong>Pears Aplenty</strong><p><strong><font class='negOutcome'>You LOST</font><p>You bet: 5</strong></font> &nbsp; &nbsp; &nbsp; &nbsp; &nbsp; &nbsp;<font class='negOutcome'>You receive: <strong>0</strong></font></div>","null","4","Pears Aplenty","Fruit/pears.png","Lost","0.65,0.35","9","0.65","60","10","",""
"","","","decision","582009dd87f6b90001f13e40","bdp_rwlrn","Wed Mar 15 2023 13:05:00 GMT-0500 (Central Daylight Time)","380932","Trustworthy,Untrustworthy","html-keyboard-response","41","132025","0.0-11.0-1.10","","984","","<div class='trialDiv'><img src='Fruit/lime.png'><br><font class='baseline'><strong>Limin' Large</strong><p>Choose number of points to bet.</font><div class='respPicDiv'><img src='img/responseButtonOffersNo0L.png' class='respPic'></div></div>","5","4","Limin' Large","Fruit/lime.png","Won","0.35,0.8","12","0.35","65","11","",""
"","","","decisionFB","582009dd87f6b90001f13e40","bdp_rwlrn","Wed Mar 15 2023 13:05:00 GMT-0500 (Central Daylight Time)","380932","Trustworthy,Untrustworthy","html-keyboard-response","42","132280","0.0-11.0-2.10","","null","","<div class='trialDiv'><img src='Fruit/lime.png'><br><font class='baseline'><strong>Limin' Large</strong><p>Choose number of points to bet.</font><div class='respPicDiv'><img src='img/responseButtonOffersNo0L5.png' class='respPic'></div></div>","null","4","Limin' Large","Fruit/lime.png","Won","0.35,0.8","12","0.35","60","11","",""
"","","","feedback","582009dd87f6b90001f13e40","bdp_rwlrn","Wed Mar 15 2023 13:05:00 GMT-0500 (Central Daylight Time)","380932","Trustworthy,Untrustworthy","html-keyboard-response","43","133292","0.0-11.0-3.10","","null","","<div class='respPicDiv'><img src='img/responseButtonOffersNo0_wht.png' class='respPic'></div><div class='trialDiv'><img src='Fruit/lime.png'><br><font class='baseline'><strong>Limin' Large</strong><p><strong><font class='posOutcome'>You WON</font><p>You bet: 5</strong></font> &nbsp; &nbsp; &nbsp; &nbsp; &nbsp; &nbsp;<font class='posOutcome'>you receive: <strong>10</strong></font></div>","null","4","Limin' Large","Fruit/lime.png","Won","0.35,0.8","12","0.35","70","11","",""
"","","","decision","582009dd87f6b90001f13e40","bdp_rwlrn","Wed Mar 15 2023 13:05:00 GMT-0500 (Central Daylight Time)","380932","Trustworthy,Untrustworthy","html-keyboard-response","44","133951","0.0-11.0-1.11","","657","","<div class='trialDiv'><img src='Fruit/lemon.png'><br><font class='baseline'><strong>Lucky Lemons</strong><p>Choose number of points to bet.</font><div class='respPicDiv'><img src='img/responseButtonOffersNo0L.png' class='respPic'></div></div>","4","4","Lucky Lemons","Fruit/lemon.png","Won","0.65,0.2","11","0.65","75","12","",""
"","","","decisionFB","582009dd87f6b90001f13e40","bdp_rwlrn","Wed Mar 15 2023 13:05:00 GMT-0500 (Central Daylight Time)","380932","Trustworthy,Untrustworthy","html-keyboard-response","45","134214","0.0-11.0-2.11","","null","","<div class='trialDiv'><img src='Fruit/lemon.png'><br><font class='baseline'><strong>Lucky Lemons</strong><p>Choose number of points to bet.</font><div class='respPicDiv'><img src='img/responseButtonOffersNo0L4.png' class='respPic'></div></div>","null","4","Lucky Lemons","Fruit/lemon.png","Won","0.65,0.2","11","0.65","71","12","",""
"","","","feedback","582009dd87f6b90001f13e40","bdp_rwlrn","Wed Mar 15 2023 13:05:00 GMT-0500 (Central Daylight Time)","380932","Trustworthy,Untrustworthy","html-keyboard-response","46","135230","0.0-11.0-3.11","","null","","<div class='respPicDiv'><img src='img/responseButtonOffersNo0_wht.png' class='respPic'></div><div class='trialDiv'><img src='Fruit/lemon.png'><br><font class='baseline'><strong>Lucky Lemons</strong><p><strong><font class='posOutcome'>You WON</font><p>You bet: 4</strong></font> &nbsp; &nbsp; &nbsp; &nbsp; &nbsp; &nbsp;<font class='posOutcome'>you receive: <strong>8</strong></font></div>","null","4","Lucky Lemons","Fruit/lemon.png","Won","0.65,0.2","11","0.65","79","12","",""
"","","","decision","582009dd87f6b90001f13e40","bdp_rwlrn","Wed Mar 15 2023 13:05:00 GMT-0500 (Central Daylight Time)","380932","Trustworthy,Untrustworthy","html-keyboard-response","47","135443","0.0-11.0-1.12","","211","","<div class='trialDiv'><img src='Fruit/lime.png'><br><font class='baseline'><strong>Limin' Large</strong><p>Choose number of points to bet.</font><div class='respPicDiv'><img src='img/responseButtonOffersNo0L.png' class='respPic'></div></div>","3","5","Limin' Large","Fruit/lime.png","Won","0.35,0.8","12","0.35","84","13","",""
"","","","decisionFB","582009dd87f6b90001f13e40","bdp_rwlrn","Wed Mar 15 2023 13:05:00 GMT-0500 (Central Daylight Time)","380932","Trustworthy,Untrustworthy","html-keyboard-response","48","135705","0.0-11.0-2.12","","null","","<div class='trialDiv'><img src='Fruit/lime.png'><br><font class='baseline'><strong>Limin' Large</strong><p>Choose number of points to bet.</font><div class='respPicDiv'><img src='img/responseButtonOffersNo0L3.png' class='respPic'></div></div>","null","5","Limin' Large","Fruit/lime.png","Won","0.35,0.8","12","0.35","81","13","",""
"","","","feedback","582009dd87f6b90001f13e40","bdp_rwlrn","Wed Mar 15 2023 13:05:00 GMT-0500 (Central Daylight Time)","380932","Trustworthy,Untrustworthy","html-keyboard-response","49","136720","0.0-11.0-3.12","","null","","<div class='respPicDiv'><img src='img/responseButtonOffersNo0_wht.png' class='respPic'></div><div class='trialDiv'><img src='Fruit/lime.png'><br><font class='baseline'><strong>Limin' Large</strong><p><strong><font class='posOutcome'>You WON</font><p>You bet: 3</strong></font> &nbsp; &nbsp; &nbsp; &nbsp; &nbsp; &nbsp;<font class='posOutcome'>you receive: <strong>6</strong></font></div>","null","5","Limin' Large","Fruit/lime.png","Won","0.35,0.8","12","0.35","87","13","",""
"","","","decision","582009dd87f6b90001f13e40","bdp_rwlrn","Wed Mar 15 2023 13:05:00 GMT-0500 (Central Daylight Time)","380932","Trustworthy,Untrustworthy","html-keyboard-response","50","137449","0.0-11.0-1.13","","726","","<div class='trialDiv'><img src='Fruit/lemon.png'><br><font class='baseline'><strong>Lucky Lemons</strong><p>Choose number of points to bet.</font><div class='respPicDiv'><img src='img/responseButtonOffersNo0L.png' class='respPic'></div></div>","3","5","Lucky Lemons","Fruit/lemon.png","Won","0.65,0.2","11","0.65","92","14","",""
"","","","decisionFB","582009dd87f6b90001f13e40","bdp_rwlrn","Wed Mar 15 2023 13:05:00 GMT-0500 (Central Daylight Time)","380932","Trustworthy,Untrustworthy","html-keyboard-response","51","137717","0.0-11.0-2.13","","null","","<div class='trialDiv'><img src='Fruit/lemon.png'><br><font class='baseline'><strong>Lucky Lemons</strong><p>Choose number of points to bet.</font><div class='respPicDiv'><img src='img/responseButtonOffersNo0L3.png' class='respPic'></div></div>","null","5","Lucky Lemons","Fruit/lemon.png","Won","0.65,0.2","11","0.65","89","14","",""
"","","","feedback","582009dd87f6b90001f13e40","bdp_rwlrn","Wed Mar 15 2023 13:05:00 GMT-0500 (Central Daylight Time)","380932","Trustworthy,Untrustworthy","html-keyboard-response","52","138734","0.0-11.0-3.13","","null","","<div class='respPicDiv'><img src='img/responseButtonOffersNo0_wht.png' class='respPic'></div><div class='trialDiv'><img src='Fruit/lemon.png'><br><font class='baseline'><strong>Lucky Lemons</strong><p><strong><font class='posOutcome'>You WON</font><p>You bet: 3</strong></font> &nbsp; &nbsp; &nbsp; &nbsp; &nbsp; &nbsp;<font class='posOutcome'>you receive: <strong>6</strong></font></div>","null","5","Lucky Lemons","Fruit/lemon.png","Won","0.65,0.2","11","0.65","95","14","",""
"","","","decision","582009dd87f6b90001f13e40","bdp_rwlrn","Wed Mar 15 2023 13:05:00 GMT-0500 (Central Daylight Time)","380932","Trustworthy,Untrustworthy","html-keyboard-response","53","139123","0.0-11.0-1.14","","386","","<div class='trialDiv'><img src='Fruit/pears.png'><br><font class='baseline'><strong>Pears Aplenty</strong><p>Choose number of points to bet.</font><div class='respPicDiv'><img src='img/responseButtonOffersNo0L.png' class='respPic'></div></div>","2","5","Pears Aplenty","Fruit/pears.png","Won","0.65,0.35","9","0.65","100","15","",""
"","","","decisionFB","582009dd87f6b90001f13e40","bdp_rwlrn","Wed Mar 15 2023 13:05:00 GMT-0500 (Central Daylight Time)","380932","Trustworthy,Untrustworthy","html-keyboard-response","54","139377","0.0-11.0-2.14","","null","","<div class='trialDiv'><img src='Fruit/pears.png'><br><font class='baseline'><strong>Pears Aplenty</strong><p>Choose number of points to bet.</font><div class='respPicDiv'><img src='img/responseButtonOffersNo0L2.png' class='respPic'></div></div>","null","5","Pears Aplenty","Fruit/pears.png","Won","0.65,0.35","9","0.65","98","15","",""
"","","","feedback","582009dd87f6b90001f13e40","bdp_rwlrn","Wed Mar 15 2023 13:05:00 GMT-0500 (Central Daylight Time)","380932","Trustworthy,Untrustworthy","html-keyboard-response","55","140392","0.0-11.0-3.14","","null","","<div class='respPicDiv'><img src='img/responseButtonOffersNo0_wht.png' class='respPic'></div><div class='trialDiv'><img src='Fruit/pears.png'><br><font class='baseline'><strong>Pears Aplenty</strong><p><strong><font class='posOutcome'>You WON</font><p>You bet: 2</strong></font> &nbsp; &nbsp; &nbsp; &nbsp; &nbsp; &nbsp;<font class='posOutcome'>you receive: <strong>4</strong></font></div>","null","5","Pears Aplenty","Fruit/pears.png","Won","0.65,0.35","9","0.65","102","15","",""
"","","","decision","582009dd87f6b90001f13e40","bdp_rwlrn","Wed Mar 15 2023 13:05:00 GMT-0500 (Central Daylight Time)","380932","Trustworthy,Untrustworthy","html-keyboard-response","56","141501","0.0-11.0-1.15","","1105","","<div class='trialDiv'><img src='Fruit/lime.png'><br><font class='baseline'><strong>Limin' Large</strong><p>Choose number of points to bet.</font><div class='respPicDiv'><img src='img/responseButtonOffersNo0L.png' class='respPic'></div></div>","1","6","Limin' Large","Fruit/lime.png","Lost","0.35,0.8","12","0.35","107","16","",""
"","","","decisionFB","582009dd87f6b90001f13e40","bdp_rwlrn","Wed Mar 15 2023 13:05:00 GMT-0500 (Central Daylight Time)","380932","Trustworthy,Untrustworthy","html-keyboard-response","57","141759","0.0-11.0-2.15","","null","","<div class='trialDiv'><img src='Fruit/lime.png'><br><font class='baseline'><strong>Limin' Large</strong><p>Choose number of points to bet.</font><div class='respPicDiv'><img src='img/responseButtonOffersNo0L1.png' class='respPic'></div></div>","null","6","Limin' Large","Fruit/lime.png","Lost","0.35,0.8","12","0.35","106","16","",""
"","","","feedback","582009dd87f6b90001f13e40","bdp_rwlrn","Wed Mar 15 2023 13:05:00 GMT-0500 (Central Daylight Time)","380932","Trustworthy,Untrustworthy","html-keyboard-response","58","142771","0.0-11.0-3.15","","null","","<div class='respPicDiv'><img src='img/responseButtonOffersNo0_wht.png' class='respPic'></div><div class='trialDiv'><img src='Fruit/lime.png'><br><font class='baseline'><strong>Limin' Large</strong><p><strong><font class='negOutcome'>You LOST</font><p>You bet: 1</strong></font> &nbsp; &nbsp; &nbsp; &nbsp; &nbsp; &nbsp;<font class='negOutcome'>You receive: <strong>0</strong></font></div>","null","6","Limin' Large","Fruit/lime.png","Lost","0.35,0.8","12","0.35","106","16","",""
"","","","decision","582009dd87f6b90001f13e40","bdp_rwlrn","Wed Mar 15 2023 13:05:00 GMT-0500 (Central Daylight Time)","380932","Trustworthy,Untrustworthy","html-keyboard-response","59","143647","0.0-11.0-1.16","","872","","<div class='trialDiv'><img src='Fruit/lemon.png'><br><font class='baseline'><strong>Lucky Lemons</strong><p>Choose number of points to bet.</font><div class='respPicDiv'><img src='img/responseButtonOffersNo0L.png' class='respPic'></div></div>","4","6","Lucky Lemons","Fruit/lemon.png","Won","0.65,0.2","11","0.65","111","17","",""
"","","","decisionFB","582009dd87f6b90001f13e40","bdp_rwlrn","Wed Mar 15 2023 13:05:00 GMT-0500 (Central Daylight Time)","380932","Trustworthy,Untrustworthy","html-keyboard-response","60","143908","0.0-11.0-2.16","","null","","<div class='trialDiv'><img src='Fruit/lemon.png'><br><font class='baseline'><strong>Lucky Lemons</strong><p>Choose number of points to bet.</font><div class='respPicDiv'><img src='img/responseButtonOffersNo0L4.png' class='respPic'></div></div>","null","6","Lucky Lemons","Fruit/lemon.png","Won","0.65,0.2","11","0.65","107","17","",""
"","","","feedback","582009dd87f6b90001f13e40","bdp_rwlrn","Wed Mar 15 2023 13:05:00 GMT-0500 (Central Daylight Time)","380932","Trustworthy,Untrustworthy","html-keyboard-response","61","144923","0.0-11.0-3.16","","null","","<div class='respPicDiv'><img src='img/responseButtonOffersNo0_wht.png' class='respPic'></div><div class='trialDiv'><img src='Fruit/lemon.png'><br><font class='baseline'><strong>Lucky Lemons</strong><p><strong><font class='posOutcome'>You WON</font><p>You bet: 4</strong></font> &nbsp; &nbsp; &nbsp; &nbsp; &nbsp; &nbsp;<font class='posOutcome'>you receive: <strong>8</strong></font></div>","null","6","Lucky Lemons","Fruit/lemon.png","Won","0.65,0.2","11","0.65","115","17","",""
"","","","decision","582009dd87f6b90001f13e40","bdp_rwlrn","Wed Mar 15 2023 13:05:00 GMT-0500 (Central Daylight Time)","380932","Trustworthy,Untrustworthy","html-keyboard-response","62","145566","0.0-11.0-1.17","","641","","<div class='trialDiv'><img src='Fruit/pears.png'><br><font class='baseline'><strong>Pears Aplenty</strong><p>Choose number of points to bet.</font><div class='respPicDiv'><img src='img/responseButtonOffersNo0L.png' class='respPic'></div></div>","3","6","Pears Aplenty","Fruit/pears.png","Lost","0.65,0.35","9","0.65","120","18","",""
"","","","decisionFB","582009dd87f6b90001f13e40","bdp_rwlrn","Wed Mar 15 2023 13:05:00 GMT-0500 (Central Daylight Time)","380932","Trustworthy,Untrustworthy","html-keyboard-response","63","145831","0.0-11.0-2.17","","null","","<div class='trialDiv'><img src='Fruit/pears.png'><br><font class='baseline'><strong>Pears Aplenty</strong><p>Choose number of points to bet.</font><div class='respPicDiv'><img src='img/responseButtonOffersNo0L3.png' class='respPic'></div></div>","null","6","Pears Aplenty","Fruit/pears.png","Lost","0.65,0.35","9","0.65","117","18","",""
"","","","feedback","582009dd87f6b90001f13e40","bdp_rwlrn","Wed Mar 15 2023 13:05:00 GMT-0500 (Central Daylight Time)","380932","Trustworthy,Untrustworthy","html-keyboard-response","64","146843","0.0-11.0-3.17","","null","","<div class='respPicDiv'><img src='img/responseButtonOffersNo0_wht.png' class='respPic'></div><div class='trialDiv'><img src='Fruit/pears.png'><br><font class='baseline'><strong>Pears Aplenty</strong><p><strong><font class='negOutcome'>You LOST</font><p>You bet: 3</strong></font> &nbsp; &nbsp; &nbsp; &nbsp; &nbsp; &nbsp;<font class='negOutcome'>You receive: <strong>0</strong></font></div>","null","6","Pears Aplenty","Fruit/pears.png","Lost","0.65,0.35","9","0.65","117","18","",""
"","","","decision","582009dd87f6b90001f13e40","bdp_rwlrn","Wed Mar 15 2023 13:05:00 GMT-0500 (Central Daylight Time)","380932","Trustworthy,Untrustworthy","html-keyboard-response","65","148524","0.0-11.0-1.18","","1679","","<div class='trialDiv'><img src='Fruit/lime.png'><br><font class='baseline'><strong>Limin' Large</strong><p>Choose number of points to bet.</font><div class='respPicDiv'><img src='img/responseButtonOffersNo0L.png' class='respPic'></div></div>","1","7","Limin' Large","Fruit/lime.png","Lost","0.35,0.8","12","0.35","122","19","",""
"","","","decisionFB","582009dd87f6b90001f13e40","bdp_rwlrn","Wed Mar 15 2023 13:05:00 GMT-0500 (Central Daylight Time)","380932","Trustworthy,Untrustworthy","html-keyboard-response","66","148780","0.0-11.0-2.18","","null","","<div class='trialDiv'><img src='Fruit/lime.png'><br><font class='baseline'><strong>Limin' Large</strong><p>Choose number of points to bet.</font><div class='respPicDiv'><img src='img/responseButtonOffersNo0L1.png' class='respPic'></div></div>","null","7","Limin' Large","Fruit/lime.png","Lost","0.35,0.8","12","0.35","121","19","",""
"","","","feedback","582009dd87f6b90001f13e40","bdp_rwlrn","Wed Mar 15 2023 13:05:00 GMT-0500 (Central Daylight Time)","380932","Trustworthy,Untrustworthy","html-keyboard-response","67","149794","0.0-11.0-3.18","","null","","<div class='respPicDiv'><img src='img/responseButtonOffersNo0_wht.png' class='respPic'></div><div class='trialDiv'><img src='Fruit/lime.png'><br><font class='baseline'><strong>Limin' Large</strong><p><strong><font class='negOutcome'>You LOST</font><p>You bet: 1</strong></font> &nbsp; &nbsp; &nbsp; &nbsp; &nbsp; &nbsp;<font class='negOutcome'>You receive: <strong>0</strong></font></div>","null","7","Limin' Large","Fruit/lime.png","Lost","0.35,0.8","12","0.35","121","19","",""
"","","","decision","582009dd87f6b90001f13e40","bdp_rwlrn","Wed Mar 15 2023 13:05:00 GMT-0500 (Central Daylight Time)","380932","Trustworthy,Untrustworthy","html-keyboard-response","68","151024","0.0-11.0-1.19","","1227","","<div class='trialDiv'><img src='Fruit/pears.png'><br><font class='baseline'><strong>Pears Aplenty</strong><p>Choose number of points to bet.</font><div class='respPicDiv'><img src='img/responseButtonOffersNo0L.png' class='respPic'></div></div>","1","7","Pears Aplenty","Fruit/pears.png","Won","0.65,0.35","9","0.65","126","20","",""
"","","","decisionFB","582009dd87f6b90001f13e40","bdp_rwlrn","Wed Mar 15 2023 13:05:00 GMT-0500 (Central Daylight Time)","380932","Trustworthy,Untrustworthy","html-keyboard-response","69","151283","0.0-11.0-2.19","","null","","<div class='trialDiv'><img src='Fruit/pears.png'><br><font class='baseline'><strong>Pears Aplenty</strong><p>Choose number of points to bet.</font><div class='respPicDiv'><img src='img/responseButtonOffersNo0L1.png' class='respPic'></div></div>","null","7","Pears Aplenty","Fruit/pears.png","Won","0.65,0.35","9","0.65","125","20","",""
"","","","feedback","582009dd87f6b90001f13e40","bdp_rwlrn","Wed Mar 15 2023 13:05:00 GMT-0500 (Central Daylight Time)","380932","Trustworthy,Untrustworthy","html-keyboard-response","70","152296","0.0-11.0-3.19","","null","","<div class='respPicDiv'><img src='img/responseButtonOffersNo0_wht.png' class='respPic'></div><div class='trialDiv'><img src='Fruit/pears.png'><br><font class='baseline'><strong>Pears Aplenty</strong><p><strong><font class='posOutcome'>You WON</font><p>You bet: 1</strong></font> &nbsp; &nbsp; &nbsp; &nbsp; &nbsp; &nbsp;<font class='posOutcome'>you receive: <strong>2</strong></font></div>","null","7","Pears Aplenty","Fruit/pears.png","Won","0.65,0.35","9","0.65","127","20","",""
"","","","decision","582009dd87f6b90001f13e40","bdp_rwlrn","Wed Mar 15 2023 13:05:00 GMT-0500 (Central Daylight Time)","380932","Trustworthy,Untrustworthy","html-keyboard-response","71","153594","0.0-11.0-1.20","","1295","","<div class='trialDiv'><img src='Fruit/lemon.png'><br><font class='baseline'><strong>Lucky Lemons</strong><p>Choose number of points to bet.</font><div class='respPicDiv'><img src='img/responseButtonOffersNo0L.png' class='respPic'></div></div>","5","7","Lucky Lemons","Fruit/lemon.png","Lost","0.65,0.2","11","0.65","132","21","",""
"","","","decisionFB","582009dd87f6b90001f13e40","bdp_rwlrn","Wed Mar 15 2023 13:05:00 GMT-0500 (Central Daylight Time)","380932","Trustworthy,Untrustworthy","html-keyboard-response","72","153849","0.0-11.0-2.20","","null","","<div class='trialDiv'><img src='Fruit/lemon.png'><br><font class='baseline'><strong>Lucky Lemons</strong><p>Choose number of points to bet.</font><div class='respPicDiv'><img src='img/responseButtonOffersNo0L5.png' class='respPic'></div></div>","null","7","Lucky Lemons","Fruit/lemon.png","Lost","0.65,0.2","11","0.65","127","21","",""
"","","","feedback","582009dd87f6b90001f13e40","bdp_rwlrn","Wed Mar 15 2023 13:05:00 GMT-0500 (Central Daylight Time)","380932","Trustworthy,Untrustworthy","html-keyboard-response","73","154864","0.0-11.0-3.20","","null","","<div class='respPicDiv'><img src='img/responseButtonOffersNo0_wht.png' class='respPic'></div><div class='trialDiv'><img src='Fruit/lemon.png'><br><font class='baseline'><strong>Lucky Lemons</strong><p><strong><font class='negOutcome'>You LOST</font><p>You bet: 5</strong></font> &nbsp; &nbsp; &nbsp; &nbsp; &nbsp; &nbsp;<font class='negOutcome'>You receive: <strong>0</strong></font></div>","null","7","Lucky Lemons","Fruit/lemon.png","Lost","0.65,0.2","11","0.65","127","21","",""
"","","","decision","582009dd87f6b90001f13e40","bdp_rwlrn","Wed Mar 15 2023 13:05:00 GMT-0500 (Central Daylight Time)","380932","Trustworthy,Untrustworthy","html-keyboard-response","74","155456","0.0-11.0-1.21","","590","","<div class='trialDiv'><img src='Fruit/lime.png'><br><font class='baseline'><strong>Limin' Large</strong><p>Choose number of points to bet.</font><div class='respPicDiv'><img src='img/responseButtonOffersNo0L.png' class='respPic'></div></div>","5","8","Limin' Large","Fruit/lime.png","Won","0.35,0.8","12","0.35","132","22","",""
"","","","decisionFB","582009dd87f6b90001f13e40","bdp_rwlrn","Wed Mar 15 2023 13:05:00 GMT-0500 (Central Daylight Time)","380932","Trustworthy,Untrustworthy","html-keyboard-response","75","155711","0.0-11.0-2.21","","null","","<div class='trialDiv'><img src='Fruit/lime.png'><br><font class='baseline'><strong>Limin' Large</strong><p>Choose number of points to bet.</font><div class='respPicDiv'><img src='img/responseButtonOffersNo0L5.png' class='respPic'></div></div>","null","8","Limin' Large","Fruit/lime.png","Won","0.35,0.8","12","0.35","127","22","",""
"","","","feedback","582009dd87f6b90001f13e40","bdp_rwlrn","Wed Mar 15 2023 13:05:00 GMT-0500 (Central Daylight Time)","380932","Trustworthy,Untrustworthy","html-keyboard-response","76","156727","0.0-11.0-3.21","","null","","<div class='respPicDiv'><img src='img/responseButtonOffersNo0_wht.png' class='respPic'></div><div class='trialDiv'><img src='Fruit/lime.png'><br><font class='baseline'><strong>Limin' Large</strong><p><strong><font class='posOutcome'>You WON</font><p>You bet: 5</strong></font> &nbsp; &nbsp; &nbsp; &nbsp; &nbsp; &nbsp;<font class='posOutcome'>you receive: <strong>10</strong></font></div>","null","8","Limin' Large","Fruit/lime.png","Won","0.35,0.8","12","0.35","137","22","",""
"","","","decision","582009dd87f6b90001f13e40","bdp_rwlrn","Wed Mar 15 2023 13:05:00 GMT-0500 (Central Daylight Time)","380932","Trustworthy,Untrustworthy","html-keyboard-response","77","157130","0.0-11.0-1.22","","401","","<div class='trialDiv'><img src='Fruit/pears.png'><br><font class='baseline'><strong>Pears Aplenty</strong><p>Choose number of points to bet.</font><div class='respPicDiv'><img src='img/responseButtonOffersNo0L.png' class='respPic'></div></div>","3","8","Pears Aplenty","Fruit/pears.png","Won","0.65,0.35","9","0.65","142","23","",""
"","","","decisionFB","582009dd87f6b90001f13e40","bdp_rwlrn","Wed Mar 15 2023 13:05:00 GMT-0500 (Central Daylight Time)","380932","Trustworthy,Untrustworthy","html-keyboard-response","78","157388","0.0-11.0-2.22","","null","","<div class='trialDiv'><img src='Fruit/pears.png'><br><font class='baseline'><strong>Pears Aplenty</strong><p>Choose number of points to bet.</font><div class='respPicDiv'><img src='img/responseButtonOffersNo0L3.png' class='respPic'></div></div>","null","8","Pears Aplenty","Fruit/pears.png","Won","0.65,0.35","9","0.65","139","23","",""
"","","","feedback","582009dd87f6b90001f13e40","bdp_rwlrn","Wed Mar 15 2023 13:05:00 GMT-0500 (Central Daylight Time)","380932","Trustworthy,Untrustworthy","html-keyboard-response","79","158403","0.0-11.0-3.22","","null","","<div class='respPicDiv'><img src='img/responseButtonOffersNo0_wht.png' class='respPic'></div><div class='trialDiv'><img src='Fruit/pears.png'><br><font class='baseline'><strong>Pears Aplenty</strong><p><strong><font class='posOutcome'>You WON</font><p>You bet: 3</strong></font> &nbsp; &nbsp; &nbsp; &nbsp; &nbsp; &nbsp;<font class='posOutcome'>you receive: <strong>6</strong></font></div>","null","8","Pears Aplenty","Fruit/pears.png","Won","0.65,0.35","9","0.65","145","23","",""
"","","","decision","582009dd87f6b90001f13e40","bdp_rwlrn","Wed Mar 15 2023 13:05:00 GMT-0500 (Central Daylight Time)","380932","Trustworthy,Untrustworthy","html-keyboard-response","80","159004","0.0-11.0-1.23","","598","","<div class='trialDiv'><img src='Fruit/lemon.png'><br><font class='baseline'><strong>Lucky Lemons</strong><p>Choose number of points to bet.</font><div class='respPicDiv'><img src='img/responseButtonOffersNo0L.png' class='respPic'></div></div>","3","8","Lucky Lemons","Fruit/lemon.png","Won","0.65,0.2","11","0.65","150","24","",""
"","","","decisionFB","582009dd87f6b90001f13e40","bdp_rwlrn","Wed Mar 15 2023 13:05:00 GMT-0500 (Central Daylight Time)","380932","Trustworthy,Untrustworthy","html-keyboard-response","81","159262","0.0-11.0-2.23","","null","","<div class='trialDiv'><img src='Fruit/lemon.png'><br><font class='baseline'><strong>Lucky Lemons</strong><p>Choose number of points to bet.</font><div class='respPicDiv'><img src='img/responseButtonOffersNo0L3.png' class='respPic'></div></div>","null","8","Lucky Lemons","Fruit/lemon.png","Won","0.65,0.2","11","0.65","147","24","",""
"","","","feedback","582009dd87f6b90001f13e40","bdp_rwlrn","Wed Mar 15 2023 13:05:00 GMT-0500 (Central Daylight Time)","380932","Trustworthy,Untrustworthy","html-keyboard-response","82","160277","0.0-11.0-3.23","","null","","<div class='respPicDiv'><img src='img/responseButtonOffersNo0_wht.png' class='respPic'></div><div class='trialDiv'><img src='Fruit/lemon.png'><br><font class='baseline'><strong>Lucky Lemons</strong><p><strong><font class='posOutcome'>You WON</font><p>You bet: 3</strong></font> &nbsp; &nbsp; &nbsp; &nbsp; &nbsp; &nbsp;<font class='posOutcome'>you receive: <strong>6</strong></font></div>","null","8","Lucky Lemons","Fruit/lemon.png","Won","0.65,0.2","11","0.65","153","24","",""
"","","","decision","582009dd87f6b90001f13e40","bdp_rwlrn","Wed Mar 15 2023 13:05:00 GMT-0500 (Central Daylight Time)","380932","Trustworthy,Untrustworthy","html-keyboard-response","83","161213","0.0-11.0-1.24","","933","","<div class='trialDiv'><img src='Fruit/pears.png'><br><font class='baseline'><strong>Pears Aplenty</strong><p>Choose number of points to bet.</font><div class='respPicDiv'><img src='img/responseButtonOffersNo0L.png' class='respPic'></div></div>","2","9","Pears Aplenty","Fruit/pears.png","Lost","0.65,0.35","9","0.65","158","25","",""
"","","","decisionFB","582009dd87f6b90001f13e40","bdp_rwlrn","Wed Mar 15 2023 13:05:00 GMT-0500 (Central Daylight Time)","380932","Trustworthy,Untrustworthy","html-keyboard-response","84","161477","0.0-11.0-2.24","","null","","<div class='trialDiv'><img src='Fruit/pears.png'><br><font class='baseline'><strong>Pears Aplenty</strong><p>Choose number of points to bet.</font><div class='respPicDiv'><img src='img/responseButtonOffersNo0L2.png' class='respPic'></div></div>","null","9","Pears Aplenty","Fruit/pears.png","Lost","0.65,0.35","9","0.65","156","25","",""
"","","","feedback","582009dd87f6b90001f13e40","bdp_rwlrn","Wed Mar 15 2023 13:05:00 GMT-0500 (Central Daylight Time)","380932","Trustworthy,Untrustworthy","html-keyboard-response","85","162491","0.0-11.0-3.24","","null","","<div class='respPicDiv'><img src='img/responseButtonOffersNo0_wht.png' class='respPic'></div><div class='trialDiv'><img src='Fruit/pears.png'><br><font class='baseline'><strong>Pears Aplenty</strong><p><strong><font class='negOutcome'>You LOST</font><p>You bet: 2</strong></font> &nbsp; &nbsp; &nbsp; &nbsp; &nbsp; &nbsp;<font class='negOutcome'>You receive: <strong>0</strong></font></div>","null","9","Pears Aplenty","Fruit/pears.png","Lost","0.65,0.35","9","0.65","156","25","",""
"","","","decision","582009dd87f6b90001f13e40","bdp_rwlrn","Wed Mar 15 2023 13:05:00 GMT-0500 (Central Daylight Time)","380932","Trustworthy,Untrustworthy","html-keyboard-response","86","163103","0.0-11.0-1.25","","609","","<div class='trialDiv'><img src='Fruit/lemon.png'><br><font class='baseline'><strong>Lucky Lemons</strong><p>Choose number of points to bet.</font><div class='respPicDiv'><img src='img/responseButtonOffersNo0L.png' class='respPic'></div></div>","2","9","Lucky Lemons","Fruit/lemon.png","Won","0.65,0.2","11","0.65","161","26","",""
"","","","decisionFB","582009dd87f6b90001f13e40","bdp_rwlrn","Wed Mar 15 2023 13:05:00 GMT-0500 (Central Daylight Time)","380932","Trustworthy,Untrustworthy","html-keyboard-response","87","163366","0.0-11.0-2.25","","null","","<div class='trialDiv'><img src='Fruit/lemon.png'><br><font class='baseline'><strong>Lucky Lemons</strong><p>Choose number of points to bet.</font><div class='respPicDiv'><img src='img/responseButtonOffersNo0L2.png' class='respPic'></div></div>","null","9","Lucky Lemons","Fruit/lemon.png","Won","0.65,0.2","11","0.65","159","26","",""
"","","","feedback","582009dd87f6b90001f13e40","bdp_rwlrn","Wed Mar 15 2023 13:05:00 GMT-0500 (Central Daylight Time)","380932","Trustworthy,Untrustworthy","html-keyboard-response","88","164380","0.0-11.0-3.25","","null","","<div class='respPicDiv'><img src='img/responseButtonOffersNo0_wht.png' class='respPic'></div><div class='trialDiv'><img src='Fruit/lemon.png'><br><font class='baseline'><strong>Lucky Lemons</strong><p><strong><font class='posOutcome'>You WON</font><p>You bet: 2</strong></font> &nbsp; &nbsp; &nbsp; &nbsp; &nbsp; &nbsp;<font class='posOutcome'>you receive: <strong>4</strong></font></div>","null","9","Lucky Lemons","Fruit/lemon.png","Won","0.65,0.2","11","0.65","163","26","",""
"","","","decision","582009dd87f6b90001f13e40","bdp_rwlrn","Wed Mar 15 2023 13:05:00 GMT-0500 (Central Daylight Time)","380932","Trustworthy,Untrustworthy","html-keyboard-response","89","165948","0.0-11.0-1.26","","1565","","<div class='trialDiv'><img src='Fruit/lime.png'><br><font class='baseline'><strong>Limin' Large</strong><p>Choose number of points to bet.</font><div class='respPicDiv'><img src='img/responseButtonOffersNo0L.png' class='respPic'></div></div>","3","9","Limin' Large","Fruit/lime.png","Lost","0.35,0.8","12","0.35","168","27","",""
"","","","decisionFB","582009dd87f6b90001f13e40","bdp_rwlrn","Wed Mar 15 2023 13:05:00 GMT-0500 (Central Daylight Time)","380932","Trustworthy,Untrustworthy","html-keyboard-response","90","166207","0.0-11.0-2.26","","null","","<div class='trialDiv'><img src='Fruit/lime.png'><br><font class='baseline'><strong>Limin' Large</strong><p>Choose number of points to bet.</font><div class='respPicDiv'><img src='img/responseButtonOffersNo0L3.png' class='respPic'></div></div>","null","9","Limin' Large","Fruit/lime.png","Lost","0.35,0.8","12","0.35","165","27","",""
"","","","feedback","582009dd87f6b90001f13e40","bdp_rwlrn","Wed Mar 15 2023 13:05:00 GMT-0500 (Central Daylight Time)","380932","Trustworthy,Untrustworthy","html-keyboard-response","91","167221","0.0-11.0-3.26","","null","","<div class='respPicDiv'><img src='img/responseButtonOffersNo0_wht.png' class='respPic'></div><div class='trialDiv'><img src='Fruit/lime.png'><br><font class='baseline'><strong>Limin' Large</strong><p><strong><font class='negOutcome'>You LOST</font><p>You bet: 3</strong></font> &nbsp; &nbsp; &nbsp; &nbsp; &nbsp; &nbsp;<font class='negOutcome'>You receive: <strong>0</strong></font></div>","null","9","Limin' Large","Fruit/lime.png","Lost","0.35,0.8","12","0.35","165","27","",""
"","","","decision","582009dd87f6b90001f13e40","bdp_rwlrn","Wed Mar 15 2023 13:05:00 GMT-0500 (Central Daylight Time)","380932","Trustworthy,Untrustworthy","html-keyboard-response","92","168825","0.0-11.0-1.27","","1601","","<div class='trialDiv'><img src='Fruit/pears.png'><br><font class='baseline'><strong>Pears Aplenty</strong><p>Choose number of points to bet.</font><div class='respPicDiv'><img src='img/responseButtonOffersNo0L.png' class='respPic'></div></div>","5","10","Pears Aplenty","Fruit/pears.png","Lost","0.65,0.35","9","0.65","170","28","",""
"","","","decisionFB","582009dd87f6b90001f13e40","bdp_rwlrn","Wed Mar 15 2023 13:05:00 GMT-0500 (Central Daylight Time)","380932","Trustworthy,Untrustworthy","html-keyboard-response","93","169092","0.0-11.0-2.27","","null","","<div class='trialDiv'><img src='Fruit/pears.png'><br><font class='baseline'><strong>Pears Aplenty</strong><p>Choose number of points to bet.</font><div class='respPicDiv'><img src='img/responseButtonOffersNo0L5.png' class='respPic'></div></div>","null","10","Pears Aplenty","Fruit/pears.png","Lost","0.65,0.35","9","0.65","165","28","",""
"","","","feedback","582009dd87f6b90001f13e40","bdp_rwlrn","Wed Mar 15 2023 13:05:00 GMT-0500 (Central Daylight Time)","380932","Trustworthy,Untrustworthy","html-keyboard-response","94","170108","0.0-11.0-3.27","","null","","<div class='respPicDiv'><img src='img/responseButtonOffersNo0_wht.png' class='respPic'></div><div class='trialDiv'><img src='Fruit/pears.png'><br><font class='baseline'><strong>Pears Aplenty</strong><p><strong><font class='negOutcome'>You LOST</font><p>You bet: 5</strong></font> &nbsp; &nbsp; &nbsp; &nbsp; &nbsp; &nbsp;<font class='negOutcome'>You receive: <strong>0</strong></font></div>","null","10","Pears Aplenty","Fruit/pears.png","Lost","0.65,0.35","9","0.65","165","28","",""
"","","","decision","582009dd87f6b90001f13e40","bdp_rwlrn","Wed Mar 15 2023 13:05:00 GMT-0500 (Central Daylight Time)","380932","Trustworthy,Untrustworthy","html-keyboard-response","95","171115","0.0-11.0-1.28","","1004","","<div class='trialDiv'><img src='Fruit/lime.png'><br><font class='baseline'><strong>Limin' Large</strong><p>Choose number of points to bet.</font><div class='respPicDiv'><img src='img/responseButtonOffersNo0L.png' class='respPic'></div></div>","5","10","Limin' Large","Fruit/lime.png","Lost","0.35,0.8","12","0.35","170","29","",""
"","","","decisionFB","582009dd87f6b90001f13e40","bdp_rwlrn","Wed Mar 15 2023 13:05:00 GMT-0500 (Central Daylight Time)","380932","Trustworthy,Untrustworthy","html-keyboard-response","96","171380","0.0-11.0-2.28","","null","","<div class='trialDiv'><img src='Fruit/lime.png'><br><font class='baseline'><strong>Limin' Large</strong><p>Choose number of points to bet.</font><div class='respPicDiv'><img src='img/responseButtonOffersNo0L5.png' class='respPic'></div></div>","null","10","Limin' Large","Fruit/lime.png","Lost","0.35,0.8","12","0.35","165","29","",""
"","","","feedback","582009dd87f6b90001f13e40","bdp_rwlrn","Wed Mar 15 2023 13:05:00 GMT-0500 (Central Daylight Time)","380932","Trustworthy,Untrustworthy","html-keyboard-response","97","172396","0.0-11.0-3.28","","null","","<div class='respPicDiv'><img src='img/responseButtonOffersNo0_wht.png' class='respPic'></div><div class='trialDiv'><img src='Fruit/lime.png'><br><font class='baseline'><strong>Limin' Large</strong><p><strong><font class='negOutcome'>You LOST</font><p>You bet: 5</strong></font> &nbsp; &nbsp; &nbsp; &nbsp; &nbsp; &nbsp;<font class='negOutcome'>You receive: <strong>0</strong></font></div>","null","10","Limin' Large","Fruit/lime.png","Lost","0.35,0.8","12","0.35","165","29","",""
"","","","decision","582009dd87f6b90001f13e40","bdp_rwlrn","Wed Mar 15 2023 13:05:00 GMT-0500 (Central Daylight Time)","380932","Trustworthy,Untrustworthy","html-keyboard-response","98","172956","0.0-11.0-1.29","","558","","<div class='trialDiv'><img src='Fruit/lemon.png'><br><font class='baseline'><strong>Lucky Lemons</strong><p>Choose number of points to bet.</font><div class='respPicDiv'><img src='img/responseButtonOffersNo0L.png' class='respPic'></div></div>","5","10","Lucky Lemons","Fruit/lemon.png","Lost","0.65,0.2","11","0.65","170","30","",""
"","","","decisionFB","582009dd87f6b90001f13e40","bdp_rwlrn","Wed Mar 15 2023 13:05:00 GMT-0500 (Central Daylight Time)","380932","Trustworthy,Untrustworthy","html-keyboard-response","99","173211","0.0-11.0-2.29","","null","","<div class='trialDiv'><img src='Fruit/lemon.png'><br><font class='baseline'><strong>Lucky Lemons</strong><p>Choose number of points to bet.</font><div class='respPicDiv'><img src='img/responseButtonOffersNo0L5.png' class='respPic'></div></div>","null","10","Lucky Lemons","Fruit/lemon.png","Lost","0.65,0.2","11","0.65","165","30","",""
"","","","feedback","582009dd87f6b90001f13e40","bdp_rwlrn","Wed Mar 15 2023 13:05:00 GMT-0500 (Central Daylight Time)","380932","Trustworthy,Untrustworthy","html-keyboard-response","100","174225","0.0-11.0-3.29","","null","","<div class='respPicDiv'><img src='img/responseButtonOffersNo0_wht.png' class='respPic'></div><div class='trialDiv'><img src='Fruit/lemon.png'><br><font class='baseline'><strong>Lucky Lemons</strong><p><strong><font class='negOutcome'>You LOST</font><p>You bet: 5</strong></font> &nbsp; &nbsp; &nbsp; &nbsp; &nbsp; &nbsp;<font class='negOutcome'>You receive: <strong>0</strong></font></div>","null","10","Lucky Lemons","Fruit/lemon.png","Lost","0.65,0.2","11","0.65","165","30","",""
"","","","decision","582009dd87f6b90001f13e40","bdp_rwlrn","Wed Mar 15 2023 13:05:00 GMT-0500 (Central Daylight Time)","380932","Trustworthy,Untrustworthy","html-keyboard-response","101","175071","0.0-11.0-1.30","","843","","<div class='trialDiv'><img src='Fruit/lime.png'><br><font class='baseline'><strong>Limin' Large</strong><p>Choose number of points to bet.</font><div class='respPicDiv'><img src='img/responseButtonOffersNo0L.png' class='respPic'></div></div>","5","11","Limin' Large","Fruit/lime.png","Lost","0.35,0.8","12","0.35","170","31","",""
"","","","decisionFB","582009dd87f6b90001f13e40","bdp_rwlrn","Wed Mar 15 2023 13:05:00 GMT-0500 (Central Daylight Time)","380932","Trustworthy,Untrustworthy","html-keyboard-response","102","175332","0.0-11.0-2.30","","null","","<div class='trialDiv'><img src='Fruit/lime.png'><br><font class='baseline'><strong>Limin' Large</strong><p>Choose number of points to bet.</font><div class='respPicDiv'><img src='img/responseButtonOffersNo0L5.png' class='respPic'></div></div>","null","11","Limin' Large","Fruit/lime.png","Lost","0.35,0.8","12","0.35","165","31","",""
"","","","feedback","582009dd87f6b90001f13e40","bdp_rwlrn","Wed Mar 15 2023 13:05:00 GMT-0500 (Central Daylight Time)","380932","Trustworthy,Untrustworthy","html-keyboard-response","103","176346","0.0-11.0-3.30","","null","","<div class='respPicDiv'><img src='img/responseButtonOffersNo0_wht.png' class='respPic'></div><div class='trialDiv'><img src='Fruit/lime.png'><br><font class='baseline'><strong>Limin' Large</strong><p><strong><font class='negOutcome'>You LOST</font><p>You bet: 5</strong></font> &nbsp; &nbsp; &nbsp; &nbsp; &nbsp; &nbsp;<font class='negOutcome'>You receive: <strong>0</strong></font></div>","null","11","Limin' Large","Fruit/lime.png","Lost","0.35,0.8","12","0.35","165","31","",""
"","","","decision","582009dd87f6b90001f13e40","bdp_rwlrn","Wed Mar 15 2023 13:05:00 GMT-0500 (Central Daylight Time)","380932","Trustworthy,Untrustworthy","html-keyboard-response","104","176623","0.0-11.0-1.31","","275","","<div class='trialDiv'><img src='Fruit/lemon.png'><br><font class='baseline'><strong>Lucky Lemons</strong><p>Choose number of points to bet.</font><div class='respPicDiv'><img src='img/responseButtonOffersNo0L.png' class='respPic'></div></div>","5","11","Lucky Lemons","Fruit/lemon.png","Lost","0.65,0.2","11","0.65","170","32","",""
"","","","decisionFB","582009dd87f6b90001f13e40","bdp_rwlrn","Wed Mar 15 2023 13:05:00 GMT-0500 (Central Daylight Time)","380932","Trustworthy,Untrustworthy","html-keyboard-response","105","176881","0.0-11.0-2.31","","null","","<div class='trialDiv'><img src='Fruit/lemon.png'><br><font class='baseline'><strong>Lucky Lemons</strong><p>Choose number of points to bet.</font><div class='respPicDiv'><img src='img/responseButtonOffersNo0L5.png' class='respPic'></div></div>","null","11","Lucky Lemons","Fruit/lemon.png","Lost","0.65,0.2","11","0.65","165","32","",""
"","","","feedback","582009dd87f6b90001f13e40","bdp_rwlrn","Wed Mar 15 2023 13:05:00 GMT-0500 (Central Daylight Time)","380932","Trustworthy,Untrustworthy","html-keyboard-response","106","177893","0.0-11.0-3.31","","null","","<div class='respPicDiv'><img src='img/responseButtonOffersNo0_wht.png' class='respPic'></div><div class='trialDiv'><img src='Fruit/lemon.png'><br><font class='baseline'><strong>Lucky Lemons</strong><p><strong><font class='negOutcome'>You LOST</font><p>You bet: 5</strong></font> &nbsp; &nbsp; &nbsp; &nbsp; &nbsp; &nbsp;<font class='negOutcome'>You receive: <strong>0</strong></font></div>","null","11","Lucky Lemons","Fruit/lemon.png","Lost","0.65,0.2","11","0.65","165","32","",""
"","","","decision","582009dd87f6b90001f13e40","bdp_rwlrn","Wed Mar 15 2023 13:05:00 GMT-0500 (Central Daylight Time)","380932","Trustworthy,Untrustworthy","html-keyboard-response","107","178743","0.0-11.0-1.32","","849","","<div class='trialDiv'><img src='Fruit/pears.png'><br><font class='baseline'><strong>Pears Aplenty</strong><p>Choose number of points to bet.</font><div class='respPicDiv'><img src='img/responseButtonOffersNo0L.png' class='respPic'></div></div>","2","11","Pears Aplenty","Fruit/pears.png","Won","0.65,0.35","9","0.65","170","33","",""
"","","","decisionFB","582009dd87f6b90001f13e40","bdp_rwlrn","Wed Mar 15 2023 13:05:00 GMT-0500 (Central Daylight Time)","380932","Trustworthy,Untrustworthy","html-keyboard-response","108","179001","0.0-11.0-2.32","","null","","<div class='trialDiv'><img src='Fruit/pears.png'><br><font class='baseline'><strong>Pears Aplenty</strong><p>Choose number of points to bet.</font><div class='respPicDiv'><img src='img/responseButtonOffersNo0L2.png' class='respPic'></div></div>","null","11","Pears Aplenty","Fruit/pears.png","Won","0.65,0.35","9","0.65","168","33","",""
"","","","feedback","582009dd87f6b90001f13e40","bdp_rwlrn","Wed Mar 15 2023 13:05:00 GMT-0500 (Central Daylight Time)","380932","Trustworthy,Untrustworthy","html-keyboard-response","109","180017","0.0-11.0-3.32","","null","","<div class='respPicDiv'><img src='img/responseButtonOffersNo0_wht.png' class='respPic'></div><div class='trialDiv'><img src='Fruit/pears.png'><br><font class='baseline'><strong>Pears Aplenty</strong><p><strong><font class='posOutcome'>You WON</font><p>You bet: 2</strong></font> &nbsp; &nbsp; &nbsp; &nbsp; &nbsp; &nbsp;<font class='posOutcome'>you receive: <strong>4</strong></font></div>","null","11","Pears Aplenty","Fruit/pears.png","Won","0.65,0.35","9","0.65","172","33","",""
"","","","decision","582009dd87f6b90001f13e40","bdp_rwlrn","Wed Mar 15 2023 13:05:00 GMT-0500 (Central Daylight Time)","380932","Trustworthy,Untrustworthy","html-keyboard-response","110","180774","0.0-11.0-1.33","","755","","<div class='trialDiv'><img src='Fruit/lime.png'><br><font class='baseline'><strong>Limin' Large</strong><p>Choose number of points to bet.</font><div class='respPicDiv'><img src='img/responseButtonOffersNo0L.png' class='respPic'></div></div>","2","12","Limin' Large","Fruit/lime.png","Won","0.35,0.8","12","0.35","177","34","",""
"","","","decisionFB","582009dd87f6b90001f13e40","bdp_rwlrn","Wed Mar 15 2023 13:05:00 GMT-0500 (Central Daylight Time)","380932","Trustworthy,Untrustworthy","html-keyboard-response","111","181030","0.0-11.0-2.33","","null","","<div class='trialDiv'><img src='Fruit/lime.png'><br><font class='baseline'><strong>Limin' Large</strong><p>Choose number of points to bet.</font><div class='respPicDiv'><img src='img/responseButtonOffersNo0L2.png' class='respPic'></div></div>","null","12","Limin' Large","Fruit/lime.png","Won","0.35,0.8","12","0.35","175","34","",""
"","","","feedback","582009dd87f6b90001f13e40","bdp_rwlrn","Wed Mar 15 2023 13:05:00 GMT-0500 (Central Daylight Time)","380932","Trustworthy,Untrustworthy","html-keyboard-response","112","182044","0.0-11.0-3.33","","null","","<div class='respPicDiv'><img src='img/responseButtonOffersNo0_wht.png' class='respPic'></div><div class='trialDiv'><img src='Fruit/lime.png'><br><font class='baseline'><strong>Limin' Large</strong><p><strong><font class='posOutcome'>You WON</font><p>You bet: 2</strong></font> &nbsp; &nbsp; &nbsp; &nbsp; &nbsp; &nbsp;<font class='posOutcome'>you receive: <strong>4</strong></font></div>","null","12","Limin' Large","Fruit/lime.png","Won","0.35,0.8","12","0.35","179","34","",""
"","","","decision","582009dd87f6b90001f13e40","bdp_rwlrn","Wed Mar 15 2023 13:05:00 GMT-0500 (Central Daylight Time)","380932","Trustworthy,Untrustworthy","html-keyboard-response","113","182766","0.0-11.0-1.34","","721","","<div class='trialDiv'><img src='Fruit/lemon.png'><br><font class='baseline'><strong>Lucky Lemons</strong><p>Choose number of points to bet.</font><div class='respPicDiv'><img src='img/responseButtonOffersNo0L.png' class='respPic'></div></div>","3","12","Lucky Lemons","Fruit/lemon.png","Lost","0.65,0.2","11","0.65","184","35","",""
"","","","decisionFB","582009dd87f6b90001f13e40","bdp_rwlrn","Wed Mar 15 2023 13:05:00 GMT-0500 (Central Daylight Time)","380932","Trustworthy,Untrustworthy","html-keyboard-response","114","183027","0.0-11.0-2.34","","null","","<div class='trialDiv'><img src='Fruit/lemon.png'><br><font class='baseline'><strong>Lucky Lemons</strong><p>Choose number of points to bet.</font><div class='respPicDiv'><img src='img/responseButtonOffersNo0L3.png' class='respPic'></div></div>","null","12","Lucky Lemons","Fruit/lemon.png","Lost","0.65,0.2","11","0.65","181","35","",""
"","","","feedback","582009dd87f6b90001f13e40","bdp_rwlrn","Wed Mar 15 2023 13:05:00 GMT-0500 (Central Daylight Time)","380932","Trustworthy,Untrustworthy","html-keyboard-response","115","184039","0.0-11.0-3.34","","null","","<div class='respPicDiv'><img src='img/responseButtonOffersNo0_wht.png' class='respPic'></div><div class='trialDiv'><img src='Fruit/lemon.png'><br><font class='baseline'><strong>Lucky Lemons</strong><p><strong><font class='negOutcome'>You LOST</font><p>You bet: 3</strong></font> &nbsp; &nbsp; &nbsp; &nbsp; &nbsp; &nbsp;<font class='negOutcome'>You receive: <strong>0</strong></font></div>","null","12","Lucky Lemons","Fruit/lemon.png","Lost","0.65,0.2","11","0.65","181","35","",""
"","","","decision","582009dd87f6b90001f13e40","bdp_rwlrn","Wed Mar 15 2023 13:05:00 GMT-0500 (Central Daylight Time)","380932","Trustworthy,Untrustworthy","html-keyboard-response","116","184577","0.0-11.0-1.35","","537","","<div class='trialDiv'><img src='Fruit/pears.png'><br><font class='baseline'><strong>Pears Aplenty</strong><p>Choose number of points to bet.</font><div class='respPicDiv'><img src='img/responseButtonOffersNo0L.png' class='respPic'></div></div>","2","12","Pears Aplenty","Fruit/pears.png","Won","0.65,0.35","9","0.65","186","36","",""
"","","","decisionFB","582009dd87f6b90001f13e40","bdp_rwlrn","Wed Mar 15 2023 13:05:00 GMT-0500 (Central Daylight Time)","380932","Trustworthy,Untrustworthy","html-keyboard-response","117","184839","0.0-11.0-2.35","","null","","<div class='trialDiv'><img src='Fruit/pears.png'><br><font class='baseline'><strong>Pears Aplenty</strong><p>Choose number of points to bet.</font><div class='respPicDiv'><img src='img/responseButtonOffersNo0L2.png' class='respPic'></div></div>","null","12","Pears Aplenty","Fruit/pears.png","Won","0.65,0.35","9","0.65","184","36","",""
"","","","feedback","582009dd87f6b90001f13e40","bdp_rwlrn","Wed Mar 15 2023 13:05:00 GMT-0500 (Central Daylight Time)","380932","Trustworthy,Untrustworthy","html-keyboard-response","118","185854","0.0-11.0-3.35","","null","","<div class='respPicDiv'><img src='img/responseButtonOffersNo0_wht.png' class='respPic'></div><div class='trialDiv'><img src='Fruit/pears.png'><br><font class='baseline'><strong>Pears Aplenty</strong><p><strong><font class='posOutcome'>You WON</font><p>You bet: 2</strong></font> &nbsp; &nbsp; &nbsp; &nbsp; &nbsp; &nbsp;<font class='posOutcome'>you receive: <strong>4</strong></font></div>","null","12","Pears Aplenty","Fruit/pears.png","Won","0.65,0.35","9","0.65","188","36","",""
"","","","decision","582009dd87f6b90001f13e40","bdp_rwlrn","Wed Mar 15 2023 13:05:00 GMT-0500 (Central Daylight Time)","380932","Trustworthy,Untrustworthy","html-keyboard-response","119","186261","0.0-11.0-1.36","","404","","<div class='trialDiv'><img src='Fruit/lime.png'><br><font class='baseline'><strong>Limin' Large</strong><p>Choose number of points to bet.</font><div class='respPicDiv'><img src='img/responseButtonOffersNo0L.png' class='respPic'></div></div>","5","13","Limin' Large","Fruit/lime.png","Lost","0.35,0.8","12","0.35","193","37","",""
"","","","decisionFB","582009dd87f6b90001f13e40","bdp_rwlrn","Wed Mar 15 2023 13:05:00 GMT-0500 (Central Daylight Time)","380932","Trustworthy,Untrustworthy","html-keyboard-response","120","186515","0.0-11.0-2.36","","null","","<div class='trialDiv'><img src='Fruit/lime.png'><br><font class='baseline'><strong>Limin' Large</strong><p>Choose number of points to bet.</font><div class='respPicDiv'><img src='img/responseButtonOffersNo0L5.png' class='respPic'></div></div>","null","13","Limin' Large","Fruit/lime.png","Lost","0.35,0.8","12","0.35","188","37","",""
"","","","feedback","582009dd87f6b90001f13e40","bdp_rwlrn","Wed Mar 15 2023 13:05:00 GMT-0500 (Central Daylight Time)","380932","Trustworthy,Untrustworthy","html-keyboard-response","121","187528","0.0-11.0-3.36","","null","","<div class='respPicDiv'><img src='img/responseButtonOffersNo0_wht.png' class='respPic'></div><div class='trialDiv'><img src='Fruit/lime.png'><br><font class='baseline'><strong>Limin' Large</strong><p><strong><font class='negOutcome'>You LOST</font><p>You bet: 5</strong></font> &nbsp; &nbsp; &nbsp; &nbsp; &nbsp; &nbsp;<font class='negOutcome'>You receive: <strong>0</strong></font></div>","null","13","Limin' Large","Fruit/lime.png","Lost","0.35,0.8","12","0.35","188","37","",""
"","","","decision","582009dd87f6b90001f13e40","bdp_rwlrn","Wed Mar 15 2023 13:05:00 GMT-0500 (Central Daylight Time)","380932","Trustworthy,Untrustworthy","html-keyboard-response","122","188061","0.0-11.0-1.37","","531","","<div class='trialDiv'><img src='Fruit/lemon.png'><br><font class='baseline'><strong>Lucky Lemons</strong><p>Choose number of points to bet.</font><div class='respPicDiv'><img src='img/responseButtonOffersNo0L.png' class='respPic'></div></div>","5","13","Lucky Lemons","Fruit/lemon.png","Lost","0.65,0.2","11","0.65","193","38","",""
"","","","decisionFB","582009dd87f6b90001f13e40","bdp_rwlrn","Wed Mar 15 2023 13:05:00 GMT-0500 (Central Daylight Time)","380932","Trustworthy,Untrustworthy","html-keyboard-response","123","188313","0.0-11.0-2.37","","null","","<div class='trialDiv'><img src='Fruit/lemon.png'><br><font class='baseline'><strong>Lucky Lemons</strong><p>Choose number of points to bet.</font><div class='respPicDiv'><img src='img/responseButtonOffersNo0L5.png' class='respPic'></div></div>","null","13","Lucky Lemons","Fruit/lemon.png","Lost","0.65,0.2","11","0.65","188","38","",""
"","","","feedback","582009dd87f6b90001f13e40","bdp_rwlrn","Wed Mar 15 2023 13:05:00 GMT-0500 (Central Daylight Time)","380932","Trustworthy,Untrustworthy","html-keyboard-response","124","189328","0.0-11.0-3.37","","null","","<div class='respPicDiv'><img src='img/responseButtonOffersNo0_wht.png' class='respPic'></div><div class='trialDiv'><img src='Fruit/lemon.png'><br><font class='baseline'><strong>Lucky Lemons</strong><p><strong><font class='negOutcome'>You LOST</font><p>You bet: 5</strong></font> &nbsp; &nbsp; &nbsp; &nbsp; &nbsp; &nbsp;<font class='negOutcome'>You receive: <strong>0</strong></font></div>","null","13","Lucky Lemons","Fruit/lemon.png","Lost","0.65,0.2","11","0.65","188","38","",""
"","","","decision","582009dd87f6b90001f13e40","bdp_rwlrn","Wed Mar 15 2023 13:05:00 GMT-0500 (Central Daylight Time)","380932","Trustworthy,Untrustworthy","html-keyboard-response","125","189368","0.0-11.0-1.38","","37","","<div class='trialDiv'><img src='Fruit/pears.png'><br><font class='baseline'><strong>Pears Aplenty</strong><p>Choose number of points to bet.</font><div class='respPicDiv'><img src='img/responseButtonOffersNo0L.png' class='respPic'></div></div>","5","13","Pears Aplenty","Fruit/pears.png","Lost","0.65,0.35","9","0.65","193","39","",""
"","","","decisionFB","582009dd87f6b90001f13e40","bdp_rwlrn","Wed Mar 15 2023 13:05:00 GMT-0500 (Central Daylight Time)","380932","Trustworthy,Untrustworthy","html-keyboard-response","126","189634","0.0-11.0-2.38","","null","","<div class='trialDiv'><img src='Fruit/pears.png'><br><font class='baseline'><strong>Pears Aplenty</strong><p>Choose number of points to bet.</font><div class='respPicDiv'><img src='img/responseButtonOffersNo0L5.png' class='respPic'></div></div>","null","13","Pears Aplenty","Fruit/pears.png","Lost","0.65,0.35","9","0.65","188","39","",""
"","","","feedback","582009dd87f6b90001f13e40","bdp_rwlrn","Wed Mar 15 2023 13:05:00 GMT-0500 (Central Daylight Time)","380932","Trustworthy,Untrustworthy","html-keyboard-response","127","190649","0.0-11.0-3.38","","null","","<div class='respPicDiv'><img src='img/responseButtonOffersNo0_wht.png' class='respPic'></div><div class='trialDiv'><img src='Fruit/pears.png'><br><font class='baseline'><strong>Pears Aplenty</strong><p><strong><font class='negOutcome'>You LOST</font><p>You bet: 5</strong></font> &nbsp; &nbsp; &nbsp; &nbsp; &nbsp; &nbsp;<font class='negOutcome'>You receive: <strong>0</strong></font></div>","null","13","Pears Aplenty","Fruit/pears.png","Lost","0.65,0.35","9","0.65","188","39","",""
"","","","decision","582009dd87f6b90001f13e40","bdp_rwlrn","Wed Mar 15 2023 13:05:00 GMT-0500 (Central Daylight Time)","380932","Trustworthy,Untrustworthy","html-keyboard-response","128","190881","0.0-11.0-1.39","","231","","<div class='trialDiv'><img src='Fruit/lemon.png'><br><font class='baseline'><strong>Lucky Lemons</strong><p>Choose number of points to bet.</font><div class='respPicDiv'><img src='img/responseButtonOffersNo0L.png' class='respPic'></div></div>","5","14","Lucky Lemons","Fruit/lemon.png","Lost","0.65,0.2","11","0.65","193","40","",""
"","","","decisionFB","582009dd87f6b90001f13e40","bdp_rwlrn","Wed Mar 15 2023 13:05:00 GMT-0500 (Central Daylight Time)","380932","Trustworthy,Untrustworthy","html-keyboard-response","129","191143","0.0-11.0-2.39","","null","","<div class='trialDiv'><img src='Fruit/lemon.png'><br><font class='baseline'><strong>Lucky Lemons</strong><p>Choose number of points to bet.</font><div class='respPicDiv'><img src='img/responseButtonOffersNo0L5.png' class='respPic'></div></div>","null","14","Lucky Lemons","Fruit/lemon.png","Lost","0.65,0.2","11","0.65","188","40","",""
"","","","feedback","582009dd87f6b90001f13e40","bdp_rwlrn","Wed Mar 15 2023 13:05:00 GMT-0500 (Central Daylight Time)","380932","Trustworthy,Untrustworthy","html-keyboard-response","130","192155","0.0-11.0-3.39","","null","","<div class='respPicDiv'><img src='img/responseButtonOffersNo0_wht.png' class='respPic'></div><div class='trialDiv'><img src='Fruit/lemon.png'><br><font class='baseline'><strong>Lucky Lemons</strong><p><strong><font class='negOutcome'>You LOST</font><p>You bet: 5</strong></font> &nbsp; &nbsp; &nbsp; &nbsp; &nbsp; &nbsp;<font class='negOutcome'>You receive: <strong>0</strong></font></div>","null","14","Lucky Lemons","Fruit/lemon.png","Lost","0.65,0.2","11","0.65","188","40","",""
"","","","decision","582009dd87f6b90001f13e40","bdp_rwlrn","Wed Mar 15 2023 13:05:00 GMT-0500 (Central Daylight Time)","380932","Trustworthy,Untrustworthy","html-keyboard-response","131","192187","0.0-11.0-1.40","","29","","<div class='trialDiv'><img src='Fruit/lime.png'><br><font class='baseline'><strong>Limin' Large</strong><p>Choose number of points to bet.</font><div class='respPicDiv'><img src='img/responseButtonOffersNo0L.png' class='respPic'></div></div>","5","14","Limin' Large","Fruit/lime.png","Lost","0.35,0.8","12","0.35","193","41","",""
"","","","decisionFB","582009dd87f6b90001f13e40","bdp_rwlrn","Wed Mar 15 2023 13:05:00 GMT-0500 (Central Daylight Time)","380932","Trustworthy,Untrustworthy","html-keyboard-response","132","192446","0.0-11.0-2.40","","null","","<div class='trialDiv'><img src='Fruit/lime.png'><br><font class='baseline'><strong>Limin' Large</strong><p>Choose number of points to bet.</font><div class='respPicDiv'><img src='img/responseButtonOffersNo0L5.png' class='respPic'></div></div>","null","14","Limin' Large","Fruit/lime.png","Lost","0.35,0.8","12","0.35","188","41","",""
"","","","feedback","582009dd87f6b90001f13e40","bdp_rwlrn","Wed Mar 15 2023 13:05:00 GMT-0500 (Central Daylight Time)","380932","Trustworthy,Untrustworthy","html-keyboard-response","133","193461","0.0-11.0-3.40","","null","","<div class='respPicDiv'><img src='img/responseButtonOffersNo0_wht.png' class='respPic'></div><div class='trialDiv'><img src='Fruit/lime.png'><br><font class='baseline'><strong>Limin' Large</strong><p><strong><font class='negOutcome'>You LOST</font><p>You bet: 5</strong></font> &nbsp; &nbsp; &nbsp; &nbsp; &nbsp; &nbsp;<font class='negOutcome'>You receive: <strong>0</strong></font></div>","null","14","Limin' Large","Fruit/lime.png","Lost","0.35,0.8","12","0.35","188","41","",""
"","","","decision","582009dd87f6b90001f13e40","bdp_rwlrn","Wed Mar 15 2023 13:05:00 GMT-0500 (Central Daylight Time)","380932","Trustworthy,Untrustworthy","html-keyboard-response","134","193673","0.0-11.0-1.41","","211","","<div class='trialDiv'><img src='Fruit/pears.png'><br><font class='baseline'><strong>Pears Aplenty</strong><p>Choose number of points to bet.</font><div class='respPicDiv'><img src='img/responseButtonOffersNo0L.png' class='respPic'></div></div>","5","14","Pears Aplenty","Fruit/pears.png","Won","0.65,0.35","9","0.65","193","42","",""
"","","","decisionFB","582009dd87f6b90001f13e40","bdp_rwlrn","Wed Mar 15 2023 13:05:00 GMT-0500 (Central Daylight Time)","380932","Trustworthy,Untrustworthy","html-keyboard-response","135","193936","0.0-11.0-2.41","","null","","<div class='trialDiv'><img src='Fruit/pears.png'><br><font class='baseline'><strong>Pears Aplenty</strong><p>Choose number of points to bet.</font><div class='respPicDiv'><img src='img/responseButtonOffersNo0L5.png' class='respPic'></div></div>","null","14","Pears Aplenty","Fruit/pears.png","Won","0.65,0.35","9","0.65","188","42","",""
"","","","feedback","582009dd87f6b90001f13e40","bdp_rwlrn","Wed Mar 15 2023 13:05:00 GMT-0500 (Central Daylight Time)","380932","Trustworthy,Untrustworthy","html-keyboard-response","136","194952","0.0-11.0-3.41","","null","","<div class='respPicDiv'><img src='img/responseButtonOffersNo0_wht.png' class='respPic'></div><div class='trialDiv'><img src='Fruit/pears.png'><br><font class='baseline'><strong>Pears Aplenty</strong><p><strong><font class='posOutcome'>You WON</font><p>You bet: 5</strong></font> &nbsp; &nbsp; &nbsp; &nbsp; &nbsp; &nbsp;<font class='posOutcome'>you receive: <strong>10</strong></font></div>","null","14","Pears Aplenty","Fruit/pears.png","Won","0.65,0.35","9","0.65","198","42","",""
"","","","decision","582009dd87f6b90001f13e40","bdp_rwlrn","Wed Mar 15 2023 13:05:00 GMT-0500 (Central Daylight Time)","380932","Trustworthy,Untrustworthy","html-keyboard-response","137","196617","0.0-11.0-1.42","","1661","","<div class='trialDiv'><img src='Fruit/lime.png'><br><font class='baseline'><strong>Limin' Large</strong><p>Choose number of points to bet.</font><div class='respPicDiv'><img src='img/responseButtonOffersNo0L.png' class='respPic'></div></div>","1","15","Limin' Large","Fruit/lime.png","Lost","0.35,0.8","12","0.35","203","43","",""
"","","","decisionFB","582009dd87f6b90001f13e40","bdp_rwlrn","Wed Mar 15 2023 13:05:00 GMT-0500 (Central Daylight Time)","380932","Trustworthy,Untrustworthy","html-keyboard-response","138","196875","0.0-11.0-2.42","","null","","<div class='trialDiv'><img src='Fruit/lime.png'><br><font class='baseline'><strong>Limin' Large</strong><p>Choose number of points to bet.</font><div class='respPicDiv'><img src='img/responseButtonOffersNo0L1.png' class='respPic'></div></div>","null","15","Limin' Large","Fruit/lime.png","Lost","0.35,0.8","12","0.35","202","43","",""
"","","","feedback","582009dd87f6b90001f13e40","bdp_rwlrn","Wed Mar 15 2023 13:05:00 GMT-0500 (Central Daylight Time)","380932","Trustworthy,Untrustworthy","html-keyboard-response","139","197887","0.0-11.0-3.42","","null","","<div class='respPicDiv'><img src='img/responseButtonOffersNo0_wht.png' class='respPic'></div><div class='trialDiv'><img src='Fruit/lime.png'><br><font class='baseline'><strong>Limin' Large</strong><p><strong><font class='negOutcome'>You LOST</font><p>You bet: 1</strong></font> &nbsp; &nbsp; &nbsp; &nbsp; &nbsp; &nbsp;<font class='negOutcome'>You receive: <strong>0</strong></font></div>","null","15","Limin' Large","Fruit/lime.png","Lost","0.35,0.8","12","0.35","202","43","",""
"","","","decision","582009dd87f6b90001f13e40","bdp_rwlrn","Wed Mar 15 2023 13:05:00 GMT-0500 (Central Daylight Time)","380932","Trustworthy,Untrustworthy","html-keyboard-response","140","198129","0.0-11.0-1.43","","239","","<div class='trialDiv'><img src='Fruit/lemon.png'><br><font class='baseline'><strong>Lucky Lemons</strong><p>Choose number of points to bet.</font><div class='respPicDiv'><img src='img/responseButtonOffersNo0L.png' class='respPic'></div></div>","1","15","Lucky Lemons","Fruit/lemon.png","Won","0.65,0.2","11","0.65","207","44","",""
"","","","decisionFB","582009dd87f6b90001f13e40","bdp_rwlrn","Wed Mar 15 2023 13:05:00 GMT-0500 (Central Daylight Time)","380932","Trustworthy,Untrustworthy","html-keyboard-response","141","198395","0.0-11.0-2.43","","null","","<div class='trialDiv'><img src='Fruit/lemon.png'><br><font class='baseline'><strong>Lucky Lemons</strong><p>Choose number of points to bet.</font><div class='respPicDiv'><img src='img/responseButtonOffersNo0L1.png' class='respPic'></div></div>","null","15","Lucky Lemons","Fruit/lemon.png","Won","0.65,0.2","11","0.65","206","44","",""
"","","","feedback","582009dd87f6b90001f13e40","bdp_rwlrn","Wed Mar 15 2023 13:05:00 GMT-0500 (Central Daylight Time)","380932","Trustworthy,Untrustworthy","html-keyboard-response","142","199408","0.0-11.0-3.43","","null","","<div class='respPicDiv'><img src='img/responseButtonOffersNo0_wht.png' class='respPic'></div><div class='trialDiv'><img src='Fruit/lemon.png'><br><font class='baseline'><strong>Lucky Lemons</strong><p><strong><font class='posOutcome'>You WON</font><p>You bet: 1</strong></font> &nbsp; &nbsp; &nbsp; &nbsp; &nbsp; &nbsp;<font class='posOutcome'>you receive: <strong>2</strong></font></div>","null","15","Lucky Lemons","Fruit/lemon.png","Won","0.65,0.2","11","0.65","208","44","",""
"","","","decision","582009dd87f6b90001f13e40","bdp_rwlrn","Wed Mar 15 2023 13:05:00 GMT-0500 (Central Daylight Time)","380932","Trustworthy,Untrustworthy","html-keyboard-response","143","199691","0.0-11.0-1.44","","280","","<div class='trialDiv'><img src='Fruit/pears.png'><br><font class='baseline'><strong>Pears Aplenty</strong><p>Choose number of points to bet.</font><div class='respPicDiv'><img src='img/responseButtonOffersNo0L.png' class='respPic'></div></div>","1","15","Pears Aplenty","Fruit/pears.png","Lost","0.65,0.35","9","0.65","213","45","",""
"","","","decisionFB","582009dd87f6b90001f13e40","bdp_rwlrn","Wed Mar 15 2023 13:05:00 GMT-0500 (Central Daylight Time)","380932","Trustworthy,Untrustworthy","html-keyboard-response","144","199944","0.0-11.0-2.44","","null","","<div class='trialDiv'><img src='Fruit/pears.png'><br><font class='baseline'><strong>Pears Aplenty</strong><p>Choose number of points to bet.</font><div class='respPicDiv'><img src='img/responseButtonOffersNo0L1.png' class='respPic'></div></div>","null","15","Pears Aplenty","Fruit/pears.png","Lost","0.65,0.35","9","0.65","212","45","",""
"","","","feedback","582009dd87f6b90001f13e40","bdp_rwlrn","Wed Mar 15 2023 13:05:00 GMT-0500 (Central Daylight Time)","380932","Trustworthy,Untrustworthy","html-keyboard-response","145","200958","0.0-11.0-3.44","","null","","<div class='respPicDiv'><img src='img/responseButtonOffersNo0_wht.png' class='respPic'></div><div class='trialDiv'><img src='Fruit/pears.png'><br><font class='baseline'><strong>Pears Aplenty</strong><p><strong><font class='negOutcome'>You LOST</font><p>You bet: 1</strong></font> &nbsp; &nbsp; &nbsp; &nbsp; &nbsp; &nbsp;<font class='negOutcome'>You receive: <strong>0</strong></font></div>","null","15","Pears Aplenty","Fruit/pears.png","Lost","0.65,0.35","9","0.65","212","45","",""
"","","","decision","582009dd87f6b90001f13e40","bdp_rwlrn","Wed Mar 15 2023 13:05:00 GMT-0500 (Central Daylight Time)","380932","Trustworthy,Untrustworthy","html-keyboard-response","146","201289","0.0-11.0-1.45","","328","","<div class='trialDiv'><img src='Fruit/lime.png'><br><font class='baseline'><strong>Limin' Large</strong><p>Choose number of points to bet.</font><div class='respPicDiv'><img src='img/responseButtonOffersNo0L.png' class='respPic'></div></div>","1","16","Limin' Large","Fruit/lime.png","Won","0.35,0.8","12","0.35","217","46","",""
"","","","decisionFB","582009dd87f6b90001f13e40","bdp_rwlrn","Wed Mar 15 2023 13:05:00 GMT-0500 (Central Daylight Time)","380932","Trustworthy,Untrustworthy","html-keyboard-response","147","201542","0.0-11.0-2.45","","null","","<div class='trialDiv'><img src='Fruit/lime.png'><br><font class='baseline'><strong>Limin' Large</strong><p>Choose number of points to bet.</font><div class='respPicDiv'><img src='img/responseButtonOffersNo0L1.png' class='respPic'></div></div>","null","16","Limin' Large","Fruit/lime.png","Won","0.35,0.8","12","0.35","216","46","",""
"","","","feedback","582009dd87f6b90001f13e40","bdp_rwlrn","Wed Mar 15 2023 13:05:00 GMT-0500 (Central Daylight Time)","380932","Trustworthy,Untrustworthy","html-keyboard-response","148","202554","0.0-11.0-3.45","","null","","<div class='respPicDiv'><img src='img/responseButtonOffersNo0_wht.png' class='respPic'></div><div class='trialDiv'><img src='Fruit/lime.png'><br><font class='baseline'><strong>Limin' Large</strong><p><strong><font class='posOutcome'>You WON</font><p>You bet: 1</strong></font> &nbsp; &nbsp; &nbsp; &nbsp; &nbsp; &nbsp;<font class='posOutcome'>you receive: <strong>2</strong></font></div>","null","16","Limin' Large","Fruit/lime.png","Won","0.35,0.8","12","0.35","218","46","",""
"","","","decision","582009dd87f6b90001f13e40","bdp_rwlrn","Wed Mar 15 2023 13:05:00 GMT-0500 (Central Daylight Time)","380932","Trustworthy,Untrustworthy","html-keyboard-response","149","203942","0.0-11.0-1.46","","1385","","<div class='trialDiv'><img src='Fruit/lemon.png'><br><font class='baseline'><strong>Lucky Lemons</strong><p>Choose number of points to bet.</font><div class='respPicDiv'><img src='img/responseButtonOffersNo0L.png' class='respPic'></div></div>","5","16","Lucky Lemons","Fruit/lemon.png","Lost","0.65,0.2","11","0.65","223","47","",""
"","","","decisionFB","582009dd87f6b90001f13e40","bdp_rwlrn","Wed Mar 15 2023 13:05:00 GMT-0500 (Central Daylight Time)","380932","Trustworthy,Untrustworthy","html-keyboard-response","150","204198","0.0-11.0-2.46","","null","","<div class='trialDiv'><img src='Fruit/lemon.png'><br><font class='baseline'><strong>Lucky Lemons</strong><p>Choose number of points to bet.</font><div class='respPicDiv'><img src='img/responseButtonOffersNo0L5.png' class='respPic'></div></div>","null","16","Lucky Lemons","Fruit/lemon.png","Lost","0.65,0.2","11","0.65","218","47","",""
"","","","feedback","582009dd87f6b90001f13e40","bdp_rwlrn","Wed Mar 15 2023 13:05:00 GMT-0500 (Central Daylight Time)","380932","Trustworthy,Untrustworthy","html-keyboard-response","151","205214","0.0-11.0-3.46","","null","","<div class='respPicDiv'><img src='img/responseButtonOffersNo0_wht.png' class='respPic'></div><div class='trialDiv'><img src='Fruit/lemon.png'><br><font class='baseline'><strong>Lucky Lemons</strong><p><strong><font class='negOutcome'>You LOST</font><p>You bet: 5</strong></font> &nbsp; &nbsp; &nbsp; &nbsp; &nbsp; &nbsp;<font class='negOutcome'>You receive: <strong>0</strong></font></div>","null","16","Lucky Lemons","Fruit/lemon.png","Lost","0.65,0.2","11","0.65","218","47","",""
"","","","decision","582009dd87f6b90001f13e40","bdp_rwlrn","Wed Mar 15 2023 13:05:00 GMT-0500 (Central Daylight Time)","380932","Trustworthy,Untrustworthy","html-keyboard-response","152","205591","0.0-11.0-1.47","","376","","<div class='trialDiv'><img src='Fruit/pears.png'><br><font class='baseline'><strong>Pears Aplenty</strong><p>Choose number of points to bet.</font><div class='respPicDiv'><img src='img/responseButtonOffersNo0L.png' class='respPic'></div></div>","1","16","Pears Aplenty","Fruit/pears.png","Won","0.65,0.35","9","0.65","223","48","",""
"","","","decisionFB","582009dd87f6b90001f13e40","bdp_rwlrn","Wed Mar 15 2023 13:05:00 GMT-0500 (Central Daylight Time)","380932","Trustworthy,Untrustworthy","html-keyboard-response","153","205859","0.0-11.0-2.47","","null","","<div class='trialDiv'><img src='Fruit/pears.png'><br><font class='baseline'><strong>Pears Aplenty</strong><p>Choose number of points to bet.</font><div class='respPicDiv'><img src='img/responseButtonOffersNo0L1.png' class='respPic'></div></div>","null","16","Pears Aplenty","Fruit/pears.png","Won","0.65,0.35","9","0.65","222","48","",""
"","","","feedback","582009dd87f6b90001f13e40","bdp_rwlrn","Wed Mar 15 2023 13:05:00 GMT-0500 (Central Daylight Time)","380932","Trustworthy,Untrustworthy","html-keyboard-response","154","206872","0.0-11.0-3.47","","null","","<div class='respPicDiv'><img src='img/responseButtonOffersNo0_wht.png' class='respPic'></div><div class='trialDiv'><img src='Fruit/pears.png'><br><font class='baseline'><strong>Pears Aplenty</strong><p><strong><font class='posOutcome'>You WON</font><p>You bet: 1</strong></font> &nbsp; &nbsp; &nbsp; &nbsp; &nbsp; &nbsp;<font class='posOutcome'>you receive: <strong>2</strong></font></div>","null","16","Pears Aplenty","Fruit/pears.png","Won","0.65,0.35","9","0.65","224","48","",""
"","","","decision","582009dd87f6b90001f13e40","bdp_rwlrn","Wed Mar 15 2023 13:05:00 GMT-0500 (Central Daylight Time)","380932","Trustworthy,Untrustworthy","html-keyboard-response","155","207490","0.0-11.0-1.48","","615","","<div class='trialDiv'><img src='Fruit/lime.png'><br><font class='baseline'><strong>Limin' Large</strong><p>Choose number of points to bet.</font><div class='respPicDiv'><img src='img/responseButtonOffersNo0L.png' class='respPic'></div></div>","2","17","Limin' Large","Fruit/lime.png","Won","0.35,0.8","12","0.35","229","49","",""
"","","","decisionFB","582009dd87f6b90001f13e40","bdp_rwlrn","Wed Mar 15 2023 13:05:00 GMT-0500 (Central Daylight Time)","380932","Trustworthy,Untrustworthy","html-keyboard-response","156","207746","0.0-11.0-2.48","","null","","<div class='trialDiv'><img src='Fruit/lime.png'><br><font class='baseline'><strong>Limin' Large</strong><p>Choose number of points to bet.</font><div class='respPicDiv'><img src='img/responseButtonOffersNo0L2.png' class='respPic'></div></div>","null","17","Limin' Large","Fruit/lime.png","Won","0.35,0.8","12","0.35","227","49","",""
"","","","feedback","582009dd87f6b90001f13e40","bdp_rwlrn","Wed Mar 15 2023 13:05:00 GMT-0500 (Central Daylight Time)","380932","Trustworthy,Untrustworthy","html-keyboard-response","157","208761","0.0-11.0-3.48","","null","","<div class='respPicDiv'><img src='img/responseButtonOffersNo0_wht.png' class='respPic'></div><div class='trialDiv'><img src='Fruit/lime.png'><br><font class='baseline'><strong>Limin' Large</strong><p><strong><font class='posOutcome'>You WON</font><p>You bet: 2</strong></font> &nbsp; &nbsp; &nbsp; &nbsp; &nbsp; &nbsp;<font class='posOutcome'>you receive: <strong>4</strong></font></div>","null","17","Limin' Large","Fruit/lime.png","Won","0.35,0.8","12","0.35","231","49","",""
"","","","decision","582009dd87f6b90001f13e40","bdp_rwlrn","Wed Mar 15 2023 13:05:00 GMT-0500 (Central Daylight Time)","380932","Trustworthy,Untrustworthy","html-keyboard-response","158","208989","0.0-11.0-1.49","","225","","<div class='trialDiv'><img src='Fruit/pears.png'><br><font class='baseline'><strong>Pears Aplenty</strong><p>Choose number of points to bet.</font><div class='respPicDiv'><img src='img/responseButtonOffersNo0L.png' class='respPic'></div></div>","2","17","Pears Aplenty","Fruit/pears.png","Won","0.65,0.35","9","0.65","236","50","",""
"","","","decisionFB","582009dd87f6b90001f13e40","bdp_rwlrn","Wed Mar 15 2023 13:05:00 GMT-0500 (Central Daylight Time)","380932","Trustworthy,Untrustworthy","html-keyboard-response","159","209252","0.0-11.0-2.49","","null","","<div class='trialDiv'><img src='Fruit/pears.png'><br><font class='baseline'><strong>Pears Aplenty</strong><p>Choose number of points to bet.</font><div class='respPicDiv'><img src='img/responseButtonOffersNo0L2.png' class='respPic'></div></div>","null","17","Pears Aplenty","Fruit/pears.png","Won","0.65,0.35","9","0.65","234","50","",""
"","","","feedback","582009dd87f6b90001f13e40","bdp_rwlrn","Wed Mar 15 2023 13:05:00 GMT-0500 (Central Daylight Time)","380932","Trustworthy,Untrustworthy","html-keyboard-response","160","210264","0.0-11.0-3.49","","null","","<div class='respPicDiv'><img src='img/responseButtonOffersNo0_wht.png' class='respPic'></div><div class='trialDiv'><img src='Fruit/pears.png'><br><font class='baseline'><strong>Pears Aplenty</strong><p><strong><font class='posOutcome'>You WON</font><p>You bet: 2</strong></font> &nbsp; &nbsp; &nbsp; &nbsp; &nbsp; &nbsp;<font class='posOutcome'>you receive: <strong>4</strong></font></div>","null","17","Pears Aplenty","Fruit/pears.png","Won","0.65,0.35","9","0.65","238","50","",""
"","","","decision","582009dd87f6b90001f13e40","bdp_rwlrn","Wed Mar 15 2023 13:05:00 GMT-0500 (Central Daylight Time)","380932","Trustworthy,Untrustworthy","html-keyboard-response","161","210612","0.0-11.0-1.50","","346","","<div class='trialDiv'><img src='Fruit/lemon.png'><br><font class='baseline'><strong>Lucky Lemons</strong><p>Choose number of points to bet.</font><div class='respPicDiv'><img src='img/responseButtonOffersNo0L.png' class='respPic'></div></div>","2","17","Lucky Lemons","Fruit/lemon.png","Lost","0.65,0.2","11","0.65","243","51","",""
"","","","decisionFB","582009dd87f6b90001f13e40","bdp_rwlrn","Wed Mar 15 2023 13:05:00 GMT-0500 (Central Daylight Time)","380932","Trustworthy,Untrustworthy","html-keyboard-response","162","210878","0.0-11.0-2.50","","null","","<div class='trialDiv'><img src='Fruit/lemon.png'><br><font class='baseline'><strong>Lucky Lemons</strong><p>Choose number of points to bet.</font><div class='respPicDiv'><img src='img/responseButtonOffersNo0L2.png' class='respPic'></div></div>","null","17","Lucky Lemons","Fruit/lemon.png","Lost","0.65,0.2","11","0.65","241","51","",""
"","","","feedback","582009dd87f6b90001f13e40","bdp_rwlrn","Wed Mar 15 2023 13:05:00 GMT-0500 (Central Daylight Time)","380932","Trustworthy,Untrustworthy","html-keyboard-response","163","211893","0.0-11.0-3.50","","null","","<div class='respPicDiv'><img src='img/responseButtonOffersNo0_wht.png' class='respPic'></div><div class='trialDiv'><img src='Fruit/lemon.png'><br><font class='baseline'><strong>Lucky Lemons</strong><p><strong><font class='negOutcome'>You LOST</font><p>You bet: 2</strong></font> &nbsp; &nbsp; &nbsp; &nbsp; &nbsp; &nbsp;<font class='negOutcome'>You receive: <strong>0</strong></font></div>","null","17","Lucky Lemons","Fruit/lemon.png","Lost","0.65,0.2","11","0.65","241","51","",""
"","","","decision","582009dd87f6b90001f13e40","bdp_rwlrn","Wed Mar 15 2023 13:05:00 GMT-0500 (Central Daylight Time)","380932","Trustworthy,Untrustworthy","html-keyboard-response","164","213044","0.0-11.0-1.51","","1149","","<div class='trialDiv'><img src='Fruit/lime.png'><br><font class='baseline'><strong>Limin' Large</strong><p>Choose number of points to bet.</font><div class='respPicDiv'><img src='img/responseButtonOffersNo0L.png' class='respPic'></div></div>","4","18","Limin' Large","Fruit/lime.png","Won","0.35,0.8","12","0.35","246","52","",""
