"event","trial","time","trialtype","numBlurs","subject_id","task","startTime","totalTime","labels","trial_type","trial_index","time_elapsed","internal_node_id","view_history","rt","success","stimulus","key_press","ltround","name","fileID","outcome","lottotype","lottoswpt","lottocurrpshare","point_total","round","faceID","face"
"blur","0","0","blurevent","1","5f1f3581b5cf3e103cc545c9","bdp_rwlrn","Sun Mar 12 2023 16:24:02 GMT-0400 (Eastern Daylight Time)","689277","Untrustworthy,Trustworthy","","","","","","","","","","","","","","","","","","","",""
"","","","","","5f1f3581b5cf3e103cc545c9","bdp_rwlrn","Sun Mar 12 2023 16:24:02 GMT-0400 (Eastern Daylight Time)","689277","Untrustworthy,Trustworthy","pavlovia","0","3","0.0-0.0","","","","","","","","","","","","","","","",""
"focus","1","3168","focusevent","","5f1f3581b5cf3e103cc545c9","bdp_rwlrn","Sun Mar 12 2023 16:24:02 GMT-0400 (Eastern Daylight Time)","689277","Untrustworthy,Trustworthy","","","","","","","","","","","","","","","","","","","",""
"","","","","","5f1f3581b5cf3e103cc545c9","bdp_rwlrn","Sun Mar 12 2023 16:24:02 GMT-0400 (Eastern Daylight Time)","689277","Untrustworthy,Trustworthy","instructions","1","11368","0.0-1.0","[{""page_index"":0,""viewing_time"":11365}]","11365","","","","","","","","","","","","","",""
"fullscreenenter","2","12976","fullscreenenter","","5f1f3581b5cf3e103cc545c9","bdp_rwlrn","Sun Mar 12 2023 16:24:02 GMT-0400 (Eastern Daylight Time)","689277","Untrustworthy,Trustworthy","","","","","","","","","","","","","","","","","","","",""
"","","","","","5f1f3581b5cf3e103cc545c9","bdp_rwlrn","Sun Mar 12 2023 16:24:02 GMT-0400 (Eastern Daylight Time)","689277","Untrustworthy,Trustworthy","fullscreen","2","13974","0.0-2.0","","","true","","","","","","","","","","","","",""
"","","","","","5f1f3581b5cf3e103cc545c9","bdp_rwlrn","Sun Mar 12 2023 16:24:02 GMT-0400 (Eastern Daylight Time)","689277","Untrustworthy,Trustworthy","instructions","3","177310","0.0-4.0","[{""page_index"":0,""viewing_time"":10932},{""page_index"":1,""viewing_time"":91317},{""page_index"":2,""viewing_time"":4215},{""page_index"":3,""viewing_time"":15070},{""page_index"":4,""viewing_time"":39233},{""page_index"":5,""viewing_time"":2563}]","163331","","","","","","","","","","","","","",""
"","","","","","5f1f3581b5cf3e103cc545c9","bdp_rwlrn","Sun Mar 12 2023 16:24:02 GMT-0400 (Eastern Daylight Time)","689277","Untrustworthy,Trustworthy","html-keyboard-response","4","182027","0.0-5.0","","4714","","<div class='header' style='text-align:left; position: absolute; top: 5%; left: 5%;'><small>Task 3 of 5</small></div><div class='instruxDiv'><p><strong>1) What is the maximum number of points you can choose to bet on a lottery?</strong></p><p>a) 0</p><p>b) 1</p><p>c) 5</p>","B","","","","","","","","","","",""
"","","","","","5f1f3581b5cf3e103cc545c9","bdp_rwlrn","Sun Mar 12 2023 16:24:02 GMT-0400 (Eastern Daylight Time)","689277","Untrustworthy,Trustworthy","html-keyboard-response","5","186471","0.0-6.0","","4339","","<div class='header' style='text-align:left; position: absolute; top: 5%; left: 5%;'><small>Task 3 of 5</small></div><div class='instruxDiv'><p><strong>1) What is the maximum number of points you can choose to bet on a lottery?</strong></p><p>a) 0</p><p style='color:#FF0000'>b) 1</p><p>c) 5</p><h3 style='color:#FF0000'>Incorrect!</h3><h3 class='center-content'>The correct response is c).</h3><h3 class='center-content'>The maximum number of points you can choose to bet on a lottery is 5 points.</h3><p><em>Press SPACEBAR to continue</em></p></div>"," ","","","","","","","","","","",""
"","","","","","5f1f3581b5cf3e103cc545c9","bdp_rwlrn","Sun Mar 12 2023 16:24:02 GMT-0400 (Eastern Daylight Time)","689277","Untrustworthy,Trustworthy","html-keyboard-response","6","193066","0.0-7.0","","6489","","<div class='header' style='text-align:left; position: absolute; top: 5%; left: 5%;'><small>Task 3 of 5</small></div><div class='instruxDiv'><p><strong>2) How many points can you win each round?</strong></p><p>a) 10 points</p><p>b) Double what you bet</p><p>c) Quadruple what you bet</p>","B","","","","","","","","","","",""
"","","","","","5f1f3581b5cf3e103cc545c9","bdp_rwlrn","Sun Mar 12 2023 16:24:02 GMT-0400 (Eastern Daylight Time)","689277","Untrustworthy,Trustworthy","html-keyboard-response","7","194051","0.0-8.0","","879","","<div class='header' style='text-align:left; position: absolute; top: 5%; left: 5%;'><small>Task 3 of 5</small></div><div class='instruxDiv'><p><strong>2) How many points can you win each round?</strong></p><p>a) 10 points</p><p style='color:#00FF00'>b) Double what you bet</p><p>c) Quadruple what you bet</p><h3 style='color:#00FF00'>Correct!</h3><h3 class='center-content'>The correct response is b).</h3><h3 class='center-content'>You can win double the amount of points you bet.</h3><p><em>Press SPACEBAR to continue</em></p></div>"," ","","","","","","","","","","",""
"","","","","","5f1f3581b5cf3e103cc545c9","bdp_rwlrn","Sun Mar 12 2023 16:24:02 GMT-0400 (Eastern Daylight Time)","689277","Untrustworthy,Trustworthy","html-keyboard-response","8","199162","0.0-9.0","","null","","<div class='header' style='text-align:left; position: absolute; top: 5%; left: 5%;'><small>Task 3 of 5</small></div><div class='instruxDiv'><p>Thank you for completing the quiz<p>These are the actual lotteries you will be playing in the next block:<p><div class='tc' align='center'><img class='introPic' src='Fruit/watermelon.png'><br><strong>Watermelon Win$</strong></div><div class='bl' align='center'><img class='introPic' src='Fruit/apple.png'><br><strong>Awesome Apples</strong></div><div class='br' align='center'><img class='introPic' src='Fruit/papayas.png'><br><strong>Papaya Payday</strong></div></div><p>Across <strong>66 rounds</strong> you will play each lottery <strong>22 times</strong> (in random order).<p style='align:center; color:white'><font <em>Press SPACEBAR to continue</em></p>","null","","","","","","","","","","",""
"","","","","","5f1f3581b5cf3e103cc545c9","bdp_rwlrn","Sun Mar 12 2023 16:24:02 GMT-0400 (Eastern Daylight Time)","689277","Untrustworthy,Trustworthy","instructions","9","209712","0.0-10.0","[{""page_index"":0,""viewing_time"":7552},{""page_index"":1,""viewing_time"":2997}]","10549","","","","","","","","","","","","","",""
"","","","decision","","5f1f3581b5cf3e103cc545c9","bdp_rwlrn","Sun Mar 12 2023 16:24:02 GMT-0400 (Eastern Daylight Time)","689277","Untrustworthy,Trustworthy","html-keyboard-response","10","212184","0.0-11.0-1.0","","2361","","<div class='trialDiv'><img src='Fruit/watermelon.png'><br><font class='baseline'><strong>Watermelon Win$</strong><p>Choose number of points to bet.</font><div class='respPicDiv'><img src='img/responseButtonOffersNo0L.png' class='respPic'></div></div>","3","1","Watermelon Win$","Fruit/watermelon.png","Lost","0.35,0.8","14","0.35","5","1","",""
"","","","decisionFB","","5f1f3581b5cf3e103cc545c9","bdp_rwlrn","Sun Mar 12 2023 16:24:02 GMT-0400 (Eastern Daylight Time)","689277","Untrustworthy,Trustworthy","html-keyboard-response","11","212442","0.0-11.0-2.0","","null","","<div class='trialDiv'><img src='Fruit/watermelon.png'><br><font class='baseline'><strong>Watermelon Win$</strong><p>Choose number of points to bet.</font><div class='respPicDiv'><img src='img/responseButtonOffersNo0L3.png' class='respPic'></div></div>","null","1","Watermelon Win$","Fruit/watermelon.png","Lost","0.35,0.8","14","0.35","2","1","",""
"","","","feedback","","5f1f3581b5cf3e103cc545c9","bdp_rwlrn","Sun Mar 12 2023 16:24:02 GMT-0400 (Eastern Daylight Time)","689277","Untrustworthy,Trustworthy","html-keyboard-response","12","213452","0.0-11.0-3.0","","null","","<div class='respPicDiv'><img src='img/responseButtonOffersNo0_wht.png' class='respPic'></div><div class='trialDiv'><img src='Fruit/watermelon.png'><br><font class='baseline'><strong>Watermelon Win$</strong><p><strong><font class='negOutcome'>You LOST</font><p>You bet: 3</strong></font> &nbsp; &nbsp; &nbsp; &nbsp; &nbsp; &nbsp;<font class='negOutcome'>You receive: <strong>0</strong></font></div>","null","1","Watermelon Win$","Fruit/watermelon.png","Lost","0.35,0.8","14","0.35","2","1","",""
"","","","decision","","5f1f3581b5cf3e103cc545c9","bdp_rwlrn","Sun Mar 12 2023 16:24:02 GMT-0400 (Eastern Daylight Time)","689277","Untrustworthy,Trustworthy","html-keyboard-response","13","214969","0.0-11.0-1.1","","1516","","<div class='trialDiv'><img src='Fruit/apple.png'><br><font class='baseline'><strong>Awesome Apples</strong><p>Choose number of points to bet.</font><div class='respPicDiv'><img src='img/responseButtonOffersNo0L.png' class='respPic'></div></div>","5","1","Awesome Apples","Fruit/apple.png","Won","0.8,0.2","8","0.8","7","2","",""
"","","","decisionFB","","5f1f3581b5cf3e103cc545c9","bdp_rwlrn","Sun Mar 12 2023 16:24:02 GMT-0400 (Eastern Daylight Time)","689277","Untrustworthy,Trustworthy","html-keyboard-response","14","215228","0.0-11.0-2.1","","null","","<div class='trialDiv'><img src='Fruit/apple.png'><br><font class='baseline'><strong>Awesome Apples</strong><p>Choose number of points to bet.</font><div class='respPicDiv'><img src='img/responseButtonOffersNo0L5.png' class='respPic'></div></div>","null","1","Awesome Apples","Fruit/apple.png","Won","0.8,0.2","8","0.8","2","2","",""
"","","","feedback","","5f1f3581b5cf3e103cc545c9","bdp_rwlrn","Sun Mar 12 2023 16:24:02 GMT-0400 (Eastern Daylight Time)","689277","Untrustworthy,Trustworthy","html-keyboard-response","15","216234","0.0-11.0-3.1","","null","","<div class='respPicDiv'><img src='img/responseButtonOffersNo0_wht.png' class='respPic'></div><div class='trialDiv'><img src='Fruit/apple.png'><br><font class='baseline'><strong>Awesome Apples</strong><p><strong><font class='posOutcome'>You WON</font><p>You bet: 5</strong></font> &nbsp; &nbsp; &nbsp; &nbsp; &nbsp; &nbsp;<font class='posOutcome'>you receive: <strong>10</strong></font></div>","null","1","Awesome Apples","Fruit/apple.png","Won","0.8,0.2","8","0.8","12","2","",""
"","","","decision","","5f1f3581b5cf3e103cc545c9","bdp_rwlrn","Sun Mar 12 2023 16:24:02 GMT-0400 (Eastern Daylight Time)","689277","Untrustworthy,Trustworthy","html-keyboard-response","16","217686","0.0-11.0-1.2","","1450","","<div class='trialDiv'><img src='Fruit/papayas.png'><br><font class='baseline'><strong>Papaya Payday</strong><p>Choose number of points to bet.</font><div class='respPicDiv'><img src='img/responseButtonOffersNo0L.png' class='respPic'></div></div>","2","1","Papaya Payday","Fruit/papayas.png","Lost","0.65,0.2","8","0.65","17","3","",""
"","","","decisionFB","","5f1f3581b5cf3e103cc545c9","bdp_rwlrn","Sun Mar 12 2023 16:24:02 GMT-0400 (Eastern Daylight Time)","689277","Untrustworthy,Trustworthy","html-keyboard-response","17","217947","0.0-11.0-2.2","","null","","<div class='trialDiv'><img src='Fruit/papayas.png'><br><font class='baseline'><strong>Papaya Payday</strong><p>Choose number of points to bet.</font><div class='respPicDiv'><img src='img/responseButtonOffersNo0L2.png' class='respPic'></div></div>","null","1","Papaya Payday","Fruit/papayas.png","Lost","0.65,0.2","8","0.65","15","3","",""
"","","","feedback","","5f1f3581b5cf3e103cc545c9","bdp_rwlrn","Sun Mar 12 2023 16:24:02 GMT-0400 (Eastern Daylight Time)","689277","Untrustworthy,Trustworthy","html-keyboard-response","18","218957","0.0-11.0-3.2","","null","","<div class='respPicDiv'><img src='img/responseButtonOffersNo0_wht.png' class='respPic'></div><div class='trialDiv'><img src='Fruit/papayas.png'><br><font class='baseline'><strong>Papaya Payday</strong><p><strong><font class='negOutcome'>You LOST</font><p>You bet: 2</strong></font> &nbsp; &nbsp; &nbsp; &nbsp; &nbsp; &nbsp;<font class='negOutcome'>You receive: <strong>0</strong></font></div>","null","1","Papaya Payday","Fruit/papayas.png","Lost","0.65,0.2","8","0.65","15","3","",""
"","","","decision","","5f1f3581b5cf3e103cc545c9","bdp_rwlrn","Sun Mar 12 2023 16:24:02 GMT-0400 (Eastern Daylight Time)","689277","Untrustworthy,Trustworthy","html-keyboard-response","19","221222","0.0-11.0-1.3","","2262","","<div class='trialDiv'><img src='Fruit/watermelon.png'><br><font class='baseline'><strong>Watermelon Win$</strong><p>Choose number of points to bet.</font><div class='respPicDiv'><img src='img/responseButtonOffersNo0L.png' class='respPic'></div></div>","1","2","Watermelon Win$","Fruit/watermelon.png","Won","0.35,0.8","14","0.35","20","4","",""
"","","","decisionFB","","5f1f3581b5cf3e103cc545c9","bdp_rwlrn","Sun Mar 12 2023 16:24:02 GMT-0400 (Eastern Daylight Time)","689277","Untrustworthy,Trustworthy","html-keyboard-response","20","221482","0.0-11.0-2.3","","null","","<div class='trialDiv'><img src='Fruit/watermelon.png'><br><font class='baseline'><strong>Watermelon Win$</strong><p>Choose number of points to bet.</font><div class='respPicDiv'><img src='img/responseButtonOffersNo0L1.png' class='respPic'></div></div>","null","2","Watermelon Win$","Fruit/watermelon.png","Won","0.35,0.8","14","0.35","19","4","",""
"","","","feedback","","5f1f3581b5cf3e103cc545c9","bdp_rwlrn","Sun Mar 12 2023 16:24:02 GMT-0400 (Eastern Daylight Time)","689277","Untrustworthy,Trustworthy","html-keyboard-response","21","222492","0.0-11.0-3.3","","null","","<div class='respPicDiv'><img src='img/responseButtonOffersNo0_wht.png' class='respPic'></div><div class='trialDiv'><img src='Fruit/watermelon.png'><br><font class='baseline'><strong>Watermelon Win$</strong><p><strong><font class='posOutcome'>You WON</font><p>You bet: 1</strong></font> &nbsp; &nbsp; &nbsp; &nbsp; &nbsp; &nbsp;<font class='posOutcome'>you receive: <strong>2</strong></font></div>","null","2","Watermelon Win$","Fruit/watermelon.png","Won","0.35,0.8","14","0.35","21","4","",""
"","","","decision","","5f1f3581b5cf3e103cc545c9","bdp_rwlrn","Sun Mar 12 2023 16:24:02 GMT-0400 (Eastern Daylight Time)","689277","Untrustworthy,Trustworthy","html-keyboard-response","22","225570","0.0-11.0-1.4","","3075","","<div class='trialDiv'><img src='Fruit/apple.png'><br><font class='baseline'><strong>Awesome Apples</strong><p>Choose number of points to bet.</font><div class='respPicDiv'><img src='img/responseButtonOffersNo0L.png' class='respPic'></div></div>","4","2","Awesome Apples","Fruit/apple.png","Won","0.8,0.2","8","0.8","26","5","",""
"","","","decisionFB","","5f1f3581b5cf3e103cc545c9","bdp_rwlrn","Sun Mar 12 2023 16:24:02 GMT-0400 (Eastern Daylight Time)","689277","Untrustworthy,Trustworthy","html-keyboard-response","23","225830","0.0-11.0-2.4","","null","","<div class='trialDiv'><img src='Fruit/apple.png'><br><font class='baseline'><strong>Awesome Apples</strong><p>Choose number of points to bet.</font><div class='respPicDiv'><img src='img/responseButtonOffersNo0L4.png' class='respPic'></div></div>","null","2","Awesome Apples","Fruit/apple.png","Won","0.8,0.2","8","0.8","22","5","",""
"","","","feedback","","5f1f3581b5cf3e103cc545c9","bdp_rwlrn","Sun Mar 12 2023 16:24:02 GMT-0400 (Eastern Daylight Time)","689277","Untrustworthy,Trustworthy","html-keyboard-response","24","226834","0.0-11.0-3.4","","null","","<div class='respPicDiv'><img src='img/responseButtonOffersNo0_wht.png' class='respPic'></div><div class='trialDiv'><img src='Fruit/apple.png'><br><font class='baseline'><strong>Awesome Apples</strong><p><strong><font class='posOutcome'>You WON</font><p>You bet: 4</strong></font> &nbsp; &nbsp; &nbsp; &nbsp; &nbsp; &nbsp;<font class='posOutcome'>you receive: <strong>8</strong></font></div>","null","2","Awesome Apples","Fruit/apple.png","Won","0.8,0.2","8","0.8","30","5","",""
"","","","decision","","5f1f3581b5cf3e103cc545c9","bdp_rwlrn","Sun Mar 12 2023 16:24:02 GMT-0400 (Eastern Daylight Time)","689277","Untrustworthy,Trustworthy","html-keyboard-response","25","228389","0.0-11.0-1.5","","1552","","<div class='trialDiv'><img src='Fruit/papayas.png'><br><font class='baseline'><strong>Papaya Payday</strong><p>Choose number of points to bet.</font><div class='respPicDiv'><img src='img/responseButtonOffersNo0L.png' class='respPic'></div></div>","2","2","Papaya Payday","Fruit/papayas.png","Won","0.65,0.2","8","0.65","35","6","",""
"","","","decisionFB","","5f1f3581b5cf3e103cc545c9","bdp_rwlrn","Sun Mar 12 2023 16:24:02 GMT-0400 (Eastern Daylight Time)","689277","Untrustworthy,Trustworthy","html-keyboard-response","26","228642","0.0-11.0-2.5","","null","","<div class='trialDiv'><img src='Fruit/papayas.png'><br><font class='baseline'><strong>Papaya Payday</strong><p>Choose number of points to bet.</font><div class='respPicDiv'><img src='img/responseButtonOffersNo0L2.png' class='respPic'></div></div>","null","2","Papaya Payday","Fruit/papayas.png","Won","0.65,0.2","8","0.65","33","6","",""
"","","","feedback","","5f1f3581b5cf3e103cc545c9","bdp_rwlrn","Sun Mar 12 2023 16:24:02 GMT-0400 (Eastern Daylight Time)","689277","Untrustworthy,Trustworthy","html-keyboard-response","27","229650","0.0-11.0-3.5","","null","","<div class='respPicDiv'><img src='img/responseButtonOffersNo0_wht.png' class='respPic'></div><div class='trialDiv'><img src='Fruit/papayas.png'><br><font class='baseline'><strong>Papaya Payday</strong><p><strong><font class='posOutcome'>You WON</font><p>You bet: 2</strong></font> &nbsp; &nbsp; &nbsp; &nbsp; &nbsp; &nbsp;<font class='posOutcome'>you receive: <strong>4</strong></font></div>","null","2","Papaya Payday","Fruit/papayas.png","Won","0.65,0.2","8","0.65","37","6","",""
"","","","decision","","5f1f3581b5cf3e103cc545c9","bdp_rwlrn","Sun Mar 12 2023 16:24:02 GMT-0400 (Eastern Daylight Time)","689277","Untrustworthy,Trustworthy","html-keyboard-response","28","230639","0.0-11.0-1.6","","988","","<div class='trialDiv'><img src='Fruit/watermelon.png'><br><font class='baseline'><strong>Watermelon Win$</strong><p>Choose number of points to bet.</font><div class='respPicDiv'><img src='img/responseButtonOffersNo0L.png' class='respPic'></div></div>","2","3","Watermelon Win$","Fruit/watermelon.png","Lost","0.35,0.8","14","0.35","42","7","",""
"","","","decisionFB","","5f1f3581b5cf3e103cc545c9","bdp_rwlrn","Sun Mar 12 2023 16:24:02 GMT-0400 (Eastern Daylight Time)","689277","Untrustworthy,Trustworthy","html-keyboard-response","29","230898","0.0-11.0-2.6","","null","","<div class='trialDiv'><img src='Fruit/watermelon.png'><br><font class='baseline'><strong>Watermelon Win$</strong><p>Choose number of points to bet.</font><div class='respPicDiv'><img src='img/responseButtonOffersNo0L2.png' class='respPic'></div></div>","null","3","Watermelon Win$","Fruit/watermelon.png","Lost","0.35,0.8","14","0.35","40","7","",""
"","","","feedback","","5f1f3581b5cf3e103cc545c9","bdp_rwlrn","Sun Mar 12 2023 16:24:02 GMT-0400 (Eastern Daylight Time)","689277","Untrustworthy,Trustworthy","html-keyboard-response","30","231908","0.0-11.0-3.6","","null","","<div class='respPicDiv'><img src='img/responseButtonOffersNo0_wht.png' class='respPic'></div><div class='trialDiv'><img src='Fruit/watermelon.png'><br><font class='baseline'><strong>Watermelon Win$</strong><p><strong><font class='negOutcome'>You LOST</font><p>You bet: 2</strong></font> &nbsp; &nbsp; &nbsp; &nbsp; &nbsp; &nbsp;<font class='negOutcome'>You receive: <strong>0</strong></font></div>","null","3","Watermelon Win$","Fruit/watermelon.png","Lost","0.35,0.8","14","0.35","40","7","",""
"","","","decision","","5f1f3581b5cf3e103cc545c9","bdp_rwlrn","Sun Mar 12 2023 16:24:02 GMT-0400 (Eastern Daylight Time)","689277","Untrustworthy,Trustworthy","html-keyboard-response","31","233566","0.0-11.0-1.7","","1656","","<div class='trialDiv'><img src='Fruit/papayas.png'><br><font class='baseline'><strong>Papaya Payday</strong><p>Choose number of points to bet.</font><div class='respPicDiv'><img src='img/responseButtonOffersNo0L.png' class='respPic'></div></div>","3","3","Papaya Payday","Fruit/papayas.png","Won","0.65,0.2","8","0.65","45","8","",""
"","","","decisionFB","","5f1f3581b5cf3e103cc545c9","bdp_rwlrn","Sun Mar 12 2023 16:24:02 GMT-0400 (Eastern Daylight Time)","689277","Untrustworthy,Trustworthy","html-keyboard-response","32","233828","0.0-11.0-2.7","","null","","<div class='trialDiv'><img src='Fruit/papayas.png'><br><font class='baseline'><strong>Papaya Payday</strong><p>Choose number of points to bet.</font><div class='respPicDiv'><img src='img/responseButtonOffersNo0L3.png' class='respPic'></div></div>","null","3","Papaya Payday","Fruit/papayas.png","Won","0.65,0.2","8","0.65","42","8","",""
"","","","feedback","","5f1f3581b5cf3e103cc545c9","bdp_rwlrn","Sun Mar 12 2023 16:24:02 GMT-0400 (Eastern Daylight Time)","689277","Untrustworthy,Trustworthy","html-keyboard-response","33","234833","0.0-11.0-3.7","","null","","<div class='respPicDiv'><img src='img/responseButtonOffersNo0_wht.png' class='respPic'></div><div class='trialDiv'><img src='Fruit/papayas.png'><br><font class='baseline'><strong>Papaya Payday</strong><p><strong><font class='posOutcome'>You WON</font><p>You bet: 3</strong></font> &nbsp; &nbsp; &nbsp; &nbsp; &nbsp; &nbsp;<font class='posOutcome'>you receive: <strong>6</strong></font></div>","null","3","Papaya Payday","Fruit/papayas.png","Won","0.65,0.2","8","0.65","48","8","",""
"","","","decision","","5f1f3581b5cf3e103cc545c9","bdp_rwlrn","Sun Mar 12 2023 16:24:02 GMT-0400 (Eastern Daylight Time)","689277","Untrustworthy,Trustworthy","html-keyboard-response","34","237430","0.0-11.0-1.8","","2595","","<div class='trialDiv'><img src='Fruit/apple.png'><br><font class='baseline'><strong>Awesome Apples</strong><p>Choose number of points to bet.</font><div class='respPicDiv'><img src='img/responseButtonOffersNo0L.png' class='respPic'></div></div>","1","3","Awesome Apples","Fruit/apple.png","Lost","0.8,0.2","8","0.8","53","9","",""
"","","","decisionFB","","5f1f3581b5cf3e103cc545c9","bdp_rwlrn","Sun Mar 12 2023 16:24:02 GMT-0400 (Eastern Daylight Time)","689277","Untrustworthy,Trustworthy","html-keyboard-response","35","237689","0.0-11.0-2.8","","null","","<div class='trialDiv'><img src='Fruit/apple.png'><br><font class='baseline'><strong>Awesome Apples</strong><p>Choose number of points to bet.</font><div class='respPicDiv'><img src='img/responseButtonOffersNo0L1.png' class='respPic'></div></div>","null","3","Awesome Apples","Fruit/apple.png","Lost","0.8,0.2","8","0.8","52","9","",""
"","","","feedback","","5f1f3581b5cf3e103cc545c9","bdp_rwlrn","Sun Mar 12 2023 16:24:02 GMT-0400 (Eastern Daylight Time)","689277","Untrustworthy,Trustworthy","html-keyboard-response","36","238700","0.0-11.0-3.8","","null","","<div class='respPicDiv'><img src='img/responseButtonOffersNo0_wht.png' class='respPic'></div><div class='trialDiv'><img src='Fruit/apple.png'><br><font class='baseline'><strong>Awesome Apples</strong><p><strong><font class='negOutcome'>You LOST</font><p>You bet: 1</strong></font> &nbsp; &nbsp; &nbsp; &nbsp; &nbsp; &nbsp;<font class='negOutcome'>You receive: <strong>0</strong></font></div>","null","3","Awesome Apples","Fruit/apple.png","Lost","0.8,0.2","8","0.8","52","9","",""
"","","","decision","","5f1f3581b5cf3e103cc545c9","bdp_rwlrn","Sun Mar 12 2023 16:24:02 GMT-0400 (Eastern Daylight Time)","689277","Untrustworthy,Trustworthy","html-keyboard-response","37","243263","0.0-11.0-1.9","","4562","","<div class='trialDiv'><img src='Fruit/papayas.png'><br><font class='baseline'><strong>Papaya Payday</strong><p>Choose number of points to bet.</font><div class='respPicDiv'><img src='img/responseButtonOffersNo0L.png' class='respPic'></div></div>","2","4","Papaya Payday","Fruit/papayas.png","Lost","0.65,0.2","8","0.65","57","10","",""
"","","","decisionFB","","5f1f3581b5cf3e103cc545c9","bdp_rwlrn","Sun Mar 12 2023 16:24:02 GMT-0400 (Eastern Daylight Time)","689277","Untrustworthy,Trustworthy","html-keyboard-response","38","243524","0.0-11.0-2.9","","null","","<div class='trialDiv'><img src='Fruit/papayas.png'><br><font class='baseline'><strong>Papaya Payday</strong><p>Choose number of points to bet.</font><div class='respPicDiv'><img src='img/responseButtonOffersNo0L2.png' class='respPic'></div></div>","null","4","Papaya Payday","Fruit/papayas.png","Lost","0.65,0.2","8","0.65","55","10","",""
"","","","feedback","","5f1f3581b5cf3e103cc545c9","bdp_rwlrn","Sun Mar 12 2023 16:24:02 GMT-0400 (Eastern Daylight Time)","689277","Untrustworthy,Trustworthy","html-keyboard-response","39","244534","0.0-11.0-3.9","","null","","<div class='respPicDiv'><img src='img/responseButtonOffersNo0_wht.png' class='respPic'></div><div class='trialDiv'><img src='Fruit/papayas.png'><br><font class='baseline'><strong>Papaya Payday</strong><p><strong><font class='negOutcome'>You LOST</font><p>You bet: 2</strong></font> &nbsp; &nbsp; &nbsp; &nbsp; &nbsp; &nbsp;<font class='negOutcome'>You receive: <strong>0</strong></font></div>","null","4","Papaya Payday","Fruit/papayas.png","Lost","0.65,0.2","8","0.65","55","10","",""
"","","","decision","","5f1f3581b5cf3e103cc545c9","bdp_rwlrn","Sun Mar 12 2023 16:24:02 GMT-0400 (Eastern Daylight Time)","689277","Untrustworthy,Trustworthy","html-keyboard-response","40","246828","0.0-11.0-1.10","","2293","","<div class='trialDiv'><img src='Fruit/watermelon.png'><br><font class='baseline'><strong>Watermelon Win$</strong><p>Choose number of points to bet.</font><div class='respPicDiv'><img src='img/responseButtonOffersNo0L.png' class='respPic'></div></div>","4","4","Watermelon Win$","Fruit/watermelon.png","Lost","0.35,0.8","14","0.35","60","11","",""
"","","","decisionFB","","5f1f3581b5cf3e103cc545c9","bdp_rwlrn","Sun Mar 12 2023 16:24:02 GMT-0400 (Eastern Daylight Time)","689277","Untrustworthy,Trustworthy","html-keyboard-response","41","247081","0.0-11.0-2.10","","null","","<div class='trialDiv'><img src='Fruit/watermelon.png'><br><font class='baseline'><strong>Watermelon Win$</strong><p>Choose number of points to bet.</font><div class='respPicDiv'><img src='img/responseButtonOffersNo0L4.png' class='respPic'></div></div>","null","4","Watermelon Win$","Fruit/watermelon.png","Lost","0.35,0.8","14","0.35","56","11","",""
"","","","feedback","","5f1f3581b5cf3e103cc545c9","bdp_rwlrn","Sun Mar 12 2023 16:24:02 GMT-0400 (Eastern Daylight Time)","689277","Untrustworthy,Trustworthy","html-keyboard-response","42","248092","0.0-11.0-3.10","","null","","<div class='respPicDiv'><img src='img/responseButtonOffersNo0_wht.png' class='respPic'></div><div class='trialDiv'><img src='Fruit/watermelon.png'><br><font class='baseline'><strong>Watermelon Win$</strong><p><strong><font class='negOutcome'>You LOST</font><p>You bet: 4</strong></font> &nbsp; &nbsp; &nbsp; &nbsp; &nbsp; &nbsp;<font class='negOutcome'>You receive: <strong>0</strong></font></div>","null","4","Watermelon Win$","Fruit/watermelon.png","Lost","0.35,0.8","14","0.35","56","11","",""
"","","","decision","","5f1f3581b5cf3e103cc545c9","bdp_rwlrn","Sun Mar 12 2023 16:24:02 GMT-0400 (Eastern Daylight Time)","689277","Untrustworthy,Trustworthy","html-keyboard-response","43","249606","0.0-11.0-1.11","","1512","","<div class='trialDiv'><img src='Fruit/apple.png'><br><font class='baseline'><strong>Awesome Apples</strong><p>Choose number of points to bet.</font><div class='respPicDiv'><img src='img/responseButtonOffersNo0L.png' class='respPic'></div></div>","4","4","Awesome Apples","Fruit/apple.png","Won","0.8,0.2","8","0.8","61","12","",""
"","","","decisionFB","","5f1f3581b5cf3e103cc545c9","bdp_rwlrn","Sun Mar 12 2023 16:24:02 GMT-0400 (Eastern Daylight Time)","689277","Untrustworthy,Trustworthy","html-keyboard-response","44","249868","0.0-11.0-2.11","","null","","<div class='trialDiv'><img src='Fruit/apple.png'><br><font class='baseline'><strong>Awesome Apples</strong><p>Choose number of points to bet.</font><div class='respPicDiv'><img src='img/responseButtonOffersNo0L4.png' class='respPic'></div></div>","null","4","Awesome Apples","Fruit/apple.png","Won","0.8,0.2","8","0.8","57","12","",""
"","","","feedback","","5f1f3581b5cf3e103cc545c9","bdp_rwlrn","Sun Mar 12 2023 16:24:02 GMT-0400 (Eastern Daylight Time)","689277","Untrustworthy,Trustworthy","html-keyboard-response","45","250873","0.0-11.0-3.11","","null","","<div class='respPicDiv'><img src='img/responseButtonOffersNo0_wht.png' class='respPic'></div><div class='trialDiv'><img src='Fruit/apple.png'><br><font class='baseline'><strong>Awesome Apples</strong><p><strong><font class='posOutcome'>You WON</font><p>You bet: 4</strong></font> &nbsp; &nbsp; &nbsp; &nbsp; &nbsp; &nbsp;<font class='posOutcome'>you receive: <strong>8</strong></font></div>","null","4","Awesome Apples","Fruit/apple.png","Won","0.8,0.2","8","0.8","65","12","",""
"","","","decision","","5f1f3581b5cf3e103cc545c9","bdp_rwlrn","Sun Mar 12 2023 16:24:02 GMT-0400 (Eastern Daylight Time)","689277","Untrustworthy,Trustworthy","html-keyboard-response","46","252290","0.0-11.0-1.12","","1416","","<div class='trialDiv'><img src='Fruit/papayas.png'><br><font class='baseline'><strong>Papaya Payday</strong><p>Choose number of points to bet.</font><div class='respPicDiv'><img src='img/responseButtonOffersNo0L.png' class='respPic'></div></div>","4","5","Papaya Payday","Fruit/papayas.png","Lost","0.65,0.2","8","0.65","70","13","",""
"","","","decisionFB","","5f1f3581b5cf3e103cc545c9","bdp_rwlrn","Sun Mar 12 2023 16:24:02 GMT-0400 (Eastern Daylight Time)","689277","Untrustworthy,Trustworthy","html-keyboard-response","47","252549","0.0-11.0-2.12","","null","","<div class='trialDiv'><img src='Fruit/papayas.png'><br><font class='baseline'><strong>Papaya Payday</strong><p>Choose number of points to bet.</font><div class='respPicDiv'><img src='img/responseButtonOffersNo0L4.png' class='respPic'></div></div>","null","5","Papaya Payday","Fruit/papayas.png","Lost","0.65,0.2","8","0.65","66","13","",""
"","","","feedback","","5f1f3581b5cf3e103cc545c9","bdp_rwlrn","Sun Mar 12 2023 16:24:02 GMT-0400 (Eastern Daylight Time)","689277","Untrustworthy,Trustworthy","html-keyboard-response","48","253554","0.0-11.0-3.12","","null","","<div class='respPicDiv'><img src='img/responseButtonOffersNo0_wht.png' class='respPic'></div><div class='trialDiv'><img src='Fruit/papayas.png'><br><font class='baseline'><strong>Papaya Payday</strong><p><strong><font class='negOutcome'>You LOST</font><p>You bet: 4</strong></font> &nbsp; &nbsp; &nbsp; &nbsp; &nbsp; &nbsp;<font class='negOutcome'>You receive: <strong>0</strong></font></div>","null","5","Papaya Payday","Fruit/papayas.png","Lost","0.65,0.2","8","0.65","66","13","",""
"","","","decision","","5f1f3581b5cf3e103cc545c9","bdp_rwlrn","Sun Mar 12 2023 16:24:02 GMT-0400 (Eastern Daylight Time)","689277","Untrustworthy,Trustworthy","html-keyboard-response","49","255881","0.0-11.0-1.13","","2325","","<div class='trialDiv'><img src='Fruit/apple.png'><br><font class='baseline'><strong>Awesome Apples</strong><p>Choose number of points to bet.</font><div class='respPicDiv'><img src='img/responseButtonOffersNo0L.png' class='respPic'></div></div>","5","5","Awesome Apples","Fruit/apple.png","Won","0.8,0.2","8","0.8","71","14","",""
"","","","decisionFB","","5f1f3581b5cf3e103cc545c9","bdp_rwlrn","Sun Mar 12 2023 16:24:02 GMT-0400 (Eastern Daylight Time)","689277","Untrustworthy,Trustworthy","html-keyboard-response","50","256138","0.0-11.0-2.13","","null","","<div class='trialDiv'><img src='Fruit/apple.png'><br><font class='baseline'><strong>Awesome Apples</strong><p>Choose number of points to bet.</font><div class='respPicDiv'><img src='img/responseButtonOffersNo0L5.png' class='respPic'></div></div>","null","5","Awesome Apples","Fruit/apple.png","Won","0.8,0.2","8","0.8","66","14","",""
"","","","feedback","","5f1f3581b5cf3e103cc545c9","bdp_rwlrn","Sun Mar 12 2023 16:24:02 GMT-0400 (Eastern Daylight Time)","689277","Untrustworthy,Trustworthy","html-keyboard-response","51","257148","0.0-11.0-3.13","","null","","<div class='respPicDiv'><img src='img/responseButtonOffersNo0_wht.png' class='respPic'></div><div class='trialDiv'><img src='Fruit/apple.png'><br><font class='baseline'><strong>Awesome Apples</strong><p><strong><font class='posOutcome'>You WON</font><p>You bet: 5</strong></font> &nbsp; &nbsp; &nbsp; &nbsp; &nbsp; &nbsp;<font class='posOutcome'>you receive: <strong>10</strong></font></div>","null","5","Awesome Apples","Fruit/apple.png","Won","0.8,0.2","8","0.8","76","14","",""
"","","","decision","","5f1f3581b5cf3e103cc545c9","bdp_rwlrn","Sun Mar 12 2023 16:24:02 GMT-0400 (Eastern Daylight Time)","689277","Untrustworthy,Trustworthy","html-keyboard-response","52","260071","0.0-11.0-1.14","","2922","","<div class='trialDiv'><img src='Fruit/watermelon.png'><br><font class='baseline'><strong>Watermelon Win$</strong><p>Choose number of points to bet.</font><div class='respPicDiv'><img src='img/responseButtonOffersNo0L.png' class='respPic'></div></div>","2","5","Watermelon Win$","Fruit/watermelon.png","Lost","0.35,0.8","14","0.35","81","15","",""
"","","","decisionFB","","5f1f3581b5cf3e103cc545c9","bdp_rwlrn","Sun Mar 12 2023 16:24:02 GMT-0400 (Eastern Daylight Time)","689277","Untrustworthy,Trustworthy","html-keyboard-response","53","260329","0.0-11.0-2.14","","null","","<div class='trialDiv'><img src='Fruit/watermelon.png'><br><font class='baseline'><strong>Watermelon Win$</strong><p>Choose number of points to bet.</font><div class='respPicDiv'><img src='img/responseButtonOffersNo0L2.png' class='respPic'></div></div>","null","5","Watermelon Win$","Fruit/watermelon.png","Lost","0.35,0.8","14","0.35","79","15","",""
"","","","feedback","","5f1f3581b5cf3e103cc545c9","bdp_rwlrn","Sun Mar 12 2023 16:24:02 GMT-0400 (Eastern Daylight Time)","689277","Untrustworthy,Trustworthy","html-keyboard-response","54","261333","0.0-11.0-3.14","","null","","<div class='respPicDiv'><img src='img/responseButtonOffersNo0_wht.png' class='respPic'></div><div class='trialDiv'><img src='Fruit/watermelon.png'><br><font class='baseline'><strong>Watermelon Win$</strong><p><strong><font class='negOutcome'>You LOST</font><p>You bet: 2</strong></font> &nbsp; &nbsp; &nbsp; &nbsp; &nbsp; &nbsp;<font class='negOutcome'>You receive: <strong>0</strong></font></div>","null","5","Watermelon Win$","Fruit/watermelon.png","Lost","0.35,0.8","14","0.35","79","15","",""
"","","","decision","","5f1f3581b5cf3e103cc545c9","bdp_rwlrn","Sun Mar 12 2023 16:24:02 GMT-0400 (Eastern Daylight Time)","689277","Untrustworthy,Trustworthy","html-keyboard-response","55","263020","0.0-11.0-1.15","","1685","","<div class='trialDiv'><img src='Fruit/apple.png'><br><font class='baseline'><strong>Awesome Apples</strong><p>Choose number of points to bet.</font><div class='respPicDiv'><img src='img/responseButtonOffersNo0L.png' class='respPic'></div></div>","5","6","Awesome Apples","Fruit/apple.png","Won","0.8,0.2","8","0.8","84","16","",""
"","","","decisionFB","","5f1f3581b5cf3e103cc545c9","bdp_rwlrn","Sun Mar 12 2023 16:24:02 GMT-0400 (Eastern Daylight Time)","689277","Untrustworthy,Trustworthy","html-keyboard-response","56","263274","0.0-11.0-2.15","","null","","<div class='trialDiv'><img src='Fruit/apple.png'><br><font class='baseline'><strong>Awesome Apples</strong><p>Choose number of points to bet.</font><div class='respPicDiv'><img src='img/responseButtonOffersNo0L5.png' class='respPic'></div></div>","null","6","Awesome Apples","Fruit/apple.png","Won","0.8,0.2","8","0.8","79","16","",""
"","","","feedback","","5f1f3581b5cf3e103cc545c9","bdp_rwlrn","Sun Mar 12 2023 16:24:02 GMT-0400 (Eastern Daylight Time)","689277","Untrustworthy,Trustworthy","html-keyboard-response","57","264282","0.0-11.0-3.15","","null","","<div class='respPicDiv'><img src='img/responseButtonOffersNo0_wht.png' class='respPic'></div><div class='trialDiv'><img src='Fruit/apple.png'><br><font class='baseline'><strong>Awesome Apples</strong><p><strong><font class='posOutcome'>You WON</font><p>You bet: 5</strong></font> &nbsp; &nbsp; &nbsp; &nbsp; &nbsp; &nbsp;<font class='posOutcome'>you receive: <strong>10</strong></font></div>","null","6","Awesome Apples","Fruit/apple.png","Won","0.8,0.2","8","0.8","89","16","",""
"","","","decision","","5f1f3581b5cf3e103cc545c9","bdp_rwlrn","Sun Mar 12 2023 16:24:02 GMT-0400 (Eastern Daylight Time)","689277","Untrustworthy,Trustworthy","html-keyboard-response","58","265622","0.0-11.0-1.16","","1338","","<div class='trialDiv'><img src='Fruit/papayas.png'><br><font class='baseline'><strong>Papaya Payday</strong><p>Choose number of points to bet.</font><div class='respPicDiv'><img src='img/responseButtonOffersNo0L.png' class='respPic'></div></div>","3","6","Papaya Payday","Fruit/papayas.png","Won","0.65,0.2","8","0.65","94","17","",""
"","","","decisionFB","","5f1f3581b5cf3e103cc545c9","bdp_rwlrn","Sun Mar 12 2023 16:24:02 GMT-0400 (Eastern Daylight Time)","689277","Untrustworthy,Trustworthy","html-keyboard-response","59","265884","0.0-11.0-2.16","","null","","<div class='trialDiv'><img src='Fruit/papayas.png'><br><font class='baseline'><strong>Papaya Payday</strong><p>Choose number of points to bet.</font><div class='respPicDiv'><img src='img/responseButtonOffersNo0L3.png' class='respPic'></div></div>","null","6","Papaya Payday","Fruit/papayas.png","Won","0.65,0.2","8","0.65","91","17","",""
"","","","feedback","","5f1f3581b5cf3e103cc545c9","bdp_rwlrn","Sun Mar 12 2023 16:24:02 GMT-0400 (Eastern Daylight Time)","689277","Untrustworthy,Trustworthy","html-keyboard-response","60","266889","0.0-11.0-3.16","","null","","<div class='respPicDiv'><img src='img/responseButtonOffersNo0_wht.png' class='respPic'></div><div class='trialDiv'><img src='Fruit/papayas.png'><br><font class='baseline'><strong>Papaya Payday</strong><p><strong><font class='posOutcome'>You WON</font><p>You bet: 3</strong></font> &nbsp; &nbsp; &nbsp; &nbsp; &nbsp; &nbsp;<font class='posOutcome'>you receive: <strong>6</strong></font></div>","null","6","Papaya Payday","Fruit/papayas.png","Won","0.65,0.2","8","0.65","97","17","",""
"","","","decision","","5f1f3581b5cf3e103cc545c9","bdp_rwlrn","Sun Mar 12 2023 16:24:02 GMT-0400 (Eastern Daylight Time)","689277","Untrustworthy,Trustworthy","html-keyboard-response","61","268138","0.0-11.0-1.17","","1248","","<div class='trialDiv'><img src='Fruit/watermelon.png'><br><font class='baseline'><strong>Watermelon Win$</strong><p>Choose number of points to bet.</font><div class='respPicDiv'><img src='img/responseButtonOffersNo0L.png' class='respPic'></div></div>","3","6","Watermelon Win$","Fruit/watermelon.png","Lost","0.35,0.8","14","0.35","102","18","",""
"","","","decisionFB","","5f1f3581b5cf3e103cc545c9","bdp_rwlrn","Sun Mar 12 2023 16:24:02 GMT-0400 (Eastern Daylight Time)","689277","Untrustworthy,Trustworthy","html-keyboard-response","62","268395","0.0-11.0-2.17","","null","","<div class='trialDiv'><img src='Fruit/watermelon.png'><br><font class='baseline'><strong>Watermelon Win$</strong><p>Choose number of points to bet.</font><div class='respPicDiv'><img src='img/responseButtonOffersNo0L3.png' class='respPic'></div></div>","null","6","Watermelon Win$","Fruit/watermelon.png","Lost","0.35,0.8","14","0.35","99","18","",""
"","","","feedback","","5f1f3581b5cf3e103cc545c9","bdp_rwlrn","Sun Mar 12 2023 16:24:02 GMT-0400 (Eastern Daylight Time)","689277","Untrustworthy,Trustworthy","html-keyboard-response","63","269402","0.0-11.0-3.17","","null","","<div class='respPicDiv'><img src='img/responseButtonOffersNo0_wht.png' class='respPic'></div><div class='trialDiv'><img src='Fruit/watermelon.png'><br><font class='baseline'><strong>Watermelon Win$</strong><p><strong><font class='negOutcome'>You LOST</font><p>You bet: 3</strong></font> &nbsp; &nbsp; &nbsp; &nbsp; &nbsp; &nbsp;<font class='negOutcome'>You receive: <strong>0</strong></font></div>","null","6","Watermelon Win$","Fruit/watermelon.png","Lost","0.35,0.8","14","0.35","99","18","",""
"","","","decision","","5f1f3581b5cf3e103cc545c9","bdp_rwlrn","Sun Mar 12 2023 16:24:02 GMT-0400 (Eastern Daylight Time)","689277","Untrustworthy,Trustworthy","html-keyboard-response","64","270570","0.0-11.0-1.18","","1166","","<div class='trialDiv'><img src='Fruit/apple.png'><br><font class='baseline'><strong>Awesome Apples</strong><p>Choose number of points to bet.</font><div class='respPicDiv'><img src='img/responseButtonOffersNo0L.png' class='respPic'></div></div>","5","7","Awesome Apples","Fruit/apple.png","Won","0.8,0.2","8","0.8","104","19","",""
"","","","decisionFB","","5f1f3581b5cf3e103cc545c9","bdp_rwlrn","Sun Mar 12 2023 16:24:02 GMT-0400 (Eastern Daylight Time)","689277","Untrustworthy,Trustworthy","html-keyboard-response","65","270829","0.0-11.0-2.18","","null","","<div class='trialDiv'><img src='Fruit/apple.png'><br><font class='baseline'><strong>Awesome Apples</strong><p>Choose number of points to bet.</font><div class='respPicDiv'><img src='img/responseButtonOffersNo0L5.png' class='respPic'></div></div>","null","7","Awesome Apples","Fruit/apple.png","Won","0.8,0.2","8","0.8","99","19","",""
"","","","feedback","","5f1f3581b5cf3e103cc545c9","bdp_rwlrn","Sun Mar 12 2023 16:24:02 GMT-0400 (Eastern Daylight Time)","689277","Untrustworthy,Trustworthy","html-keyboard-response","66","271834","0.0-11.0-3.18","","null","","<div class='respPicDiv'><img src='img/responseButtonOffersNo0_wht.png' class='respPic'></div><div class='trialDiv'><img src='Fruit/apple.png'><br><font class='baseline'><strong>Awesome Apples</strong><p><strong><font class='posOutcome'>You WON</font><p>You bet: 5</strong></font> &nbsp; &nbsp; &nbsp; &nbsp; &nbsp; &nbsp;<font class='posOutcome'>you receive: <strong>10</strong></font></div>","null","7","Awesome Apples","Fruit/apple.png","Won","0.8,0.2","8","0.8","109","19","",""
"","","","decision","","5f1f3581b5cf3e103cc545c9","bdp_rwlrn","Sun Mar 12 2023 16:24:02 GMT-0400 (Eastern Daylight Time)","689277","Untrustworthy,Trustworthy","html-keyboard-response","67","273050","0.0-11.0-1.19","","1214","","<div class='trialDiv'><img src='Fruit/watermelon.png'><br><font class='baseline'><strong>Watermelon Win$</strong><p>Choose number of points to bet.</font><div class='respPicDiv'><img src='img/responseButtonOffersNo0L.png' class='respPic'></div></div>","1","7","Watermelon Win$","Fruit/watermelon.png","Won","0.35,0.8","14","0.35","114","20","",""
"","","","decisionFB","","5f1f3581b5cf3e103cc545c9","bdp_rwlrn","Sun Mar 12 2023 16:24:02 GMT-0400 (Eastern Daylight Time)","689277","Untrustworthy,Trustworthy","html-keyboard-response","68","273309","0.0-11.0-2.19","","null","","<div class='trialDiv'><img src='Fruit/watermelon.png'><br><font class='baseline'><strong>Watermelon Win$</strong><p>Choose number of points to bet.</font><div class='respPicDiv'><img src='img/responseButtonOffersNo0L1.png' class='respPic'></div></div>","null","7","Watermelon Win$","Fruit/watermelon.png","Won","0.35,0.8","14","0.35","113","20","",""
"","","","feedback","","5f1f3581b5cf3e103cc545c9","bdp_rwlrn","Sun Mar 12 2023 16:24:02 GMT-0400 (Eastern Daylight Time)","689277","Untrustworthy,Trustworthy","html-keyboard-response","69","274313","0.0-11.0-3.19","","null","","<div class='respPicDiv'><img src='img/responseButtonOffersNo0_wht.png' class='respPic'></div><div class='trialDiv'><img src='Fruit/watermelon.png'><br><font class='baseline'><strong>Watermelon Win$</strong><p><strong><font class='posOutcome'>You WON</font><p>You bet: 1</strong></font> &nbsp; &nbsp; &nbsp; &nbsp; &nbsp; &nbsp;<font class='posOutcome'>you receive: <strong>2</strong></font></div>","null","7","Watermelon Win$","Fruit/watermelon.png","Won","0.35,0.8","14","0.35","115","20","",""
"","","","decision","","5f1f3581b5cf3e103cc545c9","bdp_rwlrn","Sun Mar 12 2023 16:24:02 GMT-0400 (Eastern Daylight Time)","689277","Untrustworthy,Trustworthy","html-keyboard-response","70","276684","0.0-11.0-1.20","","2368","","<div class='trialDiv'><img src='Fruit/papayas.png'><br><font class='baseline'><strong>Papaya Payday</strong><p>Choose number of points to bet.</font><div class='respPicDiv'><img src='img/responseButtonOffersNo0L.png' class='respPic'></div></div>","3","7","Papaya Payday","Fruit/papayas.png","Won","0.65,0.2","8","0.65","120","21","",""
"","","","decisionFB","","5f1f3581b5cf3e103cc545c9","bdp_rwlrn","Sun Mar 12 2023 16:24:02 GMT-0400 (Eastern Daylight Time)","689277","Untrustworthy,Trustworthy","html-keyboard-response","71","276937","0.0-11.0-2.20","","null","","<div class='trialDiv'><img src='Fruit/papayas.png'><br><font class='baseline'><strong>Papaya Payday</strong><p>Choose number of points to bet.</font><div class='respPicDiv'><img src='img/responseButtonOffersNo0L3.png' class='respPic'></div></div>","null","7","Papaya Payday","Fruit/papayas.png","Won","0.65,0.2","8","0.65","117","21","",""
"","","","feedback","","5f1f3581b5cf3e103cc545c9","bdp_rwlrn","Sun Mar 12 2023 16:24:02 GMT-0400 (Eastern Daylight Time)","689277","Untrustworthy,Trustworthy","html-keyboard-response","72","277947","0.0-11.0-3.20","","null","","<div class='respPicDiv'><img src='img/responseButtonOffersNo0_wht.png' class='respPic'></div><div class='trialDiv'><img src='Fruit/papayas.png'><br><font class='baseline'><strong>Papaya Payday</strong><p><strong><font class='posOutcome'>You WON</font><p>You bet: 3</strong></font> &nbsp; &nbsp; &nbsp; &nbsp; &nbsp; &nbsp;<font class='posOutcome'>you receive: <strong>6</strong></font></div>","null","7","Papaya Payday","Fruit/papayas.png","Won","0.65,0.2","8","0.65","123","21","",""
"","","","decision","","5f1f3581b5cf3e103cc545c9","bdp_rwlrn","Sun Mar 12 2023 16:24:02 GMT-0400 (Eastern Daylight Time)","689277","Untrustworthy,Trustworthy","html-keyboard-response","73","279192","0.0-11.0-1.21","","1243","","<div class='trialDiv'><img src='Fruit/watermelon.png'><br><font class='baseline'><strong>Watermelon Win$</strong><p>Choose number of points to bet.</font><div class='respPicDiv'><img src='img/responseButtonOffersNo0L.png' class='respPic'></div></div>","2","8","Watermelon Win$","Fruit/watermelon.png","Lost","0.35,0.8","14","0.35","128","22","",""
"","","","decisionFB","","5f1f3581b5cf3e103cc545c9","bdp_rwlrn","Sun Mar 12 2023 16:24:02 GMT-0400 (Eastern Daylight Time)","689277","Untrustworthy,Trustworthy","html-keyboard-response","74","279450","0.0-11.0-2.21","","null","","<div class='trialDiv'><img src='Fruit/watermelon.png'><br><font class='baseline'><strong>Watermelon Win$</strong><p>Choose number of points to bet.</font><div class='respPicDiv'><img src='img/responseButtonOffersNo0L2.png' class='respPic'></div></div>","null","8","Watermelon Win$","Fruit/watermelon.png","Lost","0.35,0.8","14","0.35","126","22","",""
"","","","feedback","","5f1f3581b5cf3e103cc545c9","bdp_rwlrn","Sun Mar 12 2023 16:24:02 GMT-0400 (Eastern Daylight Time)","689277","Untrustworthy,Trustworthy","html-keyboard-response","75","280461","0.0-11.0-3.21","","null","","<div class='respPicDiv'><img src='img/responseButtonOffersNo0_wht.png' class='respPic'></div><div class='trialDiv'><img src='Fruit/watermelon.png'><br><font class='baseline'><strong>Watermelon Win$</strong><p><strong><font class='negOutcome'>You LOST</font><p>You bet: 2</strong></font> &nbsp; &nbsp; &nbsp; &nbsp; &nbsp; &nbsp;<font class='negOutcome'>You receive: <strong>0</strong></font></div>","null","8","Watermelon Win$","Fruit/watermelon.png","Lost","0.35,0.8","14","0.35","126","22","",""
"","","","decision","","5f1f3581b5cf3e103cc545c9","bdp_rwlrn","Sun Mar 12 2023 16:24:02 GMT-0400 (Eastern Daylight Time)","689277","Untrustworthy,Trustworthy","html-keyboard-response","76","282950","0.0-11.0-1.22","","2487","","<div class='trialDiv'><img src='Fruit/papayas.png'><br><font class='baseline'><strong>Papaya Payday</strong><p>Choose number of points to bet.</font><div class='respPicDiv'><img src='img/responseButtonOffersNo0L.png' class='respPic'></div></div>","3","8","Papaya Payday","Fruit/papayas.png","Lost","0.65,0.2","8","0.65","131","23","",""
"","","","decisionFB","","5f1f3581b5cf3e103cc545c9","bdp_rwlrn","Sun Mar 12 2023 16:24:02 GMT-0400 (Eastern Daylight Time)","689277","Untrustworthy,Trustworthy","html-keyboard-response","77","283212","0.0-11.0-2.22","","null","","<div class='trialDiv'><img src='Fruit/papayas.png'><br><font class='baseline'><strong>Papaya Payday</strong><p>Choose number of points to bet.</font><div class='respPicDiv'><img src='img/responseButtonOffersNo0L3.png' class='respPic'></div></div>","null","8","Papaya Payday","Fruit/papayas.png","Lost","0.65,0.2","8","0.65","128","23","",""
"","","","feedback","","5f1f3581b5cf3e103cc545c9","bdp_rwlrn","Sun Mar 12 2023 16:24:02 GMT-0400 (Eastern Daylight Time)","689277","Untrustworthy,Trustworthy","html-keyboard-response","78","284220","0.0-11.0-3.22","","null","","<div class='respPicDiv'><img src='img/responseButtonOffersNo0_wht.png' class='respPic'></div><div class='trialDiv'><img src='Fruit/papayas.png'><br><font class='baseline'><strong>Papaya Payday</strong><p><strong><font class='negOutcome'>You LOST</font><p>You bet: 3</strong></font> &nbsp; &nbsp; &nbsp; &nbsp; &nbsp; &nbsp;<font class='negOutcome'>You receive: <strong>0</strong></font></div>","null","8","Papaya Payday","Fruit/papayas.png","Lost","0.65,0.2","8","0.65","128","23","",""
"","","","decision","","5f1f3581b5cf3e103cc545c9","bdp_rwlrn","Sun Mar 12 2023 16:24:02 GMT-0400 (Eastern Daylight Time)","689277","Untrustworthy,Trustworthy","html-keyboard-response","79","285470","0.0-11.0-1.23","","1249","","<div class='trialDiv'><img src='Fruit/apple.png'><br><font class='baseline'><strong>Awesome Apples</strong><p>Choose number of points to bet.</font><div class='respPicDiv'><img src='img/responseButtonOffersNo0L.png' class='respPic'></div></div>","4","8","Awesome Apples","Fruit/apple.png","Lost","0.8,0.2","8","0.8","133","24","",""
"","","","decisionFB","","5f1f3581b5cf3e103cc545c9","bdp_rwlrn","Sun Mar 12 2023 16:24:02 GMT-0400 (Eastern Daylight Time)","689277","Untrustworthy,Trustworthy","html-keyboard-response","80","285731","0.0-11.0-2.23","","null","","<div class='trialDiv'><img src='Fruit/apple.png'><br><font class='baseline'><strong>Awesome Apples</strong><p>Choose number of points to bet.</font><div class='respPicDiv'><img src='img/responseButtonOffersNo0L4.png' class='respPic'></div></div>","null","8","Awesome Apples","Fruit/apple.png","Lost","0.8,0.2","8","0.8","129","24","",""
"","","","feedback","","5f1f3581b5cf3e103cc545c9","bdp_rwlrn","Sun Mar 12 2023 16:24:02 GMT-0400 (Eastern Daylight Time)","689277","Untrustworthy,Trustworthy","html-keyboard-response","81","286738","0.0-11.0-3.23","","null","","<div class='respPicDiv'><img src='img/responseButtonOffersNo0_wht.png' class='respPic'></div><div class='trialDiv'><img src='Fruit/apple.png'><br><font class='baseline'><strong>Awesome Apples</strong><p><strong><font class='negOutcome'>You LOST</font><p>You bet: 4</strong></font> &nbsp; &nbsp; &nbsp; &nbsp; &nbsp; &nbsp;<font class='negOutcome'>You receive: <strong>0</strong></font></div>","null","8","Awesome Apples","Fruit/apple.png","Lost","0.8,0.2","8","0.8","129","24","",""
"","","","decision","","5f1f3581b5cf3e103cc545c9","bdp_rwlrn","Sun Mar 12 2023 16:24:02 GMT-0400 (Eastern Daylight Time)","689277","Untrustworthy,Trustworthy","html-keyboard-response","82","288419","0.0-11.0-1.24","","1680","","<div class='trialDiv'><img src='Fruit/papayas.png'><br><font class='baseline'><strong>Papaya Payday</strong><p>Choose number of points to bet.</font><div class='respPicDiv'><img src='img/responseButtonOffersNo0L.png' class='respPic'></div></div>","2","9","Papaya Payday","Fruit/papayas.png","Lost","0.65,0.2","8","0.65","134","25","",""
"","","","decisionFB","","5f1f3581b5cf3e103cc545c9","bdp_rwlrn","Sun Mar 12 2023 16:24:02 GMT-0400 (Eastern Daylight Time)","689277","Untrustworthy,Trustworthy","html-keyboard-response","83","288675","0.0-11.0-2.24","","null","","<div class='trialDiv'><img src='Fruit/papayas.png'><br><font class='baseline'><strong>Papaya Payday</strong><p>Choose number of points to bet.</font><div class='respPicDiv'><img src='img/responseButtonOffersNo0L2.png' class='respPic'></div></div>","null","9","Papaya Payday","Fruit/papayas.png","Lost","0.65,0.2","8","0.65","132","25","",""
"","","","feedback","","5f1f3581b5cf3e103cc545c9","bdp_rwlrn","Sun Mar 12 2023 16:24:02 GMT-0400 (Eastern Daylight Time)","689277","Untrustworthy,Trustworthy","html-keyboard-response","84","289685","0.0-11.0-3.24","","null","","<div class='respPicDiv'><img src='img/responseButtonOffersNo0_wht.png' class='respPic'></div><div class='trialDiv'><img src='Fruit/papayas.png'><br><font class='baseline'><strong>Papaya Payday</strong><p><strong><font class='negOutcome'>You LOST</font><p>You bet: 2</strong></font> &nbsp; &nbsp; &nbsp; &nbsp; &nbsp; &nbsp;<font class='negOutcome'>You receive: <strong>0</strong></font></div>","null","9","Papaya Payday","Fruit/papayas.png","Lost","0.65,0.2","8","0.65","132","25","",""
"","","","decision","","5f1f3581b5cf3e103cc545c9","bdp_rwlrn","Sun Mar 12 2023 16:24:02 GMT-0400 (Eastern Daylight Time)","689277","Untrustworthy,Trustworthy","html-keyboard-response","85","292782","0.0-11.0-1.25","","3096","","<div class='trialDiv'><img src='Fruit/apple.png'><br><font class='baseline'><strong>Awesome Apples</strong><p>Choose number of points to bet.</font><div class='respPicDiv'><img src='img/responseButtonOffersNo0L.png' class='respPic'></div></div>","3","9","Awesome Apples","Fruit/apple.png","Lost","0.8,0.2","8","0.8","137","26","",""
"","","","decisionFB","","5f1f3581b5cf3e103cc545c9","bdp_rwlrn","Sun Mar 12 2023 16:24:02 GMT-0400 (Eastern Daylight Time)","689277","Untrustworthy,Trustworthy","html-keyboard-response","86","293034","0.0-11.0-2.25","","null","","<div class='trialDiv'><img src='Fruit/apple.png'><br><font class='baseline'><strong>Awesome Apples</strong><p>Choose number of points to bet.</font><div class='respPicDiv'><img src='img/responseButtonOffersNo0L3.png' class='respPic'></div></div>","null","9","Awesome Apples","Fruit/apple.png","Lost","0.8,0.2","8","0.8","134","26","",""
"","","","feedback","","5f1f3581b5cf3e103cc545c9","bdp_rwlrn","Sun Mar 12 2023 16:24:02 GMT-0400 (Eastern Daylight Time)","689277","Untrustworthy,Trustworthy","html-keyboard-response","87","294042","0.0-11.0-3.25","","null","","<div class='respPicDiv'><img src='img/responseButtonOffersNo0_wht.png' class='respPic'></div><div class='trialDiv'><img src='Fruit/apple.png'><br><font class='baseline'><strong>Awesome Apples</strong><p><strong><font class='negOutcome'>You LOST</font><p>You bet: 3</strong></font> &nbsp; &nbsp; &nbsp; &nbsp; &nbsp; &nbsp;<font class='negOutcome'>You receive: <strong>0</strong></font></div>","null","9","Awesome Apples","Fruit/apple.png","Lost","0.8,0.2","8","0.8","134","26","",""
"","","","decision","","5f1f3581b5cf3e103cc545c9","bdp_rwlrn","Sun Mar 12 2023 16:24:02 GMT-0400 (Eastern Daylight Time)","689277","Untrustworthy,Trustworthy","html-keyboard-response","88","295176","0.0-11.0-1.26","","1132","","<div class='trialDiv'><img src='Fruit/watermelon.png'><br><font class='baseline'><strong>Watermelon Win$</strong><p>Choose number of points to bet.</font><div class='respPicDiv'><img src='img/responseButtonOffersNo0L.png' class='respPic'></div></div>","2","9","Watermelon Win$","Fruit/watermelon.png","Lost","0.35,0.8","14","0.35","139","27","",""
"","","","decisionFB","","5f1f3581b5cf3e103cc545c9","bdp_rwlrn","Sun Mar 12 2023 16:24:02 GMT-0400 (Eastern Daylight Time)","689277","Untrustworthy,Trustworthy","html-keyboard-response","89","295437","0.0-11.0-2.26","","null","","<div class='trialDiv'><img src='Fruit/watermelon.png'><br><font class='baseline'><strong>Watermelon Win$</strong><p>Choose number of points to bet.</font><div class='respPicDiv'><img src='img/responseButtonOffersNo0L2.png' class='respPic'></div></div>","null","9","Watermelon Win$","Fruit/watermelon.png","Lost","0.35,0.8","14","0.35","137","27","",""
"","","","feedback","","5f1f3581b5cf3e103cc545c9","bdp_rwlrn","Sun Mar 12 2023 16:24:02 GMT-0400 (Eastern Daylight Time)","689277","Untrustworthy,Trustworthy","html-keyboard-response","90","296441","0.0-11.0-3.26","","null","","<div class='respPicDiv'><img src='img/responseButtonOffersNo0_wht.png' class='respPic'></div><div class='trialDiv'><img src='Fruit/watermelon.png'><br><font class='baseline'><strong>Watermelon Win$</strong><p><strong><font class='negOutcome'>You LOST</font><p>You bet: 2</strong></font> &nbsp; &nbsp; &nbsp; &nbsp; &nbsp; &nbsp;<font class='negOutcome'>You receive: <strong>0</strong></font></div>","null","9","Watermelon Win$","Fruit/watermelon.png","Lost","0.35,0.8","14","0.35","137","27","",""
"","","","decision","","5f1f3581b5cf3e103cc545c9","bdp_rwlrn","Sun Mar 12 2023 16:24:02 GMT-0400 (Eastern Daylight Time)","689277","Untrustworthy,Trustworthy","html-keyboard-response","91","297766","0.0-11.0-1.27","","1323","","<div class='trialDiv'><img src='Fruit/papayas.png'><br><font class='baseline'><strong>Papaya Payday</strong><p>Choose number of points to bet.</font><div class='respPicDiv'><img src='img/responseButtonOffersNo0L.png' class='respPic'></div></div>","3","10","Papaya Payday","Fruit/papayas.png","Lost","0.65,0.2","8","0.65","142","28","",""
"","","","decisionFB","","5f1f3581b5cf3e103cc545c9","bdp_rwlrn","Sun Mar 12 2023 16:24:02 GMT-0400 (Eastern Daylight Time)","689277","Untrustworthy,Trustworthy","html-keyboard-response","92","298026","0.0-11.0-2.27","","null","","<div class='trialDiv'><img src='Fruit/papayas.png'><br><font class='baseline'><strong>Papaya Payday</strong><p>Choose number of points to bet.</font><div class='respPicDiv'><img src='img/responseButtonOffersNo0L3.png' class='respPic'></div></div>","null","10","Papaya Payday","Fruit/papayas.png","Lost","0.65,0.2","8","0.65","139","28","",""
"","","","feedback","","5f1f3581b5cf3e103cc545c9","bdp_rwlrn","Sun Mar 12 2023 16:24:02 GMT-0400 (Eastern Daylight Time)","689277","Untrustworthy,Trustworthy","html-keyboard-response","93","299036","0.0-11.0-3.27","","null","","<div class='respPicDiv'><img src='img/responseButtonOffersNo0_wht.png' class='respPic'></div><div class='trialDiv'><img src='Fruit/papayas.png'><br><font class='baseline'><strong>Papaya Payday</strong><p><strong><font class='negOutcome'>You LOST</font><p>You bet: 3</strong></font> &nbsp; &nbsp; &nbsp; &nbsp; &nbsp; &nbsp;<font class='negOutcome'>You receive: <strong>0</strong></font></div>","null","10","Papaya Payday","Fruit/papayas.png","Lost","0.65,0.2","8","0.65","139","28","",""
"","","","decision","","5f1f3581b5cf3e103cc545c9","bdp_rwlrn","Sun Mar 12 2023 16:24:02 GMT-0400 (Eastern Daylight Time)","689277","Untrustworthy,Trustworthy","html-keyboard-response","94","300331","0.0-11.0-1.28","","1293","","<div class='trialDiv'><img src='Fruit/apple.png'><br><font class='baseline'><strong>Awesome Apples</strong><p>Choose number of points to bet.</font><div class='respPicDiv'><img src='img/responseButtonOffersNo0L.png' class='respPic'></div></div>","1","10","Awesome Apples","Fruit/apple.png","Lost","0.8,0.2","8","0.8","144","29","",""
"","","","decisionFB","","5f1f3581b5cf3e103cc545c9","bdp_rwlrn","Sun Mar 12 2023 16:24:02 GMT-0400 (Eastern Daylight Time)","689277","Untrustworthy,Trustworthy","html-keyboard-response","95","300586","0.0-11.0-2.28","","null","","<div class='trialDiv'><img src='Fruit/apple.png'><br><font class='baseline'><strong>Awesome Apples</strong><p>Choose number of points to bet.</font><div class='respPicDiv'><img src='img/responseButtonOffersNo0L1.png' class='respPic'></div></div>","null","10","Awesome Apples","Fruit/apple.png","Lost","0.8,0.2","8","0.8","143","29","",""
"","","","feedback","","5f1f3581b5cf3e103cc545c9","bdp_rwlrn","Sun Mar 12 2023 16:24:02 GMT-0400 (Eastern Daylight Time)","689277","Untrustworthy,Trustworthy","html-keyboard-response","96","301596","0.0-11.0-3.28","","null","","<div class='respPicDiv'><img src='img/responseButtonOffersNo0_wht.png' class='respPic'></div><div class='trialDiv'><img src='Fruit/apple.png'><br><font class='baseline'><strong>Awesome Apples</strong><p><strong><font class='negOutcome'>You LOST</font><p>You bet: 1</strong></font> &nbsp; &nbsp; &nbsp; &nbsp; &nbsp; &nbsp;<font class='negOutcome'>You receive: <strong>0</strong></font></div>","null","10","Awesome Apples","Fruit/apple.png","Lost","0.8,0.2","8","0.8","143","29","",""
"","","","decision","","5f1f3581b5cf3e103cc545c9","bdp_rwlrn","Sun Mar 12 2023 16:24:02 GMT-0400 (Eastern Daylight Time)","689277","Untrustworthy,Trustworthy","html-keyboard-response","97","302490","0.0-11.0-1.29","","892","","<div class='trialDiv'><img src='Fruit/watermelon.png'><br><font class='baseline'><strong>Watermelon Win$</strong><p>Choose number of points to bet.</font><div class='respPicDiv'><img src='img/responseButtonOffersNo0L.png' class='respPic'></div></div>","2","10","Watermelon Win$","Fruit/watermelon.png","Lost","0.35,0.8","14","0.35","148","30","",""
"","","","decisionFB","","5f1f3581b5cf3e103cc545c9","bdp_rwlrn","Sun Mar 12 2023 16:24:02 GMT-0400 (Eastern Daylight Time)","689277","Untrustworthy,Trustworthy","html-keyboard-response","98","302746","0.0-11.0-2.29","","null","","<div class='trialDiv'><img src='Fruit/watermelon.png'><br><font class='baseline'><strong>Watermelon Win$</strong><p>Choose number of points to bet.</font><div class='respPicDiv'><img src='img/responseButtonOffersNo0L2.png' class='respPic'></div></div>","null","10","Watermelon Win$","Fruit/watermelon.png","Lost","0.35,0.8","14","0.35","146","30","",""
"","","","feedback","","5f1f3581b5cf3e103cc545c9","bdp_rwlrn","Sun Mar 12 2023 16:24:02 GMT-0400 (Eastern Daylight Time)","689277","Untrustworthy,Trustworthy","html-keyboard-response","99","303756","0.0-11.0-3.29","","null","","<div class='respPicDiv'><img src='img/responseButtonOffersNo0_wht.png' class='respPic'></div><div class='trialDiv'><img src='Fruit/watermelon.png'><br><font class='baseline'><strong>Watermelon Win$</strong><p><strong><font class='negOutcome'>You LOST</font><p>You bet: 2</strong></font> &nbsp; &nbsp; &nbsp; &nbsp; &nbsp; &nbsp;<font class='negOutcome'>You receive: <strong>0</strong></font></div>","null","10","Watermelon Win$","Fruit/watermelon.png","Lost","0.35,0.8","14","0.35","146","30","",""
"","","","decision","","5f1f3581b5cf3e103cc545c9","bdp_rwlrn","Sun Mar 12 2023 16:24:02 GMT-0400 (Eastern Daylight Time)","689277","Untrustworthy,Trustworthy","html-keyboard-response","100","304360","0.0-11.0-1.30","","602","","<div class='trialDiv'><img src='Fruit/papayas.png'><br><font class='baseline'><strong>Papaya Payday</strong><p>Choose number of points to bet.</font><div class='respPicDiv'><img src='img/responseButtonOffersNo0L.png' class='respPic'></div></div>","1","11","Papaya Payday","Fruit/papayas.png","Lost","0.65,0.2","8","0.65","151","31","",""
"","","","decisionFB","","5f1f3581b5cf3e103cc545c9","bdp_rwlrn","Sun Mar 12 2023 16:24:02 GMT-0400 (Eastern Daylight Time)","689277","Untrustworthy,Trustworthy","html-keyboard-response","101","304621","0.0-11.0-2.30","","null","","<div class='trialDiv'><img src='Fruit/papayas.png'><br><font class='baseline'><strong>Papaya Payday</strong><p>Choose number of points to bet.</font><div class='respPicDiv'><img src='img/responseButtonOffersNo0L1.png' class='respPic'></div></div>","null","11","Papaya Payday","Fruit/papayas.png","Lost","0.65,0.2","8","0.65","150","31","",""
"","","","feedback","","5f1f3581b5cf3e103cc545c9","bdp_rwlrn","Sun Mar 12 2023 16:24:02 GMT-0400 (Eastern Daylight Time)","689277","Untrustworthy,Trustworthy","html-keyboard-response","102","305625","0.0-11.0-3.30","","null","","<div class='respPicDiv'><img src='img/responseButtonOffersNo0_wht.png' class='respPic'></div><div class='trialDiv'><img src='Fruit/papayas.png'><br><font class='baseline'><strong>Papaya Payday</strong><p><strong><font class='negOutcome'>You LOST</font><p>You bet: 1</strong></font> &nbsp; &nbsp; &nbsp; &nbsp; &nbsp; &nbsp;<font class='negOutcome'>You receive: <strong>0</strong></font></div>","null","11","Papaya Payday","Fruit/papayas.png","Lost","0.65,0.2","8","0.65","150","31","",""
"","","","decision","","5f1f3581b5cf3e103cc545c9","bdp_rwlrn","Sun Mar 12 2023 16:24:02 GMT-0400 (Eastern Daylight Time)","689277","Untrustworthy,Trustworthy","html-keyboard-response","103","306200","0.0-11.0-1.31","","573","","<div class='trialDiv'><img src='Fruit/watermelon.png'><br><font class='baseline'><strong>Watermelon Win$</strong><p>Choose number of points to bet.</font><div class='respPicDiv'><img src='img/responseButtonOffersNo0L.png' class='respPic'></div></div>","2","11","Watermelon Win$","Fruit/watermelon.png","Lost","0.35,0.8","14","0.35","155","32","",""
"","","","decisionFB","","5f1f3581b5cf3e103cc545c9","bdp_rwlrn","Sun Mar 12 2023 16:24:02 GMT-0400 (Eastern Daylight Time)","689277","Untrustworthy,Trustworthy","html-keyboard-response","104","306461","0.0-11.0-2.31","","null","","<div class='trialDiv'><img src='Fruit/watermelon.png'><br><font class='baseline'><strong>Watermelon Win$</strong><p>Choose number of points to bet.</font><div class='respPicDiv'><img src='img/responseButtonOffersNo0L2.png' class='respPic'></div></div>","null","11","Watermelon Win$","Fruit/watermelon.png","Lost","0.35,0.8","14","0.35","153","32","",""
"","","","feedback","","5f1f3581b5cf3e103cc545c9","bdp_rwlrn","Sun Mar 12 2023 16:24:02 GMT-0400 (Eastern Daylight Time)","689277","Untrustworthy,Trustworthy","html-keyboard-response","105","307465","0.0-11.0-3.31","","null","","<div class='respPicDiv'><img src='img/responseButtonOffersNo0_wht.png' class='respPic'></div><div class='trialDiv'><img src='Fruit/watermelon.png'><br><font class='baseline'><strong>Watermelon Win$</strong><p><strong><font class='negOutcome'>You LOST</font><p>You bet: 2</strong></font> &nbsp; &nbsp; &nbsp; &nbsp; &nbsp; &nbsp;<font class='negOutcome'>You receive: <strong>0</strong></font></div>","null","11","Watermelon Win$","Fruit/watermelon.png","Lost","0.35,0.8","14","0.35","153","32","",""
"","","","decision","","5f1f3581b5cf3e103cc545c9","bdp_rwlrn","Sun Mar 12 2023 16:24:02 GMT-0400 (Eastern Daylight Time)","689277","Untrustworthy,Trustworthy","html-keyboard-response","106","308604","0.0-11.0-1.32","","1137","","<div class='trialDiv'><img src='Fruit/apple.png'><br><font class='baseline'><strong>Awesome Apples</strong><p>Choose number of points to bet.</font><div class='respPicDiv'><img src='img/responseButtonOffersNo0L.png' class='respPic'></div></div>","3","11","Awesome Apples","Fruit/apple.png","Lost","0.8,0.2","8","0.8","158","33","",""
"","","","decisionFB","","5f1f3581b5cf3e103cc545c9","bdp_rwlrn","Sun Mar 12 2023 16:24:02 GMT-0400 (Eastern Daylight Time)","689277","Untrustworthy,Trustworthy","html-keyboard-response","107","308858","0.0-11.0-2.32","","null","","<div class='trialDiv'><img src='Fruit/apple.png'><br><font class='baseline'><strong>Awesome Apples</strong><p>Choose number of points to bet.</font><div class='respPicDiv'><img src='img/responseButtonOffersNo0L3.png' class='respPic'></div></div>","null","11","Awesome Apples","Fruit/apple.png","Lost","0.8,0.2","8","0.8","155","33","",""
"","","","feedback","","5f1f3581b5cf3e103cc545c9","bdp_rwlrn","Sun Mar 12 2023 16:24:02 GMT-0400 (Eastern Daylight Time)","689277","Untrustworthy,Trustworthy","html-keyboard-response","108","309869","0.0-11.0-3.32","","null","","<div class='respPicDiv'><img src='img/responseButtonOffersNo0_wht.png' class='respPic'></div><div class='trialDiv'><img src='Fruit/apple.png'><br><font class='baseline'><strong>Awesome Apples</strong><p><strong><font class='negOutcome'>You LOST</font><p>You bet: 3</strong></font> &nbsp; &nbsp; &nbsp; &nbsp; &nbsp; &nbsp;<font class='negOutcome'>You receive: <strong>0</strong></font></div>","null","11","Awesome Apples","Fruit/apple.png","Lost","0.8,0.2","8","0.8","155","33","",""
"","","","decision","","5f1f3581b5cf3e103cc545c9","bdp_rwlrn","Sun Mar 12 2023 16:24:02 GMT-0400 (Eastern Daylight Time)","689277","Untrustworthy,Trustworthy","html-keyboard-response","109","310670","0.0-11.0-1.33","","799","","<div class='trialDiv'><img src='Fruit/papayas.png'><br><font class='baseline'><strong>Papaya Payday</strong><p>Choose number of points to bet.</font><div class='respPicDiv'><img src='img/responseButtonOffersNo0L.png' class='respPic'></div></div>","2","12","Papaya Payday","Fruit/papayas.png","Won","0.65,0.2","8","0.65","160","34","",""
"","","","decisionFB","","5f1f3581b5cf3e103cc545c9","bdp_rwlrn","Sun Mar 12 2023 16:24:02 GMT-0400 (Eastern Daylight Time)","689277","Untrustworthy,Trustworthy","html-keyboard-response","110","310931","0.0-11.0-2.33","","null","","<div class='trialDiv'><img src='Fruit/papayas.png'><br><font class='baseline'><strong>Papaya Payday</strong><p>Choose number of points to bet.</font><div class='respPicDiv'><img src='img/responseButtonOffersNo0L2.png' class='respPic'></div></div>","null","12","Papaya Payday","Fruit/papayas.png","Won","0.65,0.2","8","0.65","158","34","",""
"","","","feedback","","5f1f3581b5cf3e103cc545c9","bdp_rwlrn","Sun Mar 12 2023 16:24:02 GMT-0400 (Eastern Daylight Time)","689277","Untrustworthy,Trustworthy","html-keyboard-response","111","311938","0.0-11.0-3.33","","null","","<div class='respPicDiv'><img src='img/responseButtonOffersNo0_wht.png' class='respPic'></div><div class='trialDiv'><img src='Fruit/papayas.png'><br><font class='baseline'><strong>Papaya Payday</strong><p><strong><font class='posOutcome'>You WON</font><p>You bet: 2</strong></font> &nbsp; &nbsp; &nbsp; &nbsp; &nbsp; &nbsp;<font class='posOutcome'>you receive: <strong>4</strong></font></div>","null","12","Papaya Payday","Fruit/papayas.png","Won","0.65,0.2","8","0.65","162","34","",""
"","","","decision","","5f1f3581b5cf3e103cc545c9","bdp_rwlrn","Sun Mar 12 2023 16:24:02 GMT-0400 (Eastern Daylight Time)","689277","Untrustworthy,Trustworthy","html-keyboard-response","112","313015","0.0-11.0-1.34","","1076","","<div class='trialDiv'><img src='Fruit/watermelon.png'><br><font class='baseline'><strong>Watermelon Win$</strong><p>Choose number of points to bet.</font><div class='respPicDiv'><img src='img/responseButtonOffersNo0L.png' class='respPic'></div></div>","2","12","Watermelon Win$","Fruit/watermelon.png","Lost","0.35,0.8","14","0.35","167","35","",""
"","","","decisionFB","","5f1f3581b5cf3e103cc545c9","bdp_rwlrn","Sun Mar 12 2023 16:24:02 GMT-0400 (Eastern Daylight Time)","689277","Untrustworthy,Trustworthy","html-keyboard-response","113","313276","0.0-11.0-2.34","","null","","<div class='trialDiv'><img src='Fruit/watermelon.png'><br><font class='baseline'><strong>Watermelon Win$</strong><p>Choose number of points to bet.</font><div class='respPicDiv'><img src='img/responseButtonOffersNo0L2.png' class='respPic'></div></div>","null","12","Watermelon Win$","Fruit/watermelon.png","Lost","0.35,0.8","14","0.35","165","35","",""
"","","","feedback","","5f1f3581b5cf3e103cc545c9","bdp_rwlrn","Sun Mar 12 2023 16:24:02 GMT-0400 (Eastern Daylight Time)","689277","Untrustworthy,Trustworthy","html-keyboard-response","114","314282","0.0-11.0-3.34","","null","","<div class='respPicDiv'><img src='img/responseButtonOffersNo0_wht.png' class='respPic'></div><div class='trialDiv'><img src='Fruit/watermelon.png'><br><font class='baseline'><strong>Watermelon Win$</strong><p><strong><font class='negOutcome'>You LOST</font><p>You bet: 2</strong></font> &nbsp; &nbsp; &nbsp; &nbsp; &nbsp; &nbsp;<font class='negOutcome'>You receive: <strong>0</strong></font></div>","null","12","Watermelon Win$","Fruit/watermelon.png","Lost","0.35,0.8","14","0.35","165","35","",""
"","","","decision","","5f1f3581b5cf3e103cc545c9","bdp_rwlrn","Sun Mar 12 2023 16:24:02 GMT-0400 (Eastern Daylight Time)","689277","Untrustworthy,Trustworthy","html-keyboard-response","115","315290","0.0-11.0-1.35","","1007","","<div class='trialDiv'><img src='Fruit/apple.png'><br><font class='baseline'><strong>Awesome Apples</strong><p>Choose number of points to bet.</font><div class='respPicDiv'><img src='img/responseButtonOffersNo0L.png' class='respPic'></div></div>","2","12","Awesome Apples","Fruit/apple.png","Won","0.8,0.2","8","0.8","170","36","",""
"","","","decisionFB","","5f1f3581b5cf3e103cc545c9","bdp_rwlrn","Sun Mar 12 2023 16:24:02 GMT-0400 (Eastern Daylight Time)","689277","Untrustworthy,Trustworthy","html-keyboard-response","116","315546","0.0-11.0-2.35","","null","","<div class='trialDiv'><img src='Fruit/apple.png'><br><font class='baseline'><strong>Awesome Apples</strong><p>Choose number of points to bet.</font><div class='respPicDiv'><img src='img/responseButtonOffersNo0L2.png' class='respPic'></div></div>","null","12","Awesome Apples","Fruit/apple.png","Won","0.8,0.2","8","0.8","168","36","",""
"","","","feedback","","5f1f3581b5cf3e103cc545c9","bdp_rwlrn","Sun Mar 12 2023 16:24:02 GMT-0400 (Eastern Daylight Time)","689277","Untrustworthy,Trustworthy","html-keyboard-response","117","316556","0.0-11.0-3.35","","null","","<div class='respPicDiv'><img src='img/responseButtonOffersNo0_wht.png' class='respPic'></div><div class='trialDiv'><img src='Fruit/apple.png'><br><font class='baseline'><strong>Awesome Apples</strong><p><strong><font class='posOutcome'>You WON</font><p>You bet: 2</strong></font> &nbsp; &nbsp; &nbsp; &nbsp; &nbsp; &nbsp;<font class='posOutcome'>you receive: <strong>4</strong></font></div>","null","12","Awesome Apples","Fruit/apple.png","Won","0.8,0.2","8","0.8","172","36","",""
"","","","decision","","5f1f3581b5cf3e103cc545c9","bdp_rwlrn","Sun Mar 12 2023 16:24:02 GMT-0400 (Eastern Daylight Time)","689277","Untrustworthy,Trustworthy","html-keyboard-response","118","317236","0.0-11.0-1.36","","679","","<div class='trialDiv'><img src='Fruit/papayas.png'><br><font class='baseline'><strong>Papaya Payday</strong><p>Choose number of points to bet.</font><div class='respPicDiv'><img src='img/responseButtonOffersNo0L.png' class='respPic'></div></div>","2","13","Papaya Payday","Fruit/papayas.png","Won","0.65,0.2","8","0.65","177","37","",""
"","","","decisionFB","","5f1f3581b5cf3e103cc545c9","bdp_rwlrn","Sun Mar 12 2023 16:24:02 GMT-0400 (Eastern Daylight Time)","689277","Untrustworthy,Trustworthy","html-keyboard-response","119","317490","0.0-11.0-2.36","","null","","<div class='trialDiv'><img src='Fruit/papayas.png'><br><font class='baseline'><strong>Papaya Payday</strong><p>Choose number of points to bet.</font><div class='respPicDiv'><img src='img/responseButtonOffersNo0L2.png' class='respPic'></div></div>","null","13","Papaya Payday","Fruit/papayas.png","Won","0.65,0.2","8","0.65","175","37","",""
"","","","feedback","","5f1f3581b5cf3e103cc545c9","bdp_rwlrn","Sun Mar 12 2023 16:24:02 GMT-0400 (Eastern Daylight Time)","689277","Untrustworthy,Trustworthy","html-keyboard-response","120","318501","0.0-11.0-3.36","","null","","<div class='respPicDiv'><img src='img/responseButtonOffersNo0_wht.png' class='respPic'></div><div class='trialDiv'><img src='Fruit/papayas.png'><br><font class='baseline'><strong>Papaya Payday</strong><p><strong><font class='posOutcome'>You WON</font><p>You bet: 2</strong></font> &nbsp; &nbsp; &nbsp; &nbsp; &nbsp; &nbsp;<font class='posOutcome'>you receive: <strong>4</strong></font></div>","null","13","Papaya Payday","Fruit/papayas.png","Won","0.65,0.2","8","0.65","179","37","",""
"","","","decision","","5f1f3581b5cf3e103cc545c9","bdp_rwlrn","Sun Mar 12 2023 16:24:02 GMT-0400 (Eastern Daylight Time)","689277","Untrustworthy,Trustworthy","html-keyboard-response","121","319193","0.0-11.0-1.37","","691","","<div class='trialDiv'><img src='Fruit/watermelon.png'><br><font class='baseline'><strong>Watermelon Win$</strong><p>Choose number of points to bet.</font><div class='respPicDiv'><img src='img/responseButtonOffersNo0L.png' class='respPic'></div></div>","1","13","Watermelon Win$","Fruit/watermelon.png","Won","0.35,0.8","14","0.35","184","38","",""
"","","","decisionFB","","5f1f3581b5cf3e103cc545c9","bdp_rwlrn","Sun Mar 12 2023 16:24:02 GMT-0400 (Eastern Daylight Time)","689277","Untrustworthy,Trustworthy","html-keyboard-response","122","319452","0.0-11.0-2.37","","null","","<div class='trialDiv'><img src='Fruit/watermelon.png'><br><font class='baseline'><strong>Watermelon Win$</strong><p>Choose number of points to bet.</font><div class='respPicDiv'><img src='img/responseButtonOffersNo0L1.png' class='respPic'></div></div>","null","13","Watermelon Win$","Fruit/watermelon.png","Won","0.35,0.8","14","0.35","183","38","",""
"","","","feedback","","5f1f3581b5cf3e103cc545c9","bdp_rwlrn","Sun Mar 12 2023 16:24:02 GMT-0400 (Eastern Daylight Time)","689277","Untrustworthy,Trustworthy","html-keyboard-response","123","320457","0.0-11.0-3.37","","null","","<div class='respPicDiv'><img src='img/responseButtonOffersNo0_wht.png' class='respPic'></div><div class='trialDiv'><img src='Fruit/watermelon.png'><br><font class='baseline'><strong>Watermelon Win$</strong><p><strong><font class='posOutcome'>You WON</font><p>You bet: 1</strong></font> &nbsp; &nbsp; &nbsp; &nbsp; &nbsp; &nbsp;<font class='posOutcome'>you receive: <strong>2</strong></font></div>","null","13","Watermelon Win$","Fruit/watermelon.png","Won","0.35,0.8","14","0.35","185","38","",""
"","","","decision","","5f1f3581b5cf3e103cc545c9","bdp_rwlrn","Sun Mar 12 2023 16:24:02 GMT-0400 (Eastern Daylight Time)","689277","Untrustworthy,Trustworthy","html-keyboard-response","124","321934","0.0-11.0-1.38","","1476","","<div class='trialDiv'><img src='Fruit/apple.png'><br><font class='baseline'><strong>Awesome Apples</strong><p>Choose number of points to bet.</font><div class='respPicDiv'><img src='img/responseButtonOffersNo0L.png' class='respPic'></div></div>","4","13","Awesome Apples","Fruit/apple.png","Lost","0.8,0.2","8","0.8","190","39","",""
"","","","decisionFB","","5f1f3581b5cf3e103cc545c9","bdp_rwlrn","Sun Mar 12 2023 16:24:02 GMT-0400 (Eastern Daylight Time)","689277","Untrustworthy,Trustworthy","html-keyboard-response","125","322192","0.0-11.0-2.38","","null","","<div class='trialDiv'><img src='Fruit/apple.png'><br><font class='baseline'><strong>Awesome Apples</strong><p>Choose number of points to bet.</font><div class='respPicDiv'><img src='img/responseButtonOffersNo0L4.png' class='respPic'></div></div>","null","13","Awesome Apples","Fruit/apple.png","Lost","0.8,0.2","8","0.8","186","39","",""
"","","","feedback","","5f1f3581b5cf3e103cc545c9","bdp_rwlrn","Sun Mar 12 2023 16:24:02 GMT-0400 (Eastern Daylight Time)","689277","Untrustworthy,Trustworthy","html-keyboard-response","126","323203","0.0-11.0-3.38","","null","","<div class='respPicDiv'><img src='img/responseButtonOffersNo0_wht.png' class='respPic'></div><div class='trialDiv'><img src='Fruit/apple.png'><br><font class='baseline'><strong>Awesome Apples</strong><p><strong><font class='negOutcome'>You LOST</font><p>You bet: 4</strong></font> &nbsp; &nbsp; &nbsp; &nbsp; &nbsp; &nbsp;<font class='negOutcome'>You receive: <strong>0</strong></font></div>","null","13","Awesome Apples","Fruit/apple.png","Lost","0.8,0.2","8","0.8","186","39","",""
"","","","decision","","5f1f3581b5cf3e103cc545c9","bdp_rwlrn","Sun Mar 12 2023 16:24:02 GMT-0400 (Eastern Daylight Time)","689277","Untrustworthy,Trustworthy","html-keyboard-response","127","324169","0.0-11.0-1.39","","965","","<div class='trialDiv'><img src='Fruit/watermelon.png'><br><font class='baseline'><strong>Watermelon Win$</strong><p>Choose number of points to bet.</font><div class='respPicDiv'><img src='img/responseButtonOffersNo0L.png' class='respPic'></div></div>","3","14","Watermelon Win$","Fruit/watermelon.png","Won","0.35,0.8","14","0.35","191","40","",""
"","","","decisionFB","","5f1f3581b5cf3e103cc545c9","bdp_rwlrn","Sun Mar 12 2023 16:24:02 GMT-0400 (Eastern Daylight Time)","689277","Untrustworthy,Trustworthy","html-keyboard-response","128","324427","0.0-11.0-2.39","","null","","<div class='trialDiv'><img src='Fruit/watermelon.png'><br><font class='baseline'><strong>Watermelon Win$</strong><p>Choose number of points to bet.</font><div class='respPicDiv'><img src='img/responseButtonOffersNo0L3.png' class='respPic'></div></div>","null","14","Watermelon Win$","Fruit/watermelon.png","Won","0.35,0.8","14","0.35","188","40","",""
"","","","feedback","","5f1f3581b5cf3e103cc545c9","bdp_rwlrn","Sun Mar 12 2023 16:24:02 GMT-0400 (Eastern Daylight Time)","689277","Untrustworthy,Trustworthy","html-keyboard-response","129","325437","0.0-11.0-3.39","","null","","<div class='respPicDiv'><img src='img/responseButtonOffersNo0_wht.png' class='respPic'></div><div class='trialDiv'><img src='Fruit/watermelon.png'><br><font class='baseline'><strong>Watermelon Win$</strong><p><strong><font class='posOutcome'>You WON</font><p>You bet: 3</strong></font> &nbsp; &nbsp; &nbsp; &nbsp; &nbsp; &nbsp;<font class='posOutcome'>you receive: <strong>6</strong></font></div>","null","14","Watermelon Win$","Fruit/watermelon.png","Won","0.35,0.8","14","0.35","194","40","",""
"","","","decision","","5f1f3581b5cf3e103cc545c9","bdp_rwlrn","Sun Mar 12 2023 16:24:02 GMT-0400 (Eastern Daylight Time)","689277","Untrustworthy,Trustworthy","html-keyboard-response","130","326134","0.0-11.0-1.40","","695","","<div class='trialDiv'><img src='Fruit/papayas.png'><br><font class='baseline'><strong>Papaya Payday</strong><p>Choose number of points to bet.</font><div class='respPicDiv'><img src='img/responseButtonOffersNo0L.png' class='respPic'></div></div>","2","14","Papaya Payday","Fruit/papayas.png","Lost","0.65,0.2","8","0.65","199","41","",""
"","","","decisionFB","","5f1f3581b5cf3e103cc545c9","bdp_rwlrn","Sun Mar 12 2023 16:24:02 GMT-0400 (Eastern Daylight Time)","689277","Untrustworthy,Trustworthy","html-keyboard-response","131","326395","0.0-11.0-2.40","","null","","<div class='trialDiv'><img src='Fruit/papayas.png'><br><font class='baseline'><strong>Papaya Payday</strong><p>Choose number of points to bet.</font><div class='respPicDiv'><img src='img/responseButtonOffersNo0L2.png' class='respPic'></div></div>","null","14","Papaya Payday","Fruit/papayas.png","Lost","0.65,0.2","8","0.65","197","41","",""
"","","","feedback","","5f1f3581b5cf3e103cc545c9","bdp_rwlrn","Sun Mar 12 2023 16:24:02 GMT-0400 (Eastern Daylight Time)","689277","Untrustworthy,Trustworthy","html-keyboard-response","132","327402","0.0-11.0-3.40","","null","","<div class='respPicDiv'><img src='img/responseButtonOffersNo0_wht.png' class='respPic'></div><div class='trialDiv'><img src='Fruit/papayas.png'><br><font class='baseline'><strong>Papaya Payday</strong><p><strong><font class='negOutcome'>You LOST</font><p>You bet: 2</strong></font> &nbsp; &nbsp; &nbsp; &nbsp; &nbsp; &nbsp;<font class='negOutcome'>You receive: <strong>0</strong></font></div>","null","14","Papaya Payday","Fruit/papayas.png","Lost","0.65,0.2","8","0.65","197","41","",""
"","","","decision","","5f1f3581b5cf3e103cc545c9","bdp_rwlrn","Sun Mar 12 2023 16:24:02 GMT-0400 (Eastern Daylight Time)","689277","Untrustworthy,Trustworthy","html-keyboard-response","133","331073","0.0-11.0-1.41","","3669","","<div class='trialDiv'><img src='Fruit/apple.png'><br><font class='baseline'><strong>Awesome Apples</strong><p>Choose number of points to bet.</font><div class='respPicDiv'><img src='img/responseButtonOffersNo0L.png' class='respPic'></div></div>","2","14","Awesome Apples","Fruit/apple.png","Lost","0.8,0.2","8","0.8","202","42","",""
"","","","decisionFB","","5f1f3581b5cf3e103cc545c9","bdp_rwlrn","Sun Mar 12 2023 16:24:02 GMT-0400 (Eastern Daylight Time)","689277","Untrustworthy,Trustworthy","html-keyboard-response","134","331329","0.0-11.0-2.41","","null","","<div class='trialDiv'><img src='Fruit/apple.png'><br><font class='baseline'><strong>Awesome Apples</strong><p>Choose number of points to bet.</font><div class='respPicDiv'><img src='img/responseButtonOffersNo0L2.png' class='respPic'></div></div>","null","14","Awesome Apples","Fruit/apple.png","Lost","0.8,0.2","8","0.8","200","42","",""
"","","","feedback","","5f1f3581b5cf3e103cc545c9","bdp_rwlrn","Sun Mar 12 2023 16:24:02 GMT-0400 (Eastern Daylight Time)","689277","Untrustworthy,Trustworthy","html-keyboard-response","135","332332","0.0-11.0-3.41","","null","","<div class='respPicDiv'><img src='img/responseButtonOffersNo0_wht.png' class='respPic'></div><div class='trialDiv'><img src='Fruit/apple.png'><br><font class='baseline'><strong>Awesome Apples</strong><p><strong><font class='negOutcome'>You LOST</font><p>You bet: 2</strong></font> &nbsp; &nbsp; &nbsp; &nbsp; &nbsp; &nbsp;<font class='negOutcome'>You receive: <strong>0</strong></font></div>","null","14","Awesome Apples","Fruit/apple.png","Lost","0.8,0.2","8","0.8","200","42","",""
"","","","decision","","5f1f3581b5cf3e103cc545c9","bdp_rwlrn","Sun Mar 12 2023 16:24:02 GMT-0400 (Eastern Daylight Time)","689277","Untrustworthy,Trustworthy","html-keyboard-response","136","333389","0.0-11.0-1.42","","1055","","<div class='trialDiv'><img src='Fruit/watermelon.png'><br><font class='baseline'><strong>Watermelon Win$</strong><p>Choose number of points to bet.</font><div class='respPicDiv'><img src='img/responseButtonOffersNo0L.png' class='respPic'></div></div>","1","15","Watermelon Win$","Fruit/watermelon.png","Won","0.35,0.8","14","0.35","205","43","",""
"","","","decisionFB","","5f1f3581b5cf3e103cc545c9","bdp_rwlrn","Sun Mar 12 2023 16:24:02 GMT-0400 (Eastern Daylight Time)","689277","Untrustworthy,Trustworthy","html-keyboard-response","137","333652","0.0-11.0-2.42","","null","","<div class='trialDiv'><img src='Fruit/watermelon.png'><br><font class='baseline'><strong>Watermelon Win$</strong><p>Choose number of points to bet.</font><div class='respPicDiv'><img src='img/responseButtonOffersNo0L1.png' class='respPic'></div></div>","null","15","Watermelon Win$","Fruit/watermelon.png","Won","0.35,0.8","14","0.35","204","43","",""
"","","","feedback","","5f1f3581b5cf3e103cc545c9","bdp_rwlrn","Sun Mar 12 2023 16:24:02 GMT-0400 (Eastern Daylight Time)","689277","Untrustworthy,Trustworthy","html-keyboard-response","138","334656","0.0-11.0-3.42","","null","","<div class='respPicDiv'><img src='img/responseButtonOffersNo0_wht.png' class='respPic'></div><div class='trialDiv'><img src='Fruit/watermelon.png'><br><font class='baseline'><strong>Watermelon Win$</strong><p><strong><font class='posOutcome'>You WON</font><p>You bet: 1</strong></font> &nbsp; &nbsp; &nbsp; &nbsp; &nbsp; &nbsp;<font class='posOutcome'>you receive: <strong>2</strong></font></div>","null","15","Watermelon Win$","Fruit/watermelon.png","Won","0.35,0.8","14","0.35","206","43","",""
"","","","decision","","5f1f3581b5cf3e103cc545c9","bdp_rwlrn","Sun Mar 12 2023 16:24:02 GMT-0400 (Eastern Daylight Time)","689277","Untrustworthy,Trustworthy","html-keyboard-response","139","335522","0.0-11.0-1.43","","863","","<div class='trialDiv'><img src='Fruit/papayas.png'><br><font class='baseline'><strong>Papaya Payday</strong><p>Choose number of points to bet.</font><div class='respPicDiv'><img src='img/responseButtonOffersNo0L.png' class='respPic'></div></div>","2","15","Papaya Payday","Fruit/papayas.png","Lost","0.65,0.2","8","0.65","211","44","",""
"","","","decisionFB","","5f1f3581b5cf3e103cc545c9","bdp_rwlrn","Sun Mar 12 2023 16:24:02 GMT-0400 (Eastern Daylight Time)","689277","Untrustworthy,Trustworthy","html-keyboard-response","140","335780","0.0-11.0-2.43","","null","","<div class='trialDiv'><img src='Fruit/papayas.png'><br><font class='baseline'><strong>Papaya Payday</strong><p>Choose number of points to bet.</font><div class='respPicDiv'><img src='img/responseButtonOffersNo0L2.png' class='respPic'></div></div>","null","15","Papaya Payday","Fruit/papayas.png","Lost","0.65,0.2","8","0.65","209","44","",""
"","","","feedback","","5f1f3581b5cf3e103cc545c9","bdp_rwlrn","Sun Mar 12 2023 16:24:02 GMT-0400 (Eastern Daylight Time)","689277","Untrustworthy,Trustworthy","html-keyboard-response","141","336786","0.0-11.0-3.43","","null","","<div class='respPicDiv'><img src='img/responseButtonOffersNo0_wht.png' class='respPic'></div><div class='trialDiv'><img src='Fruit/papayas.png'><br><font class='baseline'><strong>Papaya Payday</strong><p><strong><font class='negOutcome'>You LOST</font><p>You bet: 2</strong></font> &nbsp; &nbsp; &nbsp; &nbsp; &nbsp; &nbsp;<font class='negOutcome'>You receive: <strong>0</strong></font></div>","null","15","Papaya Payday","Fruit/papayas.png","Lost","0.65,0.2","8","0.65","209","44","",""
"","","","decision","","5f1f3581b5cf3e103cc545c9","bdp_rwlrn","Sun Mar 12 2023 16:24:02 GMT-0400 (Eastern Daylight Time)","689277","Untrustworthy,Trustworthy","html-keyboard-response","142","338302","0.0-11.0-1.44","","1514","","<div class='trialDiv'><img src='Fruit/apple.png'><br><font class='baseline'><strong>Awesome Apples</strong><p>Choose number of points to bet.</font><div class='respPicDiv'><img src='img/responseButtonOffersNo0L.png' class='respPic'></div></div>","3","15","Awesome Apples","Fruit/apple.png","Won","0.8,0.2","8","0.8","214","45","",""
"","","","decisionFB","","5f1f3581b5cf3e103cc545c9","bdp_rwlrn","Sun Mar 12 2023 16:24:02 GMT-0400 (Eastern Daylight Time)","689277","Untrustworthy,Trustworthy","html-keyboard-response","143","338563","0.0-11.0-2.44","","null","","<div class='trialDiv'><img src='Fruit/apple.png'><br><font class='baseline'><strong>Awesome Apples</strong><p>Choose number of points to bet.</font><div class='respPicDiv'><img src='img/responseButtonOffersNo0L3.png' class='respPic'></div></div>","null","15","Awesome Apples","Fruit/apple.png","Won","0.8,0.2","8","0.8","211","45","",""
"","","","feedback","","5f1f3581b5cf3e103cc545c9","bdp_rwlrn","Sun Mar 12 2023 16:24:02 GMT-0400 (Eastern Daylight Time)","689277","Untrustworthy,Trustworthy","html-keyboard-response","144","339573","0.0-11.0-3.44","","null","","<div class='respPicDiv'><img src='img/responseButtonOffersNo0_wht.png' class='respPic'></div><div class='trialDiv'><img src='Fruit/apple.png'><br><font class='baseline'><strong>Awesome Apples</strong><p><strong><font class='posOutcome'>You WON</font><p>You bet: 3</strong></font> &nbsp; &nbsp; &nbsp; &nbsp; &nbsp; &nbsp;<font class='posOutcome'>you receive: <strong>6</strong></font></div>","null","15","Awesome Apples","Fruit/apple.png","Won","0.8,0.2","8","0.8","217","45","",""
"","","","decision","","5f1f3581b5cf3e103cc545c9","bdp_rwlrn","Sun Mar 12 2023 16:24:02 GMT-0400 (Eastern Daylight Time)","689277","Untrustworthy,Trustworthy","html-keyboard-response","145","340337","0.0-11.0-1.45","","763","","<div class='trialDiv'><img src='Fruit/papayas.png'><br><font class='baseline'><strong>Papaya Payday</strong><p>Choose number of points to bet.</font><div class='respPicDiv'><img src='img/responseButtonOffersNo0L.png' class='respPic'></div></div>","3","16","Papaya Payday","Fruit/papayas.png","Lost","0.65,0.2","8","0.65","222","46","",""
"","","","decisionFB","","5f1f3581b5cf3e103cc545c9","bdp_rwlrn","Sun Mar 12 2023 16:24:02 GMT-0400 (Eastern Daylight Time)","689277","Untrustworthy,Trustworthy","html-keyboard-response","146","340594","0.0-11.0-2.45","","null","","<div class='trialDiv'><img src='Fruit/papayas.png'><br><font class='baseline'><strong>Papaya Payday</strong><p>Choose number of points to bet.</font><div class='respPicDiv'><img src='img/responseButtonOffersNo0L3.png' class='respPic'></div></div>","null","16","Papaya Payday","Fruit/papayas.png","Lost","0.65,0.2","8","0.65","219","46","",""
"","","","feedback","","5f1f3581b5cf3e103cc545c9","bdp_rwlrn","Sun Mar 12 2023 16:24:02 GMT-0400 (Eastern Daylight Time)","689277","Untrustworthy,Trustworthy","html-keyboard-response","147","341604","0.0-11.0-3.45","","null","","<div class='respPicDiv'><img src='img/responseButtonOffersNo0_wht.png' class='respPic'></div><div class='trialDiv'><img src='Fruit/papayas.png'><br><font class='baseline'><strong>Papaya Payday</strong><p><strong><font class='negOutcome'>You LOST</font><p>You bet: 3</strong></font> &nbsp; &nbsp; &nbsp; &nbsp; &nbsp; &nbsp;<font class='negOutcome'>You receive: <strong>0</strong></font></div>","null","16","Papaya Payday","Fruit/papayas.png","Lost","0.65,0.2","8","0.65","219","46","",""
"","","","decision","","5f1f3581b5cf3e103cc545c9","bdp_rwlrn","Sun Mar 12 2023 16:24:02 GMT-0400 (Eastern Daylight Time)","689277","Untrustworthy,Trustworthy","html-keyboard-response","148","342116","0.0-11.0-1.46","","510","","<div class='trialDiv'><img src='Fruit/watermelon.png'><br><font class='baseline'><strong>Watermelon Win$</strong><p>Choose number of points to bet.</font><div class='respPicDiv'><img src='img/responseButtonOffersNo0L.png' class='respPic'></div></div>","2","16","Watermelon Win$","Fruit/watermelon.png","Won","0.35,0.8","14","0.35","224","47","",""
"","","","decisionFB","","5f1f3581b5cf3e103cc545c9","bdp_rwlrn","Sun Mar 12 2023 16:24:02 GMT-0400 (Eastern Daylight Time)","689277","Untrustworthy,Trustworthy","html-keyboard-response","149","342371","0.0-11.0-2.46","","null","","<div class='trialDiv'><img src='Fruit/watermelon.png'><br><font class='baseline'><strong>Watermelon Win$</strong><p>Choose number of points to bet.</font><div class='respPicDiv'><img src='img/responseButtonOffersNo0L2.png' class='respPic'></div></div>","null","16","Watermelon Win$","Fruit/watermelon.png","Won","0.35,0.8","14","0.35","222","47","",""
"","","","feedback","","5f1f3581b5cf3e103cc545c9","bdp_rwlrn","Sun Mar 12 2023 16:24:02 GMT-0400 (Eastern Daylight Time)","689277","Untrustworthy,Trustworthy","html-keyboard-response","150","343381","0.0-11.0-3.46","","null","","<div class='respPicDiv'><img src='img/responseButtonOffersNo0_wht.png' class='respPic'></div><div class='trialDiv'><img src='Fruit/watermelon.png'><br><font class='baseline'><strong>Watermelon Win$</strong><p><strong><font class='posOutcome'>You WON</font><p>You bet: 2</strong></font> &nbsp; &nbsp; &nbsp; &nbsp; &nbsp; &nbsp;<font class='posOutcome'>you receive: <strong>4</strong></font></div>","null","16","Watermelon Win$","Fruit/watermelon.png","Won","0.35,0.8","14","0.35","226","47","",""
"","","","decision","","5f1f3581b5cf3e103cc545c9","bdp_rwlrn","Sun Mar 12 2023 16:24:02 GMT-0400 (Eastern Daylight Time)","689277","Untrustworthy,Trustworthy","html-keyboard-response","151","344077","0.0-11.0-1.47","","695","","<div class='trialDiv'><img src='Fruit/apple.png'><br><font class='baseline'><strong>Awesome Apples</strong><p>Choose number of points to bet.</font><div class='respPicDiv'><img src='img/responseButtonOffersNo0L.png' class='respPic'></div></div>","2","16","Awesome Apples","Fruit/apple.png","Lost","0.8,0.2","8","0.8","231","48","",""
"","","","decisionFB","","5f1f3581b5cf3e103cc545c9","bdp_rwlrn","Sun Mar 12 2023 16:24:02 GMT-0400 (Eastern Daylight Time)","689277","Untrustworthy,Trustworthy","html-keyboard-response","152","344333","0.0-11.0-2.47","","null","","<div class='trialDiv'><img src='Fruit/apple.png'><br><font class='baseline'><strong>Awesome Apples</strong><p>Choose number of points to bet.</font><div class='respPicDiv'><img src='img/responseButtonOffersNo0L2.png' class='respPic'></div></div>","null","16","Awesome Apples","Fruit/apple.png","Lost","0.8,0.2","8","0.8","229","48","",""
"","","","feedback","","5f1f3581b5cf3e103cc545c9","bdp_rwlrn","Sun Mar 12 2023 16:24:02 GMT-0400 (Eastern Daylight Time)","689277","Untrustworthy,Trustworthy","html-keyboard-response","153","345337","0.0-11.0-3.47","","null","","<div class='respPicDiv'><img src='img/responseButtonOffersNo0_wht.png' class='respPic'></div><div class='trialDiv'><img src='Fruit/apple.png'><br><font class='baseline'><strong>Awesome Apples</strong><p><strong><font class='negOutcome'>You LOST</font><p>You bet: 2</strong></font> &nbsp; &nbsp; &nbsp; &nbsp; &nbsp; &nbsp;<font class='negOutcome'>You receive: <strong>0</strong></font></div>","null","16","Awesome Apples","Fruit/apple.png","Lost","0.8,0.2","8","0.8","229","48","",""
"","","","decision","","5f1f3581b5cf3e103cc545c9","bdp_rwlrn","Sun Mar 12 2023 16:24:02 GMT-0400 (Eastern Daylight Time)","689277","Untrustworthy,Trustworthy","html-keyboard-response","154","352349","0.0-11.0-1.48","","7011","","<div class='trialDiv'><img src='Fruit/papayas.png'><br><font class='baseline'><strong>Papaya Payday</strong><p>Choose number of points to bet.</font><div class='respPicDiv'><img src='img/responseButtonOffersNo0L.png' class='respPic'></div></div>","3","17","Papaya Payday","Fruit/papayas.png","Lost","0.65,0.2","8","0.65","234","49","",""
"","","","decisionFB","","5f1f3581b5cf3e103cc545c9","bdp_rwlrn","Sun Mar 12 2023 16:24:02 GMT-0400 (Eastern Daylight Time)","689277","Untrustworthy,Trustworthy","html-keyboard-response","155","352610","0.0-11.0-2.48","","null","","<div class='trialDiv'><img src='Fruit/papayas.png'><br><font class='baseline'><strong>Papaya Payday</strong><p>Choose number of points to bet.</font><div class='respPicDiv'><img src='img/responseButtonOffersNo0L3.png' class='respPic'></div></div>","null","17","Papaya Payday","Fruit/papayas.png","Lost","0.65,0.2","8","0.65","231","49","",""
"","","","feedback","","5f1f3581b5cf3e103cc545c9","bdp_rwlrn","Sun Mar 12 2023 16:24:02 GMT-0400 (Eastern Daylight Time)","689277","Untrustworthy,Trustworthy","html-keyboard-response","156","353621","0.0-11.0-3.48","","null","","<div class='respPicDiv'><img src='img/responseButtonOffersNo0_wht.png' class='respPic'></div><div class='trialDiv'><img src='Fruit/papayas.png'><br><font class='baseline'><strong>Papaya Payday</strong><p><strong><font class='negOutcome'>You LOST</font><p>You bet: 3</strong></font> &nbsp; &nbsp; &nbsp; &nbsp; &nbsp; &nbsp;<font class='negOutcome'>You receive: <strong>0</strong></font></div>","null","17","Papaya Payday","Fruit/papayas.png","Lost","0.65,0.2","8","0.65","231","49","",""
"","","","decision","","5f1f3581b5cf3e103cc545c9","bdp_rwlrn","Sun Mar 12 2023 16:24:02 GMT-0400 (Eastern Daylight Time)","689277","Untrustworthy,Trustworthy","html-keyboard-response","157","359176","0.0-11.0-1.49","","5554","","<div class='trialDiv'><img src='Fruit/watermelon.png'><br><font class='baseline'><strong>Watermelon Win$</strong><p>Choose number of points to bet.</font><div class='respPicDiv'><img src='img/responseButtonOffersNo0L.png' class='respPic'></div></div>","2","17","Watermelon Win$","Fruit/watermelon.png","Won","0.35,0.8","14","0.35","236","50","",""
"","","","decisionFB","","5f1f3581b5cf3e103cc545c9","bdp_rwlrn","Sun Mar 12 2023 16:24:02 GMT-0400 (Eastern Daylight Time)","689277","Untrustworthy,Trustworthy","html-keyboard-response","158","359437","0.0-11.0-2.49","","null","","<div class='trialDiv'><img src='Fruit/watermelon.png'><br><font class='baseline'><strong>Watermelon Win$</strong><p>Choose number of points to bet.</font><div class='respPicDiv'><img src='img/responseButtonOffersNo0L2.png' class='respPic'></div></div>","null","17","Watermelon Win$","Fruit/watermelon.png","Won","0.35,0.8","14","0.35","234","50","",""
"","","","feedback","","5f1f3581b5cf3e103cc545c9","bdp_rwlrn","Sun Mar 12 2023 16:24:02 GMT-0400 (Eastern Daylight Time)","689277","Untrustworthy,Trustworthy","html-keyboard-response","159","360441","0.0-11.0-3.49","","null","","<div class='respPicDiv'><img src='img/responseButtonOffersNo0_wht.png' class='respPic'></div><div class='trialDiv'><img src='Fruit/watermelon.png'><br><font class='baseline'><strong>Watermelon Win$</strong><p><strong><font class='posOutcome'>You WON</font><p>You bet: 2</strong></font> &nbsp; &nbsp; &nbsp; &nbsp; &nbsp; &nbsp;<font class='posOutcome'>you receive: <strong>4</strong></font></div>","null","17","Watermelon Win$","Fruit/watermelon.png","Won","0.35,0.8","14","0.35","238","50","",""
"","","","decision","","5f1f3581b5cf3e103cc545c9","bdp_rwlrn","Sun Mar 12 2023 16:24:02 GMT-0400 (Eastern Daylight Time)","689277","Untrustworthy,Trustworthy","html-keyboard-response","160","361982","0.0-11.0-1.50","","1539","","<div class='trialDiv'><img src='Fruit/apple.png'><br><font class='baseline'><strong>Awesome Apples</strong><p>Choose number of points to bet.</font><div class='respPicDiv'><img src='img/responseButtonOffersNo0L.png' class='respPic'></div></div>","3","17","Awesome Apples","Fruit/apple.png","Won","0.8,0.2","8","0.8","243","51","",""
