"trial_type","trial_index","time_elapsed","internal_node_id","subject_id","task","startTime","totalTime","labels","view_history","rt","event","trial","time","trialtype","success","stimulus","key_press","ltround","name","fileID","outcome","lottotype","lottoswpt","lottocurrpshare","point_total","round","numBlurs","faceID","face"
"pavlovia","0","3","0.0-0.0","636182d3f52ff78fc3f7de50","bdp_rwlrn","Wed Mar 15 2023 22:14:12 GMT-0500 (Central Daylight Time)","467554","Trustworthy,Untrustworthy","","","","","","","","","","","","","","","","","","","","",""
"instructions","1","4768","0.0-1.0","636182d3f52ff78fc3f7de50","bdp_rwlrn","Wed Mar 15 2023 22:14:12 GMT-0500 (Central Daylight Time)","467554","Trustworthy,Untrustworthy","[{""page_index"":0,""viewing_time"":4765}]","4765","","","","","","","","","","","","","","","","","","",""
"","","","","636182d3f52ff78fc3f7de50","bdp_rwlrn","Wed Mar 15 2023 22:14:12 GMT-0500 (Central Daylight Time)","467554","Trustworthy,Untrustworthy","","","fullscreenenter","2","7402","fullscreenenter","","","","","","","","","","","","","","",""
"fullscreen","2","8377","0.0-2.0","636182d3f52ff78fc3f7de50","bdp_rwlrn","Wed Mar 15 2023 22:14:12 GMT-0500 (Central Daylight Time)","467554","Trustworthy,Untrustworthy","","","","","","","true","","","","","","","","","","","","","",""
"instructions","3","102172","0.0-4.0","636182d3f52ff78fc3f7de50","bdp_rwlrn","Wed Mar 15 2023 22:14:12 GMT-0500 (Central Daylight Time)","467554","Trustworthy,Untrustworthy","[{""page_index"":0,""viewing_time"":10638},{""page_index"":1,""viewing_time"":29161},{""page_index"":2,""viewing_time"":9239},{""page_index"":3,""viewing_time"":7335},{""page_index"":4,""viewing_time"":28319},{""page_index"":5,""viewing_time"":9100}]","93792","","","","","","","","","","","","","","","","","","",""
"html-keyboard-response","4","113143","0.0-5.0","636182d3f52ff78fc3f7de50","bdp_rwlrn","Wed Mar 15 2023 22:14:12 GMT-0500 (Central Daylight Time)","467554","Trustworthy,Untrustworthy","","10968","","","","","","<div class='header' style='text-align:left; position: absolute; top: 5%; left: 5%;'><small>Task 1 of 5</small></div><div class='instruxDiv'><p><strong>1) What is the maximum number of points you can choose to bet on a lottery?</strong></p><p>a) 0</p><p>b) 1</p><p>c) 5</p>","B","","","","","","","","","","","",""
"html-keyboard-response","5","117102","0.0-6.0","636182d3f52ff78fc3f7de50","bdp_rwlrn","Wed Mar 15 2023 22:14:12 GMT-0500 (Central Daylight Time)","467554","Trustworthy,Untrustworthy","","3856","","","","","","<div class='header' style='text-align:left; position: absolute; top: 5%; left: 5%;'><small>Task 1 of 5</small></div><div class='instruxDiv'><p><strong>1) What is the maximum number of points you can choose to bet on a lottery?</strong></p><p>a) 0</p><p style='color:#FF0000'>b) 1</p><p>c) 5</p><h3 style='color:#FF0000'>Incorrect!</h3><h3 class='center-content'>The correct response is c).</h3><h3 class='center-content'>The maximum number of points you can choose to bet on a lottery is 5 points.</h3><p><em>Press SPACEBAR to continue</em></p></div>"," ","","","","","","","","","","","",""
"html-keyboard-response","6","121545","0.0-7.0","636182d3f52ff78fc3f7de50","bdp_rwlrn","Wed Mar 15 2023 22:14:12 GMT-0500 (Central Daylight Time)","467554","Trustworthy,Untrustworthy","","4339","","","","","","<div class='header' style='text-align:left; position: absolute; top: 5%; left: 5%;'><small>Task 1 of 5</small></div><div class='instruxDiv'><p><strong>2) How many points can you win each round?</strong></p><p>a) 10 points</p><p>b) Double what you bet</p><p>c) Quadruple what you bet</p>","C","","","","","","","","","","","",""
"html-keyboard-response","7","123765","0.0-8.0","636182d3f52ff78fc3f7de50","bdp_rwlrn","Wed Mar 15 2023 22:14:12 GMT-0500 (Central Daylight Time)","467554","Trustworthy,Untrustworthy","","2114","","","","","","<div class='header' style='text-align:left; position: absolute; top: 5%; left: 5%;'><small>Task 1 of 5</small></div><div class='instruxDiv'><p><strong>2) How many points can you win each round?</strong></p><p>a) 10 points</p><p>b) Double what you bet</p><p style='color:#FF0000'>c) Quadruple what you bet</p><h3 style='color:#FF0000'>Incorrect!</h3><h3 class='center-content'>The correct response is b).</h3><h3 class='center-content'>You can win double the amount of points you bet.</h3><p><em>Press SPACEBAR to continue</em></p></div>"," ","","","","","","","","","","","",""
"html-keyboard-response","8","128890","0.0-9.0","636182d3f52ff78fc3f7de50","bdp_rwlrn","Wed Mar 15 2023 22:14:12 GMT-0500 (Central Daylight Time)","467554","Trustworthy,Untrustworthy","","null","","","","","","<div class='header' style='text-align:left; position: absolute; top: 5%; left: 5%;'><small>Task 1 of 5</small></div><div class='instruxDiv'><p>Thank you for completing the quiz<p>These are the actual lotteries you will be playing in the next block:<p><div class='tc' align='center'><img class='introPic' src='Fruit/apple.png'><br><strong>Awesome Apples</strong></div><div class='bl' align='center'><img class='introPic' src='Fruit/pineapple.png'><br><strong>Primo Pineapple</strong></div><div class='br' align='center'><img class='introPic' src='Fruit/papayas.png'><br><strong>Papaya Payday</strong></div></div><p>Across <strong>66 rounds</strong> you will play each lottery <strong>22 times</strong> (in random order).<p style='align:center; color:white'><font <em>Press SPACEBAR to continue</em></p>","null","","","","","","","","","","","",""
"instructions","9","137266","0.0-10.0","636182d3f52ff78fc3f7de50","bdp_rwlrn","Wed Mar 15 2023 22:14:12 GMT-0500 (Central Daylight Time)","467554","Trustworthy,Untrustworthy","[{""page_index"":0,""viewing_time"":303},{""page_index"":1,""viewing_time"":8070}]","8374","","","","","","","","","","","","","","","","","","",""
"html-keyboard-response","10","141180","0.0-11.0-1.0","636182d3f52ff78fc3f7de50","bdp_rwlrn","Wed Mar 15 2023 22:14:12 GMT-0500 (Central Daylight Time)","467554","Trustworthy,Untrustworthy","","3798","","","","decision","","<div class='trialDiv'><img src='Fruit/apple.png'><br><font class='baseline'><strong>Awesome Apples</strong><p>Choose number of points to bet.</font><div class='respPicDiv'><img src='img/responseButtonOffersNo0L.png' class='respPic'></div></div>","3","1","Awesome Apples","Fruit/apple.png","Won","0.8,0.2","13","0.8","5","1","","",""
"html-keyboard-response","11","141441","0.0-11.0-2.0","636182d3f52ff78fc3f7de50","bdp_rwlrn","Wed Mar 15 2023 22:14:12 GMT-0500 (Central Daylight Time)","467554","Trustworthy,Untrustworthy","","null","","","","decisionFB","","<div class='trialDiv'><img src='Fruit/apple.png'><br><font class='baseline'><strong>Awesome Apples</strong><p>Choose number of points to bet.</font><div class='respPicDiv'><img src='img/responseButtonOffersNo0L3.png' class='respPic'></div></div>","null","1","Awesome Apples","Fruit/apple.png","Won","0.8,0.2","13","0.8","2","1","","",""
"html-keyboard-response","12","142450","0.0-11.0-3.0","636182d3f52ff78fc3f7de50","bdp_rwlrn","Wed Mar 15 2023 22:14:12 GMT-0500 (Central Daylight Time)","467554","Trustworthy,Untrustworthy","","null","","","","feedback","","<div class='respPicDiv'><img src='img/responseButtonOffersNo0_wht.png' class='respPic'></div><div class='trialDiv'><img src='Fruit/apple.png'><br><font class='baseline'><strong>Awesome Apples</strong><p><strong><font class='posOutcome'>You WON</font><p>You bet: 3</strong></font> &nbsp; &nbsp; &nbsp; &nbsp; &nbsp; &nbsp;<font class='posOutcome'>you receive: <strong>6</strong></font></div>","null","1","Awesome Apples","Fruit/apple.png","Won","0.8,0.2","13","0.8","8","1","","",""
"html-keyboard-response","13","143640","0.0-11.0-1.1","636182d3f52ff78fc3f7de50","bdp_rwlrn","Wed Mar 15 2023 22:14:12 GMT-0500 (Central Daylight Time)","467554","Trustworthy,Untrustworthy","","1188","","","","decision","","<div class='trialDiv'><img src='Fruit/papayas.png'><br><font class='baseline'><strong>Papaya Payday</strong><p>Choose number of points to bet.</font><div class='respPicDiv'><img src='img/responseButtonOffersNo0L.png' class='respPic'></div></div>","3","1","Papaya Payday","Fruit/papayas.png","Lost","0.65,0.2","14","0.65","13","2","","",""
"html-keyboard-response","14","143900","0.0-11.0-2.1","636182d3f52ff78fc3f7de50","bdp_rwlrn","Wed Mar 15 2023 22:14:12 GMT-0500 (Central Daylight Time)","467554","Trustworthy,Untrustworthy","","null","","","","decisionFB","","<div class='trialDiv'><img src='Fruit/papayas.png'><br><font class='baseline'><strong>Papaya Payday</strong><p>Choose number of points to bet.</font><div class='respPicDiv'><img src='img/responseButtonOffersNo0L3.png' class='respPic'></div></div>","null","1","Papaya Payday","Fruit/papayas.png","Lost","0.65,0.2","14","0.65","10","2","","",""
"html-keyboard-response","15","144907","0.0-11.0-3.1","636182d3f52ff78fc3f7de50","bdp_rwlrn","Wed Mar 15 2023 22:14:12 GMT-0500 (Central Daylight Time)","467554","Trustworthy,Untrustworthy","","null","","","","feedback","","<div class='respPicDiv'><img src='img/responseButtonOffersNo0_wht.png' class='respPic'></div><div class='trialDiv'><img src='Fruit/papayas.png'><br><font class='baseline'><strong>Papaya Payday</strong><p><strong><font class='negOutcome'>You LOST</font><p>You bet: 3</strong></font> &nbsp; &nbsp; &nbsp; &nbsp; &nbsp; &nbsp;<font class='negOutcome'>You receive: <strong>0</strong></font></div>","null","1","Papaya Payday","Fruit/papayas.png","Lost","0.65,0.2","14","0.65","10","2","","",""
"html-keyboard-response","16","146833","0.0-11.0-1.2","636182d3f52ff78fc3f7de50","bdp_rwlrn","Wed Mar 15 2023 22:14:12 GMT-0500 (Central Daylight Time)","467554","Trustworthy,Untrustworthy","","1923","","","","decision","","<div class='trialDiv'><img src='Fruit/pineapple.png'><br><font class='baseline'><strong>Primo Pineapple</strong><p>Choose number of points to bet.</font><div class='respPicDiv'><img src='img/responseButtonOffersNo0L.png' class='respPic'></div></div>","2","1","Primo Pineapple","Fruit/pineapple.png","Won","0.2,0.65","9","0.2","15","3","","",""
"html-keyboard-response","17","147086","0.0-11.0-2.2","636182d3f52ff78fc3f7de50","bdp_rwlrn","Wed Mar 15 2023 22:14:12 GMT-0500 (Central Daylight Time)","467554","Trustworthy,Untrustworthy","","null","","","","decisionFB","","<div class='trialDiv'><img src='Fruit/pineapple.png'><br><font class='baseline'><strong>Primo Pineapple</strong><p>Choose number of points to bet.</font><div class='respPicDiv'><img src='img/responseButtonOffersNo0L2.png' class='respPic'></div></div>","null","1","Primo Pineapple","Fruit/pineapple.png","Won","0.2,0.65","9","0.2","13","3","","",""
"html-keyboard-response","18","148097","0.0-11.0-3.2","636182d3f52ff78fc3f7de50","bdp_rwlrn","Wed Mar 15 2023 22:14:12 GMT-0500 (Central Daylight Time)","467554","Trustworthy,Untrustworthy","","null","","","","feedback","","<div class='respPicDiv'><img src='img/responseButtonOffersNo0_wht.png' class='respPic'></div><div class='trialDiv'><img src='Fruit/pineapple.png'><br><font class='baseline'><strong>Primo Pineapple</strong><p><strong><font class='posOutcome'>You WON</font><p>You bet: 2</strong></font> &nbsp; &nbsp; &nbsp; &nbsp; &nbsp; &nbsp;<font class='posOutcome'>you receive: <strong>4</strong></font></div>","null","1","Primo Pineapple","Fruit/pineapple.png","Won","0.2,0.65","9","0.2","17","3","","",""
"html-keyboard-response","19","150831","0.0-11.0-1.3","636182d3f52ff78fc3f7de50","bdp_rwlrn","Wed Mar 15 2023 22:14:12 GMT-0500 (Central Daylight Time)","467554","Trustworthy,Untrustworthy","","2733","","","","decision","","<div class='trialDiv'><img src='Fruit/apple.png'><br><font class='baseline'><strong>Awesome Apples</strong><p>Choose number of points to bet.</font><div class='respPicDiv'><img src='img/responseButtonOffersNo0L.png' class='respPic'></div></div>","5","2","Awesome Apples","Fruit/apple.png","Won","0.8,0.2","13","0.8","22","4","","",""
"html-keyboard-response","20","151092","0.0-11.0-2.3","636182d3f52ff78fc3f7de50","bdp_rwlrn","Wed Mar 15 2023 22:14:12 GMT-0500 (Central Daylight Time)","467554","Trustworthy,Untrustworthy","","null","","","","decisionFB","","<div class='trialDiv'><img src='Fruit/apple.png'><br><font class='baseline'><strong>Awesome Apples</strong><p>Choose number of points to bet.</font><div class='respPicDiv'><img src='img/responseButtonOffersNo0L5.png' class='respPic'></div></div>","null","2","Awesome Apples","Fruit/apple.png","Won","0.8,0.2","13","0.8","17","4","","",""
"html-keyboard-response","21","152110","0.0-11.0-3.3","636182d3f52ff78fc3f7de50","bdp_rwlrn","Wed Mar 15 2023 22:14:12 GMT-0500 (Central Daylight Time)","467554","Trustworthy,Untrustworthy","","null","","","","feedback","","<div class='respPicDiv'><img src='img/responseButtonOffersNo0_wht.png' class='respPic'></div><div class='trialDiv'><img src='Fruit/apple.png'><br><font class='baseline'><strong>Awesome Apples</strong><p><strong><font class='posOutcome'>You WON</font><p>You bet: 5</strong></font> &nbsp; &nbsp; &nbsp; &nbsp; &nbsp; &nbsp;<font class='posOutcome'>you receive: <strong>10</strong></font></div>","null","2","Awesome Apples","Fruit/apple.png","Won","0.8,0.2","13","0.8","27","4","","",""
"html-keyboard-response","22","152871","0.0-11.0-1.4","636182d3f52ff78fc3f7de50","bdp_rwlrn","Wed Mar 15 2023 22:14:12 GMT-0500 (Central Daylight Time)","467554","Trustworthy,Untrustworthy","","760","","","","decision","","<div class='trialDiv'><img src='Fruit/pineapple.png'><br><font class='baseline'><strong>Primo Pineapple</strong><p>Choose number of points to bet.</font><div class='respPicDiv'><img src='img/responseButtonOffersNo0L.png' class='respPic'></div></div>","4","2","Primo Pineapple","Fruit/pineapple.png","Won","0.2,0.65","9","0.2","32","5","","",""
"html-keyboard-response","23","153132","0.0-11.0-2.4","636182d3f52ff78fc3f7de50","bdp_rwlrn","Wed Mar 15 2023 22:14:12 GMT-0500 (Central Daylight Time)","467554","Trustworthy,Untrustworthy","","null","","","","decisionFB","","<div class='trialDiv'><img src='Fruit/pineapple.png'><br><font class='baseline'><strong>Primo Pineapple</strong><p>Choose number of points to bet.</font><div class='respPicDiv'><img src='img/responseButtonOffersNo0L4.png' class='respPic'></div></div>","null","2","Primo Pineapple","Fruit/pineapple.png","Won","0.2,0.65","9","0.2","28","5","","",""
"html-keyboard-response","24","154143","0.0-11.0-3.4","636182d3f52ff78fc3f7de50","bdp_rwlrn","Wed Mar 15 2023 22:14:12 GMT-0500 (Central Daylight Time)","467554","Trustworthy,Untrustworthy","","null","","","","feedback","","<div class='respPicDiv'><img src='img/responseButtonOffersNo0_wht.png' class='respPic'></div><div class='trialDiv'><img src='Fruit/pineapple.png'><br><font class='baseline'><strong>Primo Pineapple</strong><p><strong><font class='posOutcome'>You WON</font><p>You bet: 4</strong></font> &nbsp; &nbsp; &nbsp; &nbsp; &nbsp; &nbsp;<font class='posOutcome'>you receive: <strong>8</strong></font></div>","null","2","Primo Pineapple","Fruit/pineapple.png","Won","0.2,0.65","9","0.2","36","5","","",""
"html-keyboard-response","25","154671","0.0-11.0-1.5","636182d3f52ff78fc3f7de50","bdp_rwlrn","Wed Mar 15 2023 22:14:12 GMT-0500 (Central Daylight Time)","467554","Trustworthy,Untrustworthy","","527","","","","decision","","<div class='trialDiv'><img src='Fruit/papayas.png'><br><font class='baseline'><strong>Papaya Payday</strong><p>Choose number of points to bet.</font><div class='respPicDiv'><img src='img/responseButtonOffersNo0L.png' class='respPic'></div></div>","5","2","Papaya Payday","Fruit/papayas.png","Won","0.65,0.2","14","0.65","41","6","","",""
"html-keyboard-response","26","154932","0.0-11.0-2.5","636182d3f52ff78fc3f7de50","bdp_rwlrn","Wed Mar 15 2023 22:14:12 GMT-0500 (Central Daylight Time)","467554","Trustworthy,Untrustworthy","","null","","","","decisionFB","","<div class='trialDiv'><img src='Fruit/papayas.png'><br><font class='baseline'><strong>Papaya Payday</strong><p>Choose number of points to bet.</font><div class='respPicDiv'><img src='img/responseButtonOffersNo0L5.png' class='respPic'></div></div>","null","2","Papaya Payday","Fruit/papayas.png","Won","0.65,0.2","14","0.65","36","6","","",""
"html-keyboard-response","27","155944","0.0-11.0-3.5","636182d3f52ff78fc3f7de50","bdp_rwlrn","Wed Mar 15 2023 22:14:12 GMT-0500 (Central Daylight Time)","467554","Trustworthy,Untrustworthy","","null","","","","feedback","","<div class='respPicDiv'><img src='img/responseButtonOffersNo0_wht.png' class='respPic'></div><div class='trialDiv'><img src='Fruit/papayas.png'><br><font class='baseline'><strong>Papaya Payday</strong><p><strong><font class='posOutcome'>You WON</font><p>You bet: 5</strong></font> &nbsp; &nbsp; &nbsp; &nbsp; &nbsp; &nbsp;<font class='posOutcome'>you receive: <strong>10</strong></font></div>","null","2","Papaya Payday","Fruit/papayas.png","Won","0.65,0.2","14","0.65","46","6","","",""
"html-keyboard-response","28","156426","0.0-11.0-1.6","636182d3f52ff78fc3f7de50","bdp_rwlrn","Wed Mar 15 2023 22:14:12 GMT-0500 (Central Daylight Time)","467554","Trustworthy,Untrustworthy","","482","","","","decision","","<div class='trialDiv'><img src='Fruit/pineapple.png'><br><font class='baseline'><strong>Primo Pineapple</strong><p>Choose number of points to bet.</font><div class='respPicDiv'><img src='img/responseButtonOffersNo0L.png' class='respPic'></div></div>","3","3","Primo Pineapple","Fruit/pineapple.png","Lost","0.2,0.65","9","0.2","51","7","","",""
"html-keyboard-response","29","156682","0.0-11.0-2.6","636182d3f52ff78fc3f7de50","bdp_rwlrn","Wed Mar 15 2023 22:14:12 GMT-0500 (Central Daylight Time)","467554","Trustworthy,Untrustworthy","","null","","","","decisionFB","","<div class='trialDiv'><img src='Fruit/pineapple.png'><br><font class='baseline'><strong>Primo Pineapple</strong><p>Choose number of points to bet.</font><div class='respPicDiv'><img src='img/responseButtonOffersNo0L3.png' class='respPic'></div></div>","null","3","Primo Pineapple","Fruit/pineapple.png","Lost","0.2,0.65","9","0.2","48","7","","",""
"html-keyboard-response","30","157695","0.0-11.0-3.6","636182d3f52ff78fc3f7de50","bdp_rwlrn","Wed Mar 15 2023 22:14:12 GMT-0500 (Central Daylight Time)","467554","Trustworthy,Untrustworthy","","null","","","","feedback","","<div class='respPicDiv'><img src='img/responseButtonOffersNo0_wht.png' class='respPic'></div><div class='trialDiv'><img src='Fruit/pineapple.png'><br><font class='baseline'><strong>Primo Pineapple</strong><p><strong><font class='negOutcome'>You LOST</font><p>You bet: 3</strong></font> &nbsp; &nbsp; &nbsp; &nbsp; &nbsp; &nbsp;<font class='negOutcome'>You receive: <strong>0</strong></font></div>","null","3","Primo Pineapple","Fruit/pineapple.png","Lost","0.2,0.65","9","0.2","48","7","","",""
"html-keyboard-response","31","158017","0.0-11.0-1.7","636182d3f52ff78fc3f7de50","bdp_rwlrn","Wed Mar 15 2023 22:14:12 GMT-0500 (Central Daylight Time)","467554","Trustworthy,Untrustworthy","","321","","","","decision","","<div class='trialDiv'><img src='Fruit/papayas.png'><br><font class='baseline'><strong>Papaya Payday</strong><p>Choose number of points to bet.</font><div class='respPicDiv'><img src='img/responseButtonOffersNo0L.png' class='respPic'></div></div>","3","3","Papaya Payday","Fruit/papayas.png","Won","0.65,0.2","14","0.65","53","8","","",""
"html-keyboard-response","32","158278","0.0-11.0-2.7","636182d3f52ff78fc3f7de50","bdp_rwlrn","Wed Mar 15 2023 22:14:12 GMT-0500 (Central Daylight Time)","467554","Trustworthy,Untrustworthy","","null","","","","decisionFB","","<div class='trialDiv'><img src='Fruit/papayas.png'><br><font class='baseline'><strong>Papaya Payday</strong><p>Choose number of points to bet.</font><div class='respPicDiv'><img src='img/responseButtonOffersNo0L3.png' class='respPic'></div></div>","null","3","Papaya Payday","Fruit/papayas.png","Won","0.65,0.2","14","0.65","50","8","","",""
"html-keyboard-response","33","159293","0.0-11.0-3.7","636182d3f52ff78fc3f7de50","bdp_rwlrn","Wed Mar 15 2023 22:14:12 GMT-0500 (Central Daylight Time)","467554","Trustworthy,Untrustworthy","","null","","","","feedback","","<div class='respPicDiv'><img src='img/responseButtonOffersNo0_wht.png' class='respPic'></div><div class='trialDiv'><img src='Fruit/papayas.png'><br><font class='baseline'><strong>Papaya Payday</strong><p><strong><font class='posOutcome'>You WON</font><p>You bet: 3</strong></font> &nbsp; &nbsp; &nbsp; &nbsp; &nbsp; &nbsp;<font class='posOutcome'>you receive: <strong>6</strong></font></div>","null","3","Papaya Payday","Fruit/papayas.png","Won","0.65,0.2","14","0.65","56","8","","",""
"html-keyboard-response","34","159682","0.0-11.0-1.8","636182d3f52ff78fc3f7de50","bdp_rwlrn","Wed Mar 15 2023 22:14:12 GMT-0500 (Central Daylight Time)","467554","Trustworthy,Untrustworthy","","387","","","","decision","","<div class='trialDiv'><img src='Fruit/apple.png'><br><font class='baseline'><strong>Awesome Apples</strong><p>Choose number of points to bet.</font><div class='respPicDiv'><img src='img/responseButtonOffersNo0L.png' class='respPic'></div></div>","5","3","Awesome Apples","Fruit/apple.png","Won","0.8,0.2","13","0.8","61","9","","",""
"html-keyboard-response","35","159940","0.0-11.0-2.8","636182d3f52ff78fc3f7de50","bdp_rwlrn","Wed Mar 15 2023 22:14:12 GMT-0500 (Central Daylight Time)","467554","Trustworthy,Untrustworthy","","null","","","","decisionFB","","<div class='trialDiv'><img src='Fruit/apple.png'><br><font class='baseline'><strong>Awesome Apples</strong><p>Choose number of points to bet.</font><div class='respPicDiv'><img src='img/responseButtonOffersNo0L5.png' class='respPic'></div></div>","null","3","Awesome Apples","Fruit/apple.png","Won","0.8,0.2","13","0.8","56","9","","",""
"html-keyboard-response","36","160952","0.0-11.0-3.8","636182d3f52ff78fc3f7de50","bdp_rwlrn","Wed Mar 15 2023 22:14:12 GMT-0500 (Central Daylight Time)","467554","Trustworthy,Untrustworthy","","null","","","","feedback","","<div class='respPicDiv'><img src='img/responseButtonOffersNo0_wht.png' class='respPic'></div><div class='trialDiv'><img src='Fruit/apple.png'><br><font class='baseline'><strong>Awesome Apples</strong><p><strong><font class='posOutcome'>You WON</font><p>You bet: 5</strong></font> &nbsp; &nbsp; &nbsp; &nbsp; &nbsp; &nbsp;<font class='posOutcome'>you receive: <strong>10</strong></font></div>","null","3","Awesome Apples","Fruit/apple.png","Won","0.8,0.2","13","0.8","66","9","","",""
"html-keyboard-response","37","161227","0.0-11.0-1.9","636182d3f52ff78fc3f7de50","bdp_rwlrn","Wed Mar 15 2023 22:14:12 GMT-0500 (Central Daylight Time)","467554","Trustworthy,Untrustworthy","","273","","","","decision","","<div class='trialDiv'><img src='Fruit/pineapple.png'><br><font class='baseline'><strong>Primo Pineapple</strong><p>Choose number of points to bet.</font><div class='respPicDiv'><img src='img/responseButtonOffersNo0L.png' class='respPic'></div></div>","4","4","Primo Pineapple","Fruit/pineapple.png","Won","0.2,0.65","9","0.2","71","10","","",""
"html-keyboard-response","38","161483","0.0-11.0-2.9","636182d3f52ff78fc3f7de50","bdp_rwlrn","Wed Mar 15 2023 22:14:12 GMT-0500 (Central Daylight Time)","467554","Trustworthy,Untrustworthy","","null","","","","decisionFB","","<div class='trialDiv'><img src='Fruit/pineapple.png'><br><font class='baseline'><strong>Primo Pineapple</strong><p>Choose number of points to bet.</font><div class='respPicDiv'><img src='img/responseButtonOffersNo0L4.png' class='respPic'></div></div>","null","4","Primo Pineapple","Fruit/pineapple.png","Won","0.2,0.65","9","0.2","67","10","","",""
"html-keyboard-response","39","162493","0.0-11.0-3.9","636182d3f52ff78fc3f7de50","bdp_rwlrn","Wed Mar 15 2023 22:14:12 GMT-0500 (Central Daylight Time)","467554","Trustworthy,Untrustworthy","","null","","","","feedback","","<div class='respPicDiv'><img src='img/responseButtonOffersNo0_wht.png' class='respPic'></div><div class='trialDiv'><img src='Fruit/pineapple.png'><br><font class='baseline'><strong>Primo Pineapple</strong><p><strong><font class='posOutcome'>You WON</font><p>You bet: 4</strong></font> &nbsp; &nbsp; &nbsp; &nbsp; &nbsp; &nbsp;<font class='posOutcome'>you receive: <strong>8</strong></font></div>","null","4","Primo Pineapple","Fruit/pineapple.png","Won","0.2,0.65","9","0.2","75","10","","",""
"html-keyboard-response","40","162756","0.0-11.0-1.10","636182d3f52ff78fc3f7de50","bdp_rwlrn","Wed Mar 15 2023 22:14:12 GMT-0500 (Central Daylight Time)","467554","Trustworthy,Untrustworthy","","263","","","","decision","","<div class='trialDiv'><img src='Fruit/apple.png'><br><font class='baseline'><strong>Awesome Apples</strong><p>Choose number of points to bet.</font><div class='respPicDiv'><img src='img/responseButtonOffersNo0L.png' class='respPic'></div></div>","5","4","Awesome Apples","Fruit/apple.png","Won","0.8,0.2","13","0.8","80","11","","",""
"html-keyboard-response","41","163016","0.0-11.0-2.10","636182d3f52ff78fc3f7de50","bdp_rwlrn","Wed Mar 15 2023 22:14:12 GMT-0500 (Central Daylight Time)","467554","Trustworthy,Untrustworthy","","null","","","","decisionFB","","<div class='trialDiv'><img src='Fruit/apple.png'><br><font class='baseline'><strong>Awesome Apples</strong><p>Choose number of points to bet.</font><div class='respPicDiv'><img src='img/responseButtonOffersNo0L5.png' class='respPic'></div></div>","null","4","Awesome Apples","Fruit/apple.png","Won","0.8,0.2","13","0.8","75","11","","",""
"html-keyboard-response","42","164028","0.0-11.0-3.10","636182d3f52ff78fc3f7de50","bdp_rwlrn","Wed Mar 15 2023 22:14:12 GMT-0500 (Central Daylight Time)","467554","Trustworthy,Untrustworthy","","null","","","","feedback","","<div class='respPicDiv'><img src='img/responseButtonOffersNo0_wht.png' class='respPic'></div><div class='trialDiv'><img src='Fruit/apple.png'><br><font class='baseline'><strong>Awesome Apples</strong><p><strong><font class='posOutcome'>You WON</font><p>You bet: 5</strong></font> &nbsp; &nbsp; &nbsp; &nbsp; &nbsp; &nbsp;<font class='posOutcome'>you receive: <strong>10</strong></font></div>","null","4","Awesome Apples","Fruit/apple.png","Won","0.8,0.2","13","0.8","85","11","","",""
"html-keyboard-response","43","164196","0.0-11.0-1.11","636182d3f52ff78fc3f7de50","bdp_rwlrn","Wed Mar 15 2023 22:14:12 GMT-0500 (Central Daylight Time)","467554","Trustworthy,Untrustworthy","","168","","","","decision","","<div class='trialDiv'><img src='Fruit/papayas.png'><br><font class='baseline'><strong>Papaya Payday</strong><p>Choose number of points to bet.</font><div class='respPicDiv'><img src='img/responseButtonOffersNo0L.png' class='respPic'></div></div>","3","4","Papaya Payday","Fruit/papayas.png","Won","0.65,0.2","14","0.65","90","12","","",""
"html-keyboard-response","44","164457","0.0-11.0-2.11","636182d3f52ff78fc3f7de50","bdp_rwlrn","Wed Mar 15 2023 22:14:12 GMT-0500 (Central Daylight Time)","467554","Trustworthy,Untrustworthy","","null","","","","decisionFB","","<div class='trialDiv'><img src='Fruit/papayas.png'><br><font class='baseline'><strong>Papaya Payday</strong><p>Choose number of points to bet.</font><div class='respPicDiv'><img src='img/responseButtonOffersNo0L3.png' class='respPic'></div></div>","null","4","Papaya Payday","Fruit/papayas.png","Won","0.65,0.2","14","0.65","87","12","","",""
"html-keyboard-response","45","165469","0.0-11.0-3.11","636182d3f52ff78fc3f7de50","bdp_rwlrn","Wed Mar 15 2023 22:14:12 GMT-0500 (Central Daylight Time)","467554","Trustworthy,Untrustworthy","","null","","","","feedback","","<div class='respPicDiv'><img src='img/responseButtonOffersNo0_wht.png' class='respPic'></div><div class='trialDiv'><img src='Fruit/papayas.png'><br><font class='baseline'><strong>Papaya Payday</strong><p><strong><font class='posOutcome'>You WON</font><p>You bet: 3</strong></font> &nbsp; &nbsp; &nbsp; &nbsp; &nbsp; &nbsp;<font class='posOutcome'>you receive: <strong>6</strong></font></div>","null","4","Papaya Payday","Fruit/papayas.png","Won","0.65,0.2","14","0.65","93","12","","",""
"html-keyboard-response","46","165756","0.0-11.0-1.12","636182d3f52ff78fc3f7de50","bdp_rwlrn","Wed Mar 15 2023 22:14:12 GMT-0500 (Central Daylight Time)","467554","Trustworthy,Untrustworthy","","287","","","","decision","","<div class='trialDiv'><img src='Fruit/apple.png'><br><font class='baseline'><strong>Awesome Apples</strong><p>Choose number of points to bet.</font><div class='respPicDiv'><img src='img/responseButtonOffersNo0L.png' class='respPic'></div></div>","4","5","Awesome Apples","Fruit/apple.png","Won","0.8,0.2","13","0.8","98","13","","",""
"html-keyboard-response","47","166016","0.0-11.0-2.12","636182d3f52ff78fc3f7de50","bdp_rwlrn","Wed Mar 15 2023 22:14:12 GMT-0500 (Central Daylight Time)","467554","Trustworthy,Untrustworthy","","null","","","","decisionFB","","<div class='trialDiv'><img src='Fruit/apple.png'><br><font class='baseline'><strong>Awesome Apples</strong><p>Choose number of points to bet.</font><div class='respPicDiv'><img src='img/responseButtonOffersNo0L4.png' class='respPic'></div></div>","null","5","Awesome Apples","Fruit/apple.png","Won","0.8,0.2","13","0.8","94","13","","",""
"html-keyboard-response","48","167027","0.0-11.0-3.12","636182d3f52ff78fc3f7de50","bdp_rwlrn","Wed Mar 15 2023 22:14:12 GMT-0500 (Central Daylight Time)","467554","Trustworthy,Untrustworthy","","null","","","","feedback","","<div class='respPicDiv'><img src='img/responseButtonOffersNo0_wht.png' class='respPic'></div><div class='trialDiv'><img src='Fruit/apple.png'><br><font class='baseline'><strong>Awesome Apples</strong><p><strong><font class='posOutcome'>You WON</font><p>You bet: 4</strong></font> &nbsp; &nbsp; &nbsp; &nbsp; &nbsp; &nbsp;<font class='posOutcome'>you receive: <strong>8</strong></font></div>","null","5","Awesome Apples","Fruit/apple.png","Won","0.8,0.2","13","0.8","102","13","","",""
"html-keyboard-response","49","167266","0.0-11.0-1.13","636182d3f52ff78fc3f7de50","bdp_rwlrn","Wed Mar 15 2023 22:14:12 GMT-0500 (Central Daylight Time)","467554","Trustworthy,Untrustworthy","","239","","","","decision","","<div class='trialDiv'><img src='Fruit/pineapple.png'><br><font class='baseline'><strong>Primo Pineapple</strong><p>Choose number of points to bet.</font><div class='respPicDiv'><img src='img/responseButtonOffersNo0L.png' class='respPic'></div></div>","5","5","Primo Pineapple","Fruit/pineapple.png","Lost","0.2,0.65","9","0.2","107","14","","",""
"html-keyboard-response","50","167525","0.0-11.0-2.13","636182d3f52ff78fc3f7de50","bdp_rwlrn","Wed Mar 15 2023 22:14:12 GMT-0500 (Central Daylight Time)","467554","Trustworthy,Untrustworthy","","null","","","","decisionFB","","<div class='trialDiv'><img src='Fruit/pineapple.png'><br><font class='baseline'><strong>Primo Pineapple</strong><p>Choose number of points to bet.</font><div class='respPicDiv'><img src='img/responseButtonOffersNo0L5.png' class='respPic'></div></div>","null","5","Primo Pineapple","Fruit/pineapple.png","Lost","0.2,0.65","9","0.2","102","14","","",""
"html-keyboard-response","51","168540","0.0-11.0-3.13","636182d3f52ff78fc3f7de50","bdp_rwlrn","Wed Mar 15 2023 22:14:12 GMT-0500 (Central Daylight Time)","467554","Trustworthy,Untrustworthy","","null","","","","feedback","","<div class='respPicDiv'><img src='img/responseButtonOffersNo0_wht.png' class='respPic'></div><div class='trialDiv'><img src='Fruit/pineapple.png'><br><font class='baseline'><strong>Primo Pineapple</strong><p><strong><font class='negOutcome'>You LOST</font><p>You bet: 5</strong></font> &nbsp; &nbsp; &nbsp; &nbsp; &nbsp; &nbsp;<font class='negOutcome'>You receive: <strong>0</strong></font></div>","null","5","Primo Pineapple","Fruit/pineapple.png","Lost","0.2,0.65","9","0.2","102","14","","",""
"html-keyboard-response","52","168803","0.0-11.0-1.14","636182d3f52ff78fc3f7de50","bdp_rwlrn","Wed Mar 15 2023 22:14:12 GMT-0500 (Central Daylight Time)","467554","Trustworthy,Untrustworthy","","261","","","","decision","","<div class='trialDiv'><img src='Fruit/papayas.png'><br><font class='baseline'><strong>Papaya Payday</strong><p>Choose number of points to bet.</font><div class='respPicDiv'><img src='img/responseButtonOffersNo0L.png' class='respPic'></div></div>","3","5","Papaya Payday","Fruit/papayas.png","Won","0.65,0.2","14","0.65","107","15","","",""
"html-keyboard-response","53","169067","0.0-11.0-2.14","636182d3f52ff78fc3f7de50","bdp_rwlrn","Wed Mar 15 2023 22:14:12 GMT-0500 (Central Daylight Time)","467554","Trustworthy,Untrustworthy","","null","","","","decisionFB","","<div class='trialDiv'><img src='Fruit/papayas.png'><br><font class='baseline'><strong>Papaya Payday</strong><p>Choose number of points to bet.</font><div class='respPicDiv'><img src='img/responseButtonOffersNo0L3.png' class='respPic'></div></div>","null","5","Papaya Payday","Fruit/papayas.png","Won","0.65,0.2","14","0.65","104","15","","",""
"html-keyboard-response","54","170074","0.0-11.0-3.14","636182d3f52ff78fc3f7de50","bdp_rwlrn","Wed Mar 15 2023 22:14:12 GMT-0500 (Central Daylight Time)","467554","Trustworthy,Untrustworthy","","null","","","","feedback","","<div class='respPicDiv'><img src='img/responseButtonOffersNo0_wht.png' class='respPic'></div><div class='trialDiv'><img src='Fruit/papayas.png'><br><font class='baseline'><strong>Papaya Payday</strong><p><strong><font class='posOutcome'>You WON</font><p>You bet: 3</strong></font> &nbsp; &nbsp; &nbsp; &nbsp; &nbsp; &nbsp;<font class='posOutcome'>you receive: <strong>6</strong></font></div>","null","5","Papaya Payday","Fruit/papayas.png","Won","0.65,0.2","14","0.65","110","15","","",""
"html-keyboard-response","55","170304","0.0-11.0-1.15","636182d3f52ff78fc3f7de50","bdp_rwlrn","Wed Mar 15 2023 22:14:12 GMT-0500 (Central Daylight Time)","467554","Trustworthy,Untrustworthy","","229","","","","decision","","<div class='trialDiv'><img src='Fruit/pineapple.png'><br><font class='baseline'><strong>Primo Pineapple</strong><p>Choose number of points to bet.</font><div class='respPicDiv'><img src='img/responseButtonOffersNo0L.png' class='respPic'></div></div>","4","6","Primo Pineapple","Fruit/pineapple.png","Lost","0.2,0.65","9","0.2","115","16","","",""
"html-keyboard-response","56","170567","0.0-11.0-2.15","636182d3f52ff78fc3f7de50","bdp_rwlrn","Wed Mar 15 2023 22:14:12 GMT-0500 (Central Daylight Time)","467554","Trustworthy,Untrustworthy","","null","","","","decisionFB","","<div class='trialDiv'><img src='Fruit/pineapple.png'><br><font class='baseline'><strong>Primo Pineapple</strong><p>Choose number of points to bet.</font><div class='respPicDiv'><img src='img/responseButtonOffersNo0L4.png' class='respPic'></div></div>","null","6","Primo Pineapple","Fruit/pineapple.png","Lost","0.2,0.65","9","0.2","111","16","","",""
"html-keyboard-response","57","171582","0.0-11.0-3.15","636182d3f52ff78fc3f7de50","bdp_rwlrn","Wed Mar 15 2023 22:14:12 GMT-0500 (Central Daylight Time)","467554","Trustworthy,Untrustworthy","","null","","","","feedback","","<div class='respPicDiv'><img src='img/responseButtonOffersNo0_wht.png' class='respPic'></div><div class='trialDiv'><img src='Fruit/pineapple.png'><br><font class='baseline'><strong>Primo Pineapple</strong><p><strong><font class='negOutcome'>You LOST</font><p>You bet: 4</strong></font> &nbsp; &nbsp; &nbsp; &nbsp; &nbsp; &nbsp;<font class='negOutcome'>You receive: <strong>0</strong></font></div>","null","6","Primo Pineapple","Fruit/pineapple.png","Lost","0.2,0.65","9","0.2","111","16","","",""
"html-keyboard-response","58","171729","0.0-11.0-1.16","636182d3f52ff78fc3f7de50","bdp_rwlrn","Wed Mar 15 2023 22:14:12 GMT-0500 (Central Daylight Time)","467554","Trustworthy,Untrustworthy","","145","","","","decision","","<div class='trialDiv'><img src='Fruit/apple.png'><br><font class='baseline'><strong>Awesome Apples</strong><p>Choose number of points to bet.</font><div class='respPicDiv'><img src='img/responseButtonOffersNo0L.png' class='respPic'></div></div>","5","6","Awesome Apples","Fruit/apple.png","Won","0.8,0.2","13","0.8","116","17","","",""
"html-keyboard-response","59","171991","0.0-11.0-2.16","636182d3f52ff78fc3f7de50","bdp_rwlrn","Wed Mar 15 2023 22:14:12 GMT-0500 (Central Daylight Time)","467554","Trustworthy,Untrustworthy","","null","","","","decisionFB","","<div class='trialDiv'><img src='Fruit/apple.png'><br><font class='baseline'><strong>Awesome Apples</strong><p>Choose number of points to bet.</font><div class='respPicDiv'><img src='img/responseButtonOffersNo0L5.png' class='respPic'></div></div>","null","6","Awesome Apples","Fruit/apple.png","Won","0.8,0.2","13","0.8","111","17","","",""
"html-keyboard-response","60","172999","0.0-11.0-3.16","636182d3f52ff78fc3f7de50","bdp_rwlrn","Wed Mar 15 2023 22:14:12 GMT-0500 (Central Daylight Time)","467554","Trustworthy,Untrustworthy","","null","","","","feedback","","<div class='respPicDiv'><img src='img/responseButtonOffersNo0_wht.png' class='respPic'></div><div class='trialDiv'><img src='Fruit/apple.png'><br><font class='baseline'><strong>Awesome Apples</strong><p><strong><font class='posOutcome'>You WON</font><p>You bet: 5</strong></font> &nbsp; &nbsp; &nbsp; &nbsp; &nbsp; &nbsp;<font class='posOutcome'>you receive: <strong>10</strong></font></div>","null","6","Awesome Apples","Fruit/apple.png","Won","0.8,0.2","13","0.8","121","17","","",""
"html-keyboard-response","61","173214","0.0-11.0-1.17","636182d3f52ff78fc3f7de50","bdp_rwlrn","Wed Mar 15 2023 22:14:12 GMT-0500 (Central Daylight Time)","467554","Trustworthy,Untrustworthy","","214","","","","decision","","<div class='trialDiv'><img src='Fruit/papayas.png'><br><font class='baseline'><strong>Papaya Payday</strong><p>Choose number of points to bet.</font><div class='respPicDiv'><img src='img/responseButtonOffersNo0L.png' class='respPic'></div></div>","3","6","Papaya Payday","Fruit/papayas.png","Won","0.65,0.2","14","0.65","126","18","","",""
"html-keyboard-response","62","173476","0.0-11.0-2.17","636182d3f52ff78fc3f7de50","bdp_rwlrn","Wed Mar 15 2023 22:14:12 GMT-0500 (Central Daylight Time)","467554","Trustworthy,Untrustworthy","","null","","","","decisionFB","","<div class='trialDiv'><img src='Fruit/papayas.png'><br><font class='baseline'><strong>Papaya Payday</strong><p>Choose number of points to bet.</font><div class='respPicDiv'><img src='img/responseButtonOffersNo0L3.png' class='respPic'></div></div>","null","6","Papaya Payday","Fruit/papayas.png","Won","0.65,0.2","14","0.65","123","18","","",""
"html-keyboard-response","63","174482","0.0-11.0-3.17","636182d3f52ff78fc3f7de50","bdp_rwlrn","Wed Mar 15 2023 22:14:12 GMT-0500 (Central Daylight Time)","467554","Trustworthy,Untrustworthy","","null","","","","feedback","","<div class='respPicDiv'><img src='img/responseButtonOffersNo0_wht.png' class='respPic'></div><div class='trialDiv'><img src='Fruit/papayas.png'><br><font class='baseline'><strong>Papaya Payday</strong><p><strong><font class='posOutcome'>You WON</font><p>You bet: 3</strong></font> &nbsp; &nbsp; &nbsp; &nbsp; &nbsp; &nbsp;<font class='posOutcome'>you receive: <strong>6</strong></font></div>","null","6","Papaya Payday","Fruit/papayas.png","Won","0.65,0.2","14","0.65","129","18","","",""
"html-keyboard-response","64","174790","0.0-11.0-1.18","636182d3f52ff78fc3f7de50","bdp_rwlrn","Wed Mar 15 2023 22:14:12 GMT-0500 (Central Daylight Time)","467554","Trustworthy,Untrustworthy","","307","","","","decision","","<div class='trialDiv'><img src='Fruit/pineapple.png'><br><font class='baseline'><strong>Primo Pineapple</strong><p>Choose number of points to bet.</font><div class='respPicDiv'><img src='img/responseButtonOffersNo0L.png' class='respPic'></div></div>","4","7","Primo Pineapple","Fruit/pineapple.png","Lost","0.2,0.65","9","0.2","134","19","","",""
"html-keyboard-response","65","175042","0.0-11.0-2.18","636182d3f52ff78fc3f7de50","bdp_rwlrn","Wed Mar 15 2023 22:14:12 GMT-0500 (Central Daylight Time)","467554","Trustworthy,Untrustworthy","","null","","","","decisionFB","","<div class='trialDiv'><img src='Fruit/pineapple.png'><br><font class='baseline'><strong>Primo Pineapple</strong><p>Choose number of points to bet.</font><div class='respPicDiv'><img src='img/responseButtonOffersNo0L4.png' class='respPic'></div></div>","null","7","Primo Pineapple","Fruit/pineapple.png","Lost","0.2,0.65","9","0.2","130","19","","",""
"html-keyboard-response","66","176048","0.0-11.0-3.18","636182d3f52ff78fc3f7de50","bdp_rwlrn","Wed Mar 15 2023 22:14:12 GMT-0500 (Central Daylight Time)","467554","Trustworthy,Untrustworthy","","null","","","","feedback","","<div class='respPicDiv'><img src='img/responseButtonOffersNo0_wht.png' class='respPic'></div><div class='trialDiv'><img src='Fruit/pineapple.png'><br><font class='baseline'><strong>Primo Pineapple</strong><p><strong><font class='negOutcome'>You LOST</font><p>You bet: 4</strong></font> &nbsp; &nbsp; &nbsp; &nbsp; &nbsp; &nbsp;<font class='negOutcome'>You receive: <strong>0</strong></font></div>","null","7","Primo Pineapple","Fruit/pineapple.png","Lost","0.2,0.65","9","0.2","130","19","","",""
"html-keyboard-response","67","176904","0.0-11.0-1.19","636182d3f52ff78fc3f7de50","bdp_rwlrn","Wed Mar 15 2023 22:14:12 GMT-0500 (Central Daylight Time)","467554","Trustworthy,Untrustworthy","","855","","","","decision","","<div class='trialDiv'><img src='Fruit/papayas.png'><br><font class='baseline'><strong>Papaya Payday</strong><p>Choose number of points to bet.</font><div class='respPicDiv'><img src='img/responseButtonOffersNo0L.png' class='respPic'></div></div>","4","7","Papaya Payday","Fruit/papayas.png","Won","0.65,0.2","14","0.65","135","20","","",""
"html-keyboard-response","68","177168","0.0-11.0-2.19","636182d3f52ff78fc3f7de50","bdp_rwlrn","Wed Mar 15 2023 22:14:12 GMT-0500 (Central Daylight Time)","467554","Trustworthy,Untrustworthy","","null","","","","decisionFB","","<div class='trialDiv'><img src='Fruit/papayas.png'><br><font class='baseline'><strong>Papaya Payday</strong><p>Choose number of points to bet.</font><div class='respPicDiv'><img src='img/responseButtonOffersNo0L4.png' class='respPic'></div></div>","null","7","Papaya Payday","Fruit/papayas.png","Won","0.65,0.2","14","0.65","131","20","","",""
"html-keyboard-response","69","178175","0.0-11.0-3.19","636182d3f52ff78fc3f7de50","bdp_rwlrn","Wed Mar 15 2023 22:14:12 GMT-0500 (Central Daylight Time)","467554","Trustworthy,Untrustworthy","","null","","","","feedback","","<div class='respPicDiv'><img src='img/responseButtonOffersNo0_wht.png' class='respPic'></div><div class='trialDiv'><img src='Fruit/papayas.png'><br><font class='baseline'><strong>Papaya Payday</strong><p><strong><font class='posOutcome'>You WON</font><p>You bet: 4</strong></font> &nbsp; &nbsp; &nbsp; &nbsp; &nbsp; &nbsp;<font class='posOutcome'>you receive: <strong>8</strong></font></div>","null","7","Papaya Payday","Fruit/papayas.png","Won","0.65,0.2","14","0.65","139","20","","",""
"html-keyboard-response","70","178464","0.0-11.0-1.20","636182d3f52ff78fc3f7de50","bdp_rwlrn","Wed Mar 15 2023 22:14:12 GMT-0500 (Central Daylight Time)","467554","Trustworthy,Untrustworthy","","288","","","","decision","","<div class='trialDiv'><img src='Fruit/apple.png'><br><font class='baseline'><strong>Awesome Apples</strong><p>Choose number of points to bet.</font><div class='respPicDiv'><img src='img/responseButtonOffersNo0L.png' class='respPic'></div></div>","5","7","Awesome Apples","Fruit/apple.png","Won","0.8,0.2","13","0.8","144","21","","",""
"html-keyboard-response","71","178725","0.0-11.0-2.20","636182d3f52ff78fc3f7de50","bdp_rwlrn","Wed Mar 15 2023 22:14:12 GMT-0500 (Central Daylight Time)","467554","Trustworthy,Untrustworthy","","null","","","","decisionFB","","<div class='trialDiv'><img src='Fruit/apple.png'><br><font class='baseline'><strong>Awesome Apples</strong><p>Choose number of points to bet.</font><div class='respPicDiv'><img src='img/responseButtonOffersNo0L5.png' class='respPic'></div></div>","null","7","Awesome Apples","Fruit/apple.png","Won","0.8,0.2","13","0.8","139","21","","",""
"html-keyboard-response","72","179733","0.0-11.0-3.20","636182d3f52ff78fc3f7de50","bdp_rwlrn","Wed Mar 15 2023 22:14:12 GMT-0500 (Central Daylight Time)","467554","Trustworthy,Untrustworthy","","null","","","","feedback","","<div class='respPicDiv'><img src='img/responseButtonOffersNo0_wht.png' class='respPic'></div><div class='trialDiv'><img src='Fruit/apple.png'><br><font class='baseline'><strong>Awesome Apples</strong><p><strong><font class='posOutcome'>You WON</font><p>You bet: 5</strong></font> &nbsp; &nbsp; &nbsp; &nbsp; &nbsp; &nbsp;<font class='posOutcome'>you receive: <strong>10</strong></font></div>","null","7","Awesome Apples","Fruit/apple.png","Won","0.8,0.2","13","0.8","149","21","","",""
"html-keyboard-response","73","179964","0.0-11.0-1.21","636182d3f52ff78fc3f7de50","bdp_rwlrn","Wed Mar 15 2023 22:14:12 GMT-0500 (Central Daylight Time)","467554","Trustworthy,Untrustworthy","","230","","","","decision","","<div class='trialDiv'><img src='Fruit/pineapple.png'><br><font class='baseline'><strong>Primo Pineapple</strong><p>Choose number of points to bet.</font><div class='respPicDiv'><img src='img/responseButtonOffersNo0L.png' class='respPic'></div></div>","3","8","Primo Pineapple","Fruit/pineapple.png","Lost","0.2,0.65","9","0.2","154","22","","",""
"html-keyboard-response","74","180225","0.0-11.0-2.21","636182d3f52ff78fc3f7de50","bdp_rwlrn","Wed Mar 15 2023 22:14:12 GMT-0500 (Central Daylight Time)","467554","Trustworthy,Untrustworthy","","null","","","","decisionFB","","<div class='trialDiv'><img src='Fruit/pineapple.png'><br><font class='baseline'><strong>Primo Pineapple</strong><p>Choose number of points to bet.</font><div class='respPicDiv'><img src='img/responseButtonOffersNo0L3.png' class='respPic'></div></div>","null","8","Primo Pineapple","Fruit/pineapple.png","Lost","0.2,0.65","9","0.2","151","22","","",""
"html-keyboard-response","75","181231","0.0-11.0-3.21","636182d3f52ff78fc3f7de50","bdp_rwlrn","Wed Mar 15 2023 22:14:12 GMT-0500 (Central Daylight Time)","467554","Trustworthy,Untrustworthy","","null","","","","feedback","","<div class='respPicDiv'><img src='img/responseButtonOffersNo0_wht.png' class='respPic'></div><div class='trialDiv'><img src='Fruit/pineapple.png'><br><font class='baseline'><strong>Primo Pineapple</strong><p><strong><font class='negOutcome'>You LOST</font><p>You bet: 3</strong></font> &nbsp; &nbsp; &nbsp; &nbsp; &nbsp; &nbsp;<font class='negOutcome'>You receive: <strong>0</strong></font></div>","null","8","Primo Pineapple","Fruit/pineapple.png","Lost","0.2,0.65","9","0.2","151","22","","",""
"html-keyboard-response","76","181450","0.0-11.0-1.22","636182d3f52ff78fc3f7de50","bdp_rwlrn","Wed Mar 15 2023 22:14:12 GMT-0500 (Central Daylight Time)","467554","Trustworthy,Untrustworthy","","216","","","","decision","","<div class='trialDiv'><img src='Fruit/papayas.png'><br><font class='baseline'><strong>Papaya Payday</strong><p>Choose number of points to bet.</font><div class='respPicDiv'><img src='img/responseButtonOffersNo0L.png' class='respPic'></div></div>","3","8","Papaya Payday","Fruit/papayas.png","Won","0.65,0.2","14","0.65","156","23","","",""
"html-keyboard-response","77","181708","0.0-11.0-2.22","636182d3f52ff78fc3f7de50","bdp_rwlrn","Wed Mar 15 2023 22:14:12 GMT-0500 (Central Daylight Time)","467554","Trustworthy,Untrustworthy","","null","","","","decisionFB","","<div class='trialDiv'><img src='Fruit/papayas.png'><br><font class='baseline'><strong>Papaya Payday</strong><p>Choose number of points to bet.</font><div class='respPicDiv'><img src='img/responseButtonOffersNo0L3.png' class='respPic'></div></div>","null","8","Papaya Payday","Fruit/papayas.png","Won","0.65,0.2","14","0.65","153","23","","",""
"html-keyboard-response","78","182715","0.0-11.0-3.22","636182d3f52ff78fc3f7de50","bdp_rwlrn","Wed Mar 15 2023 22:14:12 GMT-0500 (Central Daylight Time)","467554","Trustworthy,Untrustworthy","","null","","","","feedback","","<div class='respPicDiv'><img src='img/responseButtonOffersNo0_wht.png' class='respPic'></div><div class='trialDiv'><img src='Fruit/papayas.png'><br><font class='baseline'><strong>Papaya Payday</strong><p><strong><font class='posOutcome'>You WON</font><p>You bet: 3</strong></font> &nbsp; &nbsp; &nbsp; &nbsp; &nbsp; &nbsp;<font class='posOutcome'>you receive: <strong>6</strong></font></div>","null","8","Papaya Payday","Fruit/papayas.png","Won","0.65,0.2","14","0.65","159","23","","",""
"html-keyboard-response","79","183159","0.0-11.0-1.23","636182d3f52ff78fc3f7de50","bdp_rwlrn","Wed Mar 15 2023 22:14:12 GMT-0500 (Central Daylight Time)","467554","Trustworthy,Untrustworthy","","444","","","","decision","","<div class='trialDiv'><img src='Fruit/apple.png'><br><font class='baseline'><strong>Awesome Apples</strong><p>Choose number of points to bet.</font><div class='respPicDiv'><img src='img/responseButtonOffersNo0L.png' class='respPic'></div></div>","2","8","Awesome Apples","Fruit/apple.png","Won","0.8,0.2","13","0.8","164","24","","",""
"html-keyboard-response","80","183417","0.0-11.0-2.23","636182d3f52ff78fc3f7de50","bdp_rwlrn","Wed Mar 15 2023 22:14:12 GMT-0500 (Central Daylight Time)","467554","Trustworthy,Untrustworthy","","null","","","","decisionFB","","<div class='trialDiv'><img src='Fruit/apple.png'><br><font class='baseline'><strong>Awesome Apples</strong><p>Choose number of points to bet.</font><div class='respPicDiv'><img src='img/responseButtonOffersNo0L2.png' class='respPic'></div></div>","null","8","Awesome Apples","Fruit/apple.png","Won","0.8,0.2","13","0.8","162","24","","",""
"html-keyboard-response","81","184424","0.0-11.0-3.23","636182d3f52ff78fc3f7de50","bdp_rwlrn","Wed Mar 15 2023 22:14:12 GMT-0500 (Central Daylight Time)","467554","Trustworthy,Untrustworthy","","null","","","","feedback","","<div class='respPicDiv'><img src='img/responseButtonOffersNo0_wht.png' class='respPic'></div><div class='trialDiv'><img src='Fruit/apple.png'><br><font class='baseline'><strong>Awesome Apples</strong><p><strong><font class='posOutcome'>You WON</font><p>You bet: 2</strong></font> &nbsp; &nbsp; &nbsp; &nbsp; &nbsp; &nbsp;<font class='posOutcome'>you receive: <strong>4</strong></font></div>","null","8","Awesome Apples","Fruit/apple.png","Won","0.8,0.2","13","0.8","166","24","","",""
"html-keyboard-response","82","184660","0.0-11.0-1.24","636182d3f52ff78fc3f7de50","bdp_rwlrn","Wed Mar 15 2023 22:14:12 GMT-0500 (Central Daylight Time)","467554","Trustworthy,Untrustworthy","","234","","","","decision","","<div class='trialDiv'><img src='Fruit/pineapple.png'><br><font class='baseline'><strong>Primo Pineapple</strong><p>Choose number of points to bet.</font><div class='respPicDiv'><img src='img/responseButtonOffersNo0L.png' class='respPic'></div></div>","3","9","Primo Pineapple","Fruit/pineapple.png","Won","0.2,0.65","9","0.2","171","25","","",""
"html-keyboard-response","83","184924","0.0-11.0-2.24","636182d3f52ff78fc3f7de50","bdp_rwlrn","Wed Mar 15 2023 22:14:12 GMT-0500 (Central Daylight Time)","467554","Trustworthy,Untrustworthy","","null","","","","decisionFB","","<div class='trialDiv'><img src='Fruit/pineapple.png'><br><font class='baseline'><strong>Primo Pineapple</strong><p>Choose number of points to bet.</font><div class='respPicDiv'><img src='img/responseButtonOffersNo0L3.png' class='respPic'></div></div>","null","9","Primo Pineapple","Fruit/pineapple.png","Won","0.2,0.65","9","0.2","168","25","","",""
"html-keyboard-response","84","185932","0.0-11.0-3.24","636182d3f52ff78fc3f7de50","bdp_rwlrn","Wed Mar 15 2023 22:14:12 GMT-0500 (Central Daylight Time)","467554","Trustworthy,Untrustworthy","","null","","","","feedback","","<div class='respPicDiv'><img src='img/responseButtonOffersNo0_wht.png' class='respPic'></div><div class='trialDiv'><img src='Fruit/pineapple.png'><br><font class='baseline'><strong>Primo Pineapple</strong><p><strong><font class='posOutcome'>You WON</font><p>You bet: 3</strong></font> &nbsp; &nbsp; &nbsp; &nbsp; &nbsp; &nbsp;<font class='posOutcome'>you receive: <strong>6</strong></font></div>","null","9","Primo Pineapple","Fruit/pineapple.png","Won","0.2,0.65","9","0.2","174","25","","",""
"html-keyboard-response","85","186371","0.0-11.0-1.25","636182d3f52ff78fc3f7de50","bdp_rwlrn","Wed Mar 15 2023 22:14:12 GMT-0500 (Central Daylight Time)","467554","Trustworthy,Untrustworthy","","436","","","","decision","","<div class='trialDiv'><img src='Fruit/apple.png'><br><font class='baseline'><strong>Awesome Apples</strong><p>Choose number of points to bet.</font><div class='respPicDiv'><img src='img/responseButtonOffersNo0L.png' class='respPic'></div></div>","3","9","Awesome Apples","Fruit/apple.png","Lost","0.8,0.2","13","0.8","179","26","","",""
"html-keyboard-response","86","186633","0.0-11.0-2.25","636182d3f52ff78fc3f7de50","bdp_rwlrn","Wed Mar 15 2023 22:14:12 GMT-0500 (Central Daylight Time)","467554","Trustworthy,Untrustworthy","","null","","","","decisionFB","","<div class='trialDiv'><img src='Fruit/apple.png'><br><font class='baseline'><strong>Awesome Apples</strong><p>Choose number of points to bet.</font><div class='respPicDiv'><img src='img/responseButtonOffersNo0L3.png' class='respPic'></div></div>","null","9","Awesome Apples","Fruit/apple.png","Lost","0.8,0.2","13","0.8","176","26","","",""
"html-keyboard-response","87","187648","0.0-11.0-3.25","636182d3f52ff78fc3f7de50","bdp_rwlrn","Wed Mar 15 2023 22:14:12 GMT-0500 (Central Daylight Time)","467554","Trustworthy,Untrustworthy","","null","","","","feedback","","<div class='respPicDiv'><img src='img/responseButtonOffersNo0_wht.png' class='respPic'></div><div class='trialDiv'><img src='Fruit/apple.png'><br><font class='baseline'><strong>Awesome Apples</strong><p><strong><font class='negOutcome'>You LOST</font><p>You bet: 3</strong></font> &nbsp; &nbsp; &nbsp; &nbsp; &nbsp; &nbsp;<font class='negOutcome'>You receive: <strong>0</strong></font></div>","null","9","Awesome Apples","Fruit/apple.png","Lost","0.8,0.2","13","0.8","176","26","","",""
"html-keyboard-response","88","187854","0.0-11.0-1.26","636182d3f52ff78fc3f7de50","bdp_rwlrn","Wed Mar 15 2023 22:14:12 GMT-0500 (Central Daylight Time)","467554","Trustworthy,Untrustworthy","","205","","","","decision","","<div class='trialDiv'><img src='Fruit/papayas.png'><br><font class='baseline'><strong>Papaya Payday</strong><p>Choose number of points to bet.</font><div class='respPicDiv'><img src='img/responseButtonOffersNo0L.png' class='respPic'></div></div>","4","9","Papaya Payday","Fruit/papayas.png","Won","0.65,0.2","14","0.65","181","27","","",""
"html-keyboard-response","89","188117","0.0-11.0-2.26","636182d3f52ff78fc3f7de50","bdp_rwlrn","Wed Mar 15 2023 22:14:12 GMT-0500 (Central Daylight Time)","467554","Trustworthy,Untrustworthy","","null","","","","decisionFB","","<div class='trialDiv'><img src='Fruit/papayas.png'><br><font class='baseline'><strong>Papaya Payday</strong><p>Choose number of points to bet.</font><div class='respPicDiv'><img src='img/responseButtonOffersNo0L4.png' class='respPic'></div></div>","null","9","Papaya Payday","Fruit/papayas.png","Won","0.65,0.2","14","0.65","177","27","","",""
"html-keyboard-response","90","189124","0.0-11.0-3.26","636182d3f52ff78fc3f7de50","bdp_rwlrn","Wed Mar 15 2023 22:14:12 GMT-0500 (Central Daylight Time)","467554","Trustworthy,Untrustworthy","","null","","","","feedback","","<div class='respPicDiv'><img src='img/responseButtonOffersNo0_wht.png' class='respPic'></div><div class='trialDiv'><img src='Fruit/papayas.png'><br><font class='baseline'><strong>Papaya Payday</strong><p><strong><font class='posOutcome'>You WON</font><p>You bet: 4</strong></font> &nbsp; &nbsp; &nbsp; &nbsp; &nbsp; &nbsp;<font class='posOutcome'>you receive: <strong>8</strong></font></div>","null","9","Papaya Payday","Fruit/papayas.png","Won","0.65,0.2","14","0.65","185","27","","",""
"html-keyboard-response","91","189400","0.0-11.0-1.27","636182d3f52ff78fc3f7de50","bdp_rwlrn","Wed Mar 15 2023 22:14:12 GMT-0500 (Central Daylight Time)","467554","Trustworthy,Untrustworthy","","273","","","","decision","","<div class='trialDiv'><img src='Fruit/pineapple.png'><br><font class='baseline'><strong>Primo Pineapple</strong><p>Choose number of points to bet.</font><div class='respPicDiv'><img src='img/responseButtonOffersNo0L.png' class='respPic'></div></div>","3","10","Primo Pineapple","Fruit/pineapple.png","Won","0.2,0.65","9","0.2","190","28","","",""
"html-keyboard-response","92","189660","0.0-11.0-2.27","636182d3f52ff78fc3f7de50","bdp_rwlrn","Wed Mar 15 2023 22:14:12 GMT-0500 (Central Daylight Time)","467554","Trustworthy,Untrustworthy","","null","","","","decisionFB","","<div class='trialDiv'><img src='Fruit/pineapple.png'><br><font class='baseline'><strong>Primo Pineapple</strong><p>Choose number of points to bet.</font><div class='respPicDiv'><img src='img/responseButtonOffersNo0L3.png' class='respPic'></div></div>","null","10","Primo Pineapple","Fruit/pineapple.png","Won","0.2,0.65","9","0.2","187","28","","",""
"html-keyboard-response","93","190665","0.0-11.0-3.27","636182d3f52ff78fc3f7de50","bdp_rwlrn","Wed Mar 15 2023 22:14:12 GMT-0500 (Central Daylight Time)","467554","Trustworthy,Untrustworthy","","null","","","","feedback","","<div class='respPicDiv'><img src='img/responseButtonOffersNo0_wht.png' class='respPic'></div><div class='trialDiv'><img src='Fruit/pineapple.png'><br><font class='baseline'><strong>Primo Pineapple</strong><p><strong><font class='posOutcome'>You WON</font><p>You bet: 3</strong></font> &nbsp; &nbsp; &nbsp; &nbsp; &nbsp; &nbsp;<font class='posOutcome'>you receive: <strong>6</strong></font></div>","null","10","Primo Pineapple","Fruit/pineapple.png","Won","0.2,0.65","9","0.2","193","28","","",""
"html-keyboard-response","94","191065","0.0-11.0-1.28","636182d3f52ff78fc3f7de50","bdp_rwlrn","Wed Mar 15 2023 22:14:12 GMT-0500 (Central Daylight Time)","467554","Trustworthy,Untrustworthy","","397","","","","decision","","<div class='trialDiv'><img src='Fruit/papayas.png'><br><font class='baseline'><strong>Papaya Payday</strong><p>Choose number of points to bet.</font><div class='respPicDiv'><img src='img/responseButtonOffersNo0L.png' class='respPic'></div></div>","4","10","Papaya Payday","Fruit/papayas.png","Lost","0.65,0.2","14","0.65","198","29","","",""
"html-keyboard-response","95","191327","0.0-11.0-2.28","636182d3f52ff78fc3f7de50","bdp_rwlrn","Wed Mar 15 2023 22:14:12 GMT-0500 (Central Daylight Time)","467554","Trustworthy,Untrustworthy","","null","","","","decisionFB","","<div class='trialDiv'><img src='Fruit/papayas.png'><br><font class='baseline'><strong>Papaya Payday</strong><p>Choose number of points to bet.</font><div class='respPicDiv'><img src='img/responseButtonOffersNo0L4.png' class='respPic'></div></div>","null","10","Papaya Payday","Fruit/papayas.png","Lost","0.65,0.2","14","0.65","194","29","","",""
"html-keyboard-response","96","192332","0.0-11.0-3.28","636182d3f52ff78fc3f7de50","bdp_rwlrn","Wed Mar 15 2023 22:14:12 GMT-0500 (Central Daylight Time)","467554","Trustworthy,Untrustworthy","","null","","","","feedback","","<div class='respPicDiv'><img src='img/responseButtonOffersNo0_wht.png' class='respPic'></div><div class='trialDiv'><img src='Fruit/papayas.png'><br><font class='baseline'><strong>Papaya Payday</strong><p><strong><font class='negOutcome'>You LOST</font><p>You bet: 4</strong></font> &nbsp; &nbsp; &nbsp; &nbsp; &nbsp; &nbsp;<font class='negOutcome'>You receive: <strong>0</strong></font></div>","null","10","Papaya Payday","Fruit/papayas.png","Lost","0.65,0.2","14","0.65","194","29","","",""
"html-keyboard-response","97","192926","0.0-11.0-1.29","636182d3f52ff78fc3f7de50","bdp_rwlrn","Wed Mar 15 2023 22:14:12 GMT-0500 (Central Daylight Time)","467554","Trustworthy,Untrustworthy","","592","","","","decision","","<div class='trialDiv'><img src='Fruit/apple.png'><br><font class='baseline'><strong>Awesome Apples</strong><p>Choose number of points to bet.</font><div class='respPicDiv'><img src='img/responseButtonOffersNo0L.png' class='respPic'></div></div>","3","10","Awesome Apples","Fruit/apple.png","Won","0.8,0.2","13","0.8","199","30","","",""
"html-keyboard-response","98","193185","0.0-11.0-2.29","636182d3f52ff78fc3f7de50","bdp_rwlrn","Wed Mar 15 2023 22:14:12 GMT-0500 (Central Daylight Time)","467554","Trustworthy,Untrustworthy","","null","","","","decisionFB","","<div class='trialDiv'><img src='Fruit/apple.png'><br><font class='baseline'><strong>Awesome Apples</strong><p>Choose number of points to bet.</font><div class='respPicDiv'><img src='img/responseButtonOffersNo0L3.png' class='respPic'></div></div>","null","10","Awesome Apples","Fruit/apple.png","Won","0.8,0.2","13","0.8","196","30","","",""
"html-keyboard-response","99","194193","0.0-11.0-3.29","636182d3f52ff78fc3f7de50","bdp_rwlrn","Wed Mar 15 2023 22:14:12 GMT-0500 (Central Daylight Time)","467554","Trustworthy,Untrustworthy","","null","","","","feedback","","<div class='respPicDiv'><img src='img/responseButtonOffersNo0_wht.png' class='respPic'></div><div class='trialDiv'><img src='Fruit/apple.png'><br><font class='baseline'><strong>Awesome Apples</strong><p><strong><font class='posOutcome'>You WON</font><p>You bet: 3</strong></font> &nbsp; &nbsp; &nbsp; &nbsp; &nbsp; &nbsp;<font class='posOutcome'>you receive: <strong>6</strong></font></div>","null","10","Awesome Apples","Fruit/apple.png","Won","0.8,0.2","13","0.8","202","30","","",""
"html-keyboard-response","100","194440","0.0-11.0-1.30","636182d3f52ff78fc3f7de50","bdp_rwlrn","Wed Mar 15 2023 22:14:12 GMT-0500 (Central Daylight Time)","467554","Trustworthy,Untrustworthy","","245","","","","decision","","<div class='trialDiv'><img src='Fruit/papayas.png'><br><font class='baseline'><strong>Papaya Payday</strong><p>Choose number of points to bet.</font><div class='respPicDiv'><img src='img/responseButtonOffersNo0L.png' class='respPic'></div></div>","4","11","Papaya Payday","Fruit/papayas.png","Won","0.65,0.2","14","0.65","207","31","","",""
"html-keyboard-response","101","194701","0.0-11.0-2.30","636182d3f52ff78fc3f7de50","bdp_rwlrn","Wed Mar 15 2023 22:14:12 GMT-0500 (Central Daylight Time)","467554","Trustworthy,Untrustworthy","","null","","","","decisionFB","","<div class='trialDiv'><img src='Fruit/papayas.png'><br><font class='baseline'><strong>Papaya Payday</strong><p>Choose number of points to bet.</font><div class='respPicDiv'><img src='img/responseButtonOffersNo0L4.png' class='respPic'></div></div>","null","11","Papaya Payday","Fruit/papayas.png","Won","0.65,0.2","14","0.65","203","31","","",""
"html-keyboard-response","102","195707","0.0-11.0-3.30","636182d3f52ff78fc3f7de50","bdp_rwlrn","Wed Mar 15 2023 22:14:12 GMT-0500 (Central Daylight Time)","467554","Trustworthy,Untrustworthy","","null","","","","feedback","","<div class='respPicDiv'><img src='img/responseButtonOffersNo0_wht.png' class='respPic'></div><div class='trialDiv'><img src='Fruit/papayas.png'><br><font class='baseline'><strong>Papaya Payday</strong><p><strong><font class='posOutcome'>You WON</font><p>You bet: 4</strong></font> &nbsp; &nbsp; &nbsp; &nbsp; &nbsp; &nbsp;<font class='posOutcome'>you receive: <strong>8</strong></font></div>","null","11","Papaya Payday","Fruit/papayas.png","Won","0.65,0.2","14","0.65","211","31","","",""
"html-keyboard-response","103","196525","0.0-11.0-1.31","636182d3f52ff78fc3f7de50","bdp_rwlrn","Wed Mar 15 2023 22:14:12 GMT-0500 (Central Daylight Time)","467554","Trustworthy,Untrustworthy","","816","","","","decision","","<div class='trialDiv'><img src='Fruit/pineapple.png'><br><font class='baseline'><strong>Primo Pineapple</strong><p>Choose number of points to bet.</font><div class='respPicDiv'><img src='img/responseButtonOffersNo0L.png' class='respPic'></div></div>","3","11","Primo Pineapple","Fruit/pineapple.png","Won","0.2,0.65","9","0.2","216","32","","",""
"html-keyboard-response","104","196777","0.0-11.0-2.31","636182d3f52ff78fc3f7de50","bdp_rwlrn","Wed Mar 15 2023 22:14:12 GMT-0500 (Central Daylight Time)","467554","Trustworthy,Untrustworthy","","null","","","","decisionFB","","<div class='trialDiv'><img src='Fruit/pineapple.png'><br><font class='baseline'><strong>Primo Pineapple</strong><p>Choose number of points to bet.</font><div class='respPicDiv'><img src='img/responseButtonOffersNo0L3.png' class='respPic'></div></div>","null","11","Primo Pineapple","Fruit/pineapple.png","Won","0.2,0.65","9","0.2","213","32","","",""
"html-keyboard-response","105","197783","0.0-11.0-3.31","636182d3f52ff78fc3f7de50","bdp_rwlrn","Wed Mar 15 2023 22:14:12 GMT-0500 (Central Daylight Time)","467554","Trustworthy,Untrustworthy","","null","","","","feedback","","<div class='respPicDiv'><img src='img/responseButtonOffersNo0_wht.png' class='respPic'></div><div class='trialDiv'><img src='Fruit/pineapple.png'><br><font class='baseline'><strong>Primo Pineapple</strong><p><strong><font class='posOutcome'>You WON</font><p>You bet: 3</strong></font> &nbsp; &nbsp; &nbsp; &nbsp; &nbsp; &nbsp;<font class='posOutcome'>you receive: <strong>6</strong></font></div>","null","11","Primo Pineapple","Fruit/pineapple.png","Won","0.2,0.65","9","0.2","219","32","","",""
"html-keyboard-response","106","199556","0.0-11.0-1.32","636182d3f52ff78fc3f7de50","bdp_rwlrn","Wed Mar 15 2023 22:14:12 GMT-0500 (Central Daylight Time)","467554","Trustworthy,Untrustworthy","","1771","","","","decision","","<div class='trialDiv'><img src='Fruit/apple.png'><br><font class='baseline'><strong>Awesome Apples</strong><p>Choose number of points to bet.</font><div class='respPicDiv'><img src='img/responseButtonOffersNo0L.png' class='respPic'></div></div>","5","11","Awesome Apples","Fruit/apple.png","Won","0.8,0.2","13","0.8","224","33","","",""
"html-keyboard-response","107","199813","0.0-11.0-2.32","636182d3f52ff78fc3f7de50","bdp_rwlrn","Wed Mar 15 2023 22:14:12 GMT-0500 (Central Daylight Time)","467554","Trustworthy,Untrustworthy","","null","","","","decisionFB","","<div class='trialDiv'><img src='Fruit/apple.png'><br><font class='baseline'><strong>Awesome Apples</strong><p>Choose number of points to bet.</font><div class='respPicDiv'><img src='img/responseButtonOffersNo0L5.png' class='respPic'></div></div>","null","11","Awesome Apples","Fruit/apple.png","Won","0.8,0.2","13","0.8","219","33","","",""
"html-keyboard-response","108","200825","0.0-11.0-3.32","636182d3f52ff78fc3f7de50","bdp_rwlrn","Wed Mar 15 2023 22:14:12 GMT-0500 (Central Daylight Time)","467554","Trustworthy,Untrustworthy","","null","","","","feedback","","<div class='respPicDiv'><img src='img/responseButtonOffersNo0_wht.png' class='respPic'></div><div class='trialDiv'><img src='Fruit/apple.png'><br><font class='baseline'><strong>Awesome Apples</strong><p><strong><font class='posOutcome'>You WON</font><p>You bet: 5</strong></font> &nbsp; &nbsp; &nbsp; &nbsp; &nbsp; &nbsp;<font class='posOutcome'>you receive: <strong>10</strong></font></div>","null","11","Awesome Apples","Fruit/apple.png","Won","0.8,0.2","13","0.8","229","33","","",""
"html-keyboard-response","109","200995","0.0-11.0-1.33","636182d3f52ff78fc3f7de50","bdp_rwlrn","Wed Mar 15 2023 22:14:12 GMT-0500 (Central Daylight Time)","467554","Trustworthy,Untrustworthy","","167","","","","decision","","<div class='trialDiv'><img src='Fruit/pineapple.png'><br><font class='baseline'><strong>Primo Pineapple</strong><p>Choose number of points to bet.</font><div class='respPicDiv'><img src='img/responseButtonOffersNo0L.png' class='respPic'></div></div>","2","12","Primo Pineapple","Fruit/pineapple.png","Lost","0.2,0.65","9","0.2","234","34","","",""
"html-keyboard-response","110","201259","0.0-11.0-2.33","636182d3f52ff78fc3f7de50","bdp_rwlrn","Wed Mar 15 2023 22:14:12 GMT-0500 (Central Daylight Time)","467554","Trustworthy,Untrustworthy","","null","","","","decisionFB","","<div class='trialDiv'><img src='Fruit/pineapple.png'><br><font class='baseline'><strong>Primo Pineapple</strong><p>Choose number of points to bet.</font><div class='respPicDiv'><img src='img/responseButtonOffersNo0L2.png' class='respPic'></div></div>","null","12","Primo Pineapple","Fruit/pineapple.png","Lost","0.2,0.65","9","0.2","232","34","","",""
"html-keyboard-response","111","202265","0.0-11.0-3.33","636182d3f52ff78fc3f7de50","bdp_rwlrn","Wed Mar 15 2023 22:14:12 GMT-0500 (Central Daylight Time)","467554","Trustworthy,Untrustworthy","","null","","","","feedback","","<div class='respPicDiv'><img src='img/responseButtonOffersNo0_wht.png' class='respPic'></div><div class='trialDiv'><img src='Fruit/pineapple.png'><br><font class='baseline'><strong>Primo Pineapple</strong><p><strong><font class='negOutcome'>You LOST</font><p>You bet: 2</strong></font> &nbsp; &nbsp; &nbsp; &nbsp; &nbsp; &nbsp;<font class='negOutcome'>You receive: <strong>0</strong></font></div>","null","12","Primo Pineapple","Fruit/pineapple.png","Lost","0.2,0.65","9","0.2","232","34","","",""
"html-keyboard-response","112","202991","0.0-11.0-1.34","636182d3f52ff78fc3f7de50","bdp_rwlrn","Wed Mar 15 2023 22:14:12 GMT-0500 (Central Daylight Time)","467554","Trustworthy,Untrustworthy","","724","","","","decision","","<div class='trialDiv'><img src='Fruit/apple.png'><br><font class='baseline'><strong>Awesome Apples</strong><p>Choose number of points to bet.</font><div class='respPicDiv'><img src='img/responseButtonOffersNo0L.png' class='respPic'></div></div>","3","12","Awesome Apples","Fruit/apple.png","Won","0.8,0.2","13","0.8","237","35","","",""
"html-keyboard-response","113","203244","0.0-11.0-2.34","636182d3f52ff78fc3f7de50","bdp_rwlrn","Wed Mar 15 2023 22:14:12 GMT-0500 (Central Daylight Time)","467554","Trustworthy,Untrustworthy","","null","","","","decisionFB","","<div class='trialDiv'><img src='Fruit/apple.png'><br><font class='baseline'><strong>Awesome Apples</strong><p>Choose number of points to bet.</font><div class='respPicDiv'><img src='img/responseButtonOffersNo0L3.png' class='respPic'></div></div>","null","12","Awesome Apples","Fruit/apple.png","Won","0.8,0.2","13","0.8","234","35","","",""
"html-keyboard-response","114","204249","0.0-11.0-3.34","636182d3f52ff78fc3f7de50","bdp_rwlrn","Wed Mar 15 2023 22:14:12 GMT-0500 (Central Daylight Time)","467554","Trustworthy,Untrustworthy","","null","","","","feedback","","<div class='respPicDiv'><img src='img/responseButtonOffersNo0_wht.png' class='respPic'></div><div class='trialDiv'><img src='Fruit/apple.png'><br><font class='baseline'><strong>Awesome Apples</strong><p><strong><font class='posOutcome'>You WON</font><p>You bet: 3</strong></font> &nbsp; &nbsp; &nbsp; &nbsp; &nbsp; &nbsp;<font class='posOutcome'>you receive: <strong>6</strong></font></div>","null","12","Awesome Apples","Fruit/apple.png","Won","0.8,0.2","13","0.8","240","35","","",""
"html-keyboard-response","115","205472","0.0-11.0-1.35","636182d3f52ff78fc3f7de50","bdp_rwlrn","Wed Mar 15 2023 22:14:12 GMT-0500 (Central Daylight Time)","467554","Trustworthy,Untrustworthy","","1221","","","","decision","","<div class='trialDiv'><img src='Fruit/papayas.png'><br><font class='baseline'><strong>Papaya Payday</strong><p>Choose number of points to bet.</font><div class='respPicDiv'><img src='img/responseButtonOffersNo0L.png' class='respPic'></div></div>","3","12","Papaya Payday","Fruit/papayas.png","Lost","0.65,0.2","14","0.65","245","36","","",""
"html-keyboard-response","116","205735","0.0-11.0-2.35","636182d3f52ff78fc3f7de50","bdp_rwlrn","Wed Mar 15 2023 22:14:12 GMT-0500 (Central Daylight Time)","467554","Trustworthy,Untrustworthy","","null","","","","decisionFB","","<div class='trialDiv'><img src='Fruit/papayas.png'><br><font class='baseline'><strong>Papaya Payday</strong><p>Choose number of points to bet.</font><div class='respPicDiv'><img src='img/responseButtonOffersNo0L3.png' class='respPic'></div></div>","null","12","Papaya Payday","Fruit/papayas.png","Lost","0.65,0.2","14","0.65","242","36","","",""
"html-keyboard-response","117","206742","0.0-11.0-3.35","636182d3f52ff78fc3f7de50","bdp_rwlrn","Wed Mar 15 2023 22:14:12 GMT-0500 (Central Daylight Time)","467554","Trustworthy,Untrustworthy","","null","","","","feedback","","<div class='respPicDiv'><img src='img/responseButtonOffersNo0_wht.png' class='respPic'></div><div class='trialDiv'><img src='Fruit/papayas.png'><br><font class='baseline'><strong>Papaya Payday</strong><p><strong><font class='negOutcome'>You LOST</font><p>You bet: 3</strong></font> &nbsp; &nbsp; &nbsp; &nbsp; &nbsp; &nbsp;<font class='negOutcome'>You receive: <strong>0</strong></font></div>","null","12","Papaya Payday","Fruit/papayas.png","Lost","0.65,0.2","14","0.65","242","36","","",""
"html-keyboard-response","118","208666","0.0-11.0-1.36","636182d3f52ff78fc3f7de50","bdp_rwlrn","Wed Mar 15 2023 22:14:12 GMT-0500 (Central Daylight Time)","467554","Trustworthy,Untrustworthy","","1922","","","","decision","","<div class='trialDiv'><img src='Fruit/pineapple.png'><br><font class='baseline'><strong>Primo Pineapple</strong><p>Choose number of points to bet.</font><div class='respPicDiv'><img src='img/responseButtonOffersNo0L.png' class='respPic'></div></div>","2","13","Primo Pineapple","Fruit/pineapple.png","Won","0.2,0.65","9","0.2","247","37","","",""
"html-keyboard-response","119","208930","0.0-11.0-2.36","636182d3f52ff78fc3f7de50","bdp_rwlrn","Wed Mar 15 2023 22:14:12 GMT-0500 (Central Daylight Time)","467554","Trustworthy,Untrustworthy","","null","","","","decisionFB","","<div class='trialDiv'><img src='Fruit/pineapple.png'><br><font class='baseline'><strong>Primo Pineapple</strong><p>Choose number of points to bet.</font><div class='respPicDiv'><img src='img/responseButtonOffersNo0L2.png' class='respPic'></div></div>","null","13","Primo Pineapple","Fruit/pineapple.png","Won","0.2,0.65","9","0.2","245","37","","",""
"html-keyboard-response","120","209932","0.0-11.0-3.36","636182d3f52ff78fc3f7de50","bdp_rwlrn","Wed Mar 15 2023 22:14:12 GMT-0500 (Central Daylight Time)","467554","Trustworthy,Untrustworthy","","null","","","","feedback","","<div class='respPicDiv'><img src='img/responseButtonOffersNo0_wht.png' class='respPic'></div><div class='trialDiv'><img src='Fruit/pineapple.png'><br><font class='baseline'><strong>Primo Pineapple</strong><p><strong><font class='posOutcome'>You WON</font><p>You bet: 2</strong></font> &nbsp; &nbsp; &nbsp; &nbsp; &nbsp; &nbsp;<font class='posOutcome'>you receive: <strong>4</strong></font></div>","null","13","Primo Pineapple","Fruit/pineapple.png","Won","0.2,0.65","9","0.2","249","37","","",""
"html-keyboard-response","121","211097","0.0-11.0-1.37","636182d3f52ff78fc3f7de50","bdp_rwlrn","Wed Mar 15 2023 22:14:12 GMT-0500 (Central Daylight Time)","467554","Trustworthy,Untrustworthy","","1162","","","","decision","","<div class='trialDiv'><img src='Fruit/apple.png'><br><font class='baseline'><strong>Awesome Apples</strong><p>Choose number of points to bet.</font><div class='respPicDiv'><img src='img/responseButtonOffersNo0L.png' class='respPic'></div></div>","4","13","Awesome Apples","Fruit/apple.png","Lost","0.8,0.2","13","0.8","254","38","","",""
"html-keyboard-response","122","211357","0.0-11.0-2.37","636182d3f52ff78fc3f7de50","bdp_rwlrn","Wed Mar 15 2023 22:14:12 GMT-0500 (Central Daylight Time)","467554","Trustworthy,Untrustworthy","","null","","","","decisionFB","","<div class='trialDiv'><img src='Fruit/apple.png'><br><font class='baseline'><strong>Awesome Apples</strong><p>Choose number of points to bet.</font><div class='respPicDiv'><img src='img/responseButtonOffersNo0L4.png' class='respPic'></div></div>","null","13","Awesome Apples","Fruit/apple.png","Lost","0.8,0.2","13","0.8","250","38","","",""
"html-keyboard-response","123","212372","0.0-11.0-3.37","636182d3f52ff78fc3f7de50","bdp_rwlrn","Wed Mar 15 2023 22:14:12 GMT-0500 (Central Daylight Time)","467554","Trustworthy,Untrustworthy","","null","","","","feedback","","<div class='respPicDiv'><img src='img/responseButtonOffersNo0_wht.png' class='respPic'></div><div class='trialDiv'><img src='Fruit/apple.png'><br><font class='baseline'><strong>Awesome Apples</strong><p><strong><font class='negOutcome'>You LOST</font><p>You bet: 4</strong></font> &nbsp; &nbsp; &nbsp; &nbsp; &nbsp; &nbsp;<font class='negOutcome'>You receive: <strong>0</strong></font></div>","null","13","Awesome Apples","Fruit/apple.png","Lost","0.8,0.2","13","0.8","250","38","","",""
"html-keyboard-response","124","213588","0.0-11.0-1.38","636182d3f52ff78fc3f7de50","bdp_rwlrn","Wed Mar 15 2023 22:14:12 GMT-0500 (Central Daylight Time)","467554","Trustworthy,Untrustworthy","","1213","","","","decision","","<div class='trialDiv'><img src='Fruit/papayas.png'><br><font class='baseline'><strong>Papaya Payday</strong><p>Choose number of points to bet.</font><div class='respPicDiv'><img src='img/responseButtonOffersNo0L.png' class='respPic'></div></div>","3","13","Papaya Payday","Fruit/papayas.png","Won","0.65,0.2","14","0.65","255","39","","",""
"html-keyboard-response","125","213851","0.0-11.0-2.38","636182d3f52ff78fc3f7de50","bdp_rwlrn","Wed Mar 15 2023 22:14:12 GMT-0500 (Central Daylight Time)","467554","Trustworthy,Untrustworthy","","null","","","","decisionFB","","<div class='trialDiv'><img src='Fruit/papayas.png'><br><font class='baseline'><strong>Papaya Payday</strong><p>Choose number of points to bet.</font><div class='respPicDiv'><img src='img/responseButtonOffersNo0L3.png' class='respPic'></div></div>","null","13","Papaya Payday","Fruit/papayas.png","Won","0.65,0.2","14","0.65","252","39","","",""
"html-keyboard-response","126","214858","0.0-11.0-3.38","636182d3f52ff78fc3f7de50","bdp_rwlrn","Wed Mar 15 2023 22:14:12 GMT-0500 (Central Daylight Time)","467554","Trustworthy,Untrustworthy","","null","","","","feedback","","<div class='respPicDiv'><img src='img/responseButtonOffersNo0_wht.png' class='respPic'></div><div class='trialDiv'><img src='Fruit/papayas.png'><br><font class='baseline'><strong>Papaya Payday</strong><p><strong><font class='posOutcome'>You WON</font><p>You bet: 3</strong></font> &nbsp; &nbsp; &nbsp; &nbsp; &nbsp; &nbsp;<font class='posOutcome'>you receive: <strong>6</strong></font></div>","null","13","Papaya Payday","Fruit/papayas.png","Won","0.65,0.2","14","0.65","258","39","","",""
"html-keyboard-response","127","217052","0.0-11.0-1.39","636182d3f52ff78fc3f7de50","bdp_rwlrn","Wed Mar 15 2023 22:14:12 GMT-0500 (Central Daylight Time)","467554","Trustworthy,Untrustworthy","","2192","","","","decision","","<div class='trialDiv'><img src='Fruit/apple.png'><br><font class='baseline'><strong>Awesome Apples</strong><p>Choose number of points to bet.</font><div class='respPicDiv'><img src='img/responseButtonOffersNo0L.png' class='respPic'></div></div>","4","14","Awesome Apples","Fruit/apple.png","Won","0.8,0.2","13","0.8","263","40","","",""
"html-keyboard-response","128","217315","0.0-11.0-2.39","636182d3f52ff78fc3f7de50","bdp_rwlrn","Wed Mar 15 2023 22:14:12 GMT-0500 (Central Daylight Time)","467554","Trustworthy,Untrustworthy","","null","","","","decisionFB","","<div class='trialDiv'><img src='Fruit/apple.png'><br><font class='baseline'><strong>Awesome Apples</strong><p>Choose number of points to bet.</font><div class='respPicDiv'><img src='img/responseButtonOffersNo0L4.png' class='respPic'></div></div>","null","14","Awesome Apples","Fruit/apple.png","Won","0.8,0.2","13","0.8","259","40","","",""
"html-keyboard-response","129","218328","0.0-11.0-3.39","636182d3f52ff78fc3f7de50","bdp_rwlrn","Wed Mar 15 2023 22:14:12 GMT-0500 (Central Daylight Time)","467554","Trustworthy,Untrustworthy","","null","","","","feedback","","<div class='respPicDiv'><img src='img/responseButtonOffersNo0_wht.png' class='respPic'></div><div class='trialDiv'><img src='Fruit/apple.png'><br><font class='baseline'><strong>Awesome Apples</strong><p><strong><font class='posOutcome'>You WON</font><p>You bet: 4</strong></font> &nbsp; &nbsp; &nbsp; &nbsp; &nbsp; &nbsp;<font class='posOutcome'>you receive: <strong>8</strong></font></div>","null","14","Awesome Apples","Fruit/apple.png","Won","0.8,0.2","13","0.8","267","40","","",""
"html-keyboard-response","130","219948","0.0-11.0-1.40","636182d3f52ff78fc3f7de50","bdp_rwlrn","Wed Mar 15 2023 22:14:12 GMT-0500 (Central Daylight Time)","467554","Trustworthy,Untrustworthy","","1618","","","","decision","","<div class='trialDiv'><img src='Fruit/papayas.png'><br><font class='baseline'><strong>Papaya Payday</strong><p>Choose number of points to bet.</font><div class='respPicDiv'><img src='img/responseButtonOffersNo0L.png' class='respPic'></div></div>","3","14","Papaya Payday","Fruit/papayas.png","Lost","0.65,0.2","14","0.65","272","41","","",""
"html-keyboard-response","131","220213","0.0-11.0-2.40","636182d3f52ff78fc3f7de50","bdp_rwlrn","Wed Mar 15 2023 22:14:12 GMT-0500 (Central Daylight Time)","467554","Trustworthy,Untrustworthy","","null","","","","decisionFB","","<div class='trialDiv'><img src='Fruit/papayas.png'><br><font class='baseline'><strong>Papaya Payday</strong><p>Choose number of points to bet.</font><div class='respPicDiv'><img src='img/responseButtonOffersNo0L3.png' class='respPic'></div></div>","null","14","Papaya Payday","Fruit/papayas.png","Lost","0.65,0.2","14","0.65","269","41","","",""
"html-keyboard-response","132","221230","0.0-11.0-3.40","636182d3f52ff78fc3f7de50","bdp_rwlrn","Wed Mar 15 2023 22:14:12 GMT-0500 (Central Daylight Time)","467554","Trustworthy,Untrustworthy","","null","","","","feedback","","<div class='respPicDiv'><img src='img/responseButtonOffersNo0_wht.png' class='respPic'></div><div class='trialDiv'><img src='Fruit/papayas.png'><br><font class='baseline'><strong>Papaya Payday</strong><p><strong><font class='negOutcome'>You LOST</font><p>You bet: 3</strong></font> &nbsp; &nbsp; &nbsp; &nbsp; &nbsp; &nbsp;<font class='negOutcome'>You receive: <strong>0</strong></font></div>","null","14","Papaya Payday","Fruit/papayas.png","Lost","0.65,0.2","14","0.65","269","41","","",""
"html-keyboard-response","133","222138","0.0-11.0-1.41","636182d3f52ff78fc3f7de50","bdp_rwlrn","Wed Mar 15 2023 22:14:12 GMT-0500 (Central Daylight Time)","467554","Trustworthy,Untrustworthy","","906","","","","decision","","<div class='trialDiv'><img src='Fruit/pineapple.png'><br><font class='baseline'><strong>Primo Pineapple</strong><p>Choose number of points to bet.</font><div class='respPicDiv'><img src='img/responseButtonOffersNo0L.png' class='respPic'></div></div>","4","14","Primo Pineapple","Fruit/pineapple.png","Won","0.2,0.65","9","0.2","274","42","","",""
"html-keyboard-response","134","222402","0.0-11.0-2.41","636182d3f52ff78fc3f7de50","bdp_rwlrn","Wed Mar 15 2023 22:14:12 GMT-0500 (Central Daylight Time)","467554","Trustworthy,Untrustworthy","","null","","","","decisionFB","","<div class='trialDiv'><img src='Fruit/pineapple.png'><br><font class='baseline'><strong>Primo Pineapple</strong><p>Choose number of points to bet.</font><div class='respPicDiv'><img src='img/responseButtonOffersNo0L4.png' class='respPic'></div></div>","null","14","Primo Pineapple","Fruit/pineapple.png","Won","0.2,0.65","9","0.2","270","42","","",""
"html-keyboard-response","135","223410","0.0-11.0-3.41","636182d3f52ff78fc3f7de50","bdp_rwlrn","Wed Mar 15 2023 22:14:12 GMT-0500 (Central Daylight Time)","467554","Trustworthy,Untrustworthy","","null","","","","feedback","","<div class='respPicDiv'><img src='img/responseButtonOffersNo0_wht.png' class='respPic'></div><div class='trialDiv'><img src='Fruit/pineapple.png'><br><font class='baseline'><strong>Primo Pineapple</strong><p><strong><font class='posOutcome'>You WON</font><p>You bet: 4</strong></font> &nbsp; &nbsp; &nbsp; &nbsp; &nbsp; &nbsp;<font class='posOutcome'>you receive: <strong>8</strong></font></div>","null","14","Primo Pineapple","Fruit/pineapple.png","Won","0.2,0.65","9","0.2","278","42","","",""
"html-keyboard-response","136","223841","0.0-11.0-1.42","636182d3f52ff78fc3f7de50","bdp_rwlrn","Wed Mar 15 2023 22:14:12 GMT-0500 (Central Daylight Time)","467554","Trustworthy,Untrustworthy","","429","","","","decision","","<div class='trialDiv'><img src='Fruit/apple.png'><br><font class='baseline'><strong>Awesome Apples</strong><p>Choose number of points to bet.</font><div class='respPicDiv'><img src='img/responseButtonOffersNo0L.png' class='respPic'></div></div>","4","15","Awesome Apples","Fruit/apple.png","Lost","0.8,0.2","13","0.8","283","43","","",""
"html-keyboard-response","137","224101","0.0-11.0-2.42","636182d3f52ff78fc3f7de50","bdp_rwlrn","Wed Mar 15 2023 22:14:12 GMT-0500 (Central Daylight Time)","467554","Trustworthy,Untrustworthy","","null","","","","decisionFB","","<div class='trialDiv'><img src='Fruit/apple.png'><br><font class='baseline'><strong>Awesome Apples</strong><p>Choose number of points to bet.</font><div class='respPicDiv'><img src='img/responseButtonOffersNo0L4.png' class='respPic'></div></div>","null","15","Awesome Apples","Fruit/apple.png","Lost","0.8,0.2","13","0.8","279","43","","",""
"html-keyboard-response","138","225106","0.0-11.0-3.42","636182d3f52ff78fc3f7de50","bdp_rwlrn","Wed Mar 15 2023 22:14:12 GMT-0500 (Central Daylight Time)","467554","Trustworthy,Untrustworthy","","null","","","","feedback","","<div class='respPicDiv'><img src='img/responseButtonOffersNo0_wht.png' class='respPic'></div><div class='trialDiv'><img src='Fruit/apple.png'><br><font class='baseline'><strong>Awesome Apples</strong><p><strong><font class='negOutcome'>You LOST</font><p>You bet: 4</strong></font> &nbsp; &nbsp; &nbsp; &nbsp; &nbsp; &nbsp;<font class='negOutcome'>You receive: <strong>0</strong></font></div>","null","15","Awesome Apples","Fruit/apple.png","Lost","0.8,0.2","13","0.8","279","43","","",""
"html-keyboard-response","139","227013","0.0-11.0-1.43","636182d3f52ff78fc3f7de50","bdp_rwlrn","Wed Mar 15 2023 22:14:12 GMT-0500 (Central Daylight Time)","467554","Trustworthy,Untrustworthy","","1905","","","","decision","","<div class='trialDiv'><img src='Fruit/papayas.png'><br><font class='baseline'><strong>Papaya Payday</strong><p>Choose number of points to bet.</font><div class='respPicDiv'><img src='img/responseButtonOffersNo0L.png' class='respPic'></div></div>","3","15","Papaya Payday","Fruit/papayas.png","Lost","0.65,0.2","14","0.65","284","44","","",""
"html-keyboard-response","140","227277","0.0-11.0-2.43","636182d3f52ff78fc3f7de50","bdp_rwlrn","Wed Mar 15 2023 22:14:12 GMT-0500 (Central Daylight Time)","467554","Trustworthy,Untrustworthy","","null","","","","decisionFB","","<div class='trialDiv'><img src='Fruit/papayas.png'><br><font class='baseline'><strong>Papaya Payday</strong><p>Choose number of points to bet.</font><div class='respPicDiv'><img src='img/responseButtonOffersNo0L3.png' class='respPic'></div></div>","null","15","Papaya Payday","Fruit/papayas.png","Lost","0.65,0.2","14","0.65","281","44","","",""
"html-keyboard-response","141","228284","0.0-11.0-3.43","636182d3f52ff78fc3f7de50","bdp_rwlrn","Wed Mar 15 2023 22:14:12 GMT-0500 (Central Daylight Time)","467554","Trustworthy,Untrustworthy","","null","","","","feedback","","<div class='respPicDiv'><img src='img/responseButtonOffersNo0_wht.png' class='respPic'></div><div class='trialDiv'><img src='Fruit/papayas.png'><br><font class='baseline'><strong>Papaya Payday</strong><p><strong><font class='negOutcome'>You LOST</font><p>You bet: 3</strong></font> &nbsp; &nbsp; &nbsp; &nbsp; &nbsp; &nbsp;<font class='negOutcome'>You receive: <strong>0</strong></font></div>","null","15","Papaya Payday","Fruit/papayas.png","Lost","0.65,0.2","14","0.65","281","44","","",""
"html-keyboard-response","142","228399","0.0-11.0-1.44","636182d3f52ff78fc3f7de50","bdp_rwlrn","Wed Mar 15 2023 22:14:12 GMT-0500 (Central Daylight Time)","467554","Trustworthy,Untrustworthy","","113","","","","decision","","<div class='trialDiv'><img src='Fruit/pineapple.png'><br><font class='baseline'><strong>Primo Pineapple</strong><p>Choose number of points to bet.</font><div class='respPicDiv'><img src='img/responseButtonOffersNo0L.png' class='respPic'></div></div>","4","15","Primo Pineapple","Fruit/pineapple.png","Won","0.2,0.65","9","0.2","286","45","","",""
"html-keyboard-response","143","228659","0.0-11.0-2.44","636182d3f52ff78fc3f7de50","bdp_rwlrn","Wed Mar 15 2023 22:14:12 GMT-0500 (Central Daylight Time)","467554","Trustworthy,Untrustworthy","","null","","","","decisionFB","","<div class='trialDiv'><img src='Fruit/pineapple.png'><br><font class='baseline'><strong>Primo Pineapple</strong><p>Choose number of points to bet.</font><div class='respPicDiv'><img src='img/responseButtonOffersNo0L4.png' class='respPic'></div></div>","null","15","Primo Pineapple","Fruit/pineapple.png","Won","0.2,0.65","9","0.2","282","45","","",""
"html-keyboard-response","144","229665","0.0-11.0-3.44","636182d3f52ff78fc3f7de50","bdp_rwlrn","Wed Mar 15 2023 22:14:12 GMT-0500 (Central Daylight Time)","467554","Trustworthy,Untrustworthy","","null","","","","feedback","","<div class='respPicDiv'><img src='img/responseButtonOffersNo0_wht.png' class='respPic'></div><div class='trialDiv'><img src='Fruit/pineapple.png'><br><font class='baseline'><strong>Primo Pineapple</strong><p><strong><font class='posOutcome'>You WON</font><p>You bet: 4</strong></font> &nbsp; &nbsp; &nbsp; &nbsp; &nbsp; &nbsp;<font class='posOutcome'>you receive: <strong>8</strong></font></div>","null","15","Primo Pineapple","Fruit/pineapple.png","Won","0.2,0.65","9","0.2","290","45","","",""
"html-keyboard-response","145","230306","0.0-11.0-1.45","636182d3f52ff78fc3f7de50","bdp_rwlrn","Wed Mar 15 2023 22:14:12 GMT-0500 (Central Daylight Time)","467554","Trustworthy,Untrustworthy","","639","","","","decision","","<div class='trialDiv'><img src='Fruit/papayas.png'><br><font class='baseline'><strong>Papaya Payday</strong><p>Choose number of points to bet.</font><div class='respPicDiv'><img src='img/responseButtonOffersNo0L.png' class='respPic'></div></div>","4","16","Papaya Payday","Fruit/papayas.png","Lost","0.65,0.2","14","0.65","295","46","","",""
"html-keyboard-response","146","230567","0.0-11.0-2.45","636182d3f52ff78fc3f7de50","bdp_rwlrn","Wed Mar 15 2023 22:14:12 GMT-0500 (Central Daylight Time)","467554","Trustworthy,Untrustworthy","","null","","","","decisionFB","","<div class='trialDiv'><img src='Fruit/papayas.png'><br><font class='baseline'><strong>Papaya Payday</strong><p>Choose number of points to bet.</font><div class='respPicDiv'><img src='img/responseButtonOffersNo0L4.png' class='respPic'></div></div>","null","16","Papaya Payday","Fruit/papayas.png","Lost","0.65,0.2","14","0.65","291","46","","",""
"html-keyboard-response","147","231575","0.0-11.0-3.45","636182d3f52ff78fc3f7de50","bdp_rwlrn","Wed Mar 15 2023 22:14:12 GMT-0500 (Central Daylight Time)","467554","Trustworthy,Untrustworthy","","null","","","","feedback","","<div class='respPicDiv'><img src='img/responseButtonOffersNo0_wht.png' class='respPic'></div><div class='trialDiv'><img src='Fruit/papayas.png'><br><font class='baseline'><strong>Papaya Payday</strong><p><strong><font class='negOutcome'>You LOST</font><p>You bet: 4</strong></font> &nbsp; &nbsp; &nbsp; &nbsp; &nbsp; &nbsp;<font class='negOutcome'>You receive: <strong>0</strong></font></div>","null","16","Papaya Payday","Fruit/papayas.png","Lost","0.65,0.2","14","0.65","291","46","","",""
"html-keyboard-response","148","231850","0.0-11.0-1.46","636182d3f52ff78fc3f7de50","bdp_rwlrn","Wed Mar 15 2023 22:14:12 GMT-0500 (Central Daylight Time)","467554","Trustworthy,Untrustworthy","","272","","","","decision","","<div class='trialDiv'><img src='Fruit/apple.png'><br><font class='baseline'><strong>Awesome Apples</strong><p>Choose number of points to bet.</font><div class='respPicDiv'><img src='img/responseButtonOffersNo0L.png' class='respPic'></div></div>","3","16","Awesome Apples","Fruit/apple.png","Won","0.8,0.2","13","0.8","296","47","","",""
"html-keyboard-response","149","232109","0.0-11.0-2.46","636182d3f52ff78fc3f7de50","bdp_rwlrn","Wed Mar 15 2023 22:14:12 GMT-0500 (Central Daylight Time)","467554","Trustworthy,Untrustworthy","","null","","","","decisionFB","","<div class='trialDiv'><img src='Fruit/apple.png'><br><font class='baseline'><strong>Awesome Apples</strong><p>Choose number of points to bet.</font><div class='respPicDiv'><img src='img/responseButtonOffersNo0L3.png' class='respPic'></div></div>","null","16","Awesome Apples","Fruit/apple.png","Won","0.8,0.2","13","0.8","293","47","","",""
"html-keyboard-response","150","233116","0.0-11.0-3.46","636182d3f52ff78fc3f7de50","bdp_rwlrn","Wed Mar 15 2023 22:14:12 GMT-0500 (Central Daylight Time)","467554","Trustworthy,Untrustworthy","","null","","","","feedback","","<div class='respPicDiv'><img src='img/responseButtonOffersNo0_wht.png' class='respPic'></div><div class='trialDiv'><img src='Fruit/apple.png'><br><font class='baseline'><strong>Awesome Apples</strong><p><strong><font class='posOutcome'>You WON</font><p>You bet: 3</strong></font> &nbsp; &nbsp; &nbsp; &nbsp; &nbsp; &nbsp;<font class='posOutcome'>you receive: <strong>6</strong></font></div>","null","16","Awesome Apples","Fruit/apple.png","Won","0.8,0.2","13","0.8","299","47","","",""
"html-keyboard-response","151","233651","0.0-11.0-1.47","636182d3f52ff78fc3f7de50","bdp_rwlrn","Wed Mar 15 2023 22:14:12 GMT-0500 (Central Daylight Time)","467554","Trustworthy,Untrustworthy","","533","","","","decision","","<div class='trialDiv'><img src='Fruit/pineapple.png'><br><font class='baseline'><strong>Primo Pineapple</strong><p>Choose number of points to bet.</font><div class='respPicDiv'><img src='img/responseButtonOffersNo0L.png' class='respPic'></div></div>","3","16","Primo Pineapple","Fruit/pineapple.png","Won","0.2,0.65","9","0.2","304","48","","",""
"html-keyboard-response","152","233917","0.0-11.0-2.47","636182d3f52ff78fc3f7de50","bdp_rwlrn","Wed Mar 15 2023 22:14:12 GMT-0500 (Central Daylight Time)","467554","Trustworthy,Untrustworthy","","null","","","","decisionFB","","<div class='trialDiv'><img src='Fruit/pineapple.png'><br><font class='baseline'><strong>Primo Pineapple</strong><p>Choose number of points to bet.</font><div class='respPicDiv'><img src='img/responseButtonOffersNo0L3.png' class='respPic'></div></div>","null","16","Primo Pineapple","Fruit/pineapple.png","Won","0.2,0.65","9","0.2","301","48","","",""
"html-keyboard-response","153","234925","0.0-11.0-3.47","636182d3f52ff78fc3f7de50","bdp_rwlrn","Wed Mar 15 2023 22:14:12 GMT-0500 (Central Daylight Time)","467554","Trustworthy,Untrustworthy","","null","","","","feedback","","<div class='respPicDiv'><img src='img/responseButtonOffersNo0_wht.png' class='respPic'></div><div class='trialDiv'><img src='Fruit/pineapple.png'><br><font class='baseline'><strong>Primo Pineapple</strong><p><strong><font class='posOutcome'>You WON</font><p>You bet: 3</strong></font> &nbsp; &nbsp; &nbsp; &nbsp; &nbsp; &nbsp;<font class='posOutcome'>you receive: <strong>6</strong></font></div>","null","16","Primo Pineapple","Fruit/pineapple.png","Won","0.2,0.65","9","0.2","307","48","","",""
"html-keyboard-response","154","235434","0.0-11.0-1.48","636182d3f52ff78fc3f7de50","bdp_rwlrn","Wed Mar 15 2023 22:14:12 GMT-0500 (Central Daylight Time)","467554","Trustworthy,Untrustworthy","","508","","","","decision","","<div class='trialDiv'><img src='Fruit/apple.png'><br><font class='baseline'><strong>Awesome Apples</strong><p>Choose number of points to bet.</font><div class='respPicDiv'><img src='img/responseButtonOffersNo0L.png' class='respPic'></div></div>","3","17","Awesome Apples","Fruit/apple.png","Lost","0.8,0.2","13","0.8","312","49","","",""
"html-keyboard-response","155","235693","0.0-11.0-2.48","636182d3f52ff78fc3f7de50","bdp_rwlrn","Wed Mar 15 2023 22:14:12 GMT-0500 (Central Daylight Time)","467554","Trustworthy,Untrustworthy","","null","","","","decisionFB","","<div class='trialDiv'><img src='Fruit/apple.png'><br><font class='baseline'><strong>Awesome Apples</strong><p>Choose number of points to bet.</font><div class='respPicDiv'><img src='img/responseButtonOffersNo0L3.png' class='respPic'></div></div>","null","17","Awesome Apples","Fruit/apple.png","Lost","0.8,0.2","13","0.8","309","49","","",""
"html-keyboard-response","156","236699","0.0-11.0-3.48","636182d3f52ff78fc3f7de50","bdp_rwlrn","Wed Mar 15 2023 22:14:12 GMT-0500 (Central Daylight Time)","467554","Trustworthy,Untrustworthy","","null","","","","feedback","","<div class='respPicDiv'><img src='img/responseButtonOffersNo0_wht.png' class='respPic'></div><div class='trialDiv'><img src='Fruit/apple.png'><br><font class='baseline'><strong>Awesome Apples</strong><p><strong><font class='negOutcome'>You LOST</font><p>You bet: 3</strong></font> &nbsp; &nbsp; &nbsp; &nbsp; &nbsp; &nbsp;<font class='negOutcome'>You receive: <strong>0</strong></font></div>","null","17","Awesome Apples","Fruit/apple.png","Lost","0.8,0.2","13","0.8","309","49","","",""
"html-keyboard-response","157","236965","0.0-11.0-1.49","636182d3f52ff78fc3f7de50","bdp_rwlrn","Wed Mar 15 2023 22:14:12 GMT-0500 (Central Daylight Time)","467554","Trustworthy,Untrustworthy","","265","","","","decision","","<div class='trialDiv'><img src='Fruit/papayas.png'><br><font class='baseline'><strong>Papaya Payday</strong><p>Choose number of points to bet.</font><div class='respPicDiv'><img src='img/responseButtonOffersNo0L.png' class='respPic'></div></div>","3","17","Papaya Payday","Fruit/papayas.png","Lost","0.65,0.2","14","0.65","314","50","","",""
"html-keyboard-response","158","237226","0.0-11.0-2.49","636182d3f52ff78fc3f7de50","bdp_rwlrn","Wed Mar 15 2023 22:14:12 GMT-0500 (Central Daylight Time)","467554","Trustworthy,Untrustworthy","","null","","","","decisionFB","","<div class='trialDiv'><img src='Fruit/papayas.png'><br><font class='baseline'><strong>Papaya Payday</strong><p>Choose number of points to bet.</font><div class='respPicDiv'><img src='img/responseButtonOffersNo0L3.png' class='respPic'></div></div>","null","17","Papaya Payday","Fruit/papayas.png","Lost","0.65,0.2","14","0.65","311","50","","",""
"html-keyboard-response","159","238233","0.0-11.0-3.49","636182d3f52ff78fc3f7de50","bdp_rwlrn","Wed Mar 15 2023 22:14:12 GMT-0500 (Central Daylight Time)","467554","Trustworthy,Untrustworthy","","null","","","","feedback","","<div class='respPicDiv'><img src='img/responseButtonOffersNo0_wht.png' class='respPic'></div><div class='trialDiv'><img src='Fruit/papayas.png'><br><font class='baseline'><strong>Papaya Payday</strong><p><strong><font class='negOutcome'>You LOST</font><p>You bet: 3</strong></font> &nbsp; &nbsp; &nbsp; &nbsp; &nbsp; &nbsp;<font class='negOutcome'>You receive: <strong>0</strong></font></div>","null","17","Papaya Payday","Fruit/papayas.png","Lost","0.65,0.2","14","0.65","311","50","","",""
"html-keyboard-response","160","238465","0.0-11.0-1.50","636182d3f52ff78fc3f7de50","bdp_rwlrn","Wed Mar 15 2023 22:14:12 GMT-0500 (Central Daylight Time)","467554","Trustworthy,Untrustworthy","","231","","","","decision","","<div class='trialDiv'><img src='Fruit/pineapple.png'><br><font class='baseline'><strong>Primo Pineapple</strong><p>Choose number of points to bet.</font><div class='respPicDiv'><img src='img/responseButtonOffersNo0L.png' class='respPic'></div></div>","4","17","Primo Pineapple","Fruit/pineapple.png","Won","0.2,0.65","9","0.2","316","51","","",""
"html-keyboard-response","161","238727","0.0-11.0-2.50","636182d3f52ff78fc3f7de50","bdp_rwlrn","Wed Mar 15 2023 22:14:12 GMT-0500 (Central Daylight Time)","467554","Trustworthy,Untrustworthy","","null","","","","decisionFB","","<div class='trialDiv'><img src='Fruit/pineapple.png'><br><font class='baseline'><strong>Primo Pineapple</strong><p>Choose number of points to bet.</font><div class='respPicDiv'><img src='img/responseButtonOffersNo0L4.png' class='respPic'></div></div>","null","17","Primo Pineapple","Fruit/pineapple.png","Won","0.2,0.65","9","0.2","312","51","","",""
