"trial_type","trial_index","time_elapsed","internal_node_id","subject_id","task","startTime","totalTime","labels","event","trial","time","trialtype","view_history","rt","success","stimulus","key_press","ltround","name","fileID","outcome","lottotype","lottoswpt","lottocurrpshare","point_total","round","faceID","face"
"pavlovia","0","9","0.0-0.0","63b6be60f23fd8e0399f668c","bdp_rwlrn","Wed Mar 15 2023 15:34:54 GMT-0400 (Eastern Daylight Time)","477424","Trustworthy,Untrustworthy","","","","","","","","","","","","","","","","","","","",""
"","","","","63b6be60f23fd8e0399f668c","bdp_rwlrn","Wed Mar 15 2023 15:34:54 GMT-0400 (Eastern Daylight Time)","477424","Trustworthy,Untrustworthy","focus","1","7040","focusevent","","","","","","","","","","","","","","","",""
"instructions","1","9365","0.0-1.0","63b6be60f23fd8e0399f668c","bdp_rwlrn","Wed Mar 15 2023 15:34:54 GMT-0400 (Eastern Daylight Time)","477424","Trustworthy,Untrustworthy","","","","","[{""page_index"":0,""viewing_time"":9355}]","9355","","","","","","","","","","","","","",""
"","","","","63b6be60f23fd8e0399f668c","bdp_rwlrn","Wed Mar 15 2023 15:34:54 GMT-0400 (Eastern Daylight Time)","477424","Trustworthy,Untrustworthy","fullscreenenter","2","11908","fullscreenenter","","","","","","","","","","","","","","","",""
"fullscreen","2","12901","0.0-2.0","63b6be60f23fd8e0399f668c","bdp_rwlrn","Wed Mar 15 2023 15:34:54 GMT-0400 (Eastern Daylight Time)","477424","Trustworthy,Untrustworthy","","","","","","","true","","","","","","","","","","","","",""
"instructions","3","99659","0.0-4.0","63b6be60f23fd8e0399f668c","bdp_rwlrn","Wed Mar 15 2023 15:34:54 GMT-0400 (Eastern Daylight Time)","477424","Trustworthy,Untrustworthy","","","","","[{""page_index"":0,""viewing_time"":10638},{""page_index"":1,""viewing_time"":14753},{""page_index"":2,""viewing_time"":17294},{""page_index"":3,""viewing_time"":8279},{""page_index"":4,""viewing_time"":25694},{""page_index"":5,""viewing_time"":10097}]","86755","","","","","","","","","","","","","",""
"html-keyboard-response","4","106749","0.0-5.0","63b6be60f23fd8e0399f668c","bdp_rwlrn","Wed Mar 15 2023 15:34:54 GMT-0400 (Eastern Daylight Time)","477424","Trustworthy,Untrustworthy","","","","","","7088","","<div class='header' style='text-align:left; position: absolute; top: 5%; left: 5%;'><small>Task 1 of 5</small></div><div class='instruxDiv'><p><strong>1) What is the maximum number of points you can choose to bet on a lottery?</strong></p><p>a) 0</p><p>b) 1</p><p>c) 5</p>","C","","","","","","","","","","",""
"html-keyboard-response","5","109255","0.0-6.0","63b6be60f23fd8e0399f668c","bdp_rwlrn","Wed Mar 15 2023 15:34:54 GMT-0400 (Eastern Daylight Time)","477424","Trustworthy,Untrustworthy","","","","","","2397","","<div class='header' style='text-align:left; position: absolute; top: 5%; left: 5%;'><small>Task 1 of 5</small></div><div class='instruxDiv'><p><strong>1) What is the maximum number of points you can choose to bet on a lottery?</strong></p><p>a) 1</p><p>b) 1</p><p style='color:#00FF00'>c) 5</p><h3 style='color:#00FF00'>Correct!</h3><h3 class='center-content'>The correct response is c).</h3><h3 class='center-content'>The maximum number of points you can choose to bet on a lottery is 5 points.</h3><p><em>Press SPACEBAR to continue</em></p></div>"," ","","","","","","","","","","",""
"html-keyboard-response","6","116904","0.0-7.0","63b6be60f23fd8e0399f668c","bdp_rwlrn","Wed Mar 15 2023 15:34:54 GMT-0400 (Eastern Daylight Time)","477424","Trustworthy,Untrustworthy","","","","","","7544","","<div class='header' style='text-align:left; position: absolute; top: 5%; left: 5%;'><small>Task 1 of 5</small></div><div class='instruxDiv'><p><strong>2) How many points can you win each round?</strong></p><p>a) 10 points</p><p>b) Double what you bet</p><p>c) Quadruple what you bet</p>","B","","","","","","","","","","",""
"html-keyboard-response","7","119485","0.0-8.0","63b6be60f23fd8e0399f668c","bdp_rwlrn","Wed Mar 15 2023 15:34:54 GMT-0400 (Eastern Daylight Time)","477424","Trustworthy,Untrustworthy","","","","","","2476","","<div class='header' style='text-align:left; position: absolute; top: 5%; left: 5%;'><small>Task 1 of 5</small></div><div class='instruxDiv'><p><strong>2) How many points can you win each round?</strong></p><p>a) 10 points</p><p style='color:#00FF00'>b) Double what you bet</p><p>c) Quadruple what you bet</p><h3 style='color:#00FF00'>Correct!</h3><h3 class='center-content'>The correct response is b).</h3><h3 class='center-content'>You can win double the amount of points you bet.</h3><p><em>Press SPACEBAR to continue</em></p></div>"," ","","","","","","","","","","",""
"html-keyboard-response","8","124601","0.0-9.0","63b6be60f23fd8e0399f668c","bdp_rwlrn","Wed Mar 15 2023 15:34:54 GMT-0400 (Eastern Daylight Time)","477424","Trustworthy,Untrustworthy","","","","","","null","","<div class='header' style='text-align:left; position: absolute; top: 5%; left: 5%;'><small>Task 1 of 5</small></div><div class='instruxDiv'><p>Thank you for completing the quiz<p>These are the actual lotteries you will be playing in the next block:<p><div class='tc' align='center'><img class='introPic' src='Fruit/lime.png'><br><strong>Limin' Large</strong></div><div class='bl' align='center'><img class='introPic' src='Fruit/plums1.png'><br><strong>Plum Powerball</strong></div><div class='br' align='center'><img class='introPic' src='Fruit/bananas.png'><br><strong>Banana Bonanza</strong></div></div><p>Across <strong>66 rounds</strong> you will play each lottery <strong>22 times</strong> (in random order).<p style='align:center; color:white'><font <em>Press SPACEBAR to continue</em></p>","null","","","","","","","","","","",""
"instructions","9","147751","0.0-10.0","63b6be60f23fd8e0399f668c","bdp_rwlrn","Wed Mar 15 2023 15:34:54 GMT-0400 (Eastern Daylight Time)","477424","Trustworthy,Untrustworthy","","","","","[{""page_index"":0,""viewing_time"":13302},{""page_index"":1,""viewing_time"":9847}]","23149","","","","","","","","","","","","","",""
"html-keyboard-response","10","151165","0.0-11.0-1.0","63b6be60f23fd8e0399f668c","bdp_rwlrn","Wed Mar 15 2023 15:34:54 GMT-0400 (Eastern Daylight Time)","477424","Trustworthy,Untrustworthy","","","","decision","","3308","","<div class='trialDiv'><img src='Fruit/bananas.png'><br><font class='baseline'><strong>Banana Bonanza</strong><p>Choose number of points to bet.</font><div class='respPicDiv'><img src='img/responseButtonOffersNo0L.png' class='respPic'></div></div>","3","1","Banana Bonanza","Fruit/bananas.png","Lost","0.2,0.65","8","0.2","5","1","",""
"html-keyboard-response","11","151425","0.0-11.0-2.0","63b6be60f23fd8e0399f668c","bdp_rwlrn","Wed Mar 15 2023 15:34:54 GMT-0400 (Eastern Daylight Time)","477424","Trustworthy,Untrustworthy","","","","decisionFB","","null","","<div class='trialDiv'><img src='Fruit/bananas.png'><br><font class='baseline'><strong>Banana Bonanza</strong><p>Choose number of points to bet.</font><div class='respPicDiv'><img src='img/responseButtonOffersNo0L3.png' class='respPic'></div></div>","null","1","Banana Bonanza","Fruit/bananas.png","Lost","0.2,0.65","8","0.2","2","1","",""
"html-keyboard-response","12","152431","0.0-11.0-3.0","63b6be60f23fd8e0399f668c","bdp_rwlrn","Wed Mar 15 2023 15:34:54 GMT-0400 (Eastern Daylight Time)","477424","Trustworthy,Untrustworthy","","","","feedback","","null","","<div class='respPicDiv'><img src='img/responseButtonOffersNo0_wht.png' class='respPic'></div><div class='trialDiv'><img src='Fruit/bananas.png'><br><font class='baseline'><strong>Banana Bonanza</strong><p><strong><font class='negOutcome'>You LOST</font><p>You bet: 3</strong></font> &nbsp; &nbsp; &nbsp; &nbsp; &nbsp; &nbsp;<font class='negOutcome'>You receive: <strong>0</strong></font></div>","null","1","Banana Bonanza","Fruit/bananas.png","Lost","0.2,0.65","8","0.2","2","1","",""
"html-keyboard-response","13","156017","0.0-11.0-1.1","63b6be60f23fd8e0399f668c","bdp_rwlrn","Wed Mar 15 2023 15:34:54 GMT-0400 (Eastern Daylight Time)","477424","Trustworthy,Untrustworthy","","","","decision","","3584","","<div class='trialDiv'><img src='Fruit/lime.png'><br><font class='baseline'><strong>Limin' Large</strong><p>Choose number of points to bet.</font><div class='respPicDiv'><img src='img/responseButtonOffersNo0L.png' class='respPic'></div></div>","2","1","Limin' Large","Fruit/lime.png","Lost","0.65,0.2","11","0.65","7","2","",""
"html-keyboard-response","14","156273","0.0-11.0-2.1","63b6be60f23fd8e0399f668c","bdp_rwlrn","Wed Mar 15 2023 15:34:54 GMT-0400 (Eastern Daylight Time)","477424","Trustworthy,Untrustworthy","","","","decisionFB","","null","","<div class='trialDiv'><img src='Fruit/lime.png'><br><font class='baseline'><strong>Limin' Large</strong><p>Choose number of points to bet.</font><div class='respPicDiv'><img src='img/responseButtonOffersNo0L2.png' class='respPic'></div></div>","null","1","Limin' Large","Fruit/lime.png","Lost","0.65,0.2","11","0.65","5","2","",""
"html-keyboard-response","15","157281","0.0-11.0-3.1","63b6be60f23fd8e0399f668c","bdp_rwlrn","Wed Mar 15 2023 15:34:54 GMT-0400 (Eastern Daylight Time)","477424","Trustworthy,Untrustworthy","","","","feedback","","null","","<div class='respPicDiv'><img src='img/responseButtonOffersNo0_wht.png' class='respPic'></div><div class='trialDiv'><img src='Fruit/lime.png'><br><font class='baseline'><strong>Limin' Large</strong><p><strong><font class='negOutcome'>You LOST</font><p>You bet: 2</strong></font> &nbsp; &nbsp; &nbsp; &nbsp; &nbsp; &nbsp;<font class='negOutcome'>You receive: <strong>0</strong></font></div>","null","1","Limin' Large","Fruit/lime.png","Lost","0.65,0.2","11","0.65","5","2","",""
"html-keyboard-response","16","161325","0.0-11.0-1.2","63b6be60f23fd8e0399f668c","bdp_rwlrn","Wed Mar 15 2023 15:34:54 GMT-0400 (Eastern Daylight Time)","477424","Trustworthy,Untrustworthy","","","","decision","","4041","","<div class='trialDiv'><img src='Fruit/plums1.png'><br><font class='baseline'><strong>Plum Powerball</strong><p>Choose number of points to bet.</font><div class='respPicDiv'><img src='img/responseButtonOffersNo0L.png' class='respPic'></div></div>","3","1","Plum Powerball","Fruit/plums1.png","Lost","0.2,0.8","12","0.2","10","3","",""
"html-keyboard-response","17","161585","0.0-11.0-2.2","63b6be60f23fd8e0399f668c","bdp_rwlrn","Wed Mar 15 2023 15:34:54 GMT-0400 (Eastern Daylight Time)","477424","Trustworthy,Untrustworthy","","","","decisionFB","","null","","<div class='trialDiv'><img src='Fruit/plums1.png'><br><font class='baseline'><strong>Plum Powerball</strong><p>Choose number of points to bet.</font><div class='respPicDiv'><img src='img/responseButtonOffersNo0L3.png' class='respPic'></div></div>","null","1","Plum Powerball","Fruit/plums1.png","Lost","0.2,0.8","12","0.2","7","3","",""
"html-keyboard-response","18","162592","0.0-11.0-3.2","63b6be60f23fd8e0399f668c","bdp_rwlrn","Wed Mar 15 2023 15:34:54 GMT-0400 (Eastern Daylight Time)","477424","Trustworthy,Untrustworthy","","","","feedback","","null","","<div class='respPicDiv'><img src='img/responseButtonOffersNo0_wht.png' class='respPic'></div><div class='trialDiv'><img src='Fruit/plums1.png'><br><font class='baseline'><strong>Plum Powerball</strong><p><strong><font class='negOutcome'>You LOST</font><p>You bet: 3</strong></font> &nbsp; &nbsp; &nbsp; &nbsp; &nbsp; &nbsp;<font class='negOutcome'>You receive: <strong>0</strong></font></div>","null","1","Plum Powerball","Fruit/plums1.png","Lost","0.2,0.8","12","0.2","7","3","",""
"html-keyboard-response","19","165381","0.0-11.0-1.3","63b6be60f23fd8e0399f668c","bdp_rwlrn","Wed Mar 15 2023 15:34:54 GMT-0400 (Eastern Daylight Time)","477424","Trustworthy,Untrustworthy","","","","decision","","2787","","<div class='trialDiv'><img src='Fruit/bananas.png'><br><font class='baseline'><strong>Banana Bonanza</strong><p>Choose number of points to bet.</font><div class='respPicDiv'><img src='img/responseButtonOffersNo0L.png' class='respPic'></div></div>","3","2","Banana Bonanza","Fruit/bananas.png","Lost","0.2,0.65","8","0.2","12","4","",""
"html-keyboard-response","20","165640","0.0-11.0-2.3","63b6be60f23fd8e0399f668c","bdp_rwlrn","Wed Mar 15 2023 15:34:54 GMT-0400 (Eastern Daylight Time)","477424","Trustworthy,Untrustworthy","","","","decisionFB","","null","","<div class='trialDiv'><img src='Fruit/bananas.png'><br><font class='baseline'><strong>Banana Bonanza</strong><p>Choose number of points to bet.</font><div class='respPicDiv'><img src='img/responseButtonOffersNo0L3.png' class='respPic'></div></div>","null","2","Banana Bonanza","Fruit/bananas.png","Lost","0.2,0.65","8","0.2","9","4","",""
"html-keyboard-response","21","166651","0.0-11.0-3.3","63b6be60f23fd8e0399f668c","bdp_rwlrn","Wed Mar 15 2023 15:34:54 GMT-0400 (Eastern Daylight Time)","477424","Trustworthy,Untrustworthy","","","","feedback","","null","","<div class='respPicDiv'><img src='img/responseButtonOffersNo0_wht.png' class='respPic'></div><div class='trialDiv'><img src='Fruit/bananas.png'><br><font class='baseline'><strong>Banana Bonanza</strong><p><strong><font class='negOutcome'>You LOST</font><p>You bet: 3</strong></font> &nbsp; &nbsp; &nbsp; &nbsp; &nbsp; &nbsp;<font class='negOutcome'>You receive: <strong>0</strong></font></div>","null","2","Banana Bonanza","Fruit/bananas.png","Lost","0.2,0.65","8","0.2","9","4","",""
"html-keyboard-response","22","168966","0.0-11.0-1.4","63b6be60f23fd8e0399f668c","bdp_rwlrn","Wed Mar 15 2023 15:34:54 GMT-0400 (Eastern Daylight Time)","477424","Trustworthy,Untrustworthy","","","","decision","","2314","","<div class='trialDiv'><img src='Fruit/plums1.png'><br><font class='baseline'><strong>Plum Powerball</strong><p>Choose number of points to bet.</font><div class='respPicDiv'><img src='img/responseButtonOffersNo0L.png' class='respPic'></div></div>","4","2","Plum Powerball","Fruit/plums1.png","Lost","0.2,0.8","12","0.2","14","5","",""
"html-keyboard-response","23","169224","0.0-11.0-2.4","63b6be60f23fd8e0399f668c","bdp_rwlrn","Wed Mar 15 2023 15:34:54 GMT-0400 (Eastern Daylight Time)","477424","Trustworthy,Untrustworthy","","","","decisionFB","","null","","<div class='trialDiv'><img src='Fruit/plums1.png'><br><font class='baseline'><strong>Plum Powerball</strong><p>Choose number of points to bet.</font><div class='respPicDiv'><img src='img/responseButtonOffersNo0L4.png' class='respPic'></div></div>","null","2","Plum Powerball","Fruit/plums1.png","Lost","0.2,0.8","12","0.2","10","5","",""
"html-keyboard-response","24","170234","0.0-11.0-3.4","63b6be60f23fd8e0399f668c","bdp_rwlrn","Wed Mar 15 2023 15:34:54 GMT-0400 (Eastern Daylight Time)","477424","Trustworthy,Untrustworthy","","","","feedback","","null","","<div class='respPicDiv'><img src='img/responseButtonOffersNo0_wht.png' class='respPic'></div><div class='trialDiv'><img src='Fruit/plums1.png'><br><font class='baseline'><strong>Plum Powerball</strong><p><strong><font class='negOutcome'>You LOST</font><p>You bet: 4</strong></font> &nbsp; &nbsp; &nbsp; &nbsp; &nbsp; &nbsp;<font class='negOutcome'>You receive: <strong>0</strong></font></div>","null","2","Plum Powerball","Fruit/plums1.png","Lost","0.2,0.8","12","0.2","10","5","",""
"html-keyboard-response","25","172611","0.0-11.0-1.5","63b6be60f23fd8e0399f668c","bdp_rwlrn","Wed Mar 15 2023 15:34:54 GMT-0400 (Eastern Daylight Time)","477424","Trustworthy,Untrustworthy","","","","decision","","2376","","<div class='trialDiv'><img src='Fruit/lime.png'><br><font class='baseline'><strong>Limin' Large</strong><p>Choose number of points to bet.</font><div class='respPicDiv'><img src='img/responseButtonOffersNo0L.png' class='respPic'></div></div>","2","2","Limin' Large","Fruit/lime.png","Won","0.65,0.2","11","0.65","15","6","",""
"html-keyboard-response","26","172866","0.0-11.0-2.5","63b6be60f23fd8e0399f668c","bdp_rwlrn","Wed Mar 15 2023 15:34:54 GMT-0400 (Eastern Daylight Time)","477424","Trustworthy,Untrustworthy","","","","decisionFB","","null","","<div class='trialDiv'><img src='Fruit/lime.png'><br><font class='baseline'><strong>Limin' Large</strong><p>Choose number of points to bet.</font><div class='respPicDiv'><img src='img/responseButtonOffersNo0L2.png' class='respPic'></div></div>","null","2","Limin' Large","Fruit/lime.png","Won","0.65,0.2","11","0.65","13","6","",""
"html-keyboard-response","27","173874","0.0-11.0-3.5","63b6be60f23fd8e0399f668c","bdp_rwlrn","Wed Mar 15 2023 15:34:54 GMT-0400 (Eastern Daylight Time)","477424","Trustworthy,Untrustworthy","","","","feedback","","null","","<div class='respPicDiv'><img src='img/responseButtonOffersNo0_wht.png' class='respPic'></div><div class='trialDiv'><img src='Fruit/lime.png'><br><font class='baseline'><strong>Limin' Large</strong><p><strong><font class='posOutcome'>You WON</font><p>You bet: 2</strong></font> &nbsp; &nbsp; &nbsp; &nbsp; &nbsp; &nbsp;<font class='posOutcome'>you receive: <strong>4</strong></font></div>","null","2","Limin' Large","Fruit/lime.png","Won","0.65,0.2","11","0.65","17","6","",""
"html-keyboard-response","28","176381","0.0-11.0-1.6","63b6be60f23fd8e0399f668c","bdp_rwlrn","Wed Mar 15 2023 15:34:54 GMT-0400 (Eastern Daylight Time)","477424","Trustworthy,Untrustworthy","","","","decision","","2506","","<div class='trialDiv'><img src='Fruit/plums1.png'><br><font class='baseline'><strong>Plum Powerball</strong><p>Choose number of points to bet.</font><div class='respPicDiv'><img src='img/responseButtonOffersNo0L.png' class='respPic'></div></div>","1","3","Plum Powerball","Fruit/plums1.png","Won","0.2,0.8","12","0.2","22","7","",""
"html-keyboard-response","29","176641","0.0-11.0-2.6","63b6be60f23fd8e0399f668c","bdp_rwlrn","Wed Mar 15 2023 15:34:54 GMT-0400 (Eastern Daylight Time)","477424","Trustworthy,Untrustworthy","","","","decisionFB","","null","","<div class='trialDiv'><img src='Fruit/plums1.png'><br><font class='baseline'><strong>Plum Powerball</strong><p>Choose number of points to bet.</font><div class='respPicDiv'><img src='img/responseButtonOffersNo0L1.png' class='respPic'></div></div>","null","3","Plum Powerball","Fruit/plums1.png","Won","0.2,0.8","12","0.2","21","7","",""
"html-keyboard-response","30","177651","0.0-11.0-3.6","63b6be60f23fd8e0399f668c","bdp_rwlrn","Wed Mar 15 2023 15:34:54 GMT-0400 (Eastern Daylight Time)","477424","Trustworthy,Untrustworthy","","","","feedback","","null","","<div class='respPicDiv'><img src='img/responseButtonOffersNo0_wht.png' class='respPic'></div><div class='trialDiv'><img src='Fruit/plums1.png'><br><font class='baseline'><strong>Plum Powerball</strong><p><strong><font class='posOutcome'>You WON</font><p>You bet: 1</strong></font> &nbsp; &nbsp; &nbsp; &nbsp; &nbsp; &nbsp;<font class='posOutcome'>you receive: <strong>2</strong></font></div>","null","3","Plum Powerball","Fruit/plums1.png","Won","0.2,0.8","12","0.2","23","7","",""
"html-keyboard-response","31","178805","0.0-11.0-1.7","63b6be60f23fd8e0399f668c","bdp_rwlrn","Wed Mar 15 2023 15:34:54 GMT-0400 (Eastern Daylight Time)","477424","Trustworthy,Untrustworthy","","","","decision","","1152","","<div class='trialDiv'><img src='Fruit/bananas.png'><br><font class='baseline'><strong>Banana Bonanza</strong><p>Choose number of points to bet.</font><div class='respPicDiv'><img src='img/responseButtonOffersNo0L.png' class='respPic'></div></div>","2","3","Banana Bonanza","Fruit/bananas.png","Lost","0.2,0.65","8","0.2","28","8","",""
"html-keyboard-response","32","179064","0.0-11.0-2.7","63b6be60f23fd8e0399f668c","bdp_rwlrn","Wed Mar 15 2023 15:34:54 GMT-0400 (Eastern Daylight Time)","477424","Trustworthy,Untrustworthy","","","","decisionFB","","null","","<div class='trialDiv'><img src='Fruit/bananas.png'><br><font class='baseline'><strong>Banana Bonanza</strong><p>Choose number of points to bet.</font><div class='respPicDiv'><img src='img/responseButtonOffersNo0L2.png' class='respPic'></div></div>","null","3","Banana Bonanza","Fruit/bananas.png","Lost","0.2,0.65","8","0.2","26","8","",""
"html-keyboard-response","33","180073","0.0-11.0-3.7","63b6be60f23fd8e0399f668c","bdp_rwlrn","Wed Mar 15 2023 15:34:54 GMT-0400 (Eastern Daylight Time)","477424","Trustworthy,Untrustworthy","","","","feedback","","null","","<div class='respPicDiv'><img src='img/responseButtonOffersNo0_wht.png' class='respPic'></div><div class='trialDiv'><img src='Fruit/bananas.png'><br><font class='baseline'><strong>Banana Bonanza</strong><p><strong><font class='negOutcome'>You LOST</font><p>You bet: 2</strong></font> &nbsp; &nbsp; &nbsp; &nbsp; &nbsp; &nbsp;<font class='negOutcome'>You receive: <strong>0</strong></font></div>","null","3","Banana Bonanza","Fruit/bananas.png","Lost","0.2,0.65","8","0.2","26","8","",""
"html-keyboard-response","34","181310","0.0-11.0-1.8","63b6be60f23fd8e0399f668c","bdp_rwlrn","Wed Mar 15 2023 15:34:54 GMT-0400 (Eastern Daylight Time)","477424","Trustworthy,Untrustworthy","","","","decision","","1234","","<div class='trialDiv'><img src='Fruit/lime.png'><br><font class='baseline'><strong>Limin' Large</strong><p>Choose number of points to bet.</font><div class='respPicDiv'><img src='img/responseButtonOffersNo0L.png' class='respPic'></div></div>","2","3","Limin' Large","Fruit/lime.png","Won","0.65,0.2","11","0.65","31","9","",""
"html-keyboard-response","35","181570","0.0-11.0-2.8","63b6be60f23fd8e0399f668c","bdp_rwlrn","Wed Mar 15 2023 15:34:54 GMT-0400 (Eastern Daylight Time)","477424","Trustworthy,Untrustworthy","","","","decisionFB","","null","","<div class='trialDiv'><img src='Fruit/lime.png'><br><font class='baseline'><strong>Limin' Large</strong><p>Choose number of points to bet.</font><div class='respPicDiv'><img src='img/responseButtonOffersNo0L2.png' class='respPic'></div></div>","null","3","Limin' Large","Fruit/lime.png","Won","0.65,0.2","11","0.65","29","9","",""
"html-keyboard-response","36","182577","0.0-11.0-3.8","63b6be60f23fd8e0399f668c","bdp_rwlrn","Wed Mar 15 2023 15:34:54 GMT-0400 (Eastern Daylight Time)","477424","Trustworthy,Untrustworthy","","","","feedback","","null","","<div class='respPicDiv'><img src='img/responseButtonOffersNo0_wht.png' class='respPic'></div><div class='trialDiv'><img src='Fruit/lime.png'><br><font class='baseline'><strong>Limin' Large</strong><p><strong><font class='posOutcome'>You WON</font><p>You bet: 2</strong></font> &nbsp; &nbsp; &nbsp; &nbsp; &nbsp; &nbsp;<font class='posOutcome'>you receive: <strong>4</strong></font></div>","null","3","Limin' Large","Fruit/lime.png","Won","0.65,0.2","11","0.65","33","9","",""
"html-keyboard-response","37","184388","0.0-11.0-1.9","63b6be60f23fd8e0399f668c","bdp_rwlrn","Wed Mar 15 2023 15:34:54 GMT-0400 (Eastern Daylight Time)","477424","Trustworthy,Untrustworthy","","","","decision","","1809","","<div class='trialDiv'><img src='Fruit/plums1.png'><br><font class='baseline'><strong>Plum Powerball</strong><p>Choose number of points to bet.</font><div class='respPicDiv'><img src='img/responseButtonOffersNo0L.png' class='respPic'></div></div>","2","4","Plum Powerball","Fruit/plums1.png","Won","0.2,0.8","12","0.2","38","10","",""
"html-keyboard-response","38","184645","0.0-11.0-2.9","63b6be60f23fd8e0399f668c","bdp_rwlrn","Wed Mar 15 2023 15:34:54 GMT-0400 (Eastern Daylight Time)","477424","Trustworthy,Untrustworthy","","","","decisionFB","","null","","<div class='trialDiv'><img src='Fruit/plums1.png'><br><font class='baseline'><strong>Plum Powerball</strong><p>Choose number of points to bet.</font><div class='respPicDiv'><img src='img/responseButtonOffersNo0L2.png' class='respPic'></div></div>","null","4","Plum Powerball","Fruit/plums1.png","Won","0.2,0.8","12","0.2","36","10","",""
"html-keyboard-response","39","185650","0.0-11.0-3.9","63b6be60f23fd8e0399f668c","bdp_rwlrn","Wed Mar 15 2023 15:34:54 GMT-0400 (Eastern Daylight Time)","477424","Trustworthy,Untrustworthy","","","","feedback","","null","","<div class='respPicDiv'><img src='img/responseButtonOffersNo0_wht.png' class='respPic'></div><div class='trialDiv'><img src='Fruit/plums1.png'><br><font class='baseline'><strong>Plum Powerball</strong><p><strong><font class='posOutcome'>You WON</font><p>You bet: 2</strong></font> &nbsp; &nbsp; &nbsp; &nbsp; &nbsp; &nbsp;<font class='posOutcome'>you receive: <strong>4</strong></font></div>","null","4","Plum Powerball","Fruit/plums1.png","Won","0.2,0.8","12","0.2","40","10","",""
"html-keyboard-response","40","187265","0.0-11.0-1.10","63b6be60f23fd8e0399f668c","bdp_rwlrn","Wed Mar 15 2023 15:34:54 GMT-0400 (Eastern Daylight Time)","477424","Trustworthy,Untrustworthy","","","","decision","","1613","","<div class='trialDiv'><img src='Fruit/lime.png'><br><font class='baseline'><strong>Limin' Large</strong><p>Choose number of points to bet.</font><div class='respPicDiv'><img src='img/responseButtonOffersNo0L.png' class='respPic'></div></div>","2","4","Limin' Large","Fruit/lime.png","Lost","0.65,0.2","11","0.65","45","11","",""
"html-keyboard-response","41","187521","0.0-11.0-2.10","63b6be60f23fd8e0399f668c","bdp_rwlrn","Wed Mar 15 2023 15:34:54 GMT-0400 (Eastern Daylight Time)","477424","Trustworthy,Untrustworthy","","","","decisionFB","","null","","<div class='trialDiv'><img src='Fruit/lime.png'><br><font class='baseline'><strong>Limin' Large</strong><p>Choose number of points to bet.</font><div class='respPicDiv'><img src='img/responseButtonOffersNo0L2.png' class='respPic'></div></div>","null","4","Limin' Large","Fruit/lime.png","Lost","0.65,0.2","11","0.65","43","11","",""
"html-keyboard-response","42","188530","0.0-11.0-3.10","63b6be60f23fd8e0399f668c","bdp_rwlrn","Wed Mar 15 2023 15:34:54 GMT-0400 (Eastern Daylight Time)","477424","Trustworthy,Untrustworthy","","","","feedback","","null","","<div class='respPicDiv'><img src='img/responseButtonOffersNo0_wht.png' class='respPic'></div><div class='trialDiv'><img src='Fruit/lime.png'><br><font class='baseline'><strong>Limin' Large</strong><p><strong><font class='negOutcome'>You LOST</font><p>You bet: 2</strong></font> &nbsp; &nbsp; &nbsp; &nbsp; &nbsp; &nbsp;<font class='negOutcome'>You receive: <strong>0</strong></font></div>","null","4","Limin' Large","Fruit/lime.png","Lost","0.65,0.2","11","0.65","43","11","",""
"html-keyboard-response","43","189135","0.0-11.0-1.11","63b6be60f23fd8e0399f668c","bdp_rwlrn","Wed Mar 15 2023 15:34:54 GMT-0400 (Eastern Daylight Time)","477424","Trustworthy,Untrustworthy","","","","decision","","603","","<div class='trialDiv'><img src='Fruit/bananas.png'><br><font class='baseline'><strong>Banana Bonanza</strong><p>Choose number of points to bet.</font><div class='respPicDiv'><img src='img/responseButtonOffersNo0L.png' class='respPic'></div></div>","3","4","Banana Bonanza","Fruit/bananas.png","Lost","0.2,0.65","8","0.2","48","12","",""
"html-keyboard-response","44","189394","0.0-11.0-2.11","63b6be60f23fd8e0399f668c","bdp_rwlrn","Wed Mar 15 2023 15:34:54 GMT-0400 (Eastern Daylight Time)","477424","Trustworthy,Untrustworthy","","","","decisionFB","","null","","<div class='trialDiv'><img src='Fruit/bananas.png'><br><font class='baseline'><strong>Banana Bonanza</strong><p>Choose number of points to bet.</font><div class='respPicDiv'><img src='img/responseButtonOffersNo0L3.png' class='respPic'></div></div>","null","4","Banana Bonanza","Fruit/bananas.png","Lost","0.2,0.65","8","0.2","45","12","",""
"html-keyboard-response","45","190403","0.0-11.0-3.11","63b6be60f23fd8e0399f668c","bdp_rwlrn","Wed Mar 15 2023 15:34:54 GMT-0400 (Eastern Daylight Time)","477424","Trustworthy,Untrustworthy","","","","feedback","","null","","<div class='respPicDiv'><img src='img/responseButtonOffersNo0_wht.png' class='respPic'></div><div class='trialDiv'><img src='Fruit/bananas.png'><br><font class='baseline'><strong>Banana Bonanza</strong><p><strong><font class='negOutcome'>You LOST</font><p>You bet: 3</strong></font> &nbsp; &nbsp; &nbsp; &nbsp; &nbsp; &nbsp;<font class='negOutcome'>You receive: <strong>0</strong></font></div>","null","4","Banana Bonanza","Fruit/bananas.png","Lost","0.2,0.65","8","0.2","45","12","",""
"html-keyboard-response","46","191980","0.0-11.0-1.12","63b6be60f23fd8e0399f668c","bdp_rwlrn","Wed Mar 15 2023 15:34:54 GMT-0400 (Eastern Daylight Time)","477424","Trustworthy,Untrustworthy","","","","decision","","1575","","<div class='trialDiv'><img src='Fruit/lime.png'><br><font class='baseline'><strong>Limin' Large</strong><p>Choose number of points to bet.</font><div class='respPicDiv'><img src='img/responseButtonOffersNo0L.png' class='respPic'></div></div>","5","5","Limin' Large","Fruit/lime.png","Won","0.65,0.2","11","0.65","50","13","",""
"html-keyboard-response","47","192236","0.0-11.0-2.12","63b6be60f23fd8e0399f668c","bdp_rwlrn","Wed Mar 15 2023 15:34:54 GMT-0400 (Eastern Daylight Time)","477424","Trustworthy,Untrustworthy","","","","decisionFB","","null","","<div class='trialDiv'><img src='Fruit/lime.png'><br><font class='baseline'><strong>Limin' Large</strong><p>Choose number of points to bet.</font><div class='respPicDiv'><img src='img/responseButtonOffersNo0L5.png' class='respPic'></div></div>","null","5","Limin' Large","Fruit/lime.png","Won","0.65,0.2","11","0.65","45","13","",""
"html-keyboard-response","48","193242","0.0-11.0-3.12","63b6be60f23fd8e0399f668c","bdp_rwlrn","Wed Mar 15 2023 15:34:54 GMT-0400 (Eastern Daylight Time)","477424","Trustworthy,Untrustworthy","","","","feedback","","null","","<div class='respPicDiv'><img src='img/responseButtonOffersNo0_wht.png' class='respPic'></div><div class='trialDiv'><img src='Fruit/lime.png'><br><font class='baseline'><strong>Limin' Large</strong><p><strong><font class='posOutcome'>You WON</font><p>You bet: 5</strong></font> &nbsp; &nbsp; &nbsp; &nbsp; &nbsp; &nbsp;<font class='posOutcome'>you receive: <strong>10</strong></font></div>","null","5","Limin' Large","Fruit/lime.png","Won","0.65,0.2","11","0.65","55","13","",""
"html-keyboard-response","49","194368","0.0-11.0-1.13","63b6be60f23fd8e0399f668c","bdp_rwlrn","Wed Mar 15 2023 15:34:54 GMT-0400 (Eastern Daylight Time)","477424","Trustworthy,Untrustworthy","","","","decision","","1125","","<div class='trialDiv'><img src='Fruit/bananas.png'><br><font class='baseline'><strong>Banana Bonanza</strong><p>Choose number of points to bet.</font><div class='respPicDiv'><img src='img/responseButtonOffersNo0L.png' class='respPic'></div></div>","2","5","Banana Bonanza","Fruit/bananas.png","Lost","0.2,0.65","8","0.2","60","14","",""
"html-keyboard-response","50","194626","0.0-11.0-2.13","63b6be60f23fd8e0399f668c","bdp_rwlrn","Wed Mar 15 2023 15:34:54 GMT-0400 (Eastern Daylight Time)","477424","Trustworthy,Untrustworthy","","","","decisionFB","","null","","<div class='trialDiv'><img src='Fruit/bananas.png'><br><font class='baseline'><strong>Banana Bonanza</strong><p>Choose number of points to bet.</font><div class='respPicDiv'><img src='img/responseButtonOffersNo0L2.png' class='respPic'></div></div>","null","5","Banana Bonanza","Fruit/bananas.png","Lost","0.2,0.65","8","0.2","58","14","",""
"html-keyboard-response","51","195634","0.0-11.0-3.13","63b6be60f23fd8e0399f668c","bdp_rwlrn","Wed Mar 15 2023 15:34:54 GMT-0400 (Eastern Daylight Time)","477424","Trustworthy,Untrustworthy","","","","feedback","","null","","<div class='respPicDiv'><img src='img/responseButtonOffersNo0_wht.png' class='respPic'></div><div class='trialDiv'><img src='Fruit/bananas.png'><br><font class='baseline'><strong>Banana Bonanza</strong><p><strong><font class='negOutcome'>You LOST</font><p>You bet: 2</strong></font> &nbsp; &nbsp; &nbsp; &nbsp; &nbsp; &nbsp;<font class='negOutcome'>You receive: <strong>0</strong></font></div>","null","5","Banana Bonanza","Fruit/bananas.png","Lost","0.2,0.65","8","0.2","58","14","",""
"html-keyboard-response","52","197015","0.0-11.0-1.14","63b6be60f23fd8e0399f668c","bdp_rwlrn","Wed Mar 15 2023 15:34:54 GMT-0400 (Eastern Daylight Time)","477424","Trustworthy,Untrustworthy","","","","decision","","1379","","<div class='trialDiv'><img src='Fruit/plums1.png'><br><font class='baseline'><strong>Plum Powerball</strong><p>Choose number of points to bet.</font><div class='respPicDiv'><img src='img/responseButtonOffersNo0L.png' class='respPic'></div></div>","4","5","Plum Powerball","Fruit/plums1.png","Won","0.2,0.8","12","0.2","63","15","",""
"html-keyboard-response","53","197273","0.0-11.0-2.14","63b6be60f23fd8e0399f668c","bdp_rwlrn","Wed Mar 15 2023 15:34:54 GMT-0400 (Eastern Daylight Time)","477424","Trustworthy,Untrustworthy","","","","decisionFB","","null","","<div class='trialDiv'><img src='Fruit/plums1.png'><br><font class='baseline'><strong>Plum Powerball</strong><p>Choose number of points to bet.</font><div class='respPicDiv'><img src='img/responseButtonOffersNo0L4.png' class='respPic'></div></div>","null","5","Plum Powerball","Fruit/plums1.png","Won","0.2,0.8","12","0.2","59","15","",""
"html-keyboard-response","54","198282","0.0-11.0-3.14","63b6be60f23fd8e0399f668c","bdp_rwlrn","Wed Mar 15 2023 15:34:54 GMT-0400 (Eastern Daylight Time)","477424","Trustworthy,Untrustworthy","","","","feedback","","null","","<div class='respPicDiv'><img src='img/responseButtonOffersNo0_wht.png' class='respPic'></div><div class='trialDiv'><img src='Fruit/plums1.png'><br><font class='baseline'><strong>Plum Powerball</strong><p><strong><font class='posOutcome'>You WON</font><p>You bet: 4</strong></font> &nbsp; &nbsp; &nbsp; &nbsp; &nbsp; &nbsp;<font class='posOutcome'>you receive: <strong>8</strong></font></div>","null","5","Plum Powerball","Fruit/plums1.png","Won","0.2,0.8","12","0.2","67","15","",""
"html-keyboard-response","55","199341","0.0-11.0-1.15","63b6be60f23fd8e0399f668c","bdp_rwlrn","Wed Mar 15 2023 15:34:54 GMT-0400 (Eastern Daylight Time)","477424","Trustworthy,Untrustworthy","","","","decision","","1057","","<div class='trialDiv'><img src='Fruit/lime.png'><br><font class='baseline'><strong>Limin' Large</strong><p>Choose number of points to bet.</font><div class='respPicDiv'><img src='img/responseButtonOffersNo0L.png' class='respPic'></div></div>","4","6","Limin' Large","Fruit/lime.png","Lost","0.65,0.2","11","0.65","72","16","",""
"html-keyboard-response","56","199602","0.0-11.0-2.15","63b6be60f23fd8e0399f668c","bdp_rwlrn","Wed Mar 15 2023 15:34:54 GMT-0400 (Eastern Daylight Time)","477424","Trustworthy,Untrustworthy","","","","decisionFB","","null","","<div class='trialDiv'><img src='Fruit/lime.png'><br><font class='baseline'><strong>Limin' Large</strong><p>Choose number of points to bet.</font><div class='respPicDiv'><img src='img/responseButtonOffersNo0L4.png' class='respPic'></div></div>","null","6","Limin' Large","Fruit/lime.png","Lost","0.65,0.2","11","0.65","68","16","",""
"html-keyboard-response","57","200610","0.0-11.0-3.15","63b6be60f23fd8e0399f668c","bdp_rwlrn","Wed Mar 15 2023 15:34:54 GMT-0400 (Eastern Daylight Time)","477424","Trustworthy,Untrustworthy","","","","feedback","","null","","<div class='respPicDiv'><img src='img/responseButtonOffersNo0_wht.png' class='respPic'></div><div class='trialDiv'><img src='Fruit/lime.png'><br><font class='baseline'><strong>Limin' Large</strong><p><strong><font class='negOutcome'>You LOST</font><p>You bet: 4</strong></font> &nbsp; &nbsp; &nbsp; &nbsp; &nbsp; &nbsp;<font class='negOutcome'>You receive: <strong>0</strong></font></div>","null","6","Limin' Large","Fruit/lime.png","Lost","0.65,0.2","11","0.65","68","16","",""
"html-keyboard-response","58","201850","0.0-11.0-1.16","63b6be60f23fd8e0399f668c","bdp_rwlrn","Wed Mar 15 2023 15:34:54 GMT-0400 (Eastern Daylight Time)","477424","Trustworthy,Untrustworthy","","","","decision","","1238","","<div class='trialDiv'><img src='Fruit/bananas.png'><br><font class='baseline'><strong>Banana Bonanza</strong><p>Choose number of points to bet.</font><div class='respPicDiv'><img src='img/responseButtonOffersNo0L.png' class='respPic'></div></div>","3","6","Banana Bonanza","Fruit/bananas.png","Won","0.2,0.65","8","0.2","73","17","",""
"html-keyboard-response","59","202106","0.0-11.0-2.16","63b6be60f23fd8e0399f668c","bdp_rwlrn","Wed Mar 15 2023 15:34:54 GMT-0400 (Eastern Daylight Time)","477424","Trustworthy,Untrustworthy","","","","decisionFB","","null","","<div class='trialDiv'><img src='Fruit/bananas.png'><br><font class='baseline'><strong>Banana Bonanza</strong><p>Choose number of points to bet.</font><div class='respPicDiv'><img src='img/responseButtonOffersNo0L3.png' class='respPic'></div></div>","null","6","Banana Bonanza","Fruit/bananas.png","Won","0.2,0.65","8","0.2","70","17","",""
"html-keyboard-response","60","203115","0.0-11.0-3.16","63b6be60f23fd8e0399f668c","bdp_rwlrn","Wed Mar 15 2023 15:34:54 GMT-0400 (Eastern Daylight Time)","477424","Trustworthy,Untrustworthy","","","","feedback","","null","","<div class='respPicDiv'><img src='img/responseButtonOffersNo0_wht.png' class='respPic'></div><div class='trialDiv'><img src='Fruit/bananas.png'><br><font class='baseline'><strong>Banana Bonanza</strong><p><strong><font class='posOutcome'>You WON</font><p>You bet: 3</strong></font> &nbsp; &nbsp; &nbsp; &nbsp; &nbsp; &nbsp;<font class='posOutcome'>you receive: <strong>6</strong></font></div>","null","6","Banana Bonanza","Fruit/bananas.png","Won","0.2,0.65","8","0.2","76","17","",""
"html-keyboard-response","61","205033","0.0-11.0-1.17","63b6be60f23fd8e0399f668c","bdp_rwlrn","Wed Mar 15 2023 15:34:54 GMT-0400 (Eastern Daylight Time)","477424","Trustworthy,Untrustworthy","","","","decision","","1917","","<div class='trialDiv'><img src='Fruit/plums1.png'><br><font class='baseline'><strong>Plum Powerball</strong><p>Choose number of points to bet.</font><div class='respPicDiv'><img src='img/responseButtonOffersNo0L.png' class='respPic'></div></div>","3","6","Plum Powerball","Fruit/plums1.png","Lost","0.2,0.8","12","0.2","81","18","",""
"html-keyboard-response","62","205291","0.0-11.0-2.17","63b6be60f23fd8e0399f668c","bdp_rwlrn","Wed Mar 15 2023 15:34:54 GMT-0400 (Eastern Daylight Time)","477424","Trustworthy,Untrustworthy","","","","decisionFB","","null","","<div class='trialDiv'><img src='Fruit/plums1.png'><br><font class='baseline'><strong>Plum Powerball</strong><p>Choose number of points to bet.</font><div class='respPicDiv'><img src='img/responseButtonOffersNo0L3.png' class='respPic'></div></div>","null","6","Plum Powerball","Fruit/plums1.png","Lost","0.2,0.8","12","0.2","78","18","",""
"html-keyboard-response","63","206298","0.0-11.0-3.17","63b6be60f23fd8e0399f668c","bdp_rwlrn","Wed Mar 15 2023 15:34:54 GMT-0400 (Eastern Daylight Time)","477424","Trustworthy,Untrustworthy","","","","feedback","","null","","<div class='respPicDiv'><img src='img/responseButtonOffersNo0_wht.png' class='respPic'></div><div class='trialDiv'><img src='Fruit/plums1.png'><br><font class='baseline'><strong>Plum Powerball</strong><p><strong><font class='negOutcome'>You LOST</font><p>You bet: 3</strong></font> &nbsp; &nbsp; &nbsp; &nbsp; &nbsp; &nbsp;<font class='negOutcome'>You receive: <strong>0</strong></font></div>","null","6","Plum Powerball","Fruit/plums1.png","Lost","0.2,0.8","12","0.2","78","18","",""
"html-keyboard-response","64","207241","0.0-11.0-1.18","63b6be60f23fd8e0399f668c","bdp_rwlrn","Wed Mar 15 2023 15:34:54 GMT-0400 (Eastern Daylight Time)","477424","Trustworthy,Untrustworthy","","","","decision","","942","","<div class='trialDiv'><img src='Fruit/bananas.png'><br><font class='baseline'><strong>Banana Bonanza</strong><p>Choose number of points to bet.</font><div class='respPicDiv'><img src='img/responseButtonOffersNo0L.png' class='respPic'></div></div>","5","7","Banana Bonanza","Fruit/bananas.png","Lost","0.2,0.65","8","0.2","83","19","",""
"html-keyboard-response","65","207498","0.0-11.0-2.18","63b6be60f23fd8e0399f668c","bdp_rwlrn","Wed Mar 15 2023 15:34:54 GMT-0400 (Eastern Daylight Time)","477424","Trustworthy,Untrustworthy","","","","decisionFB","","null","","<div class='trialDiv'><img src='Fruit/bananas.png'><br><font class='baseline'><strong>Banana Bonanza</strong><p>Choose number of points to bet.</font><div class='respPicDiv'><img src='img/responseButtonOffersNo0L5.png' class='respPic'></div></div>","null","7","Banana Bonanza","Fruit/bananas.png","Lost","0.2,0.65","8","0.2","78","19","",""
"html-keyboard-response","66","208505","0.0-11.0-3.18","63b6be60f23fd8e0399f668c","bdp_rwlrn","Wed Mar 15 2023 15:34:54 GMT-0400 (Eastern Daylight Time)","477424","Trustworthy,Untrustworthy","","","","feedback","","null","","<div class='respPicDiv'><img src='img/responseButtonOffersNo0_wht.png' class='respPic'></div><div class='trialDiv'><img src='Fruit/bananas.png'><br><font class='baseline'><strong>Banana Bonanza</strong><p><strong><font class='negOutcome'>You LOST</font><p>You bet: 5</strong></font> &nbsp; &nbsp; &nbsp; &nbsp; &nbsp; &nbsp;<font class='negOutcome'>You receive: <strong>0</strong></font></div>","null","7","Banana Bonanza","Fruit/bananas.png","Lost","0.2,0.65","8","0.2","78","19","",""
"html-keyboard-response","67","209264","0.0-11.0-1.19","63b6be60f23fd8e0399f668c","bdp_rwlrn","Wed Mar 15 2023 15:34:54 GMT-0400 (Eastern Daylight Time)","477424","Trustworthy,Untrustworthy","","","","decision","","758","","<div class='trialDiv'><img src='Fruit/plums1.png'><br><font class='baseline'><strong>Plum Powerball</strong><p>Choose number of points to bet.</font><div class='respPicDiv'><img src='img/responseButtonOffersNo0L.png' class='respPic'></div></div>","1","7","Plum Powerball","Fruit/plums1.png","Lost","0.2,0.8","12","0.2","83","20","",""
"html-keyboard-response","68","209522","0.0-11.0-2.19","63b6be60f23fd8e0399f668c","bdp_rwlrn","Wed Mar 15 2023 15:34:54 GMT-0400 (Eastern Daylight Time)","477424","Trustworthy,Untrustworthy","","","","decisionFB","","null","","<div class='trialDiv'><img src='Fruit/plums1.png'><br><font class='baseline'><strong>Plum Powerball</strong><p>Choose number of points to bet.</font><div class='respPicDiv'><img src='img/responseButtonOffersNo0L1.png' class='respPic'></div></div>","null","7","Plum Powerball","Fruit/plums1.png","Lost","0.2,0.8","12","0.2","82","20","",""
"html-keyboard-response","69","210530","0.0-11.0-3.19","63b6be60f23fd8e0399f668c","bdp_rwlrn","Wed Mar 15 2023 15:34:54 GMT-0400 (Eastern Daylight Time)","477424","Trustworthy,Untrustworthy","","","","feedback","","null","","<div class='respPicDiv'><img src='img/responseButtonOffersNo0_wht.png' class='respPic'></div><div class='trialDiv'><img src='Fruit/plums1.png'><br><font class='baseline'><strong>Plum Powerball</strong><p><strong><font class='negOutcome'>You LOST</font><p>You bet: 1</strong></font> &nbsp; &nbsp; &nbsp; &nbsp; &nbsp; &nbsp;<font class='negOutcome'>You receive: <strong>0</strong></font></div>","null","7","Plum Powerball","Fruit/plums1.png","Lost","0.2,0.8","12","0.2","82","20","",""
"html-keyboard-response","70","211917","0.0-11.0-1.20","63b6be60f23fd8e0399f668c","bdp_rwlrn","Wed Mar 15 2023 15:34:54 GMT-0400 (Eastern Daylight Time)","477424","Trustworthy,Untrustworthy","","","","decision","","1384","","<div class='trialDiv'><img src='Fruit/lime.png'><br><font class='baseline'><strong>Limin' Large</strong><p>Choose number of points to bet.</font><div class='respPicDiv'><img src='img/responseButtonOffersNo0L.png' class='respPic'></div></div>","2","7","Limin' Large","Fruit/lime.png","Won","0.65,0.2","11","0.65","87","21","",""
"html-keyboard-response","71","212170","0.0-11.0-2.20","63b6be60f23fd8e0399f668c","bdp_rwlrn","Wed Mar 15 2023 15:34:54 GMT-0400 (Eastern Daylight Time)","477424","Trustworthy,Untrustworthy","","","","decisionFB","","null","","<div class='trialDiv'><img src='Fruit/lime.png'><br><font class='baseline'><strong>Limin' Large</strong><p>Choose number of points to bet.</font><div class='respPicDiv'><img src='img/responseButtonOffersNo0L2.png' class='respPic'></div></div>","null","7","Limin' Large","Fruit/lime.png","Won","0.65,0.2","11","0.65","85","21","",""
"html-keyboard-response","72","213178","0.0-11.0-3.20","63b6be60f23fd8e0399f668c","bdp_rwlrn","Wed Mar 15 2023 15:34:54 GMT-0400 (Eastern Daylight Time)","477424","Trustworthy,Untrustworthy","","","","feedback","","null","","<div class='respPicDiv'><img src='img/responseButtonOffersNo0_wht.png' class='respPic'></div><div class='trialDiv'><img src='Fruit/lime.png'><br><font class='baseline'><strong>Limin' Large</strong><p><strong><font class='posOutcome'>You WON</font><p>You bet: 2</strong></font> &nbsp; &nbsp; &nbsp; &nbsp; &nbsp; &nbsp;<font class='posOutcome'>you receive: <strong>4</strong></font></div>","null","7","Limin' Large","Fruit/lime.png","Won","0.65,0.2","11","0.65","89","21","",""
"html-keyboard-response","73","213675","0.0-11.0-1.21","63b6be60f23fd8e0399f668c","bdp_rwlrn","Wed Mar 15 2023 15:34:54 GMT-0400 (Eastern Daylight Time)","477424","Trustworthy,Untrustworthy","","","","decision","","494","","<div class='trialDiv'><img src='Fruit/plums1.png'><br><font class='baseline'><strong>Plum Powerball</strong><p>Choose number of points to bet.</font><div class='respPicDiv'><img src='img/responseButtonOffersNo0L.png' class='respPic'></div></div>","4","8","Plum Powerball","Fruit/plums1.png","Lost","0.2,0.8","12","0.2","94","22","",""
"html-keyboard-response","74","213930","0.0-11.0-2.21","63b6be60f23fd8e0399f668c","bdp_rwlrn","Wed Mar 15 2023 15:34:54 GMT-0400 (Eastern Daylight Time)","477424","Trustworthy,Untrustworthy","","","","decisionFB","","null","","<div class='trialDiv'><img src='Fruit/plums1.png'><br><font class='baseline'><strong>Plum Powerball</strong><p>Choose number of points to bet.</font><div class='respPicDiv'><img src='img/responseButtonOffersNo0L4.png' class='respPic'></div></div>","null","8","Plum Powerball","Fruit/plums1.png","Lost","0.2,0.8","12","0.2","90","22","",""
"html-keyboard-response","75","214938","0.0-11.0-3.21","63b6be60f23fd8e0399f668c","bdp_rwlrn","Wed Mar 15 2023 15:34:54 GMT-0400 (Eastern Daylight Time)","477424","Trustworthy,Untrustworthy","","","","feedback","","null","","<div class='respPicDiv'><img src='img/responseButtonOffersNo0_wht.png' class='respPic'></div><div class='trialDiv'><img src='Fruit/plums1.png'><br><font class='baseline'><strong>Plum Powerball</strong><p><strong><font class='negOutcome'>You LOST</font><p>You bet: 4</strong></font> &nbsp; &nbsp; &nbsp; &nbsp; &nbsp; &nbsp;<font class='negOutcome'>You receive: <strong>0</strong></font></div>","null","8","Plum Powerball","Fruit/plums1.png","Lost","0.2,0.8","12","0.2","90","22","",""
"html-keyboard-response","76","215403","0.0-11.0-1.22","63b6be60f23fd8e0399f668c","bdp_rwlrn","Wed Mar 15 2023 15:34:54 GMT-0400 (Eastern Daylight Time)","477424","Trustworthy,Untrustworthy","","","","decision","","462","","<div class='trialDiv'><img src='Fruit/lime.png'><br><font class='baseline'><strong>Limin' Large</strong><p>Choose number of points to bet.</font><div class='respPicDiv'><img src='img/responseButtonOffersNo0L.png' class='respPic'></div></div>","3","8","Limin' Large","Fruit/lime.png","Won","0.65,0.2","11","0.65","95","23","",""
"html-keyboard-response","77","215658","0.0-11.0-2.22","63b6be60f23fd8e0399f668c","bdp_rwlrn","Wed Mar 15 2023 15:34:54 GMT-0400 (Eastern Daylight Time)","477424","Trustworthy,Untrustworthy","","","","decisionFB","","null","","<div class='trialDiv'><img src='Fruit/lime.png'><br><font class='baseline'><strong>Limin' Large</strong><p>Choose number of points to bet.</font><div class='respPicDiv'><img src='img/responseButtonOffersNo0L3.png' class='respPic'></div></div>","null","8","Limin' Large","Fruit/lime.png","Won","0.65,0.2","11","0.65","92","23","",""
"html-keyboard-response","78","216666","0.0-11.0-3.22","63b6be60f23fd8e0399f668c","bdp_rwlrn","Wed Mar 15 2023 15:34:54 GMT-0400 (Eastern Daylight Time)","477424","Trustworthy,Untrustworthy","","","","feedback","","null","","<div class='respPicDiv'><img src='img/responseButtonOffersNo0_wht.png' class='respPic'></div><div class='trialDiv'><img src='Fruit/lime.png'><br><font class='baseline'><strong>Limin' Large</strong><p><strong><font class='posOutcome'>You WON</font><p>You bet: 3</strong></font> &nbsp; &nbsp; &nbsp; &nbsp; &nbsp; &nbsp;<font class='posOutcome'>you receive: <strong>6</strong></font></div>","null","8","Limin' Large","Fruit/lime.png","Won","0.65,0.2","11","0.65","98","23","",""
"html-keyboard-response","79","217805","0.0-11.0-1.23","63b6be60f23fd8e0399f668c","bdp_rwlrn","Wed Mar 15 2023 15:34:54 GMT-0400 (Eastern Daylight Time)","477424","Trustworthy,Untrustworthy","","","","decision","","1137","","<div class='trialDiv'><img src='Fruit/bananas.png'><br><font class='baseline'><strong>Banana Bonanza</strong><p>Choose number of points to bet.</font><div class='respPicDiv'><img src='img/responseButtonOffersNo0L.png' class='respPic'></div></div>","3","8","Banana Bonanza","Fruit/bananas.png","Won","0.2,0.65","8","0.2","103","24","",""
"html-keyboard-response","80","218058","0.0-11.0-2.23","63b6be60f23fd8e0399f668c","bdp_rwlrn","Wed Mar 15 2023 15:34:54 GMT-0400 (Eastern Daylight Time)","477424","Trustworthy,Untrustworthy","","","","decisionFB","","null","","<div class='trialDiv'><img src='Fruit/bananas.png'><br><font class='baseline'><strong>Banana Bonanza</strong><p>Choose number of points to bet.</font><div class='respPicDiv'><img src='img/responseButtonOffersNo0L3.png' class='respPic'></div></div>","null","8","Banana Bonanza","Fruit/bananas.png","Won","0.2,0.65","8","0.2","100","24","",""
"html-keyboard-response","81","219065","0.0-11.0-3.23","63b6be60f23fd8e0399f668c","bdp_rwlrn","Wed Mar 15 2023 15:34:54 GMT-0400 (Eastern Daylight Time)","477424","Trustworthy,Untrustworthy","","","","feedback","","null","","<div class='respPicDiv'><img src='img/responseButtonOffersNo0_wht.png' class='respPic'></div><div class='trialDiv'><img src='Fruit/bananas.png'><br><font class='baseline'><strong>Banana Bonanza</strong><p><strong><font class='posOutcome'>You WON</font><p>You bet: 3</strong></font> &nbsp; &nbsp; &nbsp; &nbsp; &nbsp; &nbsp;<font class='posOutcome'>you receive: <strong>6</strong></font></div>","null","8","Banana Bonanza","Fruit/bananas.png","Won","0.2,0.65","8","0.2","106","24","",""
"html-keyboard-response","82","219587","0.0-11.0-1.24","63b6be60f23fd8e0399f668c","bdp_rwlrn","Wed Mar 15 2023 15:34:54 GMT-0400 (Eastern Daylight Time)","477424","Trustworthy,Untrustworthy","","","","decision","","519","","<div class='trialDiv'><img src='Fruit/lime.png'><br><font class='baseline'><strong>Limin' Large</strong><p>Choose number of points to bet.</font><div class='respPicDiv'><img src='img/responseButtonOffersNo0L.png' class='respPic'></div></div>","2","9","Limin' Large","Fruit/lime.png","Won","0.65,0.2","11","0.65","111","25","",""
"html-keyboard-response","83","219843","0.0-11.0-2.24","63b6be60f23fd8e0399f668c","bdp_rwlrn","Wed Mar 15 2023 15:34:54 GMT-0400 (Eastern Daylight Time)","477424","Trustworthy,Untrustworthy","","","","decisionFB","","null","","<div class='trialDiv'><img src='Fruit/lime.png'><br><font class='baseline'><strong>Limin' Large</strong><p>Choose number of points to bet.</font><div class='respPicDiv'><img src='img/responseButtonOffersNo0L2.png' class='respPic'></div></div>","null","9","Limin' Large","Fruit/lime.png","Won","0.65,0.2","11","0.65","109","25","",""
"html-keyboard-response","84","220851","0.0-11.0-3.24","63b6be60f23fd8e0399f668c","bdp_rwlrn","Wed Mar 15 2023 15:34:54 GMT-0400 (Eastern Daylight Time)","477424","Trustworthy,Untrustworthy","","","","feedback","","null","","<div class='respPicDiv'><img src='img/responseButtonOffersNo0_wht.png' class='respPic'></div><div class='trialDiv'><img src='Fruit/lime.png'><br><font class='baseline'><strong>Limin' Large</strong><p><strong><font class='posOutcome'>You WON</font><p>You bet: 2</strong></font> &nbsp; &nbsp; &nbsp; &nbsp; &nbsp; &nbsp;<font class='posOutcome'>you receive: <strong>4</strong></font></div>","null","9","Limin' Large","Fruit/lime.png","Won","0.65,0.2","11","0.65","113","25","",""
"html-keyboard-response","85","221439","0.0-11.0-1.25","63b6be60f23fd8e0399f668c","bdp_rwlrn","Wed Mar 15 2023 15:34:54 GMT-0400 (Eastern Daylight Time)","477424","Trustworthy,Untrustworthy","","","","decision","","586","","<div class='trialDiv'><img src='Fruit/plums1.png'><br><font class='baseline'><strong>Plum Powerball</strong><p>Choose number of points to bet.</font><div class='respPicDiv'><img src='img/responseButtonOffersNo0L.png' class='respPic'></div></div>","2","9","Plum Powerball","Fruit/plums1.png","Lost","0.2,0.8","12","0.2","118","26","",""
"html-keyboard-response","86","221698","0.0-11.0-2.25","63b6be60f23fd8e0399f668c","bdp_rwlrn","Wed Mar 15 2023 15:34:54 GMT-0400 (Eastern Daylight Time)","477424","Trustworthy,Untrustworthy","","","","decisionFB","","null","","<div class='trialDiv'><img src='Fruit/plums1.png'><br><font class='baseline'><strong>Plum Powerball</strong><p>Choose number of points to bet.</font><div class='respPicDiv'><img src='img/responseButtonOffersNo0L2.png' class='respPic'></div></div>","null","9","Plum Powerball","Fruit/plums1.png","Lost","0.2,0.8","12","0.2","116","26","",""
"html-keyboard-response","87","222707","0.0-11.0-3.25","63b6be60f23fd8e0399f668c","bdp_rwlrn","Wed Mar 15 2023 15:34:54 GMT-0400 (Eastern Daylight Time)","477424","Trustworthy,Untrustworthy","","","","feedback","","null","","<div class='respPicDiv'><img src='img/responseButtonOffersNo0_wht.png' class='respPic'></div><div class='trialDiv'><img src='Fruit/plums1.png'><br><font class='baseline'><strong>Plum Powerball</strong><p><strong><font class='negOutcome'>You LOST</font><p>You bet: 2</strong></font> &nbsp; &nbsp; &nbsp; &nbsp; &nbsp; &nbsp;<font class='negOutcome'>You receive: <strong>0</strong></font></div>","null","9","Plum Powerball","Fruit/plums1.png","Lost","0.2,0.8","12","0.2","116","26","",""
"html-keyboard-response","88","223013","0.0-11.0-1.26","63b6be60f23fd8e0399f668c","bdp_rwlrn","Wed Mar 15 2023 15:34:54 GMT-0400 (Eastern Daylight Time)","477424","Trustworthy,Untrustworthy","","","","decision","","306","","<div class='trialDiv'><img src='Fruit/bananas.png'><br><font class='baseline'><strong>Banana Bonanza</strong><p>Choose number of points to bet.</font><div class='respPicDiv'><img src='img/responseButtonOffersNo0L.png' class='respPic'></div></div>","3","9","Banana Bonanza","Fruit/bananas.png","Won","0.2,0.65","8","0.2","121","27","",""
"html-keyboard-response","89","223267","0.0-11.0-2.26","63b6be60f23fd8e0399f668c","bdp_rwlrn","Wed Mar 15 2023 15:34:54 GMT-0400 (Eastern Daylight Time)","477424","Trustworthy,Untrustworthy","","","","decisionFB","","null","","<div class='trialDiv'><img src='Fruit/bananas.png'><br><font class='baseline'><strong>Banana Bonanza</strong><p>Choose number of points to bet.</font><div class='respPicDiv'><img src='img/responseButtonOffersNo0L3.png' class='respPic'></div></div>","null","9","Banana Bonanza","Fruit/bananas.png","Won","0.2,0.65","8","0.2","118","27","",""
"html-keyboard-response","90","224275","0.0-11.0-3.26","63b6be60f23fd8e0399f668c","bdp_rwlrn","Wed Mar 15 2023 15:34:54 GMT-0400 (Eastern Daylight Time)","477424","Trustworthy,Untrustworthy","","","","feedback","","null","","<div class='respPicDiv'><img src='img/responseButtonOffersNo0_wht.png' class='respPic'></div><div class='trialDiv'><img src='Fruit/bananas.png'><br><font class='baseline'><strong>Banana Bonanza</strong><p><strong><font class='posOutcome'>You WON</font><p>You bet: 3</strong></font> &nbsp; &nbsp; &nbsp; &nbsp; &nbsp; &nbsp;<font class='posOutcome'>you receive: <strong>6</strong></font></div>","null","9","Banana Bonanza","Fruit/bananas.png","Won","0.2,0.65","8","0.2","124","27","",""
"html-keyboard-response","91","224610","0.0-11.0-1.27","63b6be60f23fd8e0399f668c","bdp_rwlrn","Wed Mar 15 2023 15:34:54 GMT-0400 (Eastern Daylight Time)","477424","Trustworthy,Untrustworthy","","","","decision","","333","","<div class='trialDiv'><img src='Fruit/plums1.png'><br><font class='baseline'><strong>Plum Powerball</strong><p>Choose number of points to bet.</font><div class='respPicDiv'><img src='img/responseButtonOffersNo0L.png' class='respPic'></div></div>","3","10","Plum Powerball","Fruit/plums1.png","Lost","0.2,0.8","12","0.2","129","28","",""
"html-keyboard-response","92","224866","0.0-11.0-2.27","63b6be60f23fd8e0399f668c","bdp_rwlrn","Wed Mar 15 2023 15:34:54 GMT-0400 (Eastern Daylight Time)","477424","Trustworthy,Untrustworthy","","","","decisionFB","","null","","<div class='trialDiv'><img src='Fruit/plums1.png'><br><font class='baseline'><strong>Plum Powerball</strong><p>Choose number of points to bet.</font><div class='respPicDiv'><img src='img/responseButtonOffersNo0L3.png' class='respPic'></div></div>","null","10","Plum Powerball","Fruit/plums1.png","Lost","0.2,0.8","12","0.2","126","28","",""
"html-keyboard-response","93","225875","0.0-11.0-3.27","63b6be60f23fd8e0399f668c","bdp_rwlrn","Wed Mar 15 2023 15:34:54 GMT-0400 (Eastern Daylight Time)","477424","Trustworthy,Untrustworthy","","","","feedback","","null","","<div class='respPicDiv'><img src='img/responseButtonOffersNo0_wht.png' class='respPic'></div><div class='trialDiv'><img src='Fruit/plums1.png'><br><font class='baseline'><strong>Plum Powerball</strong><p><strong><font class='negOutcome'>You LOST</font><p>You bet: 3</strong></font> &nbsp; &nbsp; &nbsp; &nbsp; &nbsp; &nbsp;<font class='negOutcome'>You receive: <strong>0</strong></font></div>","null","10","Plum Powerball","Fruit/plums1.png","Lost","0.2,0.8","12","0.2","126","28","",""
"html-keyboard-response","94","226097","0.0-11.0-1.28","63b6be60f23fd8e0399f668c","bdp_rwlrn","Wed Mar 15 2023 15:34:54 GMT-0400 (Eastern Daylight Time)","477424","Trustworthy,Untrustworthy","","","","decision","","221","","<div class='trialDiv'><img src='Fruit/lime.png'><br><font class='baseline'><strong>Limin' Large</strong><p>Choose number of points to bet.</font><div class='respPicDiv'><img src='img/responseButtonOffersNo0L.png' class='respPic'></div></div>","5","10","Limin' Large","Fruit/lime.png","Won","0.65,0.2","11","0.65","131","29","",""
"html-keyboard-response","95","226355","0.0-11.0-2.28","63b6be60f23fd8e0399f668c","bdp_rwlrn","Wed Mar 15 2023 15:34:54 GMT-0400 (Eastern Daylight Time)","477424","Trustworthy,Untrustworthy","","","","decisionFB","","null","","<div class='trialDiv'><img src='Fruit/lime.png'><br><font class='baseline'><strong>Limin' Large</strong><p>Choose number of points to bet.</font><div class='respPicDiv'><img src='img/responseButtonOffersNo0L5.png' class='respPic'></div></div>","null","10","Limin' Large","Fruit/lime.png","Won","0.65,0.2","11","0.65","126","29","",""
"html-keyboard-response","96","227363","0.0-11.0-3.28","63b6be60f23fd8e0399f668c","bdp_rwlrn","Wed Mar 15 2023 15:34:54 GMT-0400 (Eastern Daylight Time)","477424","Trustworthy,Untrustworthy","","","","feedback","","null","","<div class='respPicDiv'><img src='img/responseButtonOffersNo0_wht.png' class='respPic'></div><div class='trialDiv'><img src='Fruit/lime.png'><br><font class='baseline'><strong>Limin' Large</strong><p><strong><font class='posOutcome'>You WON</font><p>You bet: 5</strong></font> &nbsp; &nbsp; &nbsp; &nbsp; &nbsp; &nbsp;<font class='posOutcome'>you receive: <strong>10</strong></font></div>","null","10","Limin' Large","Fruit/lime.png","Won","0.65,0.2","11","0.65","136","29","",""
"html-keyboard-response","97","227675","0.0-11.0-1.29","63b6be60f23fd8e0399f668c","bdp_rwlrn","Wed Mar 15 2023 15:34:54 GMT-0400 (Eastern Daylight Time)","477424","Trustworthy,Untrustworthy","","","","decision","","311","","<div class='trialDiv'><img src='Fruit/bananas.png'><br><font class='baseline'><strong>Banana Bonanza</strong><p>Choose number of points to bet.</font><div class='respPicDiv'><img src='img/responseButtonOffersNo0L.png' class='respPic'></div></div>","4","10","Banana Bonanza","Fruit/bananas.png","Won","0.2,0.65","8","0.2","141","30","",""
"html-keyboard-response","98","227931","0.0-11.0-2.29","63b6be60f23fd8e0399f668c","bdp_rwlrn","Wed Mar 15 2023 15:34:54 GMT-0400 (Eastern Daylight Time)","477424","Trustworthy,Untrustworthy","","","","decisionFB","","null","","<div class='trialDiv'><img src='Fruit/bananas.png'><br><font class='baseline'><strong>Banana Bonanza</strong><p>Choose number of points to bet.</font><div class='respPicDiv'><img src='img/responseButtonOffersNo0L4.png' class='respPic'></div></div>","null","10","Banana Bonanza","Fruit/bananas.png","Won","0.2,0.65","8","0.2","137","30","",""
"html-keyboard-response","99","228937","0.0-11.0-3.29","63b6be60f23fd8e0399f668c","bdp_rwlrn","Wed Mar 15 2023 15:34:54 GMT-0400 (Eastern Daylight Time)","477424","Trustworthy,Untrustworthy","","","","feedback","","null","","<div class='respPicDiv'><img src='img/responseButtonOffersNo0_wht.png' class='respPic'></div><div class='trialDiv'><img src='Fruit/bananas.png'><br><font class='baseline'><strong>Banana Bonanza</strong><p><strong><font class='posOutcome'>You WON</font><p>You bet: 4</strong></font> &nbsp; &nbsp; &nbsp; &nbsp; &nbsp; &nbsp;<font class='posOutcome'>you receive: <strong>8</strong></font></div>","null","10","Banana Bonanza","Fruit/bananas.png","Won","0.2,0.65","8","0.2","145","30","",""
"html-keyboard-response","100","229230","0.0-11.0-1.30","63b6be60f23fd8e0399f668c","bdp_rwlrn","Wed Mar 15 2023 15:34:54 GMT-0400 (Eastern Daylight Time)","477424","Trustworthy,Untrustworthy","","","","decision","","291","","<div class='trialDiv'><img src='Fruit/plums1.png'><br><font class='baseline'><strong>Plum Powerball</strong><p>Choose number of points to bet.</font><div class='respPicDiv'><img src='img/responseButtonOffersNo0L.png' class='respPic'></div></div>","5","11","Plum Powerball","Fruit/plums1.png","Lost","0.2,0.8","12","0.2","150","31","",""
"html-keyboard-response","101","229490","0.0-11.0-2.30","63b6be60f23fd8e0399f668c","bdp_rwlrn","Wed Mar 15 2023 15:34:54 GMT-0400 (Eastern Daylight Time)","477424","Trustworthy,Untrustworthy","","","","decisionFB","","null","","<div class='trialDiv'><img src='Fruit/plums1.png'><br><font class='baseline'><strong>Plum Powerball</strong><p>Choose number of points to bet.</font><div class='respPicDiv'><img src='img/responseButtonOffersNo0L5.png' class='respPic'></div></div>","null","11","Plum Powerball","Fruit/plums1.png","Lost","0.2,0.8","12","0.2","145","31","",""
"html-keyboard-response","102","230498","0.0-11.0-3.30","63b6be60f23fd8e0399f668c","bdp_rwlrn","Wed Mar 15 2023 15:34:54 GMT-0400 (Eastern Daylight Time)","477424","Trustworthy,Untrustworthy","","","","feedback","","null","","<div class='respPicDiv'><img src='img/responseButtonOffersNo0_wht.png' class='respPic'></div><div class='trialDiv'><img src='Fruit/plums1.png'><br><font class='baseline'><strong>Plum Powerball</strong><p><strong><font class='negOutcome'>You LOST</font><p>You bet: 5</strong></font> &nbsp; &nbsp; &nbsp; &nbsp; &nbsp; &nbsp;<font class='negOutcome'>You receive: <strong>0</strong></font></div>","null","11","Plum Powerball","Fruit/plums1.png","Lost","0.2,0.8","12","0.2","145","31","",""
"html-keyboard-response","103","230709","0.0-11.0-1.31","63b6be60f23fd8e0399f668c","bdp_rwlrn","Wed Mar 15 2023 15:34:54 GMT-0400 (Eastern Daylight Time)","477424","Trustworthy,Untrustworthy","","","","decision","","210","","<div class='trialDiv'><img src='Fruit/bananas.png'><br><font class='baseline'><strong>Banana Bonanza</strong><p>Choose number of points to bet.</font><div class='respPicDiv'><img src='img/responseButtonOffersNo0L.png' class='respPic'></div></div>","2","11","Banana Bonanza","Fruit/bananas.png","Won","0.2,0.65","8","0.2","150","32","",""
"html-keyboard-response","104","230971","0.0-11.0-2.31","63b6be60f23fd8e0399f668c","bdp_rwlrn","Wed Mar 15 2023 15:34:54 GMT-0400 (Eastern Daylight Time)","477424","Trustworthy,Untrustworthy","","","","decisionFB","","null","","<div class='trialDiv'><img src='Fruit/bananas.png'><br><font class='baseline'><strong>Banana Bonanza</strong><p>Choose number of points to bet.</font><div class='respPicDiv'><img src='img/responseButtonOffersNo0L2.png' class='respPic'></div></div>","null","11","Banana Bonanza","Fruit/bananas.png","Won","0.2,0.65","8","0.2","148","32","",""
"html-keyboard-response","105","231979","0.0-11.0-3.31","63b6be60f23fd8e0399f668c","bdp_rwlrn","Wed Mar 15 2023 15:34:54 GMT-0400 (Eastern Daylight Time)","477424","Trustworthy,Untrustworthy","","","","feedback","","null","","<div class='respPicDiv'><img src='img/responseButtonOffersNo0_wht.png' class='respPic'></div><div class='trialDiv'><img src='Fruit/bananas.png'><br><font class='baseline'><strong>Banana Bonanza</strong><p><strong><font class='posOutcome'>You WON</font><p>You bet: 2</strong></font> &nbsp; &nbsp; &nbsp; &nbsp; &nbsp; &nbsp;<font class='posOutcome'>you receive: <strong>4</strong></font></div>","null","11","Banana Bonanza","Fruit/bananas.png","Won","0.2,0.65","8","0.2","152","32","",""
"html-keyboard-response","106","232225","0.0-11.0-1.32","63b6be60f23fd8e0399f668c","bdp_rwlrn","Wed Mar 15 2023 15:34:54 GMT-0400 (Eastern Daylight Time)","477424","Trustworthy,Untrustworthy","","","","decision","","245","","<div class='trialDiv'><img src='Fruit/lime.png'><br><font class='baseline'><strong>Limin' Large</strong><p>Choose number of points to bet.</font><div class='respPicDiv'><img src='img/responseButtonOffersNo0L.png' class='respPic'></div></div>","2","11","Limin' Large","Fruit/lime.png","Lost","0.65,0.2","11","0.65","157","33","",""
"html-keyboard-response","107","232484","0.0-11.0-2.32","63b6be60f23fd8e0399f668c","bdp_rwlrn","Wed Mar 15 2023 15:34:54 GMT-0400 (Eastern Daylight Time)","477424","Trustworthy,Untrustworthy","","","","decisionFB","","null","","<div class='trialDiv'><img src='Fruit/lime.png'><br><font class='baseline'><strong>Limin' Large</strong><p>Choose number of points to bet.</font><div class='respPicDiv'><img src='img/responseButtonOffersNo0L2.png' class='respPic'></div></div>","null","11","Limin' Large","Fruit/lime.png","Lost","0.65,0.2","11","0.65","155","33","",""
"html-keyboard-response","108","233491","0.0-11.0-3.32","63b6be60f23fd8e0399f668c","bdp_rwlrn","Wed Mar 15 2023 15:34:54 GMT-0400 (Eastern Daylight Time)","477424","Trustworthy,Untrustworthy","","","","feedback","","null","","<div class='respPicDiv'><img src='img/responseButtonOffersNo0_wht.png' class='respPic'></div><div class='trialDiv'><img src='Fruit/lime.png'><br><font class='baseline'><strong>Limin' Large</strong><p><strong><font class='negOutcome'>You LOST</font><p>You bet: 2</strong></font> &nbsp; &nbsp; &nbsp; &nbsp; &nbsp; &nbsp;<font class='negOutcome'>You receive: <strong>0</strong></font></div>","null","11","Limin' Large","Fruit/lime.png","Lost","0.65,0.2","11","0.65","155","33","",""
"html-keyboard-response","109","233715","0.0-11.0-1.33","63b6be60f23fd8e0399f668c","bdp_rwlrn","Wed Mar 15 2023 15:34:54 GMT-0400 (Eastern Daylight Time)","477424","Trustworthy,Untrustworthy","","","","decision","","221","","<div class='trialDiv'><img src='Fruit/bananas.png'><br><font class='baseline'><strong>Banana Bonanza</strong><p>Choose number of points to bet.</font><div class='respPicDiv'><img src='img/responseButtonOffersNo0L.png' class='respPic'></div></div>","3","12","Banana Bonanza","Fruit/bananas.png","Won","0.2,0.65","8","0.2","160","34","",""
"html-keyboard-response","110","233970","0.0-11.0-2.33","63b6be60f23fd8e0399f668c","bdp_rwlrn","Wed Mar 15 2023 15:34:54 GMT-0400 (Eastern Daylight Time)","477424","Trustworthy,Untrustworthy","","","","decisionFB","","null","","<div class='trialDiv'><img src='Fruit/bananas.png'><br><font class='baseline'><strong>Banana Bonanza</strong><p>Choose number of points to bet.</font><div class='respPicDiv'><img src='img/responseButtonOffersNo0L3.png' class='respPic'></div></div>","null","12","Banana Bonanza","Fruit/bananas.png","Won","0.2,0.65","8","0.2","157","34","",""
"html-keyboard-response","111","234979","0.0-11.0-3.33","63b6be60f23fd8e0399f668c","bdp_rwlrn","Wed Mar 15 2023 15:34:54 GMT-0400 (Eastern Daylight Time)","477424","Trustworthy,Untrustworthy","","","","feedback","","null","","<div class='respPicDiv'><img src='img/responseButtonOffersNo0_wht.png' class='respPic'></div><div class='trialDiv'><img src='Fruit/bananas.png'><br><font class='baseline'><strong>Banana Bonanza</strong><p><strong><font class='posOutcome'>You WON</font><p>You bet: 3</strong></font> &nbsp; &nbsp; &nbsp; &nbsp; &nbsp; &nbsp;<font class='posOutcome'>you receive: <strong>6</strong></font></div>","null","12","Banana Bonanza","Fruit/bananas.png","Won","0.2,0.65","8","0.2","163","34","",""
"html-keyboard-response","112","235220","0.0-11.0-1.34","63b6be60f23fd8e0399f668c","bdp_rwlrn","Wed Mar 15 2023 15:34:54 GMT-0400 (Eastern Daylight Time)","477424","Trustworthy,Untrustworthy","","","","decision","","239","","<div class='trialDiv'><img src='Fruit/plums1.png'><br><font class='baseline'><strong>Plum Powerball</strong><p>Choose number of points to bet.</font><div class='respPicDiv'><img src='img/responseButtonOffersNo0L.png' class='respPic'></div></div>","1","12","Plum Powerball","Fruit/plums1.png","Won","0.2,0.8","12","0.2","168","35","",""
"html-keyboard-response","113","235473","0.0-11.0-2.34","63b6be60f23fd8e0399f668c","bdp_rwlrn","Wed Mar 15 2023 15:34:54 GMT-0400 (Eastern Daylight Time)","477424","Trustworthy,Untrustworthy","","","","decisionFB","","null","","<div class='trialDiv'><img src='Fruit/plums1.png'><br><font class='baseline'><strong>Plum Powerball</strong><p>Choose number of points to bet.</font><div class='respPicDiv'><img src='img/responseButtonOffersNo0L1.png' class='respPic'></div></div>","null","12","Plum Powerball","Fruit/plums1.png","Won","0.2,0.8","12","0.2","167","35","",""
"html-keyboard-response","114","236483","0.0-11.0-3.34","63b6be60f23fd8e0399f668c","bdp_rwlrn","Wed Mar 15 2023 15:34:54 GMT-0400 (Eastern Daylight Time)","477424","Trustworthy,Untrustworthy","","","","feedback","","null","","<div class='respPicDiv'><img src='img/responseButtonOffersNo0_wht.png' class='respPic'></div><div class='trialDiv'><img src='Fruit/plums1.png'><br><font class='baseline'><strong>Plum Powerball</strong><p><strong><font class='posOutcome'>You WON</font><p>You bet: 1</strong></font> &nbsp; &nbsp; &nbsp; &nbsp; &nbsp; &nbsp;<font class='posOutcome'>you receive: <strong>2</strong></font></div>","null","12","Plum Powerball","Fruit/plums1.png","Won","0.2,0.8","12","0.2","169","35","",""
"html-keyboard-response","115","236576","0.0-11.0-1.35","63b6be60f23fd8e0399f668c","bdp_rwlrn","Wed Mar 15 2023 15:34:54 GMT-0400 (Eastern Daylight Time)","477424","Trustworthy,Untrustworthy","","","","decision","","91","","<div class='trialDiv'><img src='Fruit/lime.png'><br><font class='baseline'><strong>Limin' Large</strong><p>Choose number of points to bet.</font><div class='respPicDiv'><img src='img/responseButtonOffersNo0L.png' class='respPic'></div></div>","4","12","Limin' Large","Fruit/lime.png","Lost","0.65,0.2","11","0.65","174","36","",""
"html-keyboard-response","116","236834","0.0-11.0-2.35","63b6be60f23fd8e0399f668c","bdp_rwlrn","Wed Mar 15 2023 15:34:54 GMT-0400 (Eastern Daylight Time)","477424","Trustworthy,Untrustworthy","","","","decisionFB","","null","","<div class='trialDiv'><img src='Fruit/lime.png'><br><font class='baseline'><strong>Limin' Large</strong><p>Choose number of points to bet.</font><div class='respPicDiv'><img src='img/responseButtonOffersNo0L4.png' class='respPic'></div></div>","null","12","Limin' Large","Fruit/lime.png","Lost","0.65,0.2","11","0.65","170","36","",""
"html-keyboard-response","117","237843","0.0-11.0-3.35","63b6be60f23fd8e0399f668c","bdp_rwlrn","Wed Mar 15 2023 15:34:54 GMT-0400 (Eastern Daylight Time)","477424","Trustworthy,Untrustworthy","","","","feedback","","null","","<div class='respPicDiv'><img src='img/responseButtonOffersNo0_wht.png' class='respPic'></div><div class='trialDiv'><img src='Fruit/lime.png'><br><font class='baseline'><strong>Limin' Large</strong><p><strong><font class='negOutcome'>You LOST</font><p>You bet: 4</strong></font> &nbsp; &nbsp; &nbsp; &nbsp; &nbsp; &nbsp;<font class='negOutcome'>You receive: <strong>0</strong></font></div>","null","12","Limin' Large","Fruit/lime.png","Lost","0.65,0.2","11","0.65","170","36","",""
"html-keyboard-response","118","237946","0.0-11.0-1.36","63b6be60f23fd8e0399f668c","bdp_rwlrn","Wed Mar 15 2023 15:34:54 GMT-0400 (Eastern Daylight Time)","477424","Trustworthy,Untrustworthy","","","","decision","","102","","<div class='trialDiv'><img src='Fruit/bananas.png'><br><font class='baseline'><strong>Banana Bonanza</strong><p>Choose number of points to bet.</font><div class='respPicDiv'><img src='img/responseButtonOffersNo0L.png' class='respPic'></div></div>","3","13","Banana Bonanza","Fruit/bananas.png","Won","0.2,0.65","8","0.2","175","37","",""
"html-keyboard-response","119","238203","0.0-11.0-2.36","63b6be60f23fd8e0399f668c","bdp_rwlrn","Wed Mar 15 2023 15:34:54 GMT-0400 (Eastern Daylight Time)","477424","Trustworthy,Untrustworthy","","","","decisionFB","","null","","<div class='trialDiv'><img src='Fruit/bananas.png'><br><font class='baseline'><strong>Banana Bonanza</strong><p>Choose number of points to bet.</font><div class='respPicDiv'><img src='img/responseButtonOffersNo0L3.png' class='respPic'></div></div>","null","13","Banana Bonanza","Fruit/bananas.png","Won","0.2,0.65","8","0.2","172","37","",""
"html-keyboard-response","120","239211","0.0-11.0-3.36","63b6be60f23fd8e0399f668c","bdp_rwlrn","Wed Mar 15 2023 15:34:54 GMT-0400 (Eastern Daylight Time)","477424","Trustworthy,Untrustworthy","","","","feedback","","null","","<div class='respPicDiv'><img src='img/responseButtonOffersNo0_wht.png' class='respPic'></div><div class='trialDiv'><img src='Fruit/bananas.png'><br><font class='baseline'><strong>Banana Bonanza</strong><p><strong><font class='posOutcome'>You WON</font><p>You bet: 3</strong></font> &nbsp; &nbsp; &nbsp; &nbsp; &nbsp; &nbsp;<font class='posOutcome'>you receive: <strong>6</strong></font></div>","null","13","Banana Bonanza","Fruit/bananas.png","Won","0.2,0.65","8","0.2","178","37","",""
"html-keyboard-response","121","239326","0.0-11.0-1.37","63b6be60f23fd8e0399f668c","bdp_rwlrn","Wed Mar 15 2023 15:34:54 GMT-0400 (Eastern Daylight Time)","477424","Trustworthy,Untrustworthy","","","","decision","","112","","<div class='trialDiv'><img src='Fruit/plums1.png'><br><font class='baseline'><strong>Plum Powerball</strong><p>Choose number of points to bet.</font><div class='respPicDiv'><img src='img/responseButtonOffersNo0L.png' class='respPic'></div></div>","2","13","Plum Powerball","Fruit/plums1.png","Lost","0.2,0.8","12","0.2","183","38","",""
"html-keyboard-response","122","239579","0.0-11.0-2.37","63b6be60f23fd8e0399f668c","bdp_rwlrn","Wed Mar 15 2023 15:34:54 GMT-0400 (Eastern Daylight Time)","477424","Trustworthy,Untrustworthy","","","","decisionFB","","null","","<div class='trialDiv'><img src='Fruit/plums1.png'><br><font class='baseline'><strong>Plum Powerball</strong><p>Choose number of points to bet.</font><div class='respPicDiv'><img src='img/responseButtonOffersNo0L2.png' class='respPic'></div></div>","null","13","Plum Powerball","Fruit/plums1.png","Lost","0.2,0.8","12","0.2","181","38","",""
"html-keyboard-response","123","240586","0.0-11.0-3.37","63b6be60f23fd8e0399f668c","bdp_rwlrn","Wed Mar 15 2023 15:34:54 GMT-0400 (Eastern Daylight Time)","477424","Trustworthy,Untrustworthy","","","","feedback","","null","","<div class='respPicDiv'><img src='img/responseButtonOffersNo0_wht.png' class='respPic'></div><div class='trialDiv'><img src='Fruit/plums1.png'><br><font class='baseline'><strong>Plum Powerball</strong><p><strong><font class='negOutcome'>You LOST</font><p>You bet: 2</strong></font> &nbsp; &nbsp; &nbsp; &nbsp; &nbsp; &nbsp;<font class='negOutcome'>You receive: <strong>0</strong></font></div>","null","13","Plum Powerball","Fruit/plums1.png","Lost","0.2,0.8","12","0.2","181","38","",""
"html-keyboard-response","124","240745","0.0-11.0-1.38","63b6be60f23fd8e0399f668c","bdp_rwlrn","Wed Mar 15 2023 15:34:54 GMT-0400 (Eastern Daylight Time)","477424","Trustworthy,Untrustworthy","","","","decision","","158","","<div class='trialDiv'><img src='Fruit/lime.png'><br><font class='baseline'><strong>Limin' Large</strong><p>Choose number of points to bet.</font><div class='respPicDiv'><img src='img/responseButtonOffersNo0L.png' class='respPic'></div></div>","4","13","Limin' Large","Fruit/lime.png","Lost","0.65,0.2","11","0.65","186","39","",""
"html-keyboard-response","125","241003","0.0-11.0-2.38","63b6be60f23fd8e0399f668c","bdp_rwlrn","Wed Mar 15 2023 15:34:54 GMT-0400 (Eastern Daylight Time)","477424","Trustworthy,Untrustworthy","","","","decisionFB","","null","","<div class='trialDiv'><img src='Fruit/lime.png'><br><font class='baseline'><strong>Limin' Large</strong><p>Choose number of points to bet.</font><div class='respPicDiv'><img src='img/responseButtonOffersNo0L4.png' class='respPic'></div></div>","null","13","Limin' Large","Fruit/lime.png","Lost","0.65,0.2","11","0.65","182","39","",""
"html-keyboard-response","126","242012","0.0-11.0-3.38","63b6be60f23fd8e0399f668c","bdp_rwlrn","Wed Mar 15 2023 15:34:54 GMT-0400 (Eastern Daylight Time)","477424","Trustworthy,Untrustworthy","","","","feedback","","null","","<div class='respPicDiv'><img src='img/responseButtonOffersNo0_wht.png' class='respPic'></div><div class='trialDiv'><img src='Fruit/lime.png'><br><font class='baseline'><strong>Limin' Large</strong><p><strong><font class='negOutcome'>You LOST</font><p>You bet: 4</strong></font> &nbsp; &nbsp; &nbsp; &nbsp; &nbsp; &nbsp;<font class='negOutcome'>You receive: <strong>0</strong></font></div>","null","13","Limin' Large","Fruit/lime.png","Lost","0.65,0.2","11","0.65","182","39","",""
"html-keyboard-response","127","242190","0.0-11.0-1.39","63b6be60f23fd8e0399f668c","bdp_rwlrn","Wed Mar 15 2023 15:34:54 GMT-0400 (Eastern Daylight Time)","477424","Trustworthy,Untrustworthy","","","","decision","","177","","<div class='trialDiv'><img src='Fruit/bananas.png'><br><font class='baseline'><strong>Banana Bonanza</strong><p>Choose number of points to bet.</font><div class='respPicDiv'><img src='img/responseButtonOffersNo0L.png' class='respPic'></div></div>","4","14","Banana Bonanza","Fruit/bananas.png","Won","0.2,0.65","8","0.2","187","40","",""
"html-keyboard-response","128","242450","0.0-11.0-2.39","63b6be60f23fd8e0399f668c","bdp_rwlrn","Wed Mar 15 2023 15:34:54 GMT-0400 (Eastern Daylight Time)","477424","Trustworthy,Untrustworthy","","","","decisionFB","","null","","<div class='trialDiv'><img src='Fruit/bananas.png'><br><font class='baseline'><strong>Banana Bonanza</strong><p>Choose number of points to bet.</font><div class='respPicDiv'><img src='img/responseButtonOffersNo0L4.png' class='respPic'></div></div>","null","14","Banana Bonanza","Fruit/bananas.png","Won","0.2,0.65","8","0.2","183","40","",""
"html-keyboard-response","129","243459","0.0-11.0-3.39","63b6be60f23fd8e0399f668c","bdp_rwlrn","Wed Mar 15 2023 15:34:54 GMT-0400 (Eastern Daylight Time)","477424","Trustworthy,Untrustworthy","","","","feedback","","null","","<div class='respPicDiv'><img src='img/responseButtonOffersNo0_wht.png' class='respPic'></div><div class='trialDiv'><img src='Fruit/bananas.png'><br><font class='baseline'><strong>Banana Bonanza</strong><p><strong><font class='posOutcome'>You WON</font><p>You bet: 4</strong></font> &nbsp; &nbsp; &nbsp; &nbsp; &nbsp; &nbsp;<font class='posOutcome'>you receive: <strong>8</strong></font></div>","null","14","Banana Bonanza","Fruit/bananas.png","Won","0.2,0.65","8","0.2","191","40","",""
"html-keyboard-response","130","243576","0.0-11.0-1.40","63b6be60f23fd8e0399f668c","bdp_rwlrn","Wed Mar 15 2023 15:34:54 GMT-0400 (Eastern Daylight Time)","477424","Trustworthy,Untrustworthy","","","","decision","","115","","<div class='trialDiv'><img src='Fruit/lime.png'><br><font class='baseline'><strong>Limin' Large</strong><p>Choose number of points to bet.</font><div class='respPicDiv'><img src='img/responseButtonOffersNo0L.png' class='respPic'></div></div>","5","14","Limin' Large","Fruit/lime.png","Lost","0.65,0.2","11","0.65","196","41","",""
"html-keyboard-response","131","243834","0.0-11.0-2.40","63b6be60f23fd8e0399f668c","bdp_rwlrn","Wed Mar 15 2023 15:34:54 GMT-0400 (Eastern Daylight Time)","477424","Trustworthy,Untrustworthy","","","","decisionFB","","null","","<div class='trialDiv'><img src='Fruit/lime.png'><br><font class='baseline'><strong>Limin' Large</strong><p>Choose number of points to bet.</font><div class='respPicDiv'><img src='img/responseButtonOffersNo0L5.png' class='respPic'></div></div>","null","14","Limin' Large","Fruit/lime.png","Lost","0.65,0.2","11","0.65","191","41","",""
"html-keyboard-response","132","244844","0.0-11.0-3.40","63b6be60f23fd8e0399f668c","bdp_rwlrn","Wed Mar 15 2023 15:34:54 GMT-0400 (Eastern Daylight Time)","477424","Trustworthy,Untrustworthy","","","","feedback","","null","","<div class='respPicDiv'><img src='img/responseButtonOffersNo0_wht.png' class='respPic'></div><div class='trialDiv'><img src='Fruit/lime.png'><br><font class='baseline'><strong>Limin' Large</strong><p><strong><font class='negOutcome'>You LOST</font><p>You bet: 5</strong></font> &nbsp; &nbsp; &nbsp; &nbsp; &nbsp; &nbsp;<font class='negOutcome'>You receive: <strong>0</strong></font></div>","null","14","Limin' Large","Fruit/lime.png","Lost","0.65,0.2","11","0.65","191","41","",""
"html-keyboard-response","133","244870","0.0-11.0-1.41","63b6be60f23fd8e0399f668c","bdp_rwlrn","Wed Mar 15 2023 15:34:54 GMT-0400 (Eastern Daylight Time)","477424","Trustworthy,Untrustworthy","","","","decision","","25","","<div class='trialDiv'><img src='Fruit/plums1.png'><br><font class='baseline'><strong>Plum Powerball</strong><p>Choose number of points to bet.</font><div class='respPicDiv'><img src='img/responseButtonOffersNo0L.png' class='respPic'></div></div>","2","14","Plum Powerball","Fruit/plums1.png","Lost","0.2,0.8","12","0.2","196","42","",""
"html-keyboard-response","134","245130","0.0-11.0-2.41","63b6be60f23fd8e0399f668c","bdp_rwlrn","Wed Mar 15 2023 15:34:54 GMT-0400 (Eastern Daylight Time)","477424","Trustworthy,Untrustworthy","","","","decisionFB","","null","","<div class='trialDiv'><img src='Fruit/plums1.png'><br><font class='baseline'><strong>Plum Powerball</strong><p>Choose number of points to bet.</font><div class='respPicDiv'><img src='img/responseButtonOffersNo0L2.png' class='respPic'></div></div>","null","14","Plum Powerball","Fruit/plums1.png","Lost","0.2,0.8","12","0.2","194","42","",""
"html-keyboard-response","135","246139","0.0-11.0-3.41","63b6be60f23fd8e0399f668c","bdp_rwlrn","Wed Mar 15 2023 15:34:54 GMT-0400 (Eastern Daylight Time)","477424","Trustworthy,Untrustworthy","","","","feedback","","null","","<div class='respPicDiv'><img src='img/responseButtonOffersNo0_wht.png' class='respPic'></div><div class='trialDiv'><img src='Fruit/plums1.png'><br><font class='baseline'><strong>Plum Powerball</strong><p><strong><font class='negOutcome'>You LOST</font><p>You bet: 2</strong></font> &nbsp; &nbsp; &nbsp; &nbsp; &nbsp; &nbsp;<font class='negOutcome'>You receive: <strong>0</strong></font></div>","null","14","Plum Powerball","Fruit/plums1.png","Lost","0.2,0.8","12","0.2","194","42","",""
"html-keyboard-response","136","246424","0.0-11.0-1.42","63b6be60f23fd8e0399f668c","bdp_rwlrn","Wed Mar 15 2023 15:34:54 GMT-0400 (Eastern Daylight Time)","477424","Trustworthy,Untrustworthy","","","","decision","","284","","<div class='trialDiv'><img src='Fruit/lime.png'><br><font class='baseline'><strong>Limin' Large</strong><p>Choose number of points to bet.</font><div class='respPicDiv'><img src='img/responseButtonOffersNo0L.png' class='respPic'></div></div>","4","15","Limin' Large","Fruit/lime.png","Won","0.65,0.2","11","0.65","199","43","",""
"html-keyboard-response","137","246682","0.0-11.0-2.42","63b6be60f23fd8e0399f668c","bdp_rwlrn","Wed Mar 15 2023 15:34:54 GMT-0400 (Eastern Daylight Time)","477424","Trustworthy,Untrustworthy","","","","decisionFB","","null","","<div class='trialDiv'><img src='Fruit/lime.png'><br><font class='baseline'><strong>Limin' Large</strong><p>Choose number of points to bet.</font><div class='respPicDiv'><img src='img/responseButtonOffersNo0L4.png' class='respPic'></div></div>","null","15","Limin' Large","Fruit/lime.png","Won","0.65,0.2","11","0.65","195","43","",""
"html-keyboard-response","138","247690","0.0-11.0-3.42","63b6be60f23fd8e0399f668c","bdp_rwlrn","Wed Mar 15 2023 15:34:54 GMT-0400 (Eastern Daylight Time)","477424","Trustworthy,Untrustworthy","","","","feedback","","null","","<div class='respPicDiv'><img src='img/responseButtonOffersNo0_wht.png' class='respPic'></div><div class='trialDiv'><img src='Fruit/lime.png'><br><font class='baseline'><strong>Limin' Large</strong><p><strong><font class='posOutcome'>You WON</font><p>You bet: 4</strong></font> &nbsp; &nbsp; &nbsp; &nbsp; &nbsp; &nbsp;<font class='posOutcome'>you receive: <strong>8</strong></font></div>","null","15","Limin' Large","Fruit/lime.png","Won","0.65,0.2","11","0.65","203","43","",""
"html-keyboard-response","139","248267","0.0-11.0-1.43","63b6be60f23fd8e0399f668c","bdp_rwlrn","Wed Mar 15 2023 15:34:54 GMT-0400 (Eastern Daylight Time)","477424","Trustworthy,Untrustworthy","","","","decision","","576","","<div class='trialDiv'><img src='Fruit/plums1.png'><br><font class='baseline'><strong>Plum Powerball</strong><p>Choose number of points to bet.</font><div class='respPicDiv'><img src='img/responseButtonOffersNo0L.png' class='respPic'></div></div>","3","15","Plum Powerball","Fruit/plums1.png","Won","0.2,0.8","12","0.2","208","44","",""
"html-keyboard-response","140","248523","0.0-11.0-2.43","63b6be60f23fd8e0399f668c","bdp_rwlrn","Wed Mar 15 2023 15:34:54 GMT-0400 (Eastern Daylight Time)","477424","Trustworthy,Untrustworthy","","","","decisionFB","","null","","<div class='trialDiv'><img src='Fruit/plums1.png'><br><font class='baseline'><strong>Plum Powerball</strong><p>Choose number of points to bet.</font><div class='respPicDiv'><img src='img/responseButtonOffersNo0L3.png' class='respPic'></div></div>","null","15","Plum Powerball","Fruit/plums1.png","Won","0.2,0.8","12","0.2","205","44","",""
"html-keyboard-response","141","249531","0.0-11.0-3.43","63b6be60f23fd8e0399f668c","bdp_rwlrn","Wed Mar 15 2023 15:34:54 GMT-0400 (Eastern Daylight Time)","477424","Trustworthy,Untrustworthy","","","","feedback","","null","","<div class='respPicDiv'><img src='img/responseButtonOffersNo0_wht.png' class='respPic'></div><div class='trialDiv'><img src='Fruit/plums1.png'><br><font class='baseline'><strong>Plum Powerball</strong><p><strong><font class='posOutcome'>You WON</font><p>You bet: 3</strong></font> &nbsp; &nbsp; &nbsp; &nbsp; &nbsp; &nbsp;<font class='posOutcome'>you receive: <strong>6</strong></font></div>","null","15","Plum Powerball","Fruit/plums1.png","Won","0.2,0.8","12","0.2","211","44","",""
"html-keyboard-response","142","249787","0.0-11.0-1.44","63b6be60f23fd8e0399f668c","bdp_rwlrn","Wed Mar 15 2023 15:34:54 GMT-0400 (Eastern Daylight Time)","477424","Trustworthy,Untrustworthy","","","","decision","","255","","<div class='trialDiv'><img src='Fruit/bananas.png'><br><font class='baseline'><strong>Banana Bonanza</strong><p>Choose number of points to bet.</font><div class='respPicDiv'><img src='img/responseButtonOffersNo0L.png' class='respPic'></div></div>","2","15","Banana Bonanza","Fruit/bananas.png","Lost","0.2,0.65","8","0.2","216","45","",""
"html-keyboard-response","143","250045","0.0-11.0-2.44","63b6be60f23fd8e0399f668c","bdp_rwlrn","Wed Mar 15 2023 15:34:54 GMT-0400 (Eastern Daylight Time)","477424","Trustworthy,Untrustworthy","","","","decisionFB","","null","","<div class='trialDiv'><img src='Fruit/bananas.png'><br><font class='baseline'><strong>Banana Bonanza</strong><p>Choose number of points to bet.</font><div class='respPicDiv'><img src='img/responseButtonOffersNo0L2.png' class='respPic'></div></div>","null","15","Banana Bonanza","Fruit/bananas.png","Lost","0.2,0.65","8","0.2","214","45","",""
"html-keyboard-response","144","251051","0.0-11.0-3.44","63b6be60f23fd8e0399f668c","bdp_rwlrn","Wed Mar 15 2023 15:34:54 GMT-0400 (Eastern Daylight Time)","477424","Trustworthy,Untrustworthy","","","","feedback","","null","","<div class='respPicDiv'><img src='img/responseButtonOffersNo0_wht.png' class='respPic'></div><div class='trialDiv'><img src='Fruit/bananas.png'><br><font class='baseline'><strong>Banana Bonanza</strong><p><strong><font class='negOutcome'>You LOST</font><p>You bet: 2</strong></font> &nbsp; &nbsp; &nbsp; &nbsp; &nbsp; &nbsp;<font class='negOutcome'>You receive: <strong>0</strong></font></div>","null","15","Banana Bonanza","Fruit/bananas.png","Lost","0.2,0.65","8","0.2","214","45","",""
"html-keyboard-response","145","251432","0.0-11.0-1.45","63b6be60f23fd8e0399f668c","bdp_rwlrn","Wed Mar 15 2023 15:34:54 GMT-0400 (Eastern Daylight Time)","477424","Trustworthy,Untrustworthy","","","","decision","","378","","<div class='trialDiv'><img src='Fruit/plums1.png'><br><font class='baseline'><strong>Plum Powerball</strong><p>Choose number of points to bet.</font><div class='respPicDiv'><img src='img/responseButtonOffersNo0L.png' class='respPic'></div></div>","1","16","Plum Powerball","Fruit/plums1.png","Won","0.2,0.8","12","0.2","219","46","",""
"html-keyboard-response","146","251691","0.0-11.0-2.45","63b6be60f23fd8e0399f668c","bdp_rwlrn","Wed Mar 15 2023 15:34:54 GMT-0400 (Eastern Daylight Time)","477424","Trustworthy,Untrustworthy","","","","decisionFB","","null","","<div class='trialDiv'><img src='Fruit/plums1.png'><br><font class='baseline'><strong>Plum Powerball</strong><p>Choose number of points to bet.</font><div class='respPicDiv'><img src='img/responseButtonOffersNo0L1.png' class='respPic'></div></div>","null","16","Plum Powerball","Fruit/plums1.png","Won","0.2,0.8","12","0.2","218","46","",""
"html-keyboard-response","147","252698","0.0-11.0-3.45","63b6be60f23fd8e0399f668c","bdp_rwlrn","Wed Mar 15 2023 15:34:54 GMT-0400 (Eastern Daylight Time)","477424","Trustworthy,Untrustworthy","","","","feedback","","null","","<div class='respPicDiv'><img src='img/responseButtonOffersNo0_wht.png' class='respPic'></div><div class='trialDiv'><img src='Fruit/plums1.png'><br><font class='baseline'><strong>Plum Powerball</strong><p><strong><font class='posOutcome'>You WON</font><p>You bet: 1</strong></font> &nbsp; &nbsp; &nbsp; &nbsp; &nbsp; &nbsp;<font class='posOutcome'>you receive: <strong>2</strong></font></div>","null","16","Plum Powerball","Fruit/plums1.png","Won","0.2,0.8","12","0.2","220","46","",""
"html-keyboard-response","148","252995","0.0-11.0-1.46","63b6be60f23fd8e0399f668c","bdp_rwlrn","Wed Mar 15 2023 15:34:54 GMT-0400 (Eastern Daylight Time)","477424","Trustworthy,Untrustworthy","","","","decision","","294","","<div class='trialDiv'><img src='Fruit/bananas.png'><br><font class='baseline'><strong>Banana Bonanza</strong><p>Choose number of points to bet.</font><div class='respPicDiv'><img src='img/responseButtonOffersNo0L.png' class='respPic'></div></div>","3","16","Banana Bonanza","Fruit/bananas.png","Lost","0.2,0.65","8","0.2","225","47","",""
"html-keyboard-response","149","253251","0.0-11.0-2.46","63b6be60f23fd8e0399f668c","bdp_rwlrn","Wed Mar 15 2023 15:34:54 GMT-0400 (Eastern Daylight Time)","477424","Trustworthy,Untrustworthy","","","","decisionFB","","null","","<div class='trialDiv'><img src='Fruit/bananas.png'><br><font class='baseline'><strong>Banana Bonanza</strong><p>Choose number of points to bet.</font><div class='respPicDiv'><img src='img/responseButtonOffersNo0L3.png' class='respPic'></div></div>","null","16","Banana Bonanza","Fruit/bananas.png","Lost","0.2,0.65","8","0.2","222","47","",""
"html-keyboard-response","150","254258","0.0-11.0-3.46","63b6be60f23fd8e0399f668c","bdp_rwlrn","Wed Mar 15 2023 15:34:54 GMT-0400 (Eastern Daylight Time)","477424","Trustworthy,Untrustworthy","","","","feedback","","null","","<div class='respPicDiv'><img src='img/responseButtonOffersNo0_wht.png' class='respPic'></div><div class='trialDiv'><img src='Fruit/bananas.png'><br><font class='baseline'><strong>Banana Bonanza</strong><p><strong><font class='negOutcome'>You LOST</font><p>You bet: 3</strong></font> &nbsp; &nbsp; &nbsp; &nbsp; &nbsp; &nbsp;<font class='negOutcome'>You receive: <strong>0</strong></font></div>","null","16","Banana Bonanza","Fruit/bananas.png","Lost","0.2,0.65","8","0.2","222","47","",""
"html-keyboard-response","151","254411","0.0-11.0-1.47","63b6be60f23fd8e0399f668c","bdp_rwlrn","Wed Mar 15 2023 15:34:54 GMT-0400 (Eastern Daylight Time)","477424","Trustworthy,Untrustworthy","","","","decision","","151","","<div class='trialDiv'><img src='Fruit/lime.png'><br><font class='baseline'><strong>Limin' Large</strong><p>Choose number of points to bet.</font><div class='respPicDiv'><img src='img/responseButtonOffersNo0L.png' class='respPic'></div></div>","5","16","Limin' Large","Fruit/lime.png","Lost","0.65,0.2","11","0.65","227","48","",""
"html-keyboard-response","152","254667","0.0-11.0-2.47","63b6be60f23fd8e0399f668c","bdp_rwlrn","Wed Mar 15 2023 15:34:54 GMT-0400 (Eastern Daylight Time)","477424","Trustworthy,Untrustworthy","","","","decisionFB","","null","","<div class='trialDiv'><img src='Fruit/lime.png'><br><font class='baseline'><strong>Limin' Large</strong><p>Choose number of points to bet.</font><div class='respPicDiv'><img src='img/responseButtonOffersNo0L5.png' class='respPic'></div></div>","null","16","Limin' Large","Fruit/lime.png","Lost","0.65,0.2","11","0.65","222","48","",""
"html-keyboard-response","153","255676","0.0-11.0-3.47","63b6be60f23fd8e0399f668c","bdp_rwlrn","Wed Mar 15 2023 15:34:54 GMT-0400 (Eastern Daylight Time)","477424","Trustworthy,Untrustworthy","","","","feedback","","null","","<div class='respPicDiv'><img src='img/responseButtonOffersNo0_wht.png' class='respPic'></div><div class='trialDiv'><img src='Fruit/lime.png'><br><font class='baseline'><strong>Limin' Large</strong><p><strong><font class='negOutcome'>You LOST</font><p>You bet: 5</strong></font> &nbsp; &nbsp; &nbsp; &nbsp; &nbsp; &nbsp;<font class='negOutcome'>You receive: <strong>0</strong></font></div>","null","16","Limin' Large","Fruit/lime.png","Lost","0.65,0.2","11","0.65","222","48","",""
"html-keyboard-response","154","255952","0.0-11.0-1.48","63b6be60f23fd8e0399f668c","bdp_rwlrn","Wed Mar 15 2023 15:34:54 GMT-0400 (Eastern Daylight Time)","477424","Trustworthy,Untrustworthy","","","","decision","","274","","<div class='trialDiv'><img src='Fruit/bananas.png'><br><font class='baseline'><strong>Banana Bonanza</strong><p>Choose number of points to bet.</font><div class='respPicDiv'><img src='img/responseButtonOffersNo0L.png' class='respPic'></div></div>","3","17","Banana Bonanza","Fruit/bananas.png","Won","0.2,0.65","8","0.2","227","49","",""
"html-keyboard-response","155","256211","0.0-11.0-2.48","63b6be60f23fd8e0399f668c","bdp_rwlrn","Wed Mar 15 2023 15:34:54 GMT-0400 (Eastern Daylight Time)","477424","Trustworthy,Untrustworthy","","","","decisionFB","","null","","<div class='trialDiv'><img src='Fruit/bananas.png'><br><font class='baseline'><strong>Banana Bonanza</strong><p>Choose number of points to bet.</font><div class='respPicDiv'><img src='img/responseButtonOffersNo0L3.png' class='respPic'></div></div>","null","17","Banana Bonanza","Fruit/bananas.png","Won","0.2,0.65","8","0.2","224","49","",""
"html-keyboard-response","156","257219","0.0-11.0-3.48","63b6be60f23fd8e0399f668c","bdp_rwlrn","Wed Mar 15 2023 15:34:54 GMT-0400 (Eastern Daylight Time)","477424","Trustworthy,Untrustworthy","","","","feedback","","null","","<div class='respPicDiv'><img src='img/responseButtonOffersNo0_wht.png' class='respPic'></div><div class='trialDiv'><img src='Fruit/bananas.png'><br><font class='baseline'><strong>Banana Bonanza</strong><p><strong><font class='posOutcome'>You WON</font><p>You bet: 3</strong></font> &nbsp; &nbsp; &nbsp; &nbsp; &nbsp; &nbsp;<font class='posOutcome'>you receive: <strong>6</strong></font></div>","null","17","Banana Bonanza","Fruit/bananas.png","Won","0.2,0.65","8","0.2","230","49","",""
"html-keyboard-response","157","257453","0.0-11.0-1.49","63b6be60f23fd8e0399f668c","bdp_rwlrn","Wed Mar 15 2023 15:34:54 GMT-0400 (Eastern Daylight Time)","477424","Trustworthy,Untrustworthy","","","","decision","","231","","<div class='trialDiv'><img src='Fruit/lime.png'><br><font class='baseline'><strong>Limin' Large</strong><p>Choose number of points to bet.</font><div class='respPicDiv'><img src='img/responseButtonOffersNo0L.png' class='respPic'></div></div>","4","17","Limin' Large","Fruit/lime.png","Won","0.65,0.2","11","0.65","235","50","",""
"html-keyboard-response","158","257708","0.0-11.0-2.49","63b6be60f23fd8e0399f668c","bdp_rwlrn","Wed Mar 15 2023 15:34:54 GMT-0400 (Eastern Daylight Time)","477424","Trustworthy,Untrustworthy","","","","decisionFB","","null","","<div class='trialDiv'><img src='Fruit/lime.png'><br><font class='baseline'><strong>Limin' Large</strong><p>Choose number of points to bet.</font><div class='respPicDiv'><img src='img/responseButtonOffersNo0L4.png' class='respPic'></div></div>","null","17","Limin' Large","Fruit/lime.png","Won","0.65,0.2","11","0.65","231","50","",""
"html-keyboard-response","159","258716","0.0-11.0-3.49","63b6be60f23fd8e0399f668c","bdp_rwlrn","Wed Mar 15 2023 15:34:54 GMT-0400 (Eastern Daylight Time)","477424","Trustworthy,Untrustworthy","","","","feedback","","null","","<div class='respPicDiv'><img src='img/responseButtonOffersNo0_wht.png' class='respPic'></div><div class='trialDiv'><img src='Fruit/lime.png'><br><font class='baseline'><strong>Limin' Large</strong><p><strong><font class='posOutcome'>You WON</font><p>You bet: 4</strong></font> &nbsp; &nbsp; &nbsp; &nbsp; &nbsp; &nbsp;<font class='posOutcome'>you receive: <strong>8</strong></font></div>","null","17","Limin' Large","Fruit/lime.png","Won","0.65,0.2","11","0.65","239","50","",""
"html-keyboard-response","160","258931","0.0-11.0-1.50","63b6be60f23fd8e0399f668c","bdp_rwlrn","Wed Mar 15 2023 15:34:54 GMT-0400 (Eastern Daylight Time)","477424","Trustworthy,Untrustworthy","","","","decision","","212","","<div class='trialDiv'><img src='Fruit/plums1.png'><br><font class='baseline'><strong>Plum Powerball</strong><p>Choose number of points to bet.</font><div class='respPicDiv'><img src='img/responseButtonOffersNo0L.png' class='respPic'></div></div>","2","17","Plum Powerball","Fruit/plums1.png","Won","0.2,0.8","12","0.2","244","51","",""
"html-keyboard-response","161","259187","0.0-11.0-2.50","63b6be60f23fd8e0399f668c","bdp_rwlrn","Wed Mar 15 2023 15:34:54 GMT-0400 (Eastern Daylight Time)","477424","Trustworthy,Untrustworthy","","","","decisionFB","","null","","<div class='trialDiv'><img src='Fruit/plums1.png'><br><font class='baseline'><strong>Plum Powerball</strong><p>Choose number of points to bet.</font><div class='respPicDiv'><img src='img/responseButtonOffersNo0L2.png' class='respPic'></div></div>","null","17","Plum Powerball","Fruit/plums1.png","Won","0.2,0.8","12","0.2","242","51","",""
"html-keyboard-response","162","260196","0.0-11.0-3.50","63b6be60f23fd8e0399f668c","bdp_rwlrn","Wed Mar 15 2023 15:34:54 GMT-0400 (Eastern Daylight Time)","477424","Trustworthy,Untrustworthy","","","","feedback","","null","","<div class='respPicDiv'><img src='img/responseButtonOffersNo0_wht.png' class='respPic'></div><div class='trialDiv'><img src='Fruit/plums1.png'><br><font class='baseline'><strong>Plum Powerball</strong><p><strong><font class='posOutcome'>You WON</font><p>You bet: 2</strong></font> &nbsp; &nbsp; &nbsp; &nbsp; &nbsp; &nbsp;<font class='posOutcome'>you receive: <strong>4</strong></font></div>","null","17","Plum Powerball","Fruit/plums1.png","Won","0.2,0.8","12","0.2","246","51","",""
