"event","trial","time","trialtype","numBlurs","subject_id","task","startTime","totalTime","labels","trial_type","trial_index","time_elapsed","internal_node_id","view_history","rt","success","stimulus","key_press","ltround","name","fileID","outcome","lottotype","lottoswpt","lottocurrpshare","point_total","round","faceID","face"
"blur","0","0","blurevent","1","63e5c56c4ddeee504b9fa17f","bdp_rwlrn","Wed Mar 15 2023 22:10:36 GMT-0700 (Pacific Daylight Time)","745734","Trustworthy,Untrustworthy","","","","","","","","","","","","","","","","","","","",""
"focus","0","0","focusevent","","63e5c56c4ddeee504b9fa17f","bdp_rwlrn","Wed Mar 15 2023 22:10:36 GMT-0700 (Pacific Daylight Time)","745734","Trustworthy,Untrustworthy","","","","","","","","","","","","","","","","","","","",""
"","","","","","63e5c56c4ddeee504b9fa17f","bdp_rwlrn","Wed Mar 15 2023 22:10:36 GMT-0700 (Pacific Daylight Time)","745734","Trustworthy,Untrustworthy","pavlovia","0","1","0.0-0.0","","","","","","","","","","","","","","","",""
"blur","1","4483","blurevent","2","63e5c56c4ddeee504b9fa17f","bdp_rwlrn","Wed Mar 15 2023 22:10:36 GMT-0700 (Pacific Daylight Time)","745734","Trustworthy,Untrustworthy","","","","","","","","","","","","","","","","","","","",""
"focus","1","234115","focusevent","","63e5c56c4ddeee504b9fa17f","bdp_rwlrn","Wed Mar 15 2023 22:10:36 GMT-0700 (Pacific Daylight Time)","745734","Trustworthy,Untrustworthy","","","","","","","","","","","","","","","","","","","",""
"","","","","","63e5c56c4ddeee504b9fa17f","bdp_rwlrn","Wed Mar 15 2023 22:10:36 GMT-0700 (Pacific Daylight Time)","745734","Trustworthy,Untrustworthy","instructions","1","235866","0.0-1.0","[{""page_index"":0,""viewing_time"":235865}]","235865","","","","","","","","","","","","","",""
"fullscreenenter","2","238081","fullscreenenter","","63e5c56c4ddeee504b9fa17f","bdp_rwlrn","Wed Mar 15 2023 22:10:36 GMT-0700 (Pacific Daylight Time)","745734","Trustworthy,Untrustworthy","","","","","","","","","","","","","","","","","","","",""
"","","","","","63e5c56c4ddeee504b9fa17f","bdp_rwlrn","Wed Mar 15 2023 22:10:36 GMT-0700 (Pacific Daylight Time)","745734","Trustworthy,Untrustworthy","fullscreen","2","239059","0.0-2.0","","","true","","","","","","","","","","","","",""
"","","","","","63e5c56c4ddeee504b9fa17f","bdp_rwlrn","Wed Mar 15 2023 22:10:36 GMT-0700 (Pacific Daylight Time)","745734","Trustworthy,Untrustworthy","instructions","3","315821","0.0-4.0","[{""page_index"":0,""viewing_time"":14829},{""page_index"":1,""viewing_time"":11767},{""page_index"":2,""viewing_time"":9272},{""page_index"":3,""viewing_time"":5578},{""page_index"":4,""viewing_time"":23404},{""page_index"":5,""viewing_time"":8973},{""page_index"":4,""viewing_time"":2133},{""page_index"":5,""viewing_time"":805}]","76761","","","","","","","","","","","","","",""
"","","","","","63e5c56c4ddeee504b9fa17f","bdp_rwlrn","Wed Mar 15 2023 22:10:36 GMT-0700 (Pacific Daylight Time)","745734","Trustworthy,Untrustworthy","html-keyboard-response","4","319041","0.0-5.0","","3220","","<div class='header' style='text-align:left; position: absolute; top: 5%; left: 5%;'><small>Task 1 of 5</small></div><div class='instruxDiv'><p><strong>1) What is the maximum number of points you can choose to bet on a lottery?</strong></p><p>a) 0</p><p>b) 1</p><p>c) 5</p>","C","","","","","","","","","","",""
"","","","","","63e5c56c4ddeee504b9fa17f","bdp_rwlrn","Wed Mar 15 2023 22:10:36 GMT-0700 (Pacific Daylight Time)","745734","Trustworthy,Untrustworthy","html-keyboard-response","5","322222","0.0-6.0","","3080","","<div class='header' style='text-align:left; position: absolute; top: 5%; left: 5%;'><small>Task 1 of 5</small></div><div class='instruxDiv'><p><strong>1) What is the maximum number of points you can choose to bet on a lottery?</strong></p><p>a) 1</p><p>b) 1</p><p style='color:#00FF00'>c) 5</p><h3 style='color:#00FF00'>Correct!</h3><h3 class='center-content'>The correct response is c).</h3><h3 class='center-content'>The maximum number of points you can choose to bet on a lottery is 5 points.</h3><p><em>Press SPACEBAR to continue</em></p></div>"," ","","","","","","","","","","",""
"","","","","","63e5c56c4ddeee504b9fa17f","bdp_rwlrn","Wed Mar 15 2023 22:10:36 GMT-0700 (Pacific Daylight Time)","745734","Trustworthy,Untrustworthy","html-keyboard-response","6","326459","0.0-7.0","","4135","","<div class='header' style='text-align:left; position: absolute; top: 5%; left: 5%;'><small>Task 1 of 5</small></div><div class='instruxDiv'><p><strong>2) How many points can you win each round?</strong></p><p>a) 10 points</p><p>b) Double what you bet</p><p>c) Quadruple what you bet</p>","B","","","","","","","","","","",""
"","","","","","63e5c56c4ddeee504b9fa17f","bdp_rwlrn","Wed Mar 15 2023 22:10:36 GMT-0700 (Pacific Daylight Time)","745734","Trustworthy,Untrustworthy","html-keyboard-response","7","327318","0.0-8.0","","758","","<div class='header' style='text-align:left; position: absolute; top: 5%; left: 5%;'><small>Task 1 of 5</small></div><div class='instruxDiv'><p><strong>2) How many points can you win each round?</strong></p><p>a) 10 points</p><p style='color:#00FF00'>b) Double what you bet</p><p>c) Quadruple what you bet</p><h3 style='color:#00FF00'>Correct!</h3><h3 class='center-content'>The correct response is b).</h3><h3 class='center-content'>You can win double the amount of points you bet.</h3><p><em>Press SPACEBAR to continue</em></p></div>"," ","","","","","","","","","","",""
"","","","","","63e5c56c4ddeee504b9fa17f","bdp_rwlrn","Wed Mar 15 2023 22:10:36 GMT-0700 (Pacific Daylight Time)","745734","Trustworthy,Untrustworthy","html-keyboard-response","8","333342","0.0-9.0","","null","","<div class='header' style='text-align:left; position: absolute; top: 5%; left: 5%;'><small>Task 1 of 5</small></div><div class='instruxDiv'><p>Thank you for completing the quiz<p>These are the actual lotteries you will be playing in the next block:<p><div class='tc' align='center'><img class='introPic' src='Fruit/apple.png'><br><strong>Awesome Apples</strong></div><div class='bl' align='center'><img class='introPic' src='Fruit/lemon.png'><br><strong>Lucky Lemons</strong></div><div class='br' align='center'><img class='introPic' src='Fruit/melon.png'><br><strong>Melon Millions</strong></div></div><p>Across <strong>66 rounds</strong> you will play each lottery <strong>22 times</strong> (in random order).<p style='align:center; color:white'><font <em>Press SPACEBAR to continue</em></p>","null","","","","","","","","","","",""
"","","","","","63e5c56c4ddeee504b9fa17f","bdp_rwlrn","Wed Mar 15 2023 22:10:36 GMT-0700 (Pacific Daylight Time)","745734","Trustworthy,Untrustworthy","instructions","9","336145","0.0-10.0","[{""page_index"":0,""viewing_time"":653},{""page_index"":1,""viewing_time"":2150}]","2803","","","","","","","","","","","","","",""
"","","","decision","","63e5c56c4ddeee504b9fa17f","bdp_rwlrn","Wed Mar 15 2023 22:10:36 GMT-0700 (Pacific Daylight Time)","745734","Trustworthy,Untrustworthy","html-keyboard-response","10","338397","0.0-11.0-1.0","","2151","","<div class='trialDiv'><img src='Fruit/apple.png'><br><font class='baseline'><strong>Awesome Apples</strong><p>Choose number of points to bet.</font><div class='respPicDiv'><img src='img/responseButtonOffersNo0L.png' class='respPic'></div></div>","2","1","Awesome Apples","Fruit/apple.png","Won","0.8,0.35","14","0.8","5","1","",""
"","","","decisionFB","","63e5c56c4ddeee504b9fa17f","bdp_rwlrn","Wed Mar 15 2023 22:10:36 GMT-0700 (Pacific Daylight Time)","745734","Trustworthy,Untrustworthy","html-keyboard-response","11","338648","0.0-11.0-2.0","","null","","<div class='trialDiv'><img src='Fruit/apple.png'><br><font class='baseline'><strong>Awesome Apples</strong><p>Choose number of points to bet.</font><div class='respPicDiv'><img src='img/responseButtonOffersNo0L2.png' class='respPic'></div></div>","null","1","Awesome Apples","Fruit/apple.png","Won","0.8,0.35","14","0.8","3","1","",""
"","","","feedback","","63e5c56c4ddeee504b9fa17f","bdp_rwlrn","Wed Mar 15 2023 22:10:36 GMT-0700 (Pacific Daylight Time)","745734","Trustworthy,Untrustworthy","html-keyboard-response","12","339901","0.0-11.0-3.0","","null","","<div class='respPicDiv'><img src='img/responseButtonOffersNo0_wht.png' class='respPic'></div><div class='trialDiv'><img src='Fruit/apple.png'><br><font class='baseline'><strong>Awesome Apples</strong><p><strong><font class='posOutcome'>You WON</font><p>You bet: 2</strong></font> &nbsp; &nbsp; &nbsp; &nbsp; &nbsp; &nbsp;<font class='posOutcome'>you receive: <strong>4</strong></font></div>","null","1","Awesome Apples","Fruit/apple.png","Won","0.8,0.35","14","0.8","7","1","",""
"","","","decision","","63e5c56c4ddeee504b9fa17f","bdp_rwlrn","Wed Mar 15 2023 22:10:36 GMT-0700 (Pacific Daylight Time)","745734","Trustworthy,Untrustworthy","html-keyboard-response","13","342962","0.0-11.0-1.1","","3060","","<div class='trialDiv'><img src='Fruit/melon.png'><br><font class='baseline'><strong>Melon Millions</strong><p>Choose number of points to bet.</font><div class='respPicDiv'><img src='img/responseButtonOffersNo0L.png' class='respPic'></div></div>","1","1","Melon Millions","Fruit/melon.png","Lost","0.2,0.8","8","0.2","12","2","",""
"","","","decisionFB","","63e5c56c4ddeee504b9fa17f","bdp_rwlrn","Wed Mar 15 2023 22:10:36 GMT-0700 (Pacific Daylight Time)","745734","Trustworthy,Untrustworthy","html-keyboard-response","14","343213","0.0-11.0-2.1","","null","","<div class='trialDiv'><img src='Fruit/melon.png'><br><font class='baseline'><strong>Melon Millions</strong><p>Choose number of points to bet.</font><div class='respPicDiv'><img src='img/responseButtonOffersNo0L1.png' class='respPic'></div></div>","null","1","Melon Millions","Fruit/melon.png","Lost","0.2,0.8","8","0.2","11","2","",""
"","","","feedback","","63e5c56c4ddeee504b9fa17f","bdp_rwlrn","Wed Mar 15 2023 22:10:36 GMT-0700 (Pacific Daylight Time)","745734","Trustworthy,Untrustworthy","html-keyboard-response","15","344215","0.0-11.0-3.1","","null","","<div class='respPicDiv'><img src='img/responseButtonOffersNo0_wht.png' class='respPic'></div><div class='trialDiv'><img src='Fruit/melon.png'><br><font class='baseline'><strong>Melon Millions</strong><p><strong><font class='negOutcome'>You LOST</font><p>You bet: 1</strong></font> &nbsp; &nbsp; &nbsp; &nbsp; &nbsp; &nbsp;<font class='negOutcome'>You receive: <strong>0</strong></font></div>","null","1","Melon Millions","Fruit/melon.png","Lost","0.2,0.8","8","0.2","11","2","",""
"","","","decision","","63e5c56c4ddeee504b9fa17f","bdp_rwlrn","Wed Mar 15 2023 22:10:36 GMT-0700 (Pacific Daylight Time)","745734","Trustworthy,Untrustworthy","html-keyboard-response","16","345553","0.0-11.0-1.2","","1337","","<div class='trialDiv'><img src='Fruit/lemon.png'><br><font class='baseline'><strong>Lucky Lemons</strong><p>Choose number of points to bet.</font><div class='respPicDiv'><img src='img/responseButtonOffersNo0L.png' class='respPic'></div></div>","3","1","Lucky Lemons","Fruit/lemon.png","Lost","0.35,0.8","10","0.35","16","3","",""
"","","","decisionFB","","63e5c56c4ddeee504b9fa17f","bdp_rwlrn","Wed Mar 15 2023 22:10:36 GMT-0700 (Pacific Daylight Time)","745734","Trustworthy,Untrustworthy","html-keyboard-response","17","345803","0.0-11.0-2.2","","null","","<div class='trialDiv'><img src='Fruit/lemon.png'><br><font class='baseline'><strong>Lucky Lemons</strong><p>Choose number of points to bet.</font><div class='respPicDiv'><img src='img/responseButtonOffersNo0L3.png' class='respPic'></div></div>","null","1","Lucky Lemons","Fruit/lemon.png","Lost","0.35,0.8","10","0.35","13","3","",""
"","","","feedback","","63e5c56c4ddeee504b9fa17f","bdp_rwlrn","Wed Mar 15 2023 22:10:36 GMT-0700 (Pacific Daylight Time)","745734","Trustworthy,Untrustworthy","html-keyboard-response","18","346805","0.0-11.0-3.2","","null","","<div class='respPicDiv'><img src='img/responseButtonOffersNo0_wht.png' class='respPic'></div><div class='trialDiv'><img src='Fruit/lemon.png'><br><font class='baseline'><strong>Lucky Lemons</strong><p><strong><font class='negOutcome'>You LOST</font><p>You bet: 3</strong></font> &nbsp; &nbsp; &nbsp; &nbsp; &nbsp; &nbsp;<font class='negOutcome'>You receive: <strong>0</strong></font></div>","null","1","Lucky Lemons","Fruit/lemon.png","Lost","0.35,0.8","10","0.35","13","3","",""
"","","","decision","","63e5c56c4ddeee504b9fa17f","bdp_rwlrn","Wed Mar 15 2023 22:10:36 GMT-0700 (Pacific Daylight Time)","745734","Trustworthy,Untrustworthy","html-keyboard-response","19","349078","0.0-11.0-1.3","","2272","","<div class='trialDiv'><img src='Fruit/apple.png'><br><font class='baseline'><strong>Awesome Apples</strong><p>Choose number of points to bet.</font><div class='respPicDiv'><img src='img/responseButtonOffersNo0L.png' class='respPic'></div></div>","3","2","Awesome Apples","Fruit/apple.png","Won","0.8,0.35","14","0.8","18","4","",""
"","","","decisionFB","","63e5c56c4ddeee504b9fa17f","bdp_rwlrn","Wed Mar 15 2023 22:10:36 GMT-0700 (Pacific Daylight Time)","745734","Trustworthy,Untrustworthy","html-keyboard-response","20","349329","0.0-11.0-2.3","","null","","<div class='trialDiv'><img src='Fruit/apple.png'><br><font class='baseline'><strong>Awesome Apples</strong><p>Choose number of points to bet.</font><div class='respPicDiv'><img src='img/responseButtonOffersNo0L3.png' class='respPic'></div></div>","null","2","Awesome Apples","Fruit/apple.png","Won","0.8,0.35","14","0.8","15","4","",""
"","","","feedback","","63e5c56c4ddeee504b9fa17f","bdp_rwlrn","Wed Mar 15 2023 22:10:36 GMT-0700 (Pacific Daylight Time)","745734","Trustworthy,Untrustworthy","html-keyboard-response","21","350330","0.0-11.0-3.3","","null","","<div class='respPicDiv'><img src='img/responseButtonOffersNo0_wht.png' class='respPic'></div><div class='trialDiv'><img src='Fruit/apple.png'><br><font class='baseline'><strong>Awesome Apples</strong><p><strong><font class='posOutcome'>You WON</font><p>You bet: 3</strong></font> &nbsp; &nbsp; &nbsp; &nbsp; &nbsp; &nbsp;<font class='posOutcome'>you receive: <strong>6</strong></font></div>","null","2","Awesome Apples","Fruit/apple.png","Won","0.8,0.35","14","0.8","21","4","",""
"","","","decision","","63e5c56c4ddeee504b9fa17f","bdp_rwlrn","Wed Mar 15 2023 22:10:36 GMT-0700 (Pacific Daylight Time)","745734","Trustworthy,Untrustworthy","html-keyboard-response","22","351995","0.0-11.0-1.4","","1664","","<div class='trialDiv'><img src='Fruit/lemon.png'><br><font class='baseline'><strong>Lucky Lemons</strong><p>Choose number of points to bet.</font><div class='respPicDiv'><img src='img/responseButtonOffersNo0L.png' class='respPic'></div></div>","1","2","Lucky Lemons","Fruit/lemon.png","Lost","0.35,0.8","10","0.35","26","5","",""
"","","","decisionFB","","63e5c56c4ddeee504b9fa17f","bdp_rwlrn","Wed Mar 15 2023 22:10:36 GMT-0700 (Pacific Daylight Time)","745734","Trustworthy,Untrustworthy","html-keyboard-response","23","352245","0.0-11.0-2.4","","null","","<div class='trialDiv'><img src='Fruit/lemon.png'><br><font class='baseline'><strong>Lucky Lemons</strong><p>Choose number of points to bet.</font><div class='respPicDiv'><img src='img/responseButtonOffersNo0L1.png' class='respPic'></div></div>","null","2","Lucky Lemons","Fruit/lemon.png","Lost","0.35,0.8","10","0.35","25","5","",""
"","","","feedback","","63e5c56c4ddeee504b9fa17f","bdp_rwlrn","Wed Mar 15 2023 22:10:36 GMT-0700 (Pacific Daylight Time)","745734","Trustworthy,Untrustworthy","html-keyboard-response","24","353248","0.0-11.0-3.4","","null","","<div class='respPicDiv'><img src='img/responseButtonOffersNo0_wht.png' class='respPic'></div><div class='trialDiv'><img src='Fruit/lemon.png'><br><font class='baseline'><strong>Lucky Lemons</strong><p><strong><font class='negOutcome'>You LOST</font><p>You bet: 1</strong></font> &nbsp; &nbsp; &nbsp; &nbsp; &nbsp; &nbsp;<font class='negOutcome'>You receive: <strong>0</strong></font></div>","null","2","Lucky Lemons","Fruit/lemon.png","Lost","0.35,0.8","10","0.35","25","5","",""
"","","","decision","","63e5c56c4ddeee504b9fa17f","bdp_rwlrn","Wed Mar 15 2023 22:10:36 GMT-0700 (Pacific Daylight Time)","745734","Trustworthy,Untrustworthy","html-keyboard-response","25","354213","0.0-11.0-1.5","","965","","<div class='trialDiv'><img src='Fruit/melon.png'><br><font class='baseline'><strong>Melon Millions</strong><p>Choose number of points to bet.</font><div class='respPicDiv'><img src='img/responseButtonOffersNo0L.png' class='respPic'></div></div>","1","2","Melon Millions","Fruit/melon.png","Lost","0.2,0.8","8","0.2","30","6","",""
"","","","decisionFB","","63e5c56c4ddeee504b9fa17f","bdp_rwlrn","Wed Mar 15 2023 22:10:36 GMT-0700 (Pacific Daylight Time)","745734","Trustworthy,Untrustworthy","html-keyboard-response","26","354464","0.0-11.0-2.5","","null","","<div class='trialDiv'><img src='Fruit/melon.png'><br><font class='baseline'><strong>Melon Millions</strong><p>Choose number of points to bet.</font><div class='respPicDiv'><img src='img/responseButtonOffersNo0L1.png' class='respPic'></div></div>","null","2","Melon Millions","Fruit/melon.png","Lost","0.2,0.8","8","0.2","29","6","",""
"","","","feedback","","63e5c56c4ddeee504b9fa17f","bdp_rwlrn","Wed Mar 15 2023 22:10:36 GMT-0700 (Pacific Daylight Time)","745734","Trustworthy,Untrustworthy","html-keyboard-response","27","355466","0.0-11.0-3.5","","null","","<div class='respPicDiv'><img src='img/responseButtonOffersNo0_wht.png' class='respPic'></div><div class='trialDiv'><img src='Fruit/melon.png'><br><font class='baseline'><strong>Melon Millions</strong><p><strong><font class='negOutcome'>You LOST</font><p>You bet: 1</strong></font> &nbsp; &nbsp; &nbsp; &nbsp; &nbsp; &nbsp;<font class='negOutcome'>You receive: <strong>0</strong></font></div>","null","2","Melon Millions","Fruit/melon.png","Lost","0.2,0.8","8","0.2","29","6","",""
"","","","decision","","63e5c56c4ddeee504b9fa17f","bdp_rwlrn","Wed Mar 15 2023 22:10:36 GMT-0700 (Pacific Daylight Time)","745734","Trustworthy,Untrustworthy","html-keyboard-response","28","357167","0.0-11.0-1.6","","1700","","<div class='trialDiv'><img src='Fruit/apple.png'><br><font class='baseline'><strong>Awesome Apples</strong><p>Choose number of points to bet.</font><div class='respPicDiv'><img src='img/responseButtonOffersNo0L.png' class='respPic'></div></div>","5","3","Awesome Apples","Fruit/apple.png","Won","0.8,0.35","14","0.8","34","7","",""
"","","","decisionFB","","63e5c56c4ddeee504b9fa17f","bdp_rwlrn","Wed Mar 15 2023 22:10:36 GMT-0700 (Pacific Daylight Time)","745734","Trustworthy,Untrustworthy","html-keyboard-response","29","357418","0.0-11.0-2.6","","null","","<div class='trialDiv'><img src='Fruit/apple.png'><br><font class='baseline'><strong>Awesome Apples</strong><p>Choose number of points to bet.</font><div class='respPicDiv'><img src='img/responseButtonOffersNo0L5.png' class='respPic'></div></div>","null","3","Awesome Apples","Fruit/apple.png","Won","0.8,0.35","14","0.8","29","7","",""
"","","","feedback","","63e5c56c4ddeee504b9fa17f","bdp_rwlrn","Wed Mar 15 2023 22:10:36 GMT-0700 (Pacific Daylight Time)","745734","Trustworthy,Untrustworthy","html-keyboard-response","30","358420","0.0-11.0-3.6","","null","","<div class='respPicDiv'><img src='img/responseButtonOffersNo0_wht.png' class='respPic'></div><div class='trialDiv'><img src='Fruit/apple.png'><br><font class='baseline'><strong>Awesome Apples</strong><p><strong><font class='posOutcome'>You WON</font><p>You bet: 5</strong></font> &nbsp; &nbsp; &nbsp; &nbsp; &nbsp; &nbsp;<font class='posOutcome'>you receive: <strong>10</strong></font></div>","null","3","Awesome Apples","Fruit/apple.png","Won","0.8,0.35","14","0.8","39","7","",""
"","","","decision","","63e5c56c4ddeee504b9fa17f","bdp_rwlrn","Wed Mar 15 2023 22:10:36 GMT-0700 (Pacific Daylight Time)","745734","Trustworthy,Untrustworthy","html-keyboard-response","31","359554","0.0-11.0-1.7","","1134","","<div class='trialDiv'><img src='Fruit/lemon.png'><br><font class='baseline'><strong>Lucky Lemons</strong><p>Choose number of points to bet.</font><div class='respPicDiv'><img src='img/responseButtonOffersNo0L.png' class='respPic'></div></div>","1","3","Lucky Lemons","Fruit/lemon.png","Lost","0.35,0.8","10","0.35","44","8","",""
"","","","decisionFB","","63e5c56c4ddeee504b9fa17f","bdp_rwlrn","Wed Mar 15 2023 22:10:36 GMT-0700 (Pacific Daylight Time)","745734","Trustworthy,Untrustworthy","html-keyboard-response","32","359805","0.0-11.0-2.7","","null","","<div class='trialDiv'><img src='Fruit/lemon.png'><br><font class='baseline'><strong>Lucky Lemons</strong><p>Choose number of points to bet.</font><div class='respPicDiv'><img src='img/responseButtonOffersNo0L1.png' class='respPic'></div></div>","null","3","Lucky Lemons","Fruit/lemon.png","Lost","0.35,0.8","10","0.35","43","8","",""
"","","","feedback","","63e5c56c4ddeee504b9fa17f","bdp_rwlrn","Wed Mar 15 2023 22:10:36 GMT-0700 (Pacific Daylight Time)","745734","Trustworthy,Untrustworthy","html-keyboard-response","33","360807","0.0-11.0-3.7","","null","","<div class='respPicDiv'><img src='img/responseButtonOffersNo0_wht.png' class='respPic'></div><div class='trialDiv'><img src='Fruit/lemon.png'><br><font class='baseline'><strong>Lucky Lemons</strong><p><strong><font class='negOutcome'>You LOST</font><p>You bet: 1</strong></font> &nbsp; &nbsp; &nbsp; &nbsp; &nbsp; &nbsp;<font class='negOutcome'>You receive: <strong>0</strong></font></div>","null","3","Lucky Lemons","Fruit/lemon.png","Lost","0.35,0.8","10","0.35","43","8","",""
"","","","decision","","63e5c56c4ddeee504b9fa17f","bdp_rwlrn","Wed Mar 15 2023 22:10:36 GMT-0700 (Pacific Daylight Time)","745734","Trustworthy,Untrustworthy","html-keyboard-response","34","361136","0.0-11.0-1.8","","329","","<div class='trialDiv'><img src='Fruit/melon.png'><br><font class='baseline'><strong>Melon Millions</strong><p>Choose number of points to bet.</font><div class='respPicDiv'><img src='img/responseButtonOffersNo0L.png' class='respPic'></div></div>","1","3","Melon Millions","Fruit/melon.png","Lost","0.2,0.8","8","0.2","48","9","",""
"","","","decisionFB","","63e5c56c4ddeee504b9fa17f","bdp_rwlrn","Wed Mar 15 2023 22:10:36 GMT-0700 (Pacific Daylight Time)","745734","Trustworthy,Untrustworthy","html-keyboard-response","35","361388","0.0-11.0-2.8","","null","","<div class='trialDiv'><img src='Fruit/melon.png'><br><font class='baseline'><strong>Melon Millions</strong><p>Choose number of points to bet.</font><div class='respPicDiv'><img src='img/responseButtonOffersNo0L1.png' class='respPic'></div></div>","null","3","Melon Millions","Fruit/melon.png","Lost","0.2,0.8","8","0.2","47","9","",""
"","","","feedback","","63e5c56c4ddeee504b9fa17f","bdp_rwlrn","Wed Mar 15 2023 22:10:36 GMT-0700 (Pacific Daylight Time)","745734","Trustworthy,Untrustworthy","html-keyboard-response","36","363238","0.0-11.0-3.8","","null","","<div class='respPicDiv'><img src='img/responseButtonOffersNo0_wht.png' class='respPic'></div><div class='trialDiv'><img src='Fruit/melon.png'><br><font class='baseline'><strong>Melon Millions</strong><p><strong><font class='negOutcome'>You LOST</font><p>You bet: 1</strong></font> &nbsp; &nbsp; &nbsp; &nbsp; &nbsp; &nbsp;<font class='negOutcome'>You receive: <strong>0</strong></font></div>","null","3","Melon Millions","Fruit/melon.png","Lost","0.2,0.8","8","0.2","47","9","",""
"","","","decision","","63e5c56c4ddeee504b9fa17f","bdp_rwlrn","Wed Mar 15 2023 22:10:36 GMT-0700 (Pacific Daylight Time)","745734","Trustworthy,Untrustworthy","html-keyboard-response","37","364178","0.0-11.0-1.9","","939","","<div class='trialDiv'><img src='Fruit/lemon.png'><br><font class='baseline'><strong>Lucky Lemons</strong><p>Choose number of points to bet.</font><div class='respPicDiv'><img src='img/responseButtonOffersNo0L.png' class='respPic'></div></div>","5","4","Lucky Lemons","Fruit/lemon.png","Won","0.35,0.8","10","0.35","52","10","",""
"","","","decisionFB","","63e5c56c4ddeee504b9fa17f","bdp_rwlrn","Wed Mar 15 2023 22:10:36 GMT-0700 (Pacific Daylight Time)","745734","Trustworthy,Untrustworthy","html-keyboard-response","38","364430","0.0-11.0-2.9","","null","","<div class='trialDiv'><img src='Fruit/lemon.png'><br><font class='baseline'><strong>Lucky Lemons</strong><p>Choose number of points to bet.</font><div class='respPicDiv'><img src='img/responseButtonOffersNo0L5.png' class='respPic'></div></div>","null","4","Lucky Lemons","Fruit/lemon.png","Won","0.35,0.8","10","0.35","47","10","",""
"","","","feedback","","63e5c56c4ddeee504b9fa17f","bdp_rwlrn","Wed Mar 15 2023 22:10:36 GMT-0700 (Pacific Daylight Time)","745734","Trustworthy,Untrustworthy","html-keyboard-response","39","365431","0.0-11.0-3.9","","null","","<div class='respPicDiv'><img src='img/responseButtonOffersNo0_wht.png' class='respPic'></div><div class='trialDiv'><img src='Fruit/lemon.png'><br><font class='baseline'><strong>Lucky Lemons</strong><p><strong><font class='posOutcome'>You WON</font><p>You bet: 5</strong></font> &nbsp; &nbsp; &nbsp; &nbsp; &nbsp; &nbsp;<font class='posOutcome'>you receive: <strong>10</strong></font></div>","null","4","Lucky Lemons","Fruit/lemon.png","Won","0.35,0.8","10","0.35","57","10","",""
"","","","decision","","63e5c56c4ddeee504b9fa17f","bdp_rwlrn","Wed Mar 15 2023 22:10:36 GMT-0700 (Pacific Daylight Time)","745734","Trustworthy,Untrustworthy","html-keyboard-response","40","367530","0.0-11.0-1.10","","2098","","<div class='trialDiv'><img src='Fruit/melon.png'><br><font class='baseline'><strong>Melon Millions</strong><p>Choose number of points to bet.</font><div class='respPicDiv'><img src='img/responseButtonOffersNo0L.png' class='respPic'></div></div>","1","4","Melon Millions","Fruit/melon.png","Lost","0.2,0.8","8","0.2","62","11","",""
"","","","decisionFB","","63e5c56c4ddeee504b9fa17f","bdp_rwlrn","Wed Mar 15 2023 22:10:36 GMT-0700 (Pacific Daylight Time)","745734","Trustworthy,Untrustworthy","html-keyboard-response","41","367782","0.0-11.0-2.10","","null","","<div class='trialDiv'><img src='Fruit/melon.png'><br><font class='baseline'><strong>Melon Millions</strong><p>Choose number of points to bet.</font><div class='respPicDiv'><img src='img/responseButtonOffersNo0L1.png' class='respPic'></div></div>","null","4","Melon Millions","Fruit/melon.png","Lost","0.2,0.8","8","0.2","61","11","",""
"","","","feedback","","63e5c56c4ddeee504b9fa17f","bdp_rwlrn","Wed Mar 15 2023 22:10:36 GMT-0700 (Pacific Daylight Time)","745734","Trustworthy,Untrustworthy","html-keyboard-response","42","369342","0.0-11.0-3.10","","null","","<div class='respPicDiv'><img src='img/responseButtonOffersNo0_wht.png' class='respPic'></div><div class='trialDiv'><img src='Fruit/melon.png'><br><font class='baseline'><strong>Melon Millions</strong><p><strong><font class='negOutcome'>You LOST</font><p>You bet: 1</strong></font> &nbsp; &nbsp; &nbsp; &nbsp; &nbsp; &nbsp;<font class='negOutcome'>You receive: <strong>0</strong></font></div>","null","4","Melon Millions","Fruit/melon.png","Lost","0.2,0.8","8","0.2","61","11","",""
"","","","decision","","63e5c56c4ddeee504b9fa17f","bdp_rwlrn","Wed Mar 15 2023 22:10:36 GMT-0700 (Pacific Daylight Time)","745734","Trustworthy,Untrustworthy","html-keyboard-response","43","371101","0.0-11.0-1.11","","1759","","<div class='trialDiv'><img src='Fruit/apple.png'><br><font class='baseline'><strong>Awesome Apples</strong><p>Choose number of points to bet.</font><div class='respPicDiv'><img src='img/responseButtonOffersNo0L.png' class='respPic'></div></div>","5","4","Awesome Apples","Fruit/apple.png","Won","0.8,0.35","14","0.8","66","12","",""
"","","","decisionFB","","63e5c56c4ddeee504b9fa17f","bdp_rwlrn","Wed Mar 15 2023 22:10:36 GMT-0700 (Pacific Daylight Time)","745734","Trustworthy,Untrustworthy","html-keyboard-response","44","371353","0.0-11.0-2.11","","null","","<div class='trialDiv'><img src='Fruit/apple.png'><br><font class='baseline'><strong>Awesome Apples</strong><p>Choose number of points to bet.</font><div class='respPicDiv'><img src='img/responseButtonOffersNo0L5.png' class='respPic'></div></div>","null","4","Awesome Apples","Fruit/apple.png","Won","0.8,0.35","14","0.8","61","12","",""
"","","","feedback","","63e5c56c4ddeee504b9fa17f","bdp_rwlrn","Wed Mar 15 2023 22:10:36 GMT-0700 (Pacific Daylight Time)","745734","Trustworthy,Untrustworthy","html-keyboard-response","45","372353","0.0-11.0-3.11","","null","","<div class='respPicDiv'><img src='img/responseButtonOffersNo0_wht.png' class='respPic'></div><div class='trialDiv'><img src='Fruit/apple.png'><br><font class='baseline'><strong>Awesome Apples</strong><p><strong><font class='posOutcome'>You WON</font><p>You bet: 5</strong></font> &nbsp; &nbsp; &nbsp; &nbsp; &nbsp; &nbsp;<font class='posOutcome'>you receive: <strong>10</strong></font></div>","null","4","Awesome Apples","Fruit/apple.png","Won","0.8,0.35","14","0.8","71","12","",""
"","","","decision","","63e5c56c4ddeee504b9fa17f","bdp_rwlrn","Wed Mar 15 2023 22:10:36 GMT-0700 (Pacific Daylight Time)","745734","Trustworthy,Untrustworthy","html-keyboard-response","46","373547","0.0-11.0-1.12","","1193","","<div class='trialDiv'><img src='Fruit/melon.png'><br><font class='baseline'><strong>Melon Millions</strong><p>Choose number of points to bet.</font><div class='respPicDiv'><img src='img/responseButtonOffersNo0L.png' class='respPic'></div></div>","1","5","Melon Millions","Fruit/melon.png","Lost","0.2,0.8","8","0.2","76","13","",""
"","","","decisionFB","","63e5c56c4ddeee504b9fa17f","bdp_rwlrn","Wed Mar 15 2023 22:10:36 GMT-0700 (Pacific Daylight Time)","745734","Trustworthy,Untrustworthy","html-keyboard-response","47","373799","0.0-11.0-2.12","","null","","<div class='trialDiv'><img src='Fruit/melon.png'><br><font class='baseline'><strong>Melon Millions</strong><p>Choose number of points to bet.</font><div class='respPicDiv'><img src='img/responseButtonOffersNo0L1.png' class='respPic'></div></div>","null","5","Melon Millions","Fruit/melon.png","Lost","0.2,0.8","8","0.2","75","13","",""
"","","","feedback","","63e5c56c4ddeee504b9fa17f","bdp_rwlrn","Wed Mar 15 2023 22:10:36 GMT-0700 (Pacific Daylight Time)","745734","Trustworthy,Untrustworthy","html-keyboard-response","48","374801","0.0-11.0-3.12","","null","","<div class='respPicDiv'><img src='img/responseButtonOffersNo0_wht.png' class='respPic'></div><div class='trialDiv'><img src='Fruit/melon.png'><br><font class='baseline'><strong>Melon Millions</strong><p><strong><font class='negOutcome'>You LOST</font><p>You bet: 1</strong></font> &nbsp; &nbsp; &nbsp; &nbsp; &nbsp; &nbsp;<font class='negOutcome'>You receive: <strong>0</strong></font></div>","null","5","Melon Millions","Fruit/melon.png","Lost","0.2,0.8","8","0.2","75","13","",""
"","","","decision","","63e5c56c4ddeee504b9fa17f","bdp_rwlrn","Wed Mar 15 2023 22:10:36 GMT-0700 (Pacific Daylight Time)","745734","Trustworthy,Untrustworthy","html-keyboard-response","49","375296","0.0-11.0-1.13","","495","","<div class='trialDiv'><img src='Fruit/lemon.png'><br><font class='baseline'><strong>Lucky Lemons</strong><p>Choose number of points to bet.</font><div class='respPicDiv'><img src='img/responseButtonOffersNo0L.png' class='respPic'></div></div>","2","5","Lucky Lemons","Fruit/lemon.png","Lost","0.35,0.8","10","0.35","80","14","",""
"","","","decisionFB","","63e5c56c4ddeee504b9fa17f","bdp_rwlrn","Wed Mar 15 2023 22:10:36 GMT-0700 (Pacific Daylight Time)","745734","Trustworthy,Untrustworthy","html-keyboard-response","50","375549","0.0-11.0-2.13","","null","","<div class='trialDiv'><img src='Fruit/lemon.png'><br><font class='baseline'><strong>Lucky Lemons</strong><p>Choose number of points to bet.</font><div class='respPicDiv'><img src='img/responseButtonOffersNo0L2.png' class='respPic'></div></div>","null","5","Lucky Lemons","Fruit/lemon.png","Lost","0.35,0.8","10","0.35","78","14","",""
"","","","feedback","","63e5c56c4ddeee504b9fa17f","bdp_rwlrn","Wed Mar 15 2023 22:10:36 GMT-0700 (Pacific Daylight Time)","745734","Trustworthy,Untrustworthy","html-keyboard-response","51","377342","0.0-11.0-3.13","","null","","<div class='respPicDiv'><img src='img/responseButtonOffersNo0_wht.png' class='respPic'></div><div class='trialDiv'><img src='Fruit/lemon.png'><br><font class='baseline'><strong>Lucky Lemons</strong><p><strong><font class='negOutcome'>You LOST</font><p>You bet: 2</strong></font> &nbsp; &nbsp; &nbsp; &nbsp; &nbsp; &nbsp;<font class='negOutcome'>You receive: <strong>0</strong></font></div>","null","5","Lucky Lemons","Fruit/lemon.png","Lost","0.35,0.8","10","0.35","78","14","",""
"","","","decision","","63e5c56c4ddeee504b9fa17f","bdp_rwlrn","Wed Mar 15 2023 22:10:36 GMT-0700 (Pacific Daylight Time)","745734","Trustworthy,Untrustworthy","html-keyboard-response","52","378819","0.0-11.0-1.14","","1477","","<div class='trialDiv'><img src='Fruit/apple.png'><br><font class='baseline'><strong>Awesome Apples</strong><p>Choose number of points to bet.</font><div class='respPicDiv'><img src='img/responseButtonOffersNo0L.png' class='respPic'></div></div>","5","5","Awesome Apples","Fruit/apple.png","Lost","0.8,0.35","14","0.8","83","15","",""
"","","","decisionFB","","63e5c56c4ddeee504b9fa17f","bdp_rwlrn","Wed Mar 15 2023 22:10:36 GMT-0700 (Pacific Daylight Time)","745734","Trustworthy,Untrustworthy","html-keyboard-response","53","379071","0.0-11.0-2.14","","null","","<div class='trialDiv'><img src='Fruit/apple.png'><br><font class='baseline'><strong>Awesome Apples</strong><p>Choose number of points to bet.</font><div class='respPicDiv'><img src='img/responseButtonOffersNo0L5.png' class='respPic'></div></div>","null","5","Awesome Apples","Fruit/apple.png","Lost","0.8,0.35","14","0.8","78","15","",""
"","","","feedback","","63e5c56c4ddeee504b9fa17f","bdp_rwlrn","Wed Mar 15 2023 22:10:36 GMT-0700 (Pacific Daylight Time)","745734","Trustworthy,Untrustworthy","html-keyboard-response","54","380072","0.0-11.0-3.14","","null","","<div class='respPicDiv'><img src='img/responseButtonOffersNo0_wht.png' class='respPic'></div><div class='trialDiv'><img src='Fruit/apple.png'><br><font class='baseline'><strong>Awesome Apples</strong><p><strong><font class='negOutcome'>You LOST</font><p>You bet: 5</strong></font> &nbsp; &nbsp; &nbsp; &nbsp; &nbsp; &nbsp;<font class='negOutcome'>You receive: <strong>0</strong></font></div>","null","5","Awesome Apples","Fruit/apple.png","Lost","0.8,0.35","14","0.8","78","15","",""
"","","","decision","","63e5c56c4ddeee504b9fa17f","bdp_rwlrn","Wed Mar 15 2023 22:10:36 GMT-0700 (Pacific Daylight Time)","745734","Trustworthy,Untrustworthy","html-keyboard-response","55","380993","0.0-11.0-1.15","","920","","<div class='trialDiv'><img src='Fruit/lemon.png'><br><font class='baseline'><strong>Lucky Lemons</strong><p>Choose number of points to bet.</font><div class='respPicDiv'><img src='img/responseButtonOffersNo0L.png' class='respPic'></div></div>","1","6","Lucky Lemons","Fruit/lemon.png","Lost","0.35,0.8","10","0.35","83","16","",""
"","","","decisionFB","","63e5c56c4ddeee504b9fa17f","bdp_rwlrn","Wed Mar 15 2023 22:10:36 GMT-0700 (Pacific Daylight Time)","745734","Trustworthy,Untrustworthy","html-keyboard-response","56","381245","0.0-11.0-2.15","","null","","<div class='trialDiv'><img src='Fruit/lemon.png'><br><font class='baseline'><strong>Lucky Lemons</strong><p>Choose number of points to bet.</font><div class='respPicDiv'><img src='img/responseButtonOffersNo0L1.png' class='respPic'></div></div>","null","6","Lucky Lemons","Fruit/lemon.png","Lost","0.35,0.8","10","0.35","82","16","",""
"","","","feedback","","63e5c56c4ddeee504b9fa17f","bdp_rwlrn","Wed Mar 15 2023 22:10:36 GMT-0700 (Pacific Daylight Time)","745734","Trustworthy,Untrustworthy","html-keyboard-response","57","382246","0.0-11.0-3.15","","null","","<div class='respPicDiv'><img src='img/responseButtonOffersNo0_wht.png' class='respPic'></div><div class='trialDiv'><img src='Fruit/lemon.png'><br><font class='baseline'><strong>Lucky Lemons</strong><p><strong><font class='negOutcome'>You LOST</font><p>You bet: 1</strong></font> &nbsp; &nbsp; &nbsp; &nbsp; &nbsp; &nbsp;<font class='negOutcome'>You receive: <strong>0</strong></font></div>","null","6","Lucky Lemons","Fruit/lemon.png","Lost","0.35,0.8","10","0.35","82","16","",""
"","","","decision","","63e5c56c4ddeee504b9fa17f","bdp_rwlrn","Wed Mar 15 2023 22:10:36 GMT-0700 (Pacific Daylight Time)","745734","Trustworthy,Untrustworthy","html-keyboard-response","58","383046","0.0-11.0-1.16","","799","","<div class='trialDiv'><img src='Fruit/melon.png'><br><font class='baseline'><strong>Melon Millions</strong><p>Choose number of points to bet.</font><div class='respPicDiv'><img src='img/responseButtonOffersNo0L.png' class='respPic'></div></div>","3","6","Melon Millions","Fruit/melon.png","Won","0.2,0.8","8","0.2","87","17","",""
"","","","decisionFB","","63e5c56c4ddeee504b9fa17f","bdp_rwlrn","Wed Mar 15 2023 22:10:36 GMT-0700 (Pacific Daylight Time)","745734","Trustworthy,Untrustworthy","html-keyboard-response","59","383297","0.0-11.0-2.16","","null","","<div class='trialDiv'><img src='Fruit/melon.png'><br><font class='baseline'><strong>Melon Millions</strong><p>Choose number of points to bet.</font><div class='respPicDiv'><img src='img/responseButtonOffersNo0L3.png' class='respPic'></div></div>","null","6","Melon Millions","Fruit/melon.png","Won","0.2,0.8","8","0.2","84","17","",""
"","","","feedback","","63e5c56c4ddeee504b9fa17f","bdp_rwlrn","Wed Mar 15 2023 22:10:36 GMT-0700 (Pacific Daylight Time)","745734","Trustworthy,Untrustworthy","html-keyboard-response","60","384342","0.0-11.0-3.16","","null","","<div class='respPicDiv'><img src='img/responseButtonOffersNo0_wht.png' class='respPic'></div><div class='trialDiv'><img src='Fruit/melon.png'><br><font class='baseline'><strong>Melon Millions</strong><p><strong><font class='posOutcome'>You WON</font><p>You bet: 3</strong></font> &nbsp; &nbsp; &nbsp; &nbsp; &nbsp; &nbsp;<font class='posOutcome'>you receive: <strong>6</strong></font></div>","null","6","Melon Millions","Fruit/melon.png","Won","0.2,0.8","8","0.2","90","17","",""
"","","","decision","","63e5c56c4ddeee504b9fa17f","bdp_rwlrn","Wed Mar 15 2023 22:10:36 GMT-0700 (Pacific Daylight Time)","745734","Trustworthy,Untrustworthy","html-keyboard-response","61","385276","0.0-11.0-1.17","","934","","<div class='trialDiv'><img src='Fruit/apple.png'><br><font class='baseline'><strong>Awesome Apples</strong><p>Choose number of points to bet.</font><div class='respPicDiv'><img src='img/responseButtonOffersNo0L.png' class='respPic'></div></div>","2","6","Awesome Apples","Fruit/apple.png","Won","0.8,0.35","14","0.8","95","18","",""
"","","","decisionFB","","63e5c56c4ddeee504b9fa17f","bdp_rwlrn","Wed Mar 15 2023 22:10:36 GMT-0700 (Pacific Daylight Time)","745734","Trustworthy,Untrustworthy","html-keyboard-response","62","385527","0.0-11.0-2.17","","null","","<div class='trialDiv'><img src='Fruit/apple.png'><br><font class='baseline'><strong>Awesome Apples</strong><p>Choose number of points to bet.</font><div class='respPicDiv'><img src='img/responseButtonOffersNo0L2.png' class='respPic'></div></div>","null","6","Awesome Apples","Fruit/apple.png","Won","0.8,0.35","14","0.8","93","18","",""
"","","","feedback","","63e5c56c4ddeee504b9fa17f","bdp_rwlrn","Wed Mar 15 2023 22:10:36 GMT-0700 (Pacific Daylight Time)","745734","Trustworthy,Untrustworthy","html-keyboard-response","63","386529","0.0-11.0-3.17","","null","","<div class='respPicDiv'><img src='img/responseButtonOffersNo0_wht.png' class='respPic'></div><div class='trialDiv'><img src='Fruit/apple.png'><br><font class='baseline'><strong>Awesome Apples</strong><p><strong><font class='posOutcome'>You WON</font><p>You bet: 2</strong></font> &nbsp; &nbsp; &nbsp; &nbsp; &nbsp; &nbsp;<font class='posOutcome'>you receive: <strong>4</strong></font></div>","null","6","Awesome Apples","Fruit/apple.png","Won","0.8,0.35","14","0.8","97","18","",""
"","","","decision","","63e5c56c4ddeee504b9fa17f","bdp_rwlrn","Wed Mar 15 2023 22:10:36 GMT-0700 (Pacific Daylight Time)","745734","Trustworthy,Untrustworthy","html-keyboard-response","64","387616","0.0-11.0-1.18","","1087","","<div class='trialDiv'><img src='Fruit/melon.png'><br><font class='baseline'><strong>Melon Millions</strong><p>Choose number of points to bet.</font><div class='respPicDiv'><img src='img/responseButtonOffersNo0L.png' class='respPic'></div></div>","4","7","Melon Millions","Fruit/melon.png","Won","0.2,0.8","8","0.2","102","19","",""
"","","","decisionFB","","63e5c56c4ddeee504b9fa17f","bdp_rwlrn","Wed Mar 15 2023 22:10:36 GMT-0700 (Pacific Daylight Time)","745734","Trustworthy,Untrustworthy","html-keyboard-response","65","387867","0.0-11.0-2.18","","null","","<div class='trialDiv'><img src='Fruit/melon.png'><br><font class='baseline'><strong>Melon Millions</strong><p>Choose number of points to bet.</font><div class='respPicDiv'><img src='img/responseButtonOffersNo0L4.png' class='respPic'></div></div>","null","7","Melon Millions","Fruit/melon.png","Won","0.2,0.8","8","0.2","98","19","",""
"","","","feedback","","63e5c56c4ddeee504b9fa17f","bdp_rwlrn","Wed Mar 15 2023 22:10:36 GMT-0700 (Pacific Daylight Time)","745734","Trustworthy,Untrustworthy","html-keyboard-response","66","388868","0.0-11.0-3.18","","null","","<div class='respPicDiv'><img src='img/responseButtonOffersNo0_wht.png' class='respPic'></div><div class='trialDiv'><img src='Fruit/melon.png'><br><font class='baseline'><strong>Melon Millions</strong><p><strong><font class='posOutcome'>You WON</font><p>You bet: 4</strong></font> &nbsp; &nbsp; &nbsp; &nbsp; &nbsp; &nbsp;<font class='posOutcome'>you receive: <strong>8</strong></font></div>","null","7","Melon Millions","Fruit/melon.png","Won","0.2,0.8","8","0.2","106","19","",""
"","","","decision","","63e5c56c4ddeee504b9fa17f","bdp_rwlrn","Wed Mar 15 2023 22:10:36 GMT-0700 (Pacific Daylight Time)","745734","Trustworthy,Untrustworthy","html-keyboard-response","67","390408","0.0-11.0-1.19","","1539","","<div class='trialDiv'><img src='Fruit/apple.png'><br><font class='baseline'><strong>Awesome Apples</strong><p>Choose number of points to bet.</font><div class='respPicDiv'><img src='img/responseButtonOffersNo0L.png' class='respPic'></div></div>","5","7","Awesome Apples","Fruit/apple.png","Won","0.8,0.35","14","0.8","111","20","",""
"","","","decisionFB","","63e5c56c4ddeee504b9fa17f","bdp_rwlrn","Wed Mar 15 2023 22:10:36 GMT-0700 (Pacific Daylight Time)","745734","Trustworthy,Untrustworthy","html-keyboard-response","68","390660","0.0-11.0-2.19","","null","","<div class='trialDiv'><img src='Fruit/apple.png'><br><font class='baseline'><strong>Awesome Apples</strong><p>Choose number of points to bet.</font><div class='respPicDiv'><img src='img/responseButtonOffersNo0L5.png' class='respPic'></div></div>","null","7","Awesome Apples","Fruit/apple.png","Won","0.8,0.35","14","0.8","106","20","",""
"","","","feedback","","63e5c56c4ddeee504b9fa17f","bdp_rwlrn","Wed Mar 15 2023 22:10:36 GMT-0700 (Pacific Daylight Time)","745734","Trustworthy,Untrustworthy","html-keyboard-response","69","391661","0.0-11.0-3.19","","null","","<div class='respPicDiv'><img src='img/responseButtonOffersNo0_wht.png' class='respPic'></div><div class='trialDiv'><img src='Fruit/apple.png'><br><font class='baseline'><strong>Awesome Apples</strong><p><strong><font class='posOutcome'>You WON</font><p>You bet: 5</strong></font> &nbsp; &nbsp; &nbsp; &nbsp; &nbsp; &nbsp;<font class='posOutcome'>you receive: <strong>10</strong></font></div>","null","7","Awesome Apples","Fruit/apple.png","Won","0.8,0.35","14","0.8","116","20","",""
"","","","decision","","63e5c56c4ddeee504b9fa17f","bdp_rwlrn","Wed Mar 15 2023 22:10:36 GMT-0700 (Pacific Daylight Time)","745734","Trustworthy,Untrustworthy","html-keyboard-response","70","393106","0.0-11.0-1.20","","1444","","<div class='trialDiv'><img src='Fruit/lemon.png'><br><font class='baseline'><strong>Lucky Lemons</strong><p>Choose number of points to bet.</font><div class='respPicDiv'><img src='img/responseButtonOffersNo0L.png' class='respPic'></div></div>","2","7","Lucky Lemons","Fruit/lemon.png","Won","0.35,0.8","10","0.35","121","21","",""
"","","","decisionFB","","63e5c56c4ddeee504b9fa17f","bdp_rwlrn","Wed Mar 15 2023 22:10:36 GMT-0700 (Pacific Daylight Time)","745734","Trustworthy,Untrustworthy","html-keyboard-response","71","393358","0.0-11.0-2.20","","null","","<div class='trialDiv'><img src='Fruit/lemon.png'><br><font class='baseline'><strong>Lucky Lemons</strong><p>Choose number of points to bet.</font><div class='respPicDiv'><img src='img/responseButtonOffersNo0L2.png' class='respPic'></div></div>","null","7","Lucky Lemons","Fruit/lemon.png","Won","0.35,0.8","10","0.35","119","21","",""
"","","","feedback","","63e5c56c4ddeee504b9fa17f","bdp_rwlrn","Wed Mar 15 2023 22:10:36 GMT-0700 (Pacific Daylight Time)","745734","Trustworthy,Untrustworthy","html-keyboard-response","72","394359","0.0-11.0-3.20","","null","","<div class='respPicDiv'><img src='img/responseButtonOffersNo0_wht.png' class='respPic'></div><div class='trialDiv'><img src='Fruit/lemon.png'><br><font class='baseline'><strong>Lucky Lemons</strong><p><strong><font class='posOutcome'>You WON</font><p>You bet: 2</strong></font> &nbsp; &nbsp; &nbsp; &nbsp; &nbsp; &nbsp;<font class='posOutcome'>you receive: <strong>4</strong></font></div>","null","7","Lucky Lemons","Fruit/lemon.png","Won","0.35,0.8","10","0.35","123","21","",""
"","","","decision","","63e5c56c4ddeee504b9fa17f","bdp_rwlrn","Wed Mar 15 2023 22:10:36 GMT-0700 (Pacific Daylight Time)","745734","Trustworthy,Untrustworthy","html-keyboard-response","73","396477","0.0-11.0-1.21","","2118","","<div class='trialDiv'><img src='Fruit/apple.png'><br><font class='baseline'><strong>Awesome Apples</strong><p>Choose number of points to bet.</font><div class='respPicDiv'><img src='img/responseButtonOffersNo0L.png' class='respPic'></div></div>","5","8","Awesome Apples","Fruit/apple.png","Won","0.8,0.35","14","0.8","128","22","",""
"","","","decisionFB","","63e5c56c4ddeee504b9fa17f","bdp_rwlrn","Wed Mar 15 2023 22:10:36 GMT-0700 (Pacific Daylight Time)","745734","Trustworthy,Untrustworthy","html-keyboard-response","74","396728","0.0-11.0-2.21","","null","","<div class='trialDiv'><img src='Fruit/apple.png'><br><font class='baseline'><strong>Awesome Apples</strong><p>Choose number of points to bet.</font><div class='respPicDiv'><img src='img/responseButtonOffersNo0L5.png' class='respPic'></div></div>","null","8","Awesome Apples","Fruit/apple.png","Won","0.8,0.35","14","0.8","123","22","",""
"","","","feedback","","63e5c56c4ddeee504b9fa17f","bdp_rwlrn","Wed Mar 15 2023 22:10:36 GMT-0700 (Pacific Daylight Time)","745734","Trustworthy,Untrustworthy","html-keyboard-response","75","397729","0.0-11.0-3.21","","null","","<div class='respPicDiv'><img src='img/responseButtonOffersNo0_wht.png' class='respPic'></div><div class='trialDiv'><img src='Fruit/apple.png'><br><font class='baseline'><strong>Awesome Apples</strong><p><strong><font class='posOutcome'>You WON</font><p>You bet: 5</strong></font> &nbsp; &nbsp; &nbsp; &nbsp; &nbsp; &nbsp;<font class='posOutcome'>you receive: <strong>10</strong></font></div>","null","8","Awesome Apples","Fruit/apple.png","Won","0.8,0.35","14","0.8","133","22","",""
"","","","decision","","63e5c56c4ddeee504b9fa17f","bdp_rwlrn","Wed Mar 15 2023 22:10:36 GMT-0700 (Pacific Daylight Time)","745734","Trustworthy,Untrustworthy","html-keyboard-response","76","398801","0.0-11.0-1.22","","1071","","<div class='trialDiv'><img src='Fruit/melon.png'><br><font class='baseline'><strong>Melon Millions</strong><p>Choose number of points to bet.</font><div class='respPicDiv'><img src='img/responseButtonOffersNo0L.png' class='respPic'></div></div>","1","8","Melon Millions","Fruit/melon.png","Won","0.2,0.8","8","0.2","138","23","",""
"","","","decisionFB","","63e5c56c4ddeee504b9fa17f","bdp_rwlrn","Wed Mar 15 2023 22:10:36 GMT-0700 (Pacific Daylight Time)","745734","Trustworthy,Untrustworthy","html-keyboard-response","77","399052","0.0-11.0-2.22","","null","","<div class='trialDiv'><img src='Fruit/melon.png'><br><font class='baseline'><strong>Melon Millions</strong><p>Choose number of points to bet.</font><div class='respPicDiv'><img src='img/responseButtonOffersNo0L1.png' class='respPic'></div></div>","null","8","Melon Millions","Fruit/melon.png","Won","0.2,0.8","8","0.2","137","23","",""
"","","","feedback","","63e5c56c4ddeee504b9fa17f","bdp_rwlrn","Wed Mar 15 2023 22:10:36 GMT-0700 (Pacific Daylight Time)","745734","Trustworthy,Untrustworthy","html-keyboard-response","78","400054","0.0-11.0-3.22","","null","","<div class='respPicDiv'><img src='img/responseButtonOffersNo0_wht.png' class='respPic'></div><div class='trialDiv'><img src='Fruit/melon.png'><br><font class='baseline'><strong>Melon Millions</strong><p><strong><font class='posOutcome'>You WON</font><p>You bet: 1</strong></font> &nbsp; &nbsp; &nbsp; &nbsp; &nbsp; &nbsp;<font class='posOutcome'>you receive: <strong>2</strong></font></div>","null","8","Melon Millions","Fruit/melon.png","Won","0.2,0.8","8","0.2","139","23","",""
"","","","decision","","63e5c56c4ddeee504b9fa17f","bdp_rwlrn","Wed Mar 15 2023 22:10:36 GMT-0700 (Pacific Daylight Time)","745734","Trustworthy,Untrustworthy","html-keyboard-response","79","400646","0.0-11.0-1.23","","592","","<div class='trialDiv'><img src='Fruit/lemon.png'><br><font class='baseline'><strong>Lucky Lemons</strong><p>Choose number of points to bet.</font><div class='respPicDiv'><img src='img/responseButtonOffersNo0L.png' class='respPic'></div></div>","1","8","Lucky Lemons","Fruit/lemon.png","Lost","0.35,0.8","10","0.35","144","24","",""
"","","","decisionFB","","63e5c56c4ddeee504b9fa17f","bdp_rwlrn","Wed Mar 15 2023 22:10:36 GMT-0700 (Pacific Daylight Time)","745734","Trustworthy,Untrustworthy","html-keyboard-response","80","400897","0.0-11.0-2.23","","null","","<div class='trialDiv'><img src='Fruit/lemon.png'><br><font class='baseline'><strong>Lucky Lemons</strong><p>Choose number of points to bet.</font><div class='respPicDiv'><img src='img/responseButtonOffersNo0L1.png' class='respPic'></div></div>","null","8","Lucky Lemons","Fruit/lemon.png","Lost","0.35,0.8","10","0.35","143","24","",""
"","","","feedback","","63e5c56c4ddeee504b9fa17f","bdp_rwlrn","Wed Mar 15 2023 22:10:36 GMT-0700 (Pacific Daylight Time)","745734","Trustworthy,Untrustworthy","html-keyboard-response","81","402342","0.0-11.0-3.23","","null","","<div class='respPicDiv'><img src='img/responseButtonOffersNo0_wht.png' class='respPic'></div><div class='trialDiv'><img src='Fruit/lemon.png'><br><font class='baseline'><strong>Lucky Lemons</strong><p><strong><font class='negOutcome'>You LOST</font><p>You bet: 1</strong></font> &nbsp; &nbsp; &nbsp; &nbsp; &nbsp; &nbsp;<font class='negOutcome'>You receive: <strong>0</strong></font></div>","null","8","Lucky Lemons","Fruit/lemon.png","Lost","0.35,0.8","10","0.35","143","24","",""
"","","","decision","","63e5c56c4ddeee504b9fa17f","bdp_rwlrn","Wed Mar 15 2023 22:10:36 GMT-0700 (Pacific Daylight Time)","745734","Trustworthy,Untrustworthy","html-keyboard-response","82","402847","0.0-11.0-1.24","","505","","<div class='trialDiv'><img src='Fruit/apple.png'><br><font class='baseline'><strong>Awesome Apples</strong><p>Choose number of points to bet.</font><div class='respPicDiv'><img src='img/responseButtonOffersNo0L.png' class='respPic'></div></div>","5","9","Awesome Apples","Fruit/apple.png","Lost","0.8,0.35","14","0.8","148","25","",""
"","","","decisionFB","","63e5c56c4ddeee504b9fa17f","bdp_rwlrn","Wed Mar 15 2023 22:10:36 GMT-0700 (Pacific Daylight Time)","745734","Trustworthy,Untrustworthy","html-keyboard-response","83","403099","0.0-11.0-2.24","","null","","<div class='trialDiv'><img src='Fruit/apple.png'><br><font class='baseline'><strong>Awesome Apples</strong><p>Choose number of points to bet.</font><div class='respPicDiv'><img src='img/responseButtonOffersNo0L5.png' class='respPic'></div></div>","null","9","Awesome Apples","Fruit/apple.png","Lost","0.8,0.35","14","0.8","143","25","",""
"","","","feedback","","63e5c56c4ddeee504b9fa17f","bdp_rwlrn","Wed Mar 15 2023 22:10:36 GMT-0700 (Pacific Daylight Time)","745734","Trustworthy,Untrustworthy","html-keyboard-response","84","404101","0.0-11.0-3.24","","null","","<div class='respPicDiv'><img src='img/responseButtonOffersNo0_wht.png' class='respPic'></div><div class='trialDiv'><img src='Fruit/apple.png'><br><font class='baseline'><strong>Awesome Apples</strong><p><strong><font class='negOutcome'>You LOST</font><p>You bet: 5</strong></font> &nbsp; &nbsp; &nbsp; &nbsp; &nbsp; &nbsp;<font class='negOutcome'>You receive: <strong>0</strong></font></div>","null","9","Awesome Apples","Fruit/apple.png","Lost","0.8,0.35","14","0.8","143","25","",""
"","","","decision","","63e5c56c4ddeee504b9fa17f","bdp_rwlrn","Wed Mar 15 2023 22:10:36 GMT-0700 (Pacific Daylight Time)","745734","Trustworthy,Untrustworthy","html-keyboard-response","85","405325","0.0-11.0-1.25","","1224","","<div class='trialDiv'><img src='Fruit/lemon.png'><br><font class='baseline'><strong>Lucky Lemons</strong><p>Choose number of points to bet.</font><div class='respPicDiv'><img src='img/responseButtonOffersNo0L.png' class='respPic'></div></div>","3","9","Lucky Lemons","Fruit/lemon.png","Lost","0.35,0.8","10","0.35","148","26","",""
"","","","decisionFB","","63e5c56c4ddeee504b9fa17f","bdp_rwlrn","Wed Mar 15 2023 22:10:36 GMT-0700 (Pacific Daylight Time)","745734","Trustworthy,Untrustworthy","html-keyboard-response","86","405577","0.0-11.0-2.25","","null","","<div class='trialDiv'><img src='Fruit/lemon.png'><br><font class='baseline'><strong>Lucky Lemons</strong><p>Choose number of points to bet.</font><div class='respPicDiv'><img src='img/responseButtonOffersNo0L3.png' class='respPic'></div></div>","null","9","Lucky Lemons","Fruit/lemon.png","Lost","0.35,0.8","10","0.35","145","26","",""
"","","","feedback","","63e5c56c4ddeee504b9fa17f","bdp_rwlrn","Wed Mar 15 2023 22:10:36 GMT-0700 (Pacific Daylight Time)","745734","Trustworthy,Untrustworthy","html-keyboard-response","87","406578","0.0-11.0-3.25","","null","","<div class='respPicDiv'><img src='img/responseButtonOffersNo0_wht.png' class='respPic'></div><div class='trialDiv'><img src='Fruit/lemon.png'><br><font class='baseline'><strong>Lucky Lemons</strong><p><strong><font class='negOutcome'>You LOST</font><p>You bet: 3</strong></font> &nbsp; &nbsp; &nbsp; &nbsp; &nbsp; &nbsp;<font class='negOutcome'>You receive: <strong>0</strong></font></div>","null","9","Lucky Lemons","Fruit/lemon.png","Lost","0.35,0.8","10","0.35","145","26","",""
"","","","decision","","63e5c56c4ddeee504b9fa17f","bdp_rwlrn","Wed Mar 15 2023 22:10:36 GMT-0700 (Pacific Daylight Time)","745734","Trustworthy,Untrustworthy","html-keyboard-response","88","407499","0.0-11.0-1.26","","921","","<div class='trialDiv'><img src='Fruit/melon.png'><br><font class='baseline'><strong>Melon Millions</strong><p>Choose number of points to bet.</font><div class='respPicDiv'><img src='img/responseButtonOffersNo0L.png' class='respPic'></div></div>","4","9","Melon Millions","Fruit/melon.png","Won","0.2,0.8","8","0.2","150","27","",""
"","","","decisionFB","","63e5c56c4ddeee504b9fa17f","bdp_rwlrn","Wed Mar 15 2023 22:10:36 GMT-0700 (Pacific Daylight Time)","745734","Trustworthy,Untrustworthy","html-keyboard-response","89","407750","0.0-11.0-2.26","","null","","<div class='trialDiv'><img src='Fruit/melon.png'><br><font class='baseline'><strong>Melon Millions</strong><p>Choose number of points to bet.</font><div class='respPicDiv'><img src='img/responseButtonOffersNo0L4.png' class='respPic'></div></div>","null","9","Melon Millions","Fruit/melon.png","Won","0.2,0.8","8","0.2","146","27","",""
"","","","feedback","","63e5c56c4ddeee504b9fa17f","bdp_rwlrn","Wed Mar 15 2023 22:10:36 GMT-0700 (Pacific Daylight Time)","745734","Trustworthy,Untrustworthy","html-keyboard-response","90","409341","0.0-11.0-3.26","","null","","<div class='respPicDiv'><img src='img/responseButtonOffersNo0_wht.png' class='respPic'></div><div class='trialDiv'><img src='Fruit/melon.png'><br><font class='baseline'><strong>Melon Millions</strong><p><strong><font class='posOutcome'>You WON</font><p>You bet: 4</strong></font> &nbsp; &nbsp; &nbsp; &nbsp; &nbsp; &nbsp;<font class='posOutcome'>you receive: <strong>8</strong></font></div>","null","9","Melon Millions","Fruit/melon.png","Won","0.2,0.8","8","0.2","154","27","",""
"","","","decision","","63e5c56c4ddeee504b9fa17f","bdp_rwlrn","Wed Mar 15 2023 22:10:36 GMT-0700 (Pacific Daylight Time)","745734","Trustworthy,Untrustworthy","html-keyboard-response","91","410166","0.0-11.0-1.27","","823","","<div class='trialDiv'><img src='Fruit/apple.png'><br><font class='baseline'><strong>Awesome Apples</strong><p>Choose number of points to bet.</font><div class='respPicDiv'><img src='img/responseButtonOffersNo0L.png' class='respPic'></div></div>","5","10","Awesome Apples","Fruit/apple.png","Lost","0.8,0.35","14","0.8","159","28","",""
"","","","decisionFB","","63e5c56c4ddeee504b9fa17f","bdp_rwlrn","Wed Mar 15 2023 22:10:36 GMT-0700 (Pacific Daylight Time)","745734","Trustworthy,Untrustworthy","html-keyboard-response","92","410417","0.0-11.0-2.27","","null","","<div class='trialDiv'><img src='Fruit/apple.png'><br><font class='baseline'><strong>Awesome Apples</strong><p>Choose number of points to bet.</font><div class='respPicDiv'><img src='img/responseButtonOffersNo0L5.png' class='respPic'></div></div>","null","10","Awesome Apples","Fruit/apple.png","Lost","0.8,0.35","14","0.8","154","28","",""
"","","","feedback","","63e5c56c4ddeee504b9fa17f","bdp_rwlrn","Wed Mar 15 2023 22:10:36 GMT-0700 (Pacific Daylight Time)","745734","Trustworthy,Untrustworthy","html-keyboard-response","93","411419","0.0-11.0-3.27","","null","","<div class='respPicDiv'><img src='img/responseButtonOffersNo0_wht.png' class='respPic'></div><div class='trialDiv'><img src='Fruit/apple.png'><br><font class='baseline'><strong>Awesome Apples</strong><p><strong><font class='negOutcome'>You LOST</font><p>You bet: 5</strong></font> &nbsp; &nbsp; &nbsp; &nbsp; &nbsp; &nbsp;<font class='negOutcome'>You receive: <strong>0</strong></font></div>","null","10","Awesome Apples","Fruit/apple.png","Lost","0.8,0.35","14","0.8","154","28","",""
"","","","decision","","63e5c56c4ddeee504b9fa17f","bdp_rwlrn","Wed Mar 15 2023 22:10:36 GMT-0700 (Pacific Daylight Time)","745734","Trustworthy,Untrustworthy","html-keyboard-response","94","412418","0.0-11.0-1.28","","999","","<div class='trialDiv'><img src='Fruit/lemon.png'><br><font class='baseline'><strong>Lucky Lemons</strong><p>Choose number of points to bet.</font><div class='respPicDiv'><img src='img/responseButtonOffersNo0L.png' class='respPic'></div></div>","1","10","Lucky Lemons","Fruit/lemon.png","Lost","0.35,0.8","10","0.35","159","29","",""
"","","","decisionFB","","63e5c56c4ddeee504b9fa17f","bdp_rwlrn","Wed Mar 15 2023 22:10:36 GMT-0700 (Pacific Daylight Time)","745734","Trustworthy,Untrustworthy","html-keyboard-response","95","412669","0.0-11.0-2.28","","null","","<div class='trialDiv'><img src='Fruit/lemon.png'><br><font class='baseline'><strong>Lucky Lemons</strong><p>Choose number of points to bet.</font><div class='respPicDiv'><img src='img/responseButtonOffersNo0L1.png' class='respPic'></div></div>","null","10","Lucky Lemons","Fruit/lemon.png","Lost","0.35,0.8","10","0.35","158","29","",""
"","","","feedback","","63e5c56c4ddeee504b9fa17f","bdp_rwlrn","Wed Mar 15 2023 22:10:36 GMT-0700 (Pacific Daylight Time)","745734","Trustworthy,Untrustworthy","html-keyboard-response","96","413671","0.0-11.0-3.28","","null","","<div class='respPicDiv'><img src='img/responseButtonOffersNo0_wht.png' class='respPic'></div><div class='trialDiv'><img src='Fruit/lemon.png'><br><font class='baseline'><strong>Lucky Lemons</strong><p><strong><font class='negOutcome'>You LOST</font><p>You bet: 1</strong></font> &nbsp; &nbsp; &nbsp; &nbsp; &nbsp; &nbsp;<font class='negOutcome'>You receive: <strong>0</strong></font></div>","null","10","Lucky Lemons","Fruit/lemon.png","Lost","0.35,0.8","10","0.35","158","29","",""
"","","","decision","","63e5c56c4ddeee504b9fa17f","bdp_rwlrn","Wed Mar 15 2023 22:10:36 GMT-0700 (Pacific Daylight Time)","745734","Trustworthy,Untrustworthy","html-keyboard-response","97","414450","0.0-11.0-1.29","","778","","<div class='trialDiv'><img src='Fruit/melon.png'><br><font class='baseline'><strong>Melon Millions</strong><p>Choose number of points to bet.</font><div class='respPicDiv'><img src='img/responseButtonOffersNo0L.png' class='respPic'></div></div>","1","10","Melon Millions","Fruit/melon.png","Lost","0.2,0.8","8","0.2","163","30","",""
"","","","decisionFB","","63e5c56c4ddeee504b9fa17f","bdp_rwlrn","Wed Mar 15 2023 22:10:36 GMT-0700 (Pacific Daylight Time)","745734","Trustworthy,Untrustworthy","html-keyboard-response","98","414701","0.0-11.0-2.29","","null","","<div class='trialDiv'><img src='Fruit/melon.png'><br><font class='baseline'><strong>Melon Millions</strong><p>Choose number of points to bet.</font><div class='respPicDiv'><img src='img/responseButtonOffersNo0L1.png' class='respPic'></div></div>","null","10","Melon Millions","Fruit/melon.png","Lost","0.2,0.8","8","0.2","162","30","",""
"","","","feedback","","63e5c56c4ddeee504b9fa17f","bdp_rwlrn","Wed Mar 15 2023 22:10:36 GMT-0700 (Pacific Daylight Time)","745734","Trustworthy,Untrustworthy","html-keyboard-response","99","416342","0.0-11.0-3.29","","null","","<div class='respPicDiv'><img src='img/responseButtonOffersNo0_wht.png' class='respPic'></div><div class='trialDiv'><img src='Fruit/melon.png'><br><font class='baseline'><strong>Melon Millions</strong><p><strong><font class='negOutcome'>You LOST</font><p>You bet: 1</strong></font> &nbsp; &nbsp; &nbsp; &nbsp; &nbsp; &nbsp;<font class='negOutcome'>You receive: <strong>0</strong></font></div>","null","10","Melon Millions","Fruit/melon.png","Lost","0.2,0.8","8","0.2","162","30","",""
"","","","decision","","63e5c56c4ddeee504b9fa17f","bdp_rwlrn","Wed Mar 15 2023 22:10:36 GMT-0700 (Pacific Daylight Time)","745734","Trustworthy,Untrustworthy","html-keyboard-response","100","416991","0.0-11.0-1.30","","648","","<div class='trialDiv'><img src='Fruit/apple.png'><br><font class='baseline'><strong>Awesome Apples</strong><p>Choose number of points to bet.</font><div class='respPicDiv'><img src='img/responseButtonOffersNo0L.png' class='respPic'></div></div>","3","11","Awesome Apples","Fruit/apple.png","Won","0.8,0.35","14","0.8","167","31","",""
"","","","decisionFB","","63e5c56c4ddeee504b9fa17f","bdp_rwlrn","Wed Mar 15 2023 22:10:36 GMT-0700 (Pacific Daylight Time)","745734","Trustworthy,Untrustworthy","html-keyboard-response","101","417243","0.0-11.0-2.30","","null","","<div class='trialDiv'><img src='Fruit/apple.png'><br><font class='baseline'><strong>Awesome Apples</strong><p>Choose number of points to bet.</font><div class='respPicDiv'><img src='img/responseButtonOffersNo0L3.png' class='respPic'></div></div>","null","11","Awesome Apples","Fruit/apple.png","Won","0.8,0.35","14","0.8","164","31","",""
"","","","feedback","","63e5c56c4ddeee504b9fa17f","bdp_rwlrn","Wed Mar 15 2023 22:10:36 GMT-0700 (Pacific Daylight Time)","745734","Trustworthy,Untrustworthy","html-keyboard-response","102","418245","0.0-11.0-3.30","","null","","<div class='respPicDiv'><img src='img/responseButtonOffersNo0_wht.png' class='respPic'></div><div class='trialDiv'><img src='Fruit/apple.png'><br><font class='baseline'><strong>Awesome Apples</strong><p><strong><font class='posOutcome'>You WON</font><p>You bet: 3</strong></font> &nbsp; &nbsp; &nbsp; &nbsp; &nbsp; &nbsp;<font class='posOutcome'>you receive: <strong>6</strong></font></div>","null","11","Awesome Apples","Fruit/apple.png","Won","0.8,0.35","14","0.8","170","31","",""
"","","","decision","","63e5c56c4ddeee504b9fa17f","bdp_rwlrn","Wed Mar 15 2023 22:10:36 GMT-0700 (Pacific Daylight Time)","745734","Trustworthy,Untrustworthy","html-keyboard-response","103","418950","0.0-11.0-1.31","","704","","<div class='trialDiv'><img src='Fruit/melon.png'><br><font class='baseline'><strong>Melon Millions</strong><p>Choose number of points to bet.</font><div class='respPicDiv'><img src='img/responseButtonOffersNo0L.png' class='respPic'></div></div>","1","11","Melon Millions","Fruit/melon.png","Won","0.2,0.8","8","0.2","175","32","",""
"","","","decisionFB","","63e5c56c4ddeee504b9fa17f","bdp_rwlrn","Wed Mar 15 2023 22:10:36 GMT-0700 (Pacific Daylight Time)","745734","Trustworthy,Untrustworthy","html-keyboard-response","104","419202","0.0-11.0-2.31","","null","","<div class='trialDiv'><img src='Fruit/melon.png'><br><font class='baseline'><strong>Melon Millions</strong><p>Choose number of points to bet.</font><div class='respPicDiv'><img src='img/responseButtonOffersNo0L1.png' class='respPic'></div></div>","null","11","Melon Millions","Fruit/melon.png","Won","0.2,0.8","8","0.2","174","32","",""
"","","","feedback","","63e5c56c4ddeee504b9fa17f","bdp_rwlrn","Wed Mar 15 2023 22:10:36 GMT-0700 (Pacific Daylight Time)","745734","Trustworthy,Untrustworthy","html-keyboard-response","105","420203","0.0-11.0-3.31","","null","","<div class='respPicDiv'><img src='img/responseButtonOffersNo0_wht.png' class='respPic'></div><div class='trialDiv'><img src='Fruit/melon.png'><br><font class='baseline'><strong>Melon Millions</strong><p><strong><font class='posOutcome'>You WON</font><p>You bet: 1</strong></font> &nbsp; &nbsp; &nbsp; &nbsp; &nbsp; &nbsp;<font class='posOutcome'>you receive: <strong>2</strong></font></div>","null","11","Melon Millions","Fruit/melon.png","Won","0.2,0.8","8","0.2","176","32","",""
"","","","decision","","63e5c56c4ddeee504b9fa17f","bdp_rwlrn","Wed Mar 15 2023 22:10:36 GMT-0700 (Pacific Daylight Time)","745734","Trustworthy,Untrustworthy","html-keyboard-response","106","420683","0.0-11.0-1.32","","480","","<div class='trialDiv'><img src='Fruit/lemon.png'><br><font class='baseline'><strong>Lucky Lemons</strong><p>Choose number of points to bet.</font><div class='respPicDiv'><img src='img/responseButtonOffersNo0L.png' class='respPic'></div></div>","1","11","Lucky Lemons","Fruit/lemon.png","Won","0.35,0.8","10","0.35","181","33","",""
"","","","decisionFB","","63e5c56c4ddeee504b9fa17f","bdp_rwlrn","Wed Mar 15 2023 22:10:36 GMT-0700 (Pacific Daylight Time)","745734","Trustworthy,Untrustworthy","html-keyboard-response","107","420935","0.0-11.0-2.32","","null","","<div class='trialDiv'><img src='Fruit/lemon.png'><br><font class='baseline'><strong>Lucky Lemons</strong><p>Choose number of points to bet.</font><div class='respPicDiv'><img src='img/responseButtonOffersNo0L1.png' class='respPic'></div></div>","null","11","Lucky Lemons","Fruit/lemon.png","Won","0.35,0.8","10","0.35","180","33","",""
"","","","feedback","","63e5c56c4ddeee504b9fa17f","bdp_rwlrn","Wed Mar 15 2023 22:10:36 GMT-0700 (Pacific Daylight Time)","745734","Trustworthy,Untrustworthy","html-keyboard-response","108","421937","0.0-11.0-3.32","","null","","<div class='respPicDiv'><img src='img/responseButtonOffersNo0_wht.png' class='respPic'></div><div class='trialDiv'><img src='Fruit/lemon.png'><br><font class='baseline'><strong>Lucky Lemons</strong><p><strong><font class='posOutcome'>You WON</font><p>You bet: 1</strong></font> &nbsp; &nbsp; &nbsp; &nbsp; &nbsp; &nbsp;<font class='posOutcome'>you receive: <strong>2</strong></font></div>","null","11","Lucky Lemons","Fruit/lemon.png","Won","0.35,0.8","10","0.35","182","33","",""
"","","","decision","","63e5c56c4ddeee504b9fa17f","bdp_rwlrn","Wed Mar 15 2023 22:10:36 GMT-0700 (Pacific Daylight Time)","745734","Trustworthy,Untrustworthy","html-keyboard-response","109","423064","0.0-11.0-1.33","","1127","","<div class='trialDiv'><img src='Fruit/melon.png'><br><font class='baseline'><strong>Melon Millions</strong><p>Choose number of points to bet.</font><div class='respPicDiv'><img src='img/responseButtonOffersNo0L.png' class='respPic'></div></div>","2","12","Melon Millions","Fruit/melon.png","Won","0.2,0.8","8","0.2","187","34","",""
"","","","decisionFB","","63e5c56c4ddeee504b9fa17f","bdp_rwlrn","Wed Mar 15 2023 22:10:36 GMT-0700 (Pacific Daylight Time)","745734","Trustworthy,Untrustworthy","html-keyboard-response","110","423315","0.0-11.0-2.33","","null","","<div class='trialDiv'><img src='Fruit/melon.png'><br><font class='baseline'><strong>Melon Millions</strong><p>Choose number of points to bet.</font><div class='respPicDiv'><img src='img/responseButtonOffersNo0L2.png' class='respPic'></div></div>","null","12","Melon Millions","Fruit/melon.png","Won","0.2,0.8","8","0.2","185","34","",""
"","","","feedback","","63e5c56c4ddeee504b9fa17f","bdp_rwlrn","Wed Mar 15 2023 22:10:36 GMT-0700 (Pacific Daylight Time)","745734","Trustworthy,Untrustworthy","html-keyboard-response","111","424316","0.0-11.0-3.33","","null","","<div class='respPicDiv'><img src='img/responseButtonOffersNo0_wht.png' class='respPic'></div><div class='trialDiv'><img src='Fruit/melon.png'><br><font class='baseline'><strong>Melon Millions</strong><p><strong><font class='posOutcome'>You WON</font><p>You bet: 2</strong></font> &nbsp; &nbsp; &nbsp; &nbsp; &nbsp; &nbsp;<font class='posOutcome'>you receive: <strong>4</strong></font></div>","null","12","Melon Millions","Fruit/melon.png","Won","0.2,0.8","8","0.2","189","34","",""
"","","","decision","","63e5c56c4ddeee504b9fa17f","bdp_rwlrn","Wed Mar 15 2023 22:10:36 GMT-0700 (Pacific Daylight Time)","745734","Trustworthy,Untrustworthy","html-keyboard-response","112","428044","0.0-11.0-1.34","","3727","","<div class='trialDiv'><img src='Fruit/apple.png'><br><font class='baseline'><strong>Awesome Apples</strong><p>Choose number of points to bet.</font><div class='respPicDiv'><img src='img/responseButtonOffersNo0L.png' class='respPic'></div></div>","3","12","Awesome Apples","Fruit/apple.png","Lost","0.8,0.35","14","0.8","194","35","",""
"","","","decisionFB","","63e5c56c4ddeee504b9fa17f","bdp_rwlrn","Wed Mar 15 2023 22:10:36 GMT-0700 (Pacific Daylight Time)","745734","Trustworthy,Untrustworthy","html-keyboard-response","113","428295","0.0-11.0-2.34","","null","","<div class='trialDiv'><img src='Fruit/apple.png'><br><font class='baseline'><strong>Awesome Apples</strong><p>Choose number of points to bet.</font><div class='respPicDiv'><img src='img/responseButtonOffersNo0L3.png' class='respPic'></div></div>","null","12","Awesome Apples","Fruit/apple.png","Lost","0.8,0.35","14","0.8","191","35","",""
"","","","feedback","","63e5c56c4ddeee504b9fa17f","bdp_rwlrn","Wed Mar 15 2023 22:10:36 GMT-0700 (Pacific Daylight Time)","745734","Trustworthy,Untrustworthy","html-keyboard-response","114","429297","0.0-11.0-3.34","","null","","<div class='respPicDiv'><img src='img/responseButtonOffersNo0_wht.png' class='respPic'></div><div class='trialDiv'><img src='Fruit/apple.png'><br><font class='baseline'><strong>Awesome Apples</strong><p><strong><font class='negOutcome'>You LOST</font><p>You bet: 3</strong></font> &nbsp; &nbsp; &nbsp; &nbsp; &nbsp; &nbsp;<font class='negOutcome'>You receive: <strong>0</strong></font></div>","null","12","Awesome Apples","Fruit/apple.png","Lost","0.8,0.35","14","0.8","191","35","",""
"","","","decision","","63e5c56c4ddeee504b9fa17f","bdp_rwlrn","Wed Mar 15 2023 22:10:36 GMT-0700 (Pacific Daylight Time)","745734","Trustworthy,Untrustworthy","html-keyboard-response","115","430798","0.0-11.0-1.35","","1500","","<div class='trialDiv'><img src='Fruit/lemon.png'><br><font class='baseline'><strong>Lucky Lemons</strong><p>Choose number of points to bet.</font><div class='respPicDiv'><img src='img/responseButtonOffersNo0L.png' class='respPic'></div></div>","4","12","Lucky Lemons","Fruit/lemon.png","Won","0.35,0.8","10","0.35","196","36","",""
"","","","decisionFB","","63e5c56c4ddeee504b9fa17f","bdp_rwlrn","Wed Mar 15 2023 22:10:36 GMT-0700 (Pacific Daylight Time)","745734","Trustworthy,Untrustworthy","html-keyboard-response","116","431049","0.0-11.0-2.35","","null","","<div class='trialDiv'><img src='Fruit/lemon.png'><br><font class='baseline'><strong>Lucky Lemons</strong><p>Choose number of points to bet.</font><div class='respPicDiv'><img src='img/responseButtonOffersNo0L4.png' class='respPic'></div></div>","null","12","Lucky Lemons","Fruit/lemon.png","Won","0.35,0.8","10","0.35","192","36","",""
"","","","feedback","","63e5c56c4ddeee504b9fa17f","bdp_rwlrn","Wed Mar 15 2023 22:10:36 GMT-0700 (Pacific Daylight Time)","745734","Trustworthy,Untrustworthy","html-keyboard-response","117","432050","0.0-11.0-3.35","","null","","<div class='respPicDiv'><img src='img/responseButtonOffersNo0_wht.png' class='respPic'></div><div class='trialDiv'><img src='Fruit/lemon.png'><br><font class='baseline'><strong>Lucky Lemons</strong><p><strong><font class='posOutcome'>You WON</font><p>You bet: 4</strong></font> &nbsp; &nbsp; &nbsp; &nbsp; &nbsp; &nbsp;<font class='posOutcome'>you receive: <strong>8</strong></font></div>","null","12","Lucky Lemons","Fruit/lemon.png","Won","0.35,0.8","10","0.35","200","36","",""
"","","","decision","","63e5c56c4ddeee504b9fa17f","bdp_rwlrn","Wed Mar 15 2023 22:10:36 GMT-0700 (Pacific Daylight Time)","745734","Trustworthy,Untrustworthy","html-keyboard-response","118","432596","0.0-11.0-1.36","","546","","<div class='trialDiv'><img src='Fruit/apple.png'><br><font class='baseline'><strong>Awesome Apples</strong><p>Choose number of points to bet.</font><div class='respPicDiv'><img src='img/responseButtonOffersNo0L.png' class='respPic'></div></div>","1","13","Awesome Apples","Fruit/apple.png","Won","0.8,0.35","14","0.8","205","37","",""
"","","","decisionFB","","63e5c56c4ddeee504b9fa17f","bdp_rwlrn","Wed Mar 15 2023 22:10:36 GMT-0700 (Pacific Daylight Time)","745734","Trustworthy,Untrustworthy","html-keyboard-response","119","432847","0.0-11.0-2.36","","null","","<div class='trialDiv'><img src='Fruit/apple.png'><br><font class='baseline'><strong>Awesome Apples</strong><p>Choose number of points to bet.</font><div class='respPicDiv'><img src='img/responseButtonOffersNo0L1.png' class='respPic'></div></div>","null","13","Awesome Apples","Fruit/apple.png","Won","0.8,0.35","14","0.8","204","37","",""
"","","","feedback","","63e5c56c4ddeee504b9fa17f","bdp_rwlrn","Wed Mar 15 2023 22:10:36 GMT-0700 (Pacific Daylight Time)","745734","Trustworthy,Untrustworthy","html-keyboard-response","120","434342","0.0-11.0-3.36","","null","","<div class='respPicDiv'><img src='img/responseButtonOffersNo0_wht.png' class='respPic'></div><div class='trialDiv'><img src='Fruit/apple.png'><br><font class='baseline'><strong>Awesome Apples</strong><p><strong><font class='posOutcome'>You WON</font><p>You bet: 1</strong></font> &nbsp; &nbsp; &nbsp; &nbsp; &nbsp; &nbsp;<font class='posOutcome'>you receive: <strong>2</strong></font></div>","null","13","Awesome Apples","Fruit/apple.png","Won","0.8,0.35","14","0.8","206","37","",""
"","","","decision","","63e5c56c4ddeee504b9fa17f","bdp_rwlrn","Wed Mar 15 2023 22:10:36 GMT-0700 (Pacific Daylight Time)","745734","Trustworthy,Untrustworthy","html-keyboard-response","121","436435","0.0-11.0-1.37","","2093","","<div class='trialDiv'><img src='Fruit/melon.png'><br><font class='baseline'><strong>Melon Millions</strong><p>Choose number of points to bet.</font><div class='respPicDiv'><img src='img/responseButtonOffersNo0L.png' class='respPic'></div></div>","2","13","Melon Millions","Fruit/melon.png","Won","0.2,0.8","8","0.2","211","38","",""
"","","","decisionFB","","63e5c56c4ddeee504b9fa17f","bdp_rwlrn","Wed Mar 15 2023 22:10:36 GMT-0700 (Pacific Daylight Time)","745734","Trustworthy,Untrustworthy","html-keyboard-response","122","436687","0.0-11.0-2.37","","null","","<div class='trialDiv'><img src='Fruit/melon.png'><br><font class='baseline'><strong>Melon Millions</strong><p>Choose number of points to bet.</font><div class='respPicDiv'><img src='img/responseButtonOffersNo0L2.png' class='respPic'></div></div>","null","13","Melon Millions","Fruit/melon.png","Won","0.2,0.8","8","0.2","209","38","",""
"","","","feedback","","63e5c56c4ddeee504b9fa17f","bdp_rwlrn","Wed Mar 15 2023 22:10:36 GMT-0700 (Pacific Daylight Time)","745734","Trustworthy,Untrustworthy","html-keyboard-response","123","437688","0.0-11.0-3.37","","null","","<div class='respPicDiv'><img src='img/responseButtonOffersNo0_wht.png' class='respPic'></div><div class='trialDiv'><img src='Fruit/melon.png'><br><font class='baseline'><strong>Melon Millions</strong><p><strong><font class='posOutcome'>You WON</font><p>You bet: 2</strong></font> &nbsp; &nbsp; &nbsp; &nbsp; &nbsp; &nbsp;<font class='posOutcome'>you receive: <strong>4</strong></font></div>","null","13","Melon Millions","Fruit/melon.png","Won","0.2,0.8","8","0.2","213","38","",""
"","","","decision","","63e5c56c4ddeee504b9fa17f","bdp_rwlrn","Wed Mar 15 2023 22:10:36 GMT-0700 (Pacific Daylight Time)","745734","Trustworthy,Untrustworthy","html-keyboard-response","124","438426","0.0-11.0-1.38","","736","","<div class='trialDiv'><img src='Fruit/lemon.png'><br><font class='baseline'><strong>Lucky Lemons</strong><p>Choose number of points to bet.</font><div class='respPicDiv'><img src='img/responseButtonOffersNo0L.png' class='respPic'></div></div>","1","13","Lucky Lemons","Fruit/lemon.png","Won","0.35,0.8","10","0.35","218","39","",""
"","","","decisionFB","","63e5c56c4ddeee504b9fa17f","bdp_rwlrn","Wed Mar 15 2023 22:10:36 GMT-0700 (Pacific Daylight Time)","745734","Trustworthy,Untrustworthy","html-keyboard-response","125","438677","0.0-11.0-2.38","","null","","<div class='trialDiv'><img src='Fruit/lemon.png'><br><font class='baseline'><strong>Lucky Lemons</strong><p>Choose number of points to bet.</font><div class='respPicDiv'><img src='img/responseButtonOffersNo0L1.png' class='respPic'></div></div>","null","13","Lucky Lemons","Fruit/lemon.png","Won","0.35,0.8","10","0.35","217","39","",""
"","","","feedback","","63e5c56c4ddeee504b9fa17f","bdp_rwlrn","Wed Mar 15 2023 22:10:36 GMT-0700 (Pacific Daylight Time)","745734","Trustworthy,Untrustworthy","html-keyboard-response","126","439678","0.0-11.0-3.38","","null","","<div class='respPicDiv'><img src='img/responseButtonOffersNo0_wht.png' class='respPic'></div><div class='trialDiv'><img src='Fruit/lemon.png'><br><font class='baseline'><strong>Lucky Lemons</strong><p><strong><font class='posOutcome'>You WON</font><p>You bet: 1</strong></font> &nbsp; &nbsp; &nbsp; &nbsp; &nbsp; &nbsp;<font class='posOutcome'>you receive: <strong>2</strong></font></div>","null","13","Lucky Lemons","Fruit/lemon.png","Won","0.35,0.8","10","0.35","219","39","",""
"","","","decision","","63e5c56c4ddeee504b9fa17f","bdp_rwlrn","Wed Mar 15 2023 22:10:36 GMT-0700 (Pacific Daylight Time)","745734","Trustworthy,Untrustworthy","html-keyboard-response","127","440228","0.0-11.0-1.39","","549","","<div class='trialDiv'><img src='Fruit/melon.png'><br><font class='baseline'><strong>Melon Millions</strong><p>Choose number of points to bet.</font><div class='respPicDiv'><img src='img/responseButtonOffersNo0L.png' class='respPic'></div></div>","3","14","Melon Millions","Fruit/melon.png","Won","0.2,0.8","8","0.2","224","40","",""
"","","","decisionFB","","63e5c56c4ddeee504b9fa17f","bdp_rwlrn","Wed Mar 15 2023 22:10:36 GMT-0700 (Pacific Daylight Time)","745734","Trustworthy,Untrustworthy","html-keyboard-response","128","440480","0.0-11.0-2.39","","null","","<div class='trialDiv'><img src='Fruit/melon.png'><br><font class='baseline'><strong>Melon Millions</strong><p>Choose number of points to bet.</font><div class='respPicDiv'><img src='img/responseButtonOffersNo0L3.png' class='respPic'></div></div>","null","14","Melon Millions","Fruit/melon.png","Won","0.2,0.8","8","0.2","221","40","",""
"","","","feedback","","63e5c56c4ddeee504b9fa17f","bdp_rwlrn","Wed Mar 15 2023 22:10:36 GMT-0700 (Pacific Daylight Time)","745734","Trustworthy,Untrustworthy","html-keyboard-response","129","442341","0.0-11.0-3.39","","null","","<div class='respPicDiv'><img src='img/responseButtonOffersNo0_wht.png' class='respPic'></div><div class='trialDiv'><img src='Fruit/melon.png'><br><font class='baseline'><strong>Melon Millions</strong><p><strong><font class='posOutcome'>You WON</font><p>You bet: 3</strong></font> &nbsp; &nbsp; &nbsp; &nbsp; &nbsp; &nbsp;<font class='posOutcome'>you receive: <strong>6</strong></font></div>","null","14","Melon Millions","Fruit/melon.png","Won","0.2,0.8","8","0.2","227","40","",""
"","","","decision","","63e5c56c4ddeee504b9fa17f","bdp_rwlrn","Wed Mar 15 2023 22:10:36 GMT-0700 (Pacific Daylight Time)","745734","Trustworthy,Untrustworthy","html-keyboard-response","130","443101","0.0-11.0-1.40","","758","","<div class='trialDiv'><img src='Fruit/lemon.png'><br><font class='baseline'><strong>Lucky Lemons</strong><p>Choose number of points to bet.</font><div class='respPicDiv'><img src='img/responseButtonOffersNo0L.png' class='respPic'></div></div>","4","14","Lucky Lemons","Fruit/lemon.png","Won","0.35,0.8","10","0.35","232","41","",""
"","","","decisionFB","","63e5c56c4ddeee504b9fa17f","bdp_rwlrn","Wed Mar 15 2023 22:10:36 GMT-0700 (Pacific Daylight Time)","745734","Trustworthy,Untrustworthy","html-keyboard-response","131","443352","0.0-11.0-2.40","","null","","<div class='trialDiv'><img src='Fruit/lemon.png'><br><font class='baseline'><strong>Lucky Lemons</strong><p>Choose number of points to bet.</font><div class='respPicDiv'><img src='img/responseButtonOffersNo0L4.png' class='respPic'></div></div>","null","14","Lucky Lemons","Fruit/lemon.png","Won","0.35,0.8","10","0.35","228","41","",""
"","","","feedback","","63e5c56c4ddeee504b9fa17f","bdp_rwlrn","Wed Mar 15 2023 22:10:36 GMT-0700 (Pacific Daylight Time)","745734","Trustworthy,Untrustworthy","html-keyboard-response","132","444353","0.0-11.0-3.40","","null","","<div class='respPicDiv'><img src='img/responseButtonOffersNo0_wht.png' class='respPic'></div><div class='trialDiv'><img src='Fruit/lemon.png'><br><font class='baseline'><strong>Lucky Lemons</strong><p><strong><font class='posOutcome'>You WON</font><p>You bet: 4</strong></font> &nbsp; &nbsp; &nbsp; &nbsp; &nbsp; &nbsp;<font class='posOutcome'>you receive: <strong>8</strong></font></div>","null","14","Lucky Lemons","Fruit/lemon.png","Won","0.35,0.8","10","0.35","236","41","",""
"","","","decision","","63e5c56c4ddeee504b9fa17f","bdp_rwlrn","Wed Mar 15 2023 22:10:36 GMT-0700 (Pacific Daylight Time)","745734","Trustworthy,Untrustworthy","html-keyboard-response","133","445224","0.0-11.0-1.41","","870","","<div class='trialDiv'><img src='Fruit/apple.png'><br><font class='baseline'><strong>Awesome Apples</strong><p>Choose number of points to bet.</font><div class='respPicDiv'><img src='img/responseButtonOffersNo0L.png' class='respPic'></div></div>","1","14","Awesome Apples","Fruit/apple.png","Lost","0.8,0.35","14","0.8","241","42","",""
"","","","decisionFB","","63e5c56c4ddeee504b9fa17f","bdp_rwlrn","Wed Mar 15 2023 22:10:36 GMT-0700 (Pacific Daylight Time)","745734","Trustworthy,Untrustworthy","html-keyboard-response","134","445476","0.0-11.0-2.41","","null","","<div class='trialDiv'><img src='Fruit/apple.png'><br><font class='baseline'><strong>Awesome Apples</strong><p>Choose number of points to bet.</font><div class='respPicDiv'><img src='img/responseButtonOffersNo0L1.png' class='respPic'></div></div>","null","14","Awesome Apples","Fruit/apple.png","Lost","0.8,0.35","14","0.8","240","42","",""
"","","","feedback","","63e5c56c4ddeee504b9fa17f","bdp_rwlrn","Wed Mar 15 2023 22:10:36 GMT-0700 (Pacific Daylight Time)","745734","Trustworthy,Untrustworthy","html-keyboard-response","135","446478","0.0-11.0-3.41","","null","","<div class='respPicDiv'><img src='img/responseButtonOffersNo0_wht.png' class='respPic'></div><div class='trialDiv'><img src='Fruit/apple.png'><br><font class='baseline'><strong>Awesome Apples</strong><p><strong><font class='negOutcome'>You LOST</font><p>You bet: 1</strong></font> &nbsp; &nbsp; &nbsp; &nbsp; &nbsp; &nbsp;<font class='negOutcome'>You receive: <strong>0</strong></font></div>","null","14","Awesome Apples","Fruit/apple.png","Lost","0.8,0.35","14","0.8","240","42","",""
"","","","decision","","63e5c56c4ddeee504b9fa17f","bdp_rwlrn","Wed Mar 15 2023 22:10:36 GMT-0700 (Pacific Daylight Time)","745734","Trustworthy,Untrustworthy","html-keyboard-response","136","446791","0.0-11.0-1.42","","313","","<div class='trialDiv'><img src='Fruit/melon.png'><br><font class='baseline'><strong>Melon Millions</strong><p>Choose number of points to bet.</font><div class='respPicDiv'><img src='img/responseButtonOffersNo0L.png' class='respPic'></div></div>","4","15","Melon Millions","Fruit/melon.png","Won","0.2,0.8","8","0.2","245","43","",""
"","","","decisionFB","","63e5c56c4ddeee504b9fa17f","bdp_rwlrn","Wed Mar 15 2023 22:10:36 GMT-0700 (Pacific Daylight Time)","745734","Trustworthy,Untrustworthy","html-keyboard-response","137","447043","0.0-11.0-2.42","","null","","<div class='trialDiv'><img src='Fruit/melon.png'><br><font class='baseline'><strong>Melon Millions</strong><p>Choose number of points to bet.</font><div class='respPicDiv'><img src='img/responseButtonOffersNo0L4.png' class='respPic'></div></div>","null","15","Melon Millions","Fruit/melon.png","Won","0.2,0.8","8","0.2","241","43","",""
"","","","feedback","","63e5c56c4ddeee504b9fa17f","bdp_rwlrn","Wed Mar 15 2023 22:10:36 GMT-0700 (Pacific Daylight Time)","745734","Trustworthy,Untrustworthy","html-keyboard-response","138","448045","0.0-11.0-3.42","","null","","<div class='respPicDiv'><img src='img/responseButtonOffersNo0_wht.png' class='respPic'></div><div class='trialDiv'><img src='Fruit/melon.png'><br><font class='baseline'><strong>Melon Millions</strong><p><strong><font class='posOutcome'>You WON</font><p>You bet: 4</strong></font> &nbsp; &nbsp; &nbsp; &nbsp; &nbsp; &nbsp;<font class='posOutcome'>you receive: <strong>8</strong></font></div>","null","15","Melon Millions","Fruit/melon.png","Won","0.2,0.8","8","0.2","249","43","",""
"","","","decision","","63e5c56c4ddeee504b9fa17f","bdp_rwlrn","Wed Mar 15 2023 22:10:36 GMT-0700 (Pacific Daylight Time)","745734","Trustworthy,Untrustworthy","html-keyboard-response","139","448769","0.0-11.0-1.43","","724","","<div class='trialDiv'><img src='Fruit/apple.png'><br><font class='baseline'><strong>Awesome Apples</strong><p>Choose number of points to bet.</font><div class='respPicDiv'><img src='img/responseButtonOffersNo0L.png' class='respPic'></div></div>","1","15","Awesome Apples","Fruit/apple.png","Lost","0.8,0.35","14","0.8","254","44","",""
"","","","decisionFB","","63e5c56c4ddeee504b9fa17f","bdp_rwlrn","Wed Mar 15 2023 22:10:36 GMT-0700 (Pacific Daylight Time)","745734","Trustworthy,Untrustworthy","html-keyboard-response","140","449021","0.0-11.0-2.43","","null","","<div class='trialDiv'><img src='Fruit/apple.png'><br><font class='baseline'><strong>Awesome Apples</strong><p>Choose number of points to bet.</font><div class='respPicDiv'><img src='img/responseButtonOffersNo0L1.png' class='respPic'></div></div>","null","15","Awesome Apples","Fruit/apple.png","Lost","0.8,0.35","14","0.8","253","44","",""
"","","","feedback","","63e5c56c4ddeee504b9fa17f","bdp_rwlrn","Wed Mar 15 2023 22:10:36 GMT-0700 (Pacific Daylight Time)","745734","Trustworthy,Untrustworthy","html-keyboard-response","141","450022","0.0-11.0-3.43","","null","","<div class='respPicDiv'><img src='img/responseButtonOffersNo0_wht.png' class='respPic'></div><div class='trialDiv'><img src='Fruit/apple.png'><br><font class='baseline'><strong>Awesome Apples</strong><p><strong><font class='negOutcome'>You LOST</font><p>You bet: 1</strong></font> &nbsp; &nbsp; &nbsp; &nbsp; &nbsp; &nbsp;<font class='negOutcome'>You receive: <strong>0</strong></font></div>","null","15","Awesome Apples","Fruit/apple.png","Lost","0.8,0.35","14","0.8","253","44","",""
"","","","decision","","63e5c56c4ddeee504b9fa17f","bdp_rwlrn","Wed Mar 15 2023 22:10:36 GMT-0700 (Pacific Daylight Time)","745734","Trustworthy,Untrustworthy","html-keyboard-response","142","451040","0.0-11.0-1.44","","1017","","<div class='trialDiv'><img src='Fruit/lemon.png'><br><font class='baseline'><strong>Lucky Lemons</strong><p>Choose number of points to bet.</font><div class='respPicDiv'><img src='img/responseButtonOffersNo0L.png' class='respPic'></div></div>","3","15","Lucky Lemons","Fruit/lemon.png","Won","0.35,0.8","10","0.35","258","45","",""
"","","","decisionFB","","63e5c56c4ddeee504b9fa17f","bdp_rwlrn","Wed Mar 15 2023 22:10:36 GMT-0700 (Pacific Daylight Time)","745734","Trustworthy,Untrustworthy","html-keyboard-response","143","451292","0.0-11.0-2.44","","null","","<div class='trialDiv'><img src='Fruit/lemon.png'><br><font class='baseline'><strong>Lucky Lemons</strong><p>Choose number of points to bet.</font><div class='respPicDiv'><img src='img/responseButtonOffersNo0L3.png' class='respPic'></div></div>","null","15","Lucky Lemons","Fruit/lemon.png","Won","0.35,0.8","10","0.35","255","45","",""
"","","","feedback","","63e5c56c4ddeee504b9fa17f","bdp_rwlrn","Wed Mar 15 2023 22:10:36 GMT-0700 (Pacific Daylight Time)","745734","Trustworthy,Untrustworthy","html-keyboard-response","144","452294","0.0-11.0-3.44","","null","","<div class='respPicDiv'><img src='img/responseButtonOffersNo0_wht.png' class='respPic'></div><div class='trialDiv'><img src='Fruit/lemon.png'><br><font class='baseline'><strong>Lucky Lemons</strong><p><strong><font class='posOutcome'>You WON</font><p>You bet: 3</strong></font> &nbsp; &nbsp; &nbsp; &nbsp; &nbsp; &nbsp;<font class='posOutcome'>you receive: <strong>6</strong></font></div>","null","15","Lucky Lemons","Fruit/lemon.png","Won","0.35,0.8","10","0.35","261","45","",""
"","","","decision","","63e5c56c4ddeee504b9fa17f","bdp_rwlrn","Wed Mar 15 2023 22:10:36 GMT-0700 (Pacific Daylight Time)","745734","Trustworthy,Untrustworthy","html-keyboard-response","145","452713","0.0-11.0-1.45","","419","","<div class='trialDiv'><img src='Fruit/melon.png'><br><font class='baseline'><strong>Melon Millions</strong><p>Choose number of points to bet.</font><div class='respPicDiv'><img src='img/responseButtonOffersNo0L.png' class='respPic'></div></div>","5","16","Melon Millions","Fruit/melon.png","Won","0.2,0.8","8","0.2","266","46","",""
"","","","decisionFB","","63e5c56c4ddeee504b9fa17f","bdp_rwlrn","Wed Mar 15 2023 22:10:36 GMT-0700 (Pacific Daylight Time)","745734","Trustworthy,Untrustworthy","html-keyboard-response","146","452965","0.0-11.0-2.45","","null","","<div class='trialDiv'><img src='Fruit/melon.png'><br><font class='baseline'><strong>Melon Millions</strong><p>Choose number of points to bet.</font><div class='respPicDiv'><img src='img/responseButtonOffersNo0L5.png' class='respPic'></div></div>","null","16","Melon Millions","Fruit/melon.png","Won","0.2,0.8","8","0.2","261","46","",""
"","","","feedback","","63e5c56c4ddeee504b9fa17f","bdp_rwlrn","Wed Mar 15 2023 22:10:36 GMT-0700 (Pacific Daylight Time)","745734","Trustworthy,Untrustworthy","html-keyboard-response","147","454341","0.0-11.0-3.45","","null","","<div class='respPicDiv'><img src='img/responseButtonOffersNo0_wht.png' class='respPic'></div><div class='trialDiv'><img src='Fruit/melon.png'><br><font class='baseline'><strong>Melon Millions</strong><p><strong><font class='posOutcome'>You WON</font><p>You bet: 5</strong></font> &nbsp; &nbsp; &nbsp; &nbsp; &nbsp; &nbsp;<font class='posOutcome'>you receive: <strong>10</strong></font></div>","null","16","Melon Millions","Fruit/melon.png","Won","0.2,0.8","8","0.2","271","46","",""
"","","","decision","","63e5c56c4ddeee504b9fa17f","bdp_rwlrn","Wed Mar 15 2023 22:10:36 GMT-0700 (Pacific Daylight Time)","745734","Trustworthy,Untrustworthy","html-keyboard-response","148","454764","0.0-11.0-1.46","","422","","<div class='trialDiv'><img src='Fruit/lemon.png'><br><font class='baseline'><strong>Lucky Lemons</strong><p>Choose number of points to bet.</font><div class='respPicDiv'><img src='img/responseButtonOffersNo0L.png' class='respPic'></div></div>","5","16","Lucky Lemons","Fruit/lemon.png","Won","0.35,0.8","10","0.35","276","47","",""
"","","","decisionFB","","63e5c56c4ddeee504b9fa17f","bdp_rwlrn","Wed Mar 15 2023 22:10:36 GMT-0700 (Pacific Daylight Time)","745734","Trustworthy,Untrustworthy","html-keyboard-response","149","455015","0.0-11.0-2.46","","null","","<div class='trialDiv'><img src='Fruit/lemon.png'><br><font class='baseline'><strong>Lucky Lemons</strong><p>Choose number of points to bet.</font><div class='respPicDiv'><img src='img/responseButtonOffersNo0L5.png' class='respPic'></div></div>","null","16","Lucky Lemons","Fruit/lemon.png","Won","0.35,0.8","10","0.35","271","47","",""
"","","","feedback","","63e5c56c4ddeee504b9fa17f","bdp_rwlrn","Wed Mar 15 2023 22:10:36 GMT-0700 (Pacific Daylight Time)","745734","Trustworthy,Untrustworthy","html-keyboard-response","150","456016","0.0-11.0-3.46","","null","","<div class='respPicDiv'><img src='img/responseButtonOffersNo0_wht.png' class='respPic'></div><div class='trialDiv'><img src='Fruit/lemon.png'><br><font class='baseline'><strong>Lucky Lemons</strong><p><strong><font class='posOutcome'>You WON</font><p>You bet: 5</strong></font> &nbsp; &nbsp; &nbsp; &nbsp; &nbsp; &nbsp;<font class='posOutcome'>you receive: <strong>10</strong></font></div>","null","16","Lucky Lemons","Fruit/lemon.png","Won","0.35,0.8","10","0.35","281","47","",""
"","","","decision","","63e5c56c4ddeee504b9fa17f","bdp_rwlrn","Wed Mar 15 2023 22:10:36 GMT-0700 (Pacific Daylight Time)","745734","Trustworthy,Untrustworthy","html-keyboard-response","151","456614","0.0-11.0-1.47","","597","","<div class='trialDiv'><img src='Fruit/apple.png'><br><font class='baseline'><strong>Awesome Apples</strong><p>Choose number of points to bet.</font><div class='respPicDiv'><img src='img/responseButtonOffersNo0L.png' class='respPic'></div></div>","1","16","Awesome Apples","Fruit/apple.png","Lost","0.8,0.35","14","0.8","286","48","",""
"","","","decisionFB","","63e5c56c4ddeee504b9fa17f","bdp_rwlrn","Wed Mar 15 2023 22:10:36 GMT-0700 (Pacific Daylight Time)","745734","Trustworthy,Untrustworthy","html-keyboard-response","152","456865","0.0-11.0-2.47","","null","","<div class='trialDiv'><img src='Fruit/apple.png'><br><font class='baseline'><strong>Awesome Apples</strong><p>Choose number of points to bet.</font><div class='respPicDiv'><img src='img/responseButtonOffersNo0L1.png' class='respPic'></div></div>","null","16","Awesome Apples","Fruit/apple.png","Lost","0.8,0.35","14","0.8","285","48","",""
"","","","feedback","","63e5c56c4ddeee504b9fa17f","bdp_rwlrn","Wed Mar 15 2023 22:10:36 GMT-0700 (Pacific Daylight Time)","745734","Trustworthy,Untrustworthy","html-keyboard-response","153","457867","0.0-11.0-3.47","","null","","<div class='respPicDiv'><img src='img/responseButtonOffersNo0_wht.png' class='respPic'></div><div class='trialDiv'><img src='Fruit/apple.png'><br><font class='baseline'><strong>Awesome Apples</strong><p><strong><font class='negOutcome'>You LOST</font><p>You bet: 1</strong></font> &nbsp; &nbsp; &nbsp; &nbsp; &nbsp; &nbsp;<font class='negOutcome'>You receive: <strong>0</strong></font></div>","null","16","Awesome Apples","Fruit/apple.png","Lost","0.8,0.35","14","0.8","285","48","",""
"","","","decision","","63e5c56c4ddeee504b9fa17f","bdp_rwlrn","Wed Mar 15 2023 22:10:36 GMT-0700 (Pacific Daylight Time)","745734","Trustworthy,Untrustworthy","html-keyboard-response","154","460673","0.0-11.0-1.48","","2806","","<div class='trialDiv'><img src='Fruit/lemon.png'><br><font class='baseline'><strong>Lucky Lemons</strong><p>Choose number of points to bet.</font><div class='respPicDiv'><img src='img/responseButtonOffersNo0L.png' class='respPic'></div></div>","4","17","Lucky Lemons","Fruit/lemon.png","Won","0.35,0.8","10","0.35","290","49","",""
"","","","decisionFB","","63e5c56c4ddeee504b9fa17f","bdp_rwlrn","Wed Mar 15 2023 22:10:36 GMT-0700 (Pacific Daylight Time)","745734","Trustworthy,Untrustworthy","html-keyboard-response","155","460925","0.0-11.0-2.48","","null","","<div class='trialDiv'><img src='Fruit/lemon.png'><br><font class='baseline'><strong>Lucky Lemons</strong><p>Choose number of points to bet.</font><div class='respPicDiv'><img src='img/responseButtonOffersNo0L4.png' class='respPic'></div></div>","null","17","Lucky Lemons","Fruit/lemon.png","Won","0.35,0.8","10","0.35","286","49","",""
"","","","feedback","","63e5c56c4ddeee504b9fa17f","bdp_rwlrn","Wed Mar 15 2023 22:10:36 GMT-0700 (Pacific Daylight Time)","745734","Trustworthy,Untrustworthy","html-keyboard-response","156","461926","0.0-11.0-3.48","","null","","<div class='respPicDiv'><img src='img/responseButtonOffersNo0_wht.png' class='respPic'></div><div class='trialDiv'><img src='Fruit/lemon.png'><br><font class='baseline'><strong>Lucky Lemons</strong><p><strong><font class='posOutcome'>You WON</font><p>You bet: 4</strong></font> &nbsp; &nbsp; &nbsp; &nbsp; &nbsp; &nbsp;<font class='posOutcome'>you receive: <strong>8</strong></font></div>","null","17","Lucky Lemons","Fruit/lemon.png","Won","0.35,0.8","10","0.35","294","49","",""
"","","","decision","","63e5c56c4ddeee504b9fa17f","bdp_rwlrn","Wed Mar 15 2023 22:10:36 GMT-0700 (Pacific Daylight Time)","745734","Trustworthy,Untrustworthy","html-keyboard-response","157","462597","0.0-11.0-1.49","","671","","<div class='trialDiv'><img src='Fruit/apple.png'><br><font class='baseline'><strong>Awesome Apples</strong><p>Choose number of points to bet.</font><div class='respPicDiv'><img src='img/responseButtonOffersNo0L.png' class='respPic'></div></div>","5","17","Awesome Apples","Fruit/apple.png","Lost","0.8,0.35","14","0.8","299","50","",""
"","","","decisionFB","","63e5c56c4ddeee504b9fa17f","bdp_rwlrn","Wed Mar 15 2023 22:10:36 GMT-0700 (Pacific Daylight Time)","745734","Trustworthy,Untrustworthy","html-keyboard-response","158","462848","0.0-11.0-2.49","","null","","<div class='trialDiv'><img src='Fruit/apple.png'><br><font class='baseline'><strong>Awesome Apples</strong><p>Choose number of points to bet.</font><div class='respPicDiv'><img src='img/responseButtonOffersNo0L5.png' class='respPic'></div></div>","null","17","Awesome Apples","Fruit/apple.png","Lost","0.8,0.35","14","0.8","294","50","",""
"","","","feedback","","63e5c56c4ddeee504b9fa17f","bdp_rwlrn","Wed Mar 15 2023 22:10:36 GMT-0700 (Pacific Daylight Time)","745734","Trustworthy,Untrustworthy","html-keyboard-response","159","463849","0.0-11.0-3.49","","null","","<div class='respPicDiv'><img src='img/responseButtonOffersNo0_wht.png' class='respPic'></div><div class='trialDiv'><img src='Fruit/apple.png'><br><font class='baseline'><strong>Awesome Apples</strong><p><strong><font class='negOutcome'>You LOST</font><p>You bet: 5</strong></font> &nbsp; &nbsp; &nbsp; &nbsp; &nbsp; &nbsp;<font class='negOutcome'>You receive: <strong>0</strong></font></div>","null","17","Awesome Apples","Fruit/apple.png","Lost","0.8,0.35","14","0.8","294","50","",""
"","","","decision","","63e5c56c4ddeee504b9fa17f","bdp_rwlrn","Wed Mar 15 2023 22:10:36 GMT-0700 (Pacific Daylight Time)","745734","Trustworthy,Untrustworthy","html-keyboard-response","160","464351","0.0-11.0-1.50","","501","","<div class='trialDiv'><img src='Fruit/melon.png'><br><font class='baseline'><strong>Melon Millions</strong><p>Choose number of points to bet.</font><div class='respPicDiv'><img src='img/responseButtonOffersNo0L.png' class='respPic'></div></div>","5","17","Melon Millions","Fruit/melon.png","Won","0.2,0.8","8","0.2","299","51","",""
"","","","decisionFB","","63e5c56c4ddeee504b9fa17f","bdp_rwlrn","Wed Mar 15 2023 22:10:36 GMT-0700 (Pacific Daylight Time)","745734","Trustworthy,Untrustworthy","html-keyboard-response","161","464603","0.0-11.0-2.50","","null","","<div class='trialDiv'><img src='Fruit/melon.png'><br><font class='baseline'><strong>Melon Millions</strong><p>Choose number of points to bet.</font><div class='respPicDiv'><img src='img/responseButtonOffersNo0L5.png' class='respPic'></div></div>","null","17","Melon Millions","Fruit/melon.png","Won","0.2,0.8","8","0.2","294","51","",""
