"trial_type","trial_index","time_elapsed","internal_node_id","subject_id","task","startTime","totalTime","labels","view_history","rt","event","trial","time","trialtype","success","stimulus","key_press","ltround","name","fileID","outcome","lottotype","lottoswpt","lottocurrpshare","point_total","round","faceID","face"
"pavlovia","0","2","0.0-0.0","63d7a9346e833b93500723d4","bdp_rwlrn","Tue Mar 14 2023 20:38:26 GMT-0400 (Eastern Daylight Time)","494206","Trustworthy,Untrustworthy","","","","","","","","","","","","","","","","","","","",""
"instructions","1","4335","0.0-1.0","63d7a9346e833b93500723d4","bdp_rwlrn","Tue Mar 14 2023 20:38:26 GMT-0400 (Eastern Daylight Time)","494206","Trustworthy,Untrustworthy","[{""page_index"":0,""viewing_time"":4332}]","4333","","","","","","","","","","","","","","","","","",""
"","","","","63d7a9346e833b93500723d4","bdp_rwlrn","Tue Mar 14 2023 20:38:26 GMT-0400 (Eastern Daylight Time)","494206","Trustworthy,Untrustworthy","","","fullscreenenter","2","8934","fullscreenenter","","","","","","","","","","","","","",""
"fullscreen","2","9919","0.0-2.0","63d7a9346e833b93500723d4","bdp_rwlrn","Tue Mar 14 2023 20:38:26 GMT-0400 (Eastern Daylight Time)","494206","Trustworthy,Untrustworthy","","","","","","","true","","","","","","","","","","","","",""
"instructions","3","123084","0.0-4.0","63d7a9346e833b93500723d4","bdp_rwlrn","Tue Mar 14 2023 20:38:26 GMT-0400 (Eastern Daylight Time)","494206","Trustworthy,Untrustworthy","[{""page_index"":0,""viewing_time"":15621},{""page_index"":1,""viewing_time"":26968},{""page_index"":2,""viewing_time"":14440},{""page_index"":3,""viewing_time"":12200},{""page_index"":4,""viewing_time"":22463},{""page_index"":5,""viewing_time"":15728},{""page_index"":4,""viewing_time"":1904},{""page_index"":5,""viewing_time"":3840}]","113164","","","","","","","","","","","","","","","","","",""
"html-keyboard-response","4","131342","0.0-5.0","63d7a9346e833b93500723d4","bdp_rwlrn","Tue Mar 14 2023 20:38:26 GMT-0400 (Eastern Daylight Time)","494206","Trustworthy,Untrustworthy","","8257","","","","","","<div class='header' style='text-align:left; position: absolute; top: 5%; left: 5%;'><small>Task 1 of 5</small></div><div class='instruxDiv'><p><strong>1) What is the maximum number of points you can choose to bet on a lottery?</strong></p><p>a) 0</p><p>b) 1</p><p>c) 5</p>","C","","","","","","","","","","",""
"html-keyboard-response","5","133181","0.0-6.0","63d7a9346e833b93500723d4","bdp_rwlrn","Tue Mar 14 2023 20:38:26 GMT-0400 (Eastern Daylight Time)","494206","Trustworthy,Untrustworthy","","1725","","","","","","<div class='header' style='text-align:left; position: absolute; top: 5%; left: 5%;'><small>Task 1 of 5</small></div><div class='instruxDiv'><p><strong>1) What is the maximum number of points you can choose to bet on a lottery?</strong></p><p>a) 1</p><p>b) 1</p><p style='color:#00FF00'>c) 5</p><h3 style='color:#00FF00'>Correct!</h3><h3 class='center-content'>The correct response is c).</h3><h3 class='center-content'>The maximum number of points you can choose to bet on a lottery is 5 points.</h3><p><em>Press SPACEBAR to continue</em></p></div>"," ","","","","","","","","","","",""
"html-keyboard-response","6","138789","0.0-7.0","63d7a9346e833b93500723d4","bdp_rwlrn","Tue Mar 14 2023 20:38:26 GMT-0400 (Eastern Daylight Time)","494206","Trustworthy,Untrustworthy","","5501","","","","","","<div class='header' style='text-align:left; position: absolute; top: 5%; left: 5%;'><small>Task 1 of 5</small></div><div class='instruxDiv'><p><strong>2) How many points can you win each round?</strong></p><p>a) 10 points</p><p>b) Double what you bet</p><p>c) Quadruple what you bet</p>","B","","","","","","","","","","",""
"html-keyboard-response","7","140653","0.0-8.0","63d7a9346e833b93500723d4","bdp_rwlrn","Tue Mar 14 2023 20:38:26 GMT-0400 (Eastern Daylight Time)","494206","Trustworthy,Untrustworthy","","1761","","","","","","<div class='header' style='text-align:left; position: absolute; top: 5%; left: 5%;'><small>Task 1 of 5</small></div><div class='instruxDiv'><p><strong>2) How many points can you win each round?</strong></p><p>a) 10 points</p><p style='color:#00FF00'>b) Double what you bet</p><p>c) Quadruple what you bet</p><h3 style='color:#00FF00'>Correct!</h3><h3 class='center-content'>The correct response is b).</h3><h3 class='center-content'>You can win double the amount of points you bet.</h3><p><em>Press SPACEBAR to continue</em></p></div>"," ","","","","","","","","","","",""
"html-keyboard-response","8","145771","0.0-9.0","63d7a9346e833b93500723d4","bdp_rwlrn","Tue Mar 14 2023 20:38:26 GMT-0400 (Eastern Daylight Time)","494206","Trustworthy,Untrustworthy","","null","","","","","","<div class='header' style='text-align:left; position: absolute; top: 5%; left: 5%;'><small>Task 1 of 5</small></div><div class='instruxDiv'><p>Thank you for completing the quiz<p>These are the actual lotteries you will be playing in the next block:<p><div class='tc' align='center'><img class='introPic' src='Fruit/watermelon.png'><br><strong>Watermelon Win$</strong></div><div class='bl' align='center'><img class='introPic' src='Fruit/plums1.png'><br><strong>Plum Powerball</strong></div><div class='br' align='center'><img class='introPic' src='Fruit/lime.png'><br><strong>Limin' Large</strong></div></div><p>Across <strong>66 rounds</strong> you will play each lottery <strong>22 times</strong> (in random order).<p style='align:center; color:white'><font <em>Press SPACEBAR to continue</em></p>","null","","","","","","","","","","",""
"instructions","9","168293","0.0-10.0","63d7a9346e833b93500723d4","bdp_rwlrn","Tue Mar 14 2023 20:38:26 GMT-0400 (Eastern Daylight Time)","494206","Trustworthy,Untrustworthy","[{""page_index"":0,""viewing_time"":15090},{""page_index"":1,""viewing_time"":7432}]","22522","","","","","","","","","","","","","","","","","",""
"html-keyboard-response","10","172557","0.0-11.0-1.0","63d7a9346e833b93500723d4","bdp_rwlrn","Tue Mar 14 2023 20:38:26 GMT-0400 (Eastern Daylight Time)","494206","Trustworthy,Untrustworthy","","4149","","","","decision","","<div class='trialDiv'><img src='Fruit/lime.png'><br><font class='baseline'><strong>Limin' Large</strong><p>Choose number of points to bet.</font><div class='respPicDiv'><img src='img/responseButtonOffersNo0L.png' class='respPic'></div></div>","2","1","Limin' Large","Fruit/lime.png","Lost","0.2,0.65","9","0.2","5","1","",""
"html-keyboard-response","11","172814","0.0-11.0-2.0","63d7a9346e833b93500723d4","bdp_rwlrn","Tue Mar 14 2023 20:38:26 GMT-0400 (Eastern Daylight Time)","494206","Trustworthy,Untrustworthy","","null","","","","decisionFB","","<div class='trialDiv'><img src='Fruit/lime.png'><br><font class='baseline'><strong>Limin' Large</strong><p>Choose number of points to bet.</font><div class='respPicDiv'><img src='img/responseButtonOffersNo0L2.png' class='respPic'></div></div>","null","1","Limin' Large","Fruit/lime.png","Lost","0.2,0.65","9","0.2","3","1","",""
"html-keyboard-response","12","173830","0.0-11.0-3.0","63d7a9346e833b93500723d4","bdp_rwlrn","Tue Mar 14 2023 20:38:26 GMT-0400 (Eastern Daylight Time)","494206","Trustworthy,Untrustworthy","","null","","","","feedback","","<div class='respPicDiv'><img src='img/responseButtonOffersNo0_wht.png' class='respPic'></div><div class='trialDiv'><img src='Fruit/lime.png'><br><font class='baseline'><strong>Limin' Large</strong><p><strong><font class='negOutcome'>You LOST</font><p>You bet: 2</strong></font> &nbsp; &nbsp; &nbsp; &nbsp; &nbsp; &nbsp;<font class='negOutcome'>You receive: <strong>0</strong></font></div>","null","1","Limin' Large","Fruit/lime.png","Lost","0.2,0.65","9","0.2","3","1","",""
"html-keyboard-response","13","178013","0.0-11.0-1.1","63d7a9346e833b93500723d4","bdp_rwlrn","Tue Mar 14 2023 20:38:26 GMT-0400 (Eastern Daylight Time)","494206","Trustworthy,Untrustworthy","","4182","","","","decision","","<div class='trialDiv'><img src='Fruit/watermelon.png'><br><font class='baseline'><strong>Watermelon Win$</strong><p>Choose number of points to bet.</font><div class='respPicDiv'><img src='img/responseButtonOffersNo0L.png' class='respPic'></div></div>","4","1","Watermelon Win$","Fruit/watermelon.png","Won","0.65,0.2","9","0.65","8","2","",""
"html-keyboard-response","14","178268","0.0-11.0-2.1","63d7a9346e833b93500723d4","bdp_rwlrn","Tue Mar 14 2023 20:38:26 GMT-0400 (Eastern Daylight Time)","494206","Trustworthy,Untrustworthy","","null","","","","decisionFB","","<div class='trialDiv'><img src='Fruit/watermelon.png'><br><font class='baseline'><strong>Watermelon Win$</strong><p>Choose number of points to bet.</font><div class='respPicDiv'><img src='img/responseButtonOffersNo0L4.png' class='respPic'></div></div>","null","1","Watermelon Win$","Fruit/watermelon.png","Won","0.65,0.2","9","0.65","4","2","",""
"html-keyboard-response","15","179282","0.0-11.0-3.1","63d7a9346e833b93500723d4","bdp_rwlrn","Tue Mar 14 2023 20:38:26 GMT-0400 (Eastern Daylight Time)","494206","Trustworthy,Untrustworthy","","null","","","","feedback","","<div class='respPicDiv'><img src='img/responseButtonOffersNo0_wht.png' class='respPic'></div><div class='trialDiv'><img src='Fruit/watermelon.png'><br><font class='baseline'><strong>Watermelon Win$</strong><p><strong><font class='posOutcome'>You WON</font><p>You bet: 4</strong></font> &nbsp; &nbsp; &nbsp; &nbsp; &nbsp; &nbsp;<font class='posOutcome'>you receive: <strong>8</strong></font></div>","null","1","Watermelon Win$","Fruit/watermelon.png","Won","0.65,0.2","9","0.65","12","2","",""
"html-keyboard-response","16","181269","0.0-11.0-1.2","63d7a9346e833b93500723d4","bdp_rwlrn","Tue Mar 14 2023 20:38:26 GMT-0400 (Eastern Daylight Time)","494206","Trustworthy,Untrustworthy","","1986","","","","decision","","<div class='trialDiv'><img src='Fruit/plums1.png'><br><font class='baseline'><strong>Plum Powerball</strong><p>Choose number of points to bet.</font><div class='respPicDiv'><img src='img/responseButtonOffersNo0L.png' class='respPic'></div></div>","5","1","Plum Powerball","Fruit/plums1.png","Lost","0.2,0.8","14","0.2","17","3","",""
"html-keyboard-response","17","181531","0.0-11.0-2.2","63d7a9346e833b93500723d4","bdp_rwlrn","Tue Mar 14 2023 20:38:26 GMT-0400 (Eastern Daylight Time)","494206","Trustworthy,Untrustworthy","","null","","","","decisionFB","","<div class='trialDiv'><img src='Fruit/plums1.png'><br><font class='baseline'><strong>Plum Powerball</strong><p>Choose number of points to bet.</font><div class='respPicDiv'><img src='img/responseButtonOffersNo0L5.png' class='respPic'></div></div>","null","1","Plum Powerball","Fruit/plums1.png","Lost","0.2,0.8","14","0.2","12","3","",""
"html-keyboard-response","18","182534","0.0-11.0-3.2","63d7a9346e833b93500723d4","bdp_rwlrn","Tue Mar 14 2023 20:38:26 GMT-0400 (Eastern Daylight Time)","494206","Trustworthy,Untrustworthy","","null","","","","feedback","","<div class='respPicDiv'><img src='img/responseButtonOffersNo0_wht.png' class='respPic'></div><div class='trialDiv'><img src='Fruit/plums1.png'><br><font class='baseline'><strong>Plum Powerball</strong><p><strong><font class='negOutcome'>You LOST</font><p>You bet: 5</strong></font> &nbsp; &nbsp; &nbsp; &nbsp; &nbsp; &nbsp;<font class='negOutcome'>You receive: <strong>0</strong></font></div>","null","1","Plum Powerball","Fruit/plums1.png","Lost","0.2,0.8","14","0.2","12","3","",""
"html-keyboard-response","19","184175","0.0-11.0-1.3","63d7a9346e833b93500723d4","bdp_rwlrn","Tue Mar 14 2023 20:38:26 GMT-0400 (Eastern Daylight Time)","494206","Trustworthy,Untrustworthy","","1640","","","","decision","","<div class='trialDiv'><img src='Fruit/lime.png'><br><font class='baseline'><strong>Limin' Large</strong><p>Choose number of points to bet.</font><div class='respPicDiv'><img src='img/responseButtonOffersNo0L.png' class='respPic'></div></div>","4","2","Limin' Large","Fruit/lime.png","Lost","0.2,0.65","9","0.2","17","4","",""
"html-keyboard-response","20","184427","0.0-11.0-2.3","63d7a9346e833b93500723d4","bdp_rwlrn","Tue Mar 14 2023 20:38:26 GMT-0400 (Eastern Daylight Time)","494206","Trustworthy,Untrustworthy","","null","","","","decisionFB","","<div class='trialDiv'><img src='Fruit/lime.png'><br><font class='baseline'><strong>Limin' Large</strong><p>Choose number of points to bet.</font><div class='respPicDiv'><img src='img/responseButtonOffersNo0L4.png' class='respPic'></div></div>","null","2","Limin' Large","Fruit/lime.png","Lost","0.2,0.65","9","0.2","13","4","",""
"html-keyboard-response","21","185433","0.0-11.0-3.3","63d7a9346e833b93500723d4","bdp_rwlrn","Tue Mar 14 2023 20:38:26 GMT-0400 (Eastern Daylight Time)","494206","Trustworthy,Untrustworthy","","null","","","","feedback","","<div class='respPicDiv'><img src='img/responseButtonOffersNo0_wht.png' class='respPic'></div><div class='trialDiv'><img src='Fruit/lime.png'><br><font class='baseline'><strong>Limin' Large</strong><p><strong><font class='negOutcome'>You LOST</font><p>You bet: 4</strong></font> &nbsp; &nbsp; &nbsp; &nbsp; &nbsp; &nbsp;<font class='negOutcome'>You receive: <strong>0</strong></font></div>","null","2","Limin' Large","Fruit/lime.png","Lost","0.2,0.65","9","0.2","13","4","",""
"html-keyboard-response","22","187317","0.0-11.0-1.4","63d7a9346e833b93500723d4","bdp_rwlrn","Tue Mar 14 2023 20:38:26 GMT-0400 (Eastern Daylight Time)","494206","Trustworthy,Untrustworthy","","1884","","","","decision","","<div class='trialDiv'><img src='Fruit/plums1.png'><br><font class='baseline'><strong>Plum Powerball</strong><p>Choose number of points to bet.</font><div class='respPicDiv'><img src='img/responseButtonOffersNo0L.png' class='respPic'></div></div>","1","2","Plum Powerball","Fruit/plums1.png","Lost","0.2,0.8","14","0.2","18","5","",""
"html-keyboard-response","23","187575","0.0-11.0-2.4","63d7a9346e833b93500723d4","bdp_rwlrn","Tue Mar 14 2023 20:38:26 GMT-0400 (Eastern Daylight Time)","494206","Trustworthy,Untrustworthy","","null","","","","decisionFB","","<div class='trialDiv'><img src='Fruit/plums1.png'><br><font class='baseline'><strong>Plum Powerball</strong><p>Choose number of points to bet.</font><div class='respPicDiv'><img src='img/responseButtonOffersNo0L1.png' class='respPic'></div></div>","null","2","Plum Powerball","Fruit/plums1.png","Lost","0.2,0.8","14","0.2","17","5","",""
"html-keyboard-response","24","188588","0.0-11.0-3.4","63d7a9346e833b93500723d4","bdp_rwlrn","Tue Mar 14 2023 20:38:26 GMT-0400 (Eastern Daylight Time)","494206","Trustworthy,Untrustworthy","","null","","","","feedback","","<div class='respPicDiv'><img src='img/responseButtonOffersNo0_wht.png' class='respPic'></div><div class='trialDiv'><img src='Fruit/plums1.png'><br><font class='baseline'><strong>Plum Powerball</strong><p><strong><font class='negOutcome'>You LOST</font><p>You bet: 1</strong></font> &nbsp; &nbsp; &nbsp; &nbsp; &nbsp; &nbsp;<font class='negOutcome'>You receive: <strong>0</strong></font></div>","null","2","Plum Powerball","Fruit/plums1.png","Lost","0.2,0.8","14","0.2","17","5","",""
"html-keyboard-response","25","190101","0.0-11.0-1.5","63d7a9346e833b93500723d4","bdp_rwlrn","Tue Mar 14 2023 20:38:26 GMT-0400 (Eastern Daylight Time)","494206","Trustworthy,Untrustworthy","","1512","","","","decision","","<div class='trialDiv'><img src='Fruit/watermelon.png'><br><font class='baseline'><strong>Watermelon Win$</strong><p>Choose number of points to bet.</font><div class='respPicDiv'><img src='img/responseButtonOffersNo0L.png' class='respPic'></div></div>","4","2","Watermelon Win$","Fruit/watermelon.png","Won","0.65,0.2","9","0.65","22","6","",""
"html-keyboard-response","26","190357","0.0-11.0-2.5","63d7a9346e833b93500723d4","bdp_rwlrn","Tue Mar 14 2023 20:38:26 GMT-0400 (Eastern Daylight Time)","494206","Trustworthy,Untrustworthy","","null","","","","decisionFB","","<div class='trialDiv'><img src='Fruit/watermelon.png'><br><font class='baseline'><strong>Watermelon Win$</strong><p>Choose number of points to bet.</font><div class='respPicDiv'><img src='img/responseButtonOffersNo0L4.png' class='respPic'></div></div>","null","2","Watermelon Win$","Fruit/watermelon.png","Won","0.65,0.2","9","0.65","18","6","",""
"html-keyboard-response","27","191359","0.0-11.0-3.5","63d7a9346e833b93500723d4","bdp_rwlrn","Tue Mar 14 2023 20:38:26 GMT-0400 (Eastern Daylight Time)","494206","Trustworthy,Untrustworthy","","null","","","","feedback","","<div class='respPicDiv'><img src='img/responseButtonOffersNo0_wht.png' class='respPic'></div><div class='trialDiv'><img src='Fruit/watermelon.png'><br><font class='baseline'><strong>Watermelon Win$</strong><p><strong><font class='posOutcome'>You WON</font><p>You bet: 4</strong></font> &nbsp; &nbsp; &nbsp; &nbsp; &nbsp; &nbsp;<font class='posOutcome'>you receive: <strong>8</strong></font></div>","null","2","Watermelon Win$","Fruit/watermelon.png","Won","0.65,0.2","9","0.65","26","6","",""
"html-keyboard-response","28","192604","0.0-11.0-1.6","63d7a9346e833b93500723d4","bdp_rwlrn","Tue Mar 14 2023 20:38:26 GMT-0400 (Eastern Daylight Time)","494206","Trustworthy,Untrustworthy","","1244","","","","decision","","<div class='trialDiv'><img src='Fruit/plums1.png'><br><font class='baseline'><strong>Plum Powerball</strong><p>Choose number of points to bet.</font><div class='respPicDiv'><img src='img/responseButtonOffersNo0L.png' class='respPic'></div></div>","5","3","Plum Powerball","Fruit/plums1.png","Lost","0.2,0.8","14","0.2","31","7","",""
"html-keyboard-response","29","192862","0.0-11.0-2.6","63d7a9346e833b93500723d4","bdp_rwlrn","Tue Mar 14 2023 20:38:26 GMT-0400 (Eastern Daylight Time)","494206","Trustworthy,Untrustworthy","","null","","","","decisionFB","","<div class='trialDiv'><img src='Fruit/plums1.png'><br><font class='baseline'><strong>Plum Powerball</strong><p>Choose number of points to bet.</font><div class='respPicDiv'><img src='img/responseButtonOffersNo0L5.png' class='respPic'></div></div>","null","3","Plum Powerball","Fruit/plums1.png","Lost","0.2,0.8","14","0.2","26","7","",""
"html-keyboard-response","30","193865","0.0-11.0-3.6","63d7a9346e833b93500723d4","bdp_rwlrn","Tue Mar 14 2023 20:38:26 GMT-0400 (Eastern Daylight Time)","494206","Trustworthy,Untrustworthy","","null","","","","feedback","","<div class='respPicDiv'><img src='img/responseButtonOffersNo0_wht.png' class='respPic'></div><div class='trialDiv'><img src='Fruit/plums1.png'><br><font class='baseline'><strong>Plum Powerball</strong><p><strong><font class='negOutcome'>You LOST</font><p>You bet: 5</strong></font> &nbsp; &nbsp; &nbsp; &nbsp; &nbsp; &nbsp;<font class='negOutcome'>You receive: <strong>0</strong></font></div>","null","3","Plum Powerball","Fruit/plums1.png","Lost","0.2,0.8","14","0.2","26","7","",""
"html-keyboard-response","31","194557","0.0-11.0-1.7","63d7a9346e833b93500723d4","bdp_rwlrn","Tue Mar 14 2023 20:38:26 GMT-0400 (Eastern Daylight Time)","494206","Trustworthy,Untrustworthy","","691","","","","decision","","<div class='trialDiv'><img src='Fruit/watermelon.png'><br><font class='baseline'><strong>Watermelon Win$</strong><p>Choose number of points to bet.</font><div class='respPicDiv'><img src='img/responseButtonOffersNo0L.png' class='respPic'></div></div>","4","3","Watermelon Win$","Fruit/watermelon.png","Won","0.65,0.2","9","0.65","31","8","",""
"html-keyboard-response","32","194813","0.0-11.0-2.7","63d7a9346e833b93500723d4","bdp_rwlrn","Tue Mar 14 2023 20:38:26 GMT-0400 (Eastern Daylight Time)","494206","Trustworthy,Untrustworthy","","null","","","","decisionFB","","<div class='trialDiv'><img src='Fruit/watermelon.png'><br><font class='baseline'><strong>Watermelon Win$</strong><p>Choose number of points to bet.</font><div class='respPicDiv'><img src='img/responseButtonOffersNo0L4.png' class='respPic'></div></div>","null","3","Watermelon Win$","Fruit/watermelon.png","Won","0.65,0.2","9","0.65","27","8","",""
"html-keyboard-response","33","195824","0.0-11.0-3.7","63d7a9346e833b93500723d4","bdp_rwlrn","Tue Mar 14 2023 20:38:26 GMT-0400 (Eastern Daylight Time)","494206","Trustworthy,Untrustworthy","","null","","","","feedback","","<div class='respPicDiv'><img src='img/responseButtonOffersNo0_wht.png' class='respPic'></div><div class='trialDiv'><img src='Fruit/watermelon.png'><br><font class='baseline'><strong>Watermelon Win$</strong><p><strong><font class='posOutcome'>You WON</font><p>You bet: 4</strong></font> &nbsp; &nbsp; &nbsp; &nbsp; &nbsp; &nbsp;<font class='posOutcome'>you receive: <strong>8</strong></font></div>","null","3","Watermelon Win$","Fruit/watermelon.png","Won","0.65,0.2","9","0.65","35","8","",""
"html-keyboard-response","34","197717","0.0-11.0-1.8","63d7a9346e833b93500723d4","bdp_rwlrn","Tue Mar 14 2023 20:38:26 GMT-0400 (Eastern Daylight Time)","494206","Trustworthy,Untrustworthy","","1891","","","","decision","","<div class='trialDiv'><img src='Fruit/lime.png'><br><font class='baseline'><strong>Limin' Large</strong><p>Choose number of points to bet.</font><div class='respPicDiv'><img src='img/responseButtonOffersNo0L.png' class='respPic'></div></div>","2","3","Limin' Large","Fruit/lime.png","Lost","0.2,0.65","9","0.2","40","9","",""
"html-keyboard-response","35","197973","0.0-11.0-2.8","63d7a9346e833b93500723d4","bdp_rwlrn","Tue Mar 14 2023 20:38:26 GMT-0400 (Eastern Daylight Time)","494206","Trustworthy,Untrustworthy","","null","","","","decisionFB","","<div class='trialDiv'><img src='Fruit/lime.png'><br><font class='baseline'><strong>Limin' Large</strong><p>Choose number of points to bet.</font><div class='respPicDiv'><img src='img/responseButtonOffersNo0L2.png' class='respPic'></div></div>","null","3","Limin' Large","Fruit/lime.png","Lost","0.2,0.65","9","0.2","38","9","",""
"html-keyboard-response","36","198988","0.0-11.0-3.8","63d7a9346e833b93500723d4","bdp_rwlrn","Tue Mar 14 2023 20:38:26 GMT-0400 (Eastern Daylight Time)","494206","Trustworthy,Untrustworthy","","null","","","","feedback","","<div class='respPicDiv'><img src='img/responseButtonOffersNo0_wht.png' class='respPic'></div><div class='trialDiv'><img src='Fruit/lime.png'><br><font class='baseline'><strong>Limin' Large</strong><p><strong><font class='negOutcome'>You LOST</font><p>You bet: 2</strong></font> &nbsp; &nbsp; &nbsp; &nbsp; &nbsp; &nbsp;<font class='negOutcome'>You receive: <strong>0</strong></font></div>","null","3","Limin' Large","Fruit/lime.png","Lost","0.2,0.65","9","0.2","38","9","",""
"html-keyboard-response","37","201916","0.0-11.0-1.9","63d7a9346e833b93500723d4","bdp_rwlrn","Tue Mar 14 2023 20:38:26 GMT-0400 (Eastern Daylight Time)","494206","Trustworthy,Untrustworthy","","2928","","","","decision","","<div class='trialDiv'><img src='Fruit/plums1.png'><br><font class='baseline'><strong>Plum Powerball</strong><p>Choose number of points to bet.</font><div class='respPicDiv'><img src='img/responseButtonOffersNo0L.png' class='respPic'></div></div>","3","4","Plum Powerball","Fruit/plums1.png","Lost","0.2,0.8","14","0.2","43","10","",""
"html-keyboard-response","38","202168","0.0-11.0-2.9","63d7a9346e833b93500723d4","bdp_rwlrn","Tue Mar 14 2023 20:38:26 GMT-0400 (Eastern Daylight Time)","494206","Trustworthy,Untrustworthy","","null","","","","decisionFB","","<div class='trialDiv'><img src='Fruit/plums1.png'><br><font class='baseline'><strong>Plum Powerball</strong><p>Choose number of points to bet.</font><div class='respPicDiv'><img src='img/responseButtonOffersNo0L3.png' class='respPic'></div></div>","null","4","Plum Powerball","Fruit/plums1.png","Lost","0.2,0.8","14","0.2","40","10","",""
"html-keyboard-response","39","203184","0.0-11.0-3.9","63d7a9346e833b93500723d4","bdp_rwlrn","Tue Mar 14 2023 20:38:26 GMT-0400 (Eastern Daylight Time)","494206","Trustworthy,Untrustworthy","","null","","","","feedback","","<div class='respPicDiv'><img src='img/responseButtonOffersNo0_wht.png' class='respPic'></div><div class='trialDiv'><img src='Fruit/plums1.png'><br><font class='baseline'><strong>Plum Powerball</strong><p><strong><font class='negOutcome'>You LOST</font><p>You bet: 3</strong></font> &nbsp; &nbsp; &nbsp; &nbsp; &nbsp; &nbsp;<font class='negOutcome'>You receive: <strong>0</strong></font></div>","null","4","Plum Powerball","Fruit/plums1.png","Lost","0.2,0.8","14","0.2","40","10","",""
"html-keyboard-response","40","204500","0.0-11.0-1.10","63d7a9346e833b93500723d4","bdp_rwlrn","Tue Mar 14 2023 20:38:26 GMT-0400 (Eastern Daylight Time)","494206","Trustworthy,Untrustworthy","","1316","","","","decision","","<div class='trialDiv'><img src='Fruit/watermelon.png'><br><font class='baseline'><strong>Watermelon Win$</strong><p>Choose number of points to bet.</font><div class='respPicDiv'><img src='img/responseButtonOffersNo0L.png' class='respPic'></div></div>","5","4","Watermelon Win$","Fruit/watermelon.png","Won","0.65,0.2","9","0.65","45","11","",""
"html-keyboard-response","41","204766","0.0-11.0-2.10","63d7a9346e833b93500723d4","bdp_rwlrn","Tue Mar 14 2023 20:38:26 GMT-0400 (Eastern Daylight Time)","494206","Trustworthy,Untrustworthy","","null","","","","decisionFB","","<div class='trialDiv'><img src='Fruit/watermelon.png'><br><font class='baseline'><strong>Watermelon Win$</strong><p>Choose number of points to bet.</font><div class='respPicDiv'><img src='img/responseButtonOffersNo0L5.png' class='respPic'></div></div>","null","4","Watermelon Win$","Fruit/watermelon.png","Won","0.65,0.2","9","0.65","40","11","",""
"html-keyboard-response","42","205768","0.0-11.0-3.10","63d7a9346e833b93500723d4","bdp_rwlrn","Tue Mar 14 2023 20:38:26 GMT-0400 (Eastern Daylight Time)","494206","Trustworthy,Untrustworthy","","null","","","","feedback","","<div class='respPicDiv'><img src='img/responseButtonOffersNo0_wht.png' class='respPic'></div><div class='trialDiv'><img src='Fruit/watermelon.png'><br><font class='baseline'><strong>Watermelon Win$</strong><p><strong><font class='posOutcome'>You WON</font><p>You bet: 5</strong></font> &nbsp; &nbsp; &nbsp; &nbsp; &nbsp; &nbsp;<font class='posOutcome'>you receive: <strong>10</strong></font></div>","null","4","Watermelon Win$","Fruit/watermelon.png","Won","0.65,0.2","9","0.65","50","11","",""
"html-keyboard-response","43","207678","0.0-11.0-1.11","63d7a9346e833b93500723d4","bdp_rwlrn","Tue Mar 14 2023 20:38:26 GMT-0400 (Eastern Daylight Time)","494206","Trustworthy,Untrustworthy","","1909","","","","decision","","<div class='trialDiv'><img src='Fruit/lime.png'><br><font class='baseline'><strong>Limin' Large</strong><p>Choose number of points to bet.</font><div class='respPicDiv'><img src='img/responseButtonOffersNo0L.png' class='respPic'></div></div>","1","4","Limin' Large","Fruit/lime.png","Lost","0.2,0.65","9","0.2","55","12","",""
"html-keyboard-response","44","207930","0.0-11.0-2.11","63d7a9346e833b93500723d4","bdp_rwlrn","Tue Mar 14 2023 20:38:26 GMT-0400 (Eastern Daylight Time)","494206","Trustworthy,Untrustworthy","","null","","","","decisionFB","","<div class='trialDiv'><img src='Fruit/lime.png'><br><font class='baseline'><strong>Limin' Large</strong><p>Choose number of points to bet.</font><div class='respPicDiv'><img src='img/responseButtonOffersNo0L1.png' class='respPic'></div></div>","null","4","Limin' Large","Fruit/lime.png","Lost","0.2,0.65","9","0.2","54","12","",""
"html-keyboard-response","45","208944","0.0-11.0-3.11","63d7a9346e833b93500723d4","bdp_rwlrn","Tue Mar 14 2023 20:38:26 GMT-0400 (Eastern Daylight Time)","494206","Trustworthy,Untrustworthy","","null","","","","feedback","","<div class='respPicDiv'><img src='img/responseButtonOffersNo0_wht.png' class='respPic'></div><div class='trialDiv'><img src='Fruit/lime.png'><br><font class='baseline'><strong>Limin' Large</strong><p><strong><font class='negOutcome'>You LOST</font><p>You bet: 1</strong></font> &nbsp; &nbsp; &nbsp; &nbsp; &nbsp; &nbsp;<font class='negOutcome'>You receive: <strong>0</strong></font></div>","null","4","Limin' Large","Fruit/lime.png","Lost","0.2,0.65","9","0.2","54","12","",""
"html-keyboard-response","46","210052","0.0-11.0-1.12","63d7a9346e833b93500723d4","bdp_rwlrn","Tue Mar 14 2023 20:38:26 GMT-0400 (Eastern Daylight Time)","494206","Trustworthy,Untrustworthy","","1107","","","","decision","","<div class='trialDiv'><img src='Fruit/plums1.png'><br><font class='baseline'><strong>Plum Powerball</strong><p>Choose number of points to bet.</font><div class='respPicDiv'><img src='img/responseButtonOffersNo0L.png' class='respPic'></div></div>","1","5","Plum Powerball","Fruit/plums1.png","Won","0.2,0.8","14","0.2","59","13","",""
"html-keyboard-response","47","210306","0.0-11.0-2.12","63d7a9346e833b93500723d4","bdp_rwlrn","Tue Mar 14 2023 20:38:26 GMT-0400 (Eastern Daylight Time)","494206","Trustworthy,Untrustworthy","","null","","","","decisionFB","","<div class='trialDiv'><img src='Fruit/plums1.png'><br><font class='baseline'><strong>Plum Powerball</strong><p>Choose number of points to bet.</font><div class='respPicDiv'><img src='img/responseButtonOffersNo0L1.png' class='respPic'></div></div>","null","5","Plum Powerball","Fruit/plums1.png","Won","0.2,0.8","14","0.2","58","13","",""
"html-keyboard-response","48","211308","0.0-11.0-3.12","63d7a9346e833b93500723d4","bdp_rwlrn","Tue Mar 14 2023 20:38:26 GMT-0400 (Eastern Daylight Time)","494206","Trustworthy,Untrustworthy","","null","","","","feedback","","<div class='respPicDiv'><img src='img/responseButtonOffersNo0_wht.png' class='respPic'></div><div class='trialDiv'><img src='Fruit/plums1.png'><br><font class='baseline'><strong>Plum Powerball</strong><p><strong><font class='posOutcome'>You WON</font><p>You bet: 1</strong></font> &nbsp; &nbsp; &nbsp; &nbsp; &nbsp; &nbsp;<font class='posOutcome'>you receive: <strong>2</strong></font></div>","null","5","Plum Powerball","Fruit/plums1.png","Won","0.2,0.8","14","0.2","60","13","",""
"html-keyboard-response","49","212684","0.0-11.0-1.13","63d7a9346e833b93500723d4","bdp_rwlrn","Tue Mar 14 2023 20:38:26 GMT-0400 (Eastern Daylight Time)","494206","Trustworthy,Untrustworthy","","1375","","","","decision","","<div class='trialDiv'><img src='Fruit/lime.png'><br><font class='baseline'><strong>Limin' Large</strong><p>Choose number of points to bet.</font><div class='respPicDiv'><img src='img/responseButtonOffersNo0L.png' class='respPic'></div></div>","1","5","Limin' Large","Fruit/lime.png","Lost","0.2,0.65","9","0.2","65","14","",""
"html-keyboard-response","50","212939","0.0-11.0-2.13","63d7a9346e833b93500723d4","bdp_rwlrn","Tue Mar 14 2023 20:38:26 GMT-0400 (Eastern Daylight Time)","494206","Trustworthy,Untrustworthy","","null","","","","decisionFB","","<div class='trialDiv'><img src='Fruit/lime.png'><br><font class='baseline'><strong>Limin' Large</strong><p>Choose number of points to bet.</font><div class='respPicDiv'><img src='img/responseButtonOffersNo0L1.png' class='respPic'></div></div>","null","5","Limin' Large","Fruit/lime.png","Lost","0.2,0.65","9","0.2","64","14","",""
"html-keyboard-response","51","213952","0.0-11.0-3.13","63d7a9346e833b93500723d4","bdp_rwlrn","Tue Mar 14 2023 20:38:26 GMT-0400 (Eastern Daylight Time)","494206","Trustworthy,Untrustworthy","","null","","","","feedback","","<div class='respPicDiv'><img src='img/responseButtonOffersNo0_wht.png' class='respPic'></div><div class='trialDiv'><img src='Fruit/lime.png'><br><font class='baseline'><strong>Limin' Large</strong><p><strong><font class='negOutcome'>You LOST</font><p>You bet: 1</strong></font> &nbsp; &nbsp; &nbsp; &nbsp; &nbsp; &nbsp;<font class='negOutcome'>You receive: <strong>0</strong></font></div>","null","5","Limin' Large","Fruit/lime.png","Lost","0.2,0.65","9","0.2","64","14","",""
"html-keyboard-response","52","215077","0.0-11.0-1.14","63d7a9346e833b93500723d4","bdp_rwlrn","Tue Mar 14 2023 20:38:26 GMT-0400 (Eastern Daylight Time)","494206","Trustworthy,Untrustworthy","","1123","","","","decision","","<div class='trialDiv'><img src='Fruit/watermelon.png'><br><font class='baseline'><strong>Watermelon Win$</strong><p>Choose number of points to bet.</font><div class='respPicDiv'><img src='img/responseButtonOffersNo0L.png' class='respPic'></div></div>","5","5","Watermelon Win$","Fruit/watermelon.png","Won","0.65,0.2","9","0.65","69","15","",""
"html-keyboard-response","53","215328","0.0-11.0-2.14","63d7a9346e833b93500723d4","bdp_rwlrn","Tue Mar 14 2023 20:38:26 GMT-0400 (Eastern Daylight Time)","494206","Trustworthy,Untrustworthy","","null","","","","decisionFB","","<div class='trialDiv'><img src='Fruit/watermelon.png'><br><font class='baseline'><strong>Watermelon Win$</strong><p>Choose number of points to bet.</font><div class='respPicDiv'><img src='img/responseButtonOffersNo0L5.png' class='respPic'></div></div>","null","5","Watermelon Win$","Fruit/watermelon.png","Won","0.65,0.2","9","0.65","64","15","",""
"html-keyboard-response","54","216331","0.0-11.0-3.14","63d7a9346e833b93500723d4","bdp_rwlrn","Tue Mar 14 2023 20:38:26 GMT-0400 (Eastern Daylight Time)","494206","Trustworthy,Untrustworthy","","null","","","","feedback","","<div class='respPicDiv'><img src='img/responseButtonOffersNo0_wht.png' class='respPic'></div><div class='trialDiv'><img src='Fruit/watermelon.png'><br><font class='baseline'><strong>Watermelon Win$</strong><p><strong><font class='posOutcome'>You WON</font><p>You bet: 5</strong></font> &nbsp; &nbsp; &nbsp; &nbsp; &nbsp; &nbsp;<font class='posOutcome'>you receive: <strong>10</strong></font></div>","null","5","Watermelon Win$","Fruit/watermelon.png","Won","0.65,0.2","9","0.65","74","15","",""
"html-keyboard-response","55","217444","0.0-11.0-1.15","63d7a9346e833b93500723d4","bdp_rwlrn","Tue Mar 14 2023 20:38:26 GMT-0400 (Eastern Daylight Time)","494206","Trustworthy,Untrustworthy","","1113","","","","decision","","<div class='trialDiv'><img src='Fruit/lime.png'><br><font class='baseline'><strong>Limin' Large</strong><p>Choose number of points to bet.</font><div class='respPicDiv'><img src='img/responseButtonOffersNo0L.png' class='respPic'></div></div>","1","6","Limin' Large","Fruit/lime.png","Lost","0.2,0.65","9","0.2","79","16","",""
"html-keyboard-response","56","217706","0.0-11.0-2.15","63d7a9346e833b93500723d4","bdp_rwlrn","Tue Mar 14 2023 20:38:26 GMT-0400 (Eastern Daylight Time)","494206","Trustworthy,Untrustworthy","","null","","","","decisionFB","","<div class='trialDiv'><img src='Fruit/lime.png'><br><font class='baseline'><strong>Limin' Large</strong><p>Choose number of points to bet.</font><div class='respPicDiv'><img src='img/responseButtonOffersNo0L1.png' class='respPic'></div></div>","null","6","Limin' Large","Fruit/lime.png","Lost","0.2,0.65","9","0.2","78","16","",""
"html-keyboard-response","57","218710","0.0-11.0-3.15","63d7a9346e833b93500723d4","bdp_rwlrn","Tue Mar 14 2023 20:38:26 GMT-0400 (Eastern Daylight Time)","494206","Trustworthy,Untrustworthy","","null","","","","feedback","","<div class='respPicDiv'><img src='img/responseButtonOffersNo0_wht.png' class='respPic'></div><div class='trialDiv'><img src='Fruit/lime.png'><br><font class='baseline'><strong>Limin' Large</strong><p><strong><font class='negOutcome'>You LOST</font><p>You bet: 1</strong></font> &nbsp; &nbsp; &nbsp; &nbsp; &nbsp; &nbsp;<font class='negOutcome'>You receive: <strong>0</strong></font></div>","null","6","Limin' Large","Fruit/lime.png","Lost","0.2,0.65","9","0.2","78","16","",""
"html-keyboard-response","58","220198","0.0-11.0-1.16","63d7a9346e833b93500723d4","bdp_rwlrn","Tue Mar 14 2023 20:38:26 GMT-0400 (Eastern Daylight Time)","494206","Trustworthy,Untrustworthy","","1488","","","","decision","","<div class='trialDiv'><img src='Fruit/plums1.png'><br><font class='baseline'><strong>Plum Powerball</strong><p>Choose number of points to bet.</font><div class='respPicDiv'><img src='img/responseButtonOffersNo0L.png' class='respPic'></div></div>","2","6","Plum Powerball","Fruit/plums1.png","Lost","0.2,0.8","14","0.2","83","17","",""
"html-keyboard-response","59","220456","0.0-11.0-2.16","63d7a9346e833b93500723d4","bdp_rwlrn","Tue Mar 14 2023 20:38:26 GMT-0400 (Eastern Daylight Time)","494206","Trustworthy,Untrustworthy","","null","","","","decisionFB","","<div class='trialDiv'><img src='Fruit/plums1.png'><br><font class='baseline'><strong>Plum Powerball</strong><p>Choose number of points to bet.</font><div class='respPicDiv'><img src='img/responseButtonOffersNo0L2.png' class='respPic'></div></div>","null","6","Plum Powerball","Fruit/plums1.png","Lost","0.2,0.8","14","0.2","81","17","",""
"html-keyboard-response","60","221468","0.0-11.0-3.16","63d7a9346e833b93500723d4","bdp_rwlrn","Tue Mar 14 2023 20:38:26 GMT-0400 (Eastern Daylight Time)","494206","Trustworthy,Untrustworthy","","null","","","","feedback","","<div class='respPicDiv'><img src='img/responseButtonOffersNo0_wht.png' class='respPic'></div><div class='trialDiv'><img src='Fruit/plums1.png'><br><font class='baseline'><strong>Plum Powerball</strong><p><strong><font class='negOutcome'>You LOST</font><p>You bet: 2</strong></font> &nbsp; &nbsp; &nbsp; &nbsp; &nbsp; &nbsp;<font class='negOutcome'>You receive: <strong>0</strong></font></div>","null","6","Plum Powerball","Fruit/plums1.png","Lost","0.2,0.8","14","0.2","81","17","",""
"html-keyboard-response","61","222436","0.0-11.0-1.17","63d7a9346e833b93500723d4","bdp_rwlrn","Tue Mar 14 2023 20:38:26 GMT-0400 (Eastern Daylight Time)","494206","Trustworthy,Untrustworthy","","967","","","","decision","","<div class='trialDiv'><img src='Fruit/watermelon.png'><br><font class='baseline'><strong>Watermelon Win$</strong><p>Choose number of points to bet.</font><div class='respPicDiv'><img src='img/responseButtonOffersNo0L.png' class='respPic'></div></div>","5","6","Watermelon Win$","Fruit/watermelon.png","Won","0.65,0.2","9","0.65","86","18","",""
"html-keyboard-response","62","222689","0.0-11.0-2.17","63d7a9346e833b93500723d4","bdp_rwlrn","Tue Mar 14 2023 20:38:26 GMT-0400 (Eastern Daylight Time)","494206","Trustworthy,Untrustworthy","","null","","","","decisionFB","","<div class='trialDiv'><img src='Fruit/watermelon.png'><br><font class='baseline'><strong>Watermelon Win$</strong><p>Choose number of points to bet.</font><div class='respPicDiv'><img src='img/responseButtonOffersNo0L5.png' class='respPic'></div></div>","null","6","Watermelon Win$","Fruit/watermelon.png","Won","0.65,0.2","9","0.65","81","18","",""
"html-keyboard-response","63","223693","0.0-11.0-3.17","63d7a9346e833b93500723d4","bdp_rwlrn","Tue Mar 14 2023 20:38:26 GMT-0400 (Eastern Daylight Time)","494206","Trustworthy,Untrustworthy","","null","","","","feedback","","<div class='respPicDiv'><img src='img/responseButtonOffersNo0_wht.png' class='respPic'></div><div class='trialDiv'><img src='Fruit/watermelon.png'><br><font class='baseline'><strong>Watermelon Win$</strong><p><strong><font class='posOutcome'>You WON</font><p>You bet: 5</strong></font> &nbsp; &nbsp; &nbsp; &nbsp; &nbsp; &nbsp;<font class='posOutcome'>you receive: <strong>10</strong></font></div>","null","6","Watermelon Win$","Fruit/watermelon.png","Won","0.65,0.2","9","0.65","91","18","",""
"html-keyboard-response","64","224596","0.0-11.0-1.18","63d7a9346e833b93500723d4","bdp_rwlrn","Tue Mar 14 2023 20:38:26 GMT-0400 (Eastern Daylight Time)","494206","Trustworthy,Untrustworthy","","903","","","","decision","","<div class='trialDiv'><img src='Fruit/plums1.png'><br><font class='baseline'><strong>Plum Powerball</strong><p>Choose number of points to bet.</font><div class='respPicDiv'><img src='img/responseButtonOffersNo0L.png' class='respPic'></div></div>","1","7","Plum Powerball","Fruit/plums1.png","Lost","0.2,0.8","14","0.2","96","19","",""
"html-keyboard-response","65","224851","0.0-11.0-2.18","63d7a9346e833b93500723d4","bdp_rwlrn","Tue Mar 14 2023 20:38:26 GMT-0400 (Eastern Daylight Time)","494206","Trustworthy,Untrustworthy","","null","","","","decisionFB","","<div class='trialDiv'><img src='Fruit/plums1.png'><br><font class='baseline'><strong>Plum Powerball</strong><p>Choose number of points to bet.</font><div class='respPicDiv'><img src='img/responseButtonOffersNo0L1.png' class='respPic'></div></div>","null","7","Plum Powerball","Fruit/plums1.png","Lost","0.2,0.8","14","0.2","95","19","",""
"html-keyboard-response","66","225855","0.0-11.0-3.18","63d7a9346e833b93500723d4","bdp_rwlrn","Tue Mar 14 2023 20:38:26 GMT-0400 (Eastern Daylight Time)","494206","Trustworthy,Untrustworthy","","null","","","","feedback","","<div class='respPicDiv'><img src='img/responseButtonOffersNo0_wht.png' class='respPic'></div><div class='trialDiv'><img src='Fruit/plums1.png'><br><font class='baseline'><strong>Plum Powerball</strong><p><strong><font class='negOutcome'>You LOST</font><p>You bet: 1</strong></font> &nbsp; &nbsp; &nbsp; &nbsp; &nbsp; &nbsp;<font class='negOutcome'>You receive: <strong>0</strong></font></div>","null","7","Plum Powerball","Fruit/plums1.png","Lost","0.2,0.8","14","0.2","95","19","",""
"html-keyboard-response","67","226364","0.0-11.0-1.19","63d7a9346e833b93500723d4","bdp_rwlrn","Tue Mar 14 2023 20:38:26 GMT-0400 (Eastern Daylight Time)","494206","Trustworthy,Untrustworthy","","508","","","","decision","","<div class='trialDiv'><img src='Fruit/lime.png'><br><font class='baseline'><strong>Limin' Large</strong><p>Choose number of points to bet.</font><div class='respPicDiv'><img src='img/responseButtonOffersNo0L.png' class='respPic'></div></div>","1","7","Limin' Large","Fruit/lime.png","Lost","0.2,0.65","9","0.2","100","20","",""
"html-keyboard-response","68","226625","0.0-11.0-2.19","63d7a9346e833b93500723d4","bdp_rwlrn","Tue Mar 14 2023 20:38:26 GMT-0400 (Eastern Daylight Time)","494206","Trustworthy,Untrustworthy","","null","","","","decisionFB","","<div class='trialDiv'><img src='Fruit/lime.png'><br><font class='baseline'><strong>Limin' Large</strong><p>Choose number of points to bet.</font><div class='respPicDiv'><img src='img/responseButtonOffersNo0L1.png' class='respPic'></div></div>","null","7","Limin' Large","Fruit/lime.png","Lost","0.2,0.65","9","0.2","99","20","",""
"html-keyboard-response","69","227630","0.0-11.0-3.19","63d7a9346e833b93500723d4","bdp_rwlrn","Tue Mar 14 2023 20:38:26 GMT-0400 (Eastern Daylight Time)","494206","Trustworthy,Untrustworthy","","null","","","","feedback","","<div class='respPicDiv'><img src='img/responseButtonOffersNo0_wht.png' class='respPic'></div><div class='trialDiv'><img src='Fruit/lime.png'><br><font class='baseline'><strong>Limin' Large</strong><p><strong><font class='negOutcome'>You LOST</font><p>You bet: 1</strong></font> &nbsp; &nbsp; &nbsp; &nbsp; &nbsp; &nbsp;<font class='negOutcome'>You receive: <strong>0</strong></font></div>","null","7","Limin' Large","Fruit/lime.png","Lost","0.2,0.65","9","0.2","99","20","",""
"html-keyboard-response","70","228372","0.0-11.0-1.20","63d7a9346e833b93500723d4","bdp_rwlrn","Tue Mar 14 2023 20:38:26 GMT-0400 (Eastern Daylight Time)","494206","Trustworthy,Untrustworthy","","742","","","","decision","","<div class='trialDiv'><img src='Fruit/watermelon.png'><br><font class='baseline'><strong>Watermelon Win$</strong><p>Choose number of points to bet.</font><div class='respPicDiv'><img src='img/responseButtonOffersNo0L.png' class='respPic'></div></div>","5","7","Watermelon Win$","Fruit/watermelon.png","Won","0.65,0.2","9","0.65","104","21","",""
"html-keyboard-response","71","228635","0.0-11.0-2.20","63d7a9346e833b93500723d4","bdp_rwlrn","Tue Mar 14 2023 20:38:26 GMT-0400 (Eastern Daylight Time)","494206","Trustworthy,Untrustworthy","","null","","","","decisionFB","","<div class='trialDiv'><img src='Fruit/watermelon.png'><br><font class='baseline'><strong>Watermelon Win$</strong><p>Choose number of points to bet.</font><div class='respPicDiv'><img src='img/responseButtonOffersNo0L5.png' class='respPic'></div></div>","null","7","Watermelon Win$","Fruit/watermelon.png","Won","0.65,0.2","9","0.65","99","21","",""
"html-keyboard-response","72","229650","0.0-11.0-3.20","63d7a9346e833b93500723d4","bdp_rwlrn","Tue Mar 14 2023 20:38:26 GMT-0400 (Eastern Daylight Time)","494206","Trustworthy,Untrustworthy","","null","","","","feedback","","<div class='respPicDiv'><img src='img/responseButtonOffersNo0_wht.png' class='respPic'></div><div class='trialDiv'><img src='Fruit/watermelon.png'><br><font class='baseline'><strong>Watermelon Win$</strong><p><strong><font class='posOutcome'>You WON</font><p>You bet: 5</strong></font> &nbsp; &nbsp; &nbsp; &nbsp; &nbsp; &nbsp;<font class='posOutcome'>you receive: <strong>10</strong></font></div>","null","7","Watermelon Win$","Fruit/watermelon.png","Won","0.65,0.2","9","0.65","109","21","",""
"html-keyboard-response","73","230453","0.0-11.0-1.21","63d7a9346e833b93500723d4","bdp_rwlrn","Tue Mar 14 2023 20:38:26 GMT-0400 (Eastern Daylight Time)","494206","Trustworthy,Untrustworthy","","803","","","","decision","","<div class='trialDiv'><img src='Fruit/lime.png'><br><font class='baseline'><strong>Limin' Large</strong><p>Choose number of points to bet.</font><div class='respPicDiv'><img src='img/responseButtonOffersNo0L.png' class='respPic'></div></div>","1","8","Limin' Large","Fruit/lime.png","Won","0.2,0.65","9","0.2","114","22","",""
"html-keyboard-response","74","230712","0.0-11.0-2.21","63d7a9346e833b93500723d4","bdp_rwlrn","Tue Mar 14 2023 20:38:26 GMT-0400 (Eastern Daylight Time)","494206","Trustworthy,Untrustworthy","","null","","","","decisionFB","","<div class='trialDiv'><img src='Fruit/lime.png'><br><font class='baseline'><strong>Limin' Large</strong><p>Choose number of points to bet.</font><div class='respPicDiv'><img src='img/responseButtonOffersNo0L1.png' class='respPic'></div></div>","null","8","Limin' Large","Fruit/lime.png","Won","0.2,0.65","9","0.2","113","22","",""
"html-keyboard-response","75","231720","0.0-11.0-3.21","63d7a9346e833b93500723d4","bdp_rwlrn","Tue Mar 14 2023 20:38:26 GMT-0400 (Eastern Daylight Time)","494206","Trustworthy,Untrustworthy","","null","","","","feedback","","<div class='respPicDiv'><img src='img/responseButtonOffersNo0_wht.png' class='respPic'></div><div class='trialDiv'><img src='Fruit/lime.png'><br><font class='baseline'><strong>Limin' Large</strong><p><strong><font class='posOutcome'>You WON</font><p>You bet: 1</strong></font> &nbsp; &nbsp; &nbsp; &nbsp; &nbsp; &nbsp;<font class='posOutcome'>you receive: <strong>2</strong></font></div>","null","8","Limin' Large","Fruit/lime.png","Won","0.2,0.65","9","0.2","115","22","",""
"html-keyboard-response","76","232348","0.0-11.0-1.22","63d7a9346e833b93500723d4","bdp_rwlrn","Tue Mar 14 2023 20:38:26 GMT-0400 (Eastern Daylight Time)","494206","Trustworthy,Untrustworthy","","627","","","","decision","","<div class='trialDiv'><img src='Fruit/plums1.png'><br><font class='baseline'><strong>Plum Powerball</strong><p>Choose number of points to bet.</font><div class='respPicDiv'><img src='img/responseButtonOffersNo0L.png' class='respPic'></div></div>","1","8","Plum Powerball","Fruit/plums1.png","Lost","0.2,0.8","14","0.2","120","23","",""
"html-keyboard-response","77","232614","0.0-11.0-2.22","63d7a9346e833b93500723d4","bdp_rwlrn","Tue Mar 14 2023 20:38:26 GMT-0400 (Eastern Daylight Time)","494206","Trustworthy,Untrustworthy","","null","","","","decisionFB","","<div class='trialDiv'><img src='Fruit/plums1.png'><br><font class='baseline'><strong>Plum Powerball</strong><p>Choose number of points to bet.</font><div class='respPicDiv'><img src='img/responseButtonOffersNo0L1.png' class='respPic'></div></div>","null","8","Plum Powerball","Fruit/plums1.png","Lost","0.2,0.8","14","0.2","119","23","",""
"html-keyboard-response","78","233616","0.0-11.0-3.22","63d7a9346e833b93500723d4","bdp_rwlrn","Tue Mar 14 2023 20:38:26 GMT-0400 (Eastern Daylight Time)","494206","Trustworthy,Untrustworthy","","null","","","","feedback","","<div class='respPicDiv'><img src='img/responseButtonOffersNo0_wht.png' class='respPic'></div><div class='trialDiv'><img src='Fruit/plums1.png'><br><font class='baseline'><strong>Plum Powerball</strong><p><strong><font class='negOutcome'>You LOST</font><p>You bet: 1</strong></font> &nbsp; &nbsp; &nbsp; &nbsp; &nbsp; &nbsp;<font class='negOutcome'>You receive: <strong>0</strong></font></div>","null","8","Plum Powerball","Fruit/plums1.png","Lost","0.2,0.8","14","0.2","119","23","",""
"html-keyboard-response","79","234093","0.0-11.0-1.23","63d7a9346e833b93500723d4","bdp_rwlrn","Tue Mar 14 2023 20:38:26 GMT-0400 (Eastern Daylight Time)","494206","Trustworthy,Untrustworthy","","476","","","","decision","","<div class='trialDiv'><img src='Fruit/watermelon.png'><br><font class='baseline'><strong>Watermelon Win$</strong><p>Choose number of points to bet.</font><div class='respPicDiv'><img src='img/responseButtonOffersNo0L.png' class='respPic'></div></div>","5","8","Watermelon Win$","Fruit/watermelon.png","Won","0.65,0.2","9","0.65","124","24","",""
"html-keyboard-response","80","234347","0.0-11.0-2.23","63d7a9346e833b93500723d4","bdp_rwlrn","Tue Mar 14 2023 20:38:26 GMT-0400 (Eastern Daylight Time)","494206","Trustworthy,Untrustworthy","","null","","","","decisionFB","","<div class='trialDiv'><img src='Fruit/watermelon.png'><br><font class='baseline'><strong>Watermelon Win$</strong><p>Choose number of points to bet.</font><div class='respPicDiv'><img src='img/responseButtonOffersNo0L5.png' class='respPic'></div></div>","null","8","Watermelon Win$","Fruit/watermelon.png","Won","0.65,0.2","9","0.65","119","24","",""
"html-keyboard-response","81","235363","0.0-11.0-3.23","63d7a9346e833b93500723d4","bdp_rwlrn","Tue Mar 14 2023 20:38:26 GMT-0400 (Eastern Daylight Time)","494206","Trustworthy,Untrustworthy","","null","","","","feedback","","<div class='respPicDiv'><img src='img/responseButtonOffersNo0_wht.png' class='respPic'></div><div class='trialDiv'><img src='Fruit/watermelon.png'><br><font class='baseline'><strong>Watermelon Win$</strong><p><strong><font class='posOutcome'>You WON</font><p>You bet: 5</strong></font> &nbsp; &nbsp; &nbsp; &nbsp; &nbsp; &nbsp;<font class='posOutcome'>you receive: <strong>10</strong></font></div>","null","8","Watermelon Win$","Fruit/watermelon.png","Won","0.65,0.2","9","0.65","129","24","",""
"html-keyboard-response","82","236037","0.0-11.0-1.24","63d7a9346e833b93500723d4","bdp_rwlrn","Tue Mar 14 2023 20:38:26 GMT-0400 (Eastern Daylight Time)","494206","Trustworthy,Untrustworthy","","673","","","","decision","","<div class='trialDiv'><img src='Fruit/lime.png'><br><font class='baseline'><strong>Limin' Large</strong><p>Choose number of points to bet.</font><div class='respPicDiv'><img src='img/responseButtonOffersNo0L.png' class='respPic'></div></div>","1","9","Limin' Large","Fruit/lime.png","Won","0.2,0.65","9","0.2","134","25","",""
"html-keyboard-response","83","236302","0.0-11.0-2.24","63d7a9346e833b93500723d4","bdp_rwlrn","Tue Mar 14 2023 20:38:26 GMT-0400 (Eastern Daylight Time)","494206","Trustworthy,Untrustworthy","","null","","","","decisionFB","","<div class='trialDiv'><img src='Fruit/lime.png'><br><font class='baseline'><strong>Limin' Large</strong><p>Choose number of points to bet.</font><div class='respPicDiv'><img src='img/responseButtonOffersNo0L1.png' class='respPic'></div></div>","null","9","Limin' Large","Fruit/lime.png","Won","0.2,0.65","9","0.2","133","25","",""
"html-keyboard-response","84","237305","0.0-11.0-3.24","63d7a9346e833b93500723d4","bdp_rwlrn","Tue Mar 14 2023 20:38:26 GMT-0400 (Eastern Daylight Time)","494206","Trustworthy,Untrustworthy","","null","","","","feedback","","<div class='respPicDiv'><img src='img/responseButtonOffersNo0_wht.png' class='respPic'></div><div class='trialDiv'><img src='Fruit/lime.png'><br><font class='baseline'><strong>Limin' Large</strong><p><strong><font class='posOutcome'>You WON</font><p>You bet: 1</strong></font> &nbsp; &nbsp; &nbsp; &nbsp; &nbsp; &nbsp;<font class='posOutcome'>you receive: <strong>2</strong></font></div>","null","9","Limin' Large","Fruit/lime.png","Won","0.2,0.65","9","0.2","135","25","",""
"html-keyboard-response","85","237692","0.0-11.0-1.25","63d7a9346e833b93500723d4","bdp_rwlrn","Tue Mar 14 2023 20:38:26 GMT-0400 (Eastern Daylight Time)","494206","Trustworthy,Untrustworthy","","387","","","","decision","","<div class='trialDiv'><img src='Fruit/watermelon.png'><br><font class='baseline'><strong>Watermelon Win$</strong><p>Choose number of points to bet.</font><div class='respPicDiv'><img src='img/responseButtonOffersNo0L.png' class='respPic'></div></div>","1","9","Watermelon Win$","Fruit/watermelon.png","Lost","0.65,0.2","9","0.65","140","26","",""
"html-keyboard-response","86","237944","0.0-11.0-2.25","63d7a9346e833b93500723d4","bdp_rwlrn","Tue Mar 14 2023 20:38:26 GMT-0400 (Eastern Daylight Time)","494206","Trustworthy,Untrustworthy","","null","","","","decisionFB","","<div class='trialDiv'><img src='Fruit/watermelon.png'><br><font class='baseline'><strong>Watermelon Win$</strong><p>Choose number of points to bet.</font><div class='respPicDiv'><img src='img/responseButtonOffersNo0L1.png' class='respPic'></div></div>","null","9","Watermelon Win$","Fruit/watermelon.png","Lost","0.65,0.2","9","0.65","139","26","",""
"html-keyboard-response","87","238958","0.0-11.0-3.25","63d7a9346e833b93500723d4","bdp_rwlrn","Tue Mar 14 2023 20:38:26 GMT-0400 (Eastern Daylight Time)","494206","Trustworthy,Untrustworthy","","null","","","","feedback","","<div class='respPicDiv'><img src='img/responseButtonOffersNo0_wht.png' class='respPic'></div><div class='trialDiv'><img src='Fruit/watermelon.png'><br><font class='baseline'><strong>Watermelon Win$</strong><p><strong><font class='negOutcome'>You LOST</font><p>You bet: 1</strong></font> &nbsp; &nbsp; &nbsp; &nbsp; &nbsp; &nbsp;<font class='negOutcome'>You receive: <strong>0</strong></font></div>","null","9","Watermelon Win$","Fruit/watermelon.png","Lost","0.65,0.2","9","0.65","139","26","",""
"html-keyboard-response","88","240733","0.0-11.0-1.26","63d7a9346e833b93500723d4","bdp_rwlrn","Tue Mar 14 2023 20:38:26 GMT-0400 (Eastern Daylight Time)","494206","Trustworthy,Untrustworthy","","1774","","","","decision","","<div class='trialDiv'><img src='Fruit/plums1.png'><br><font class='baseline'><strong>Plum Powerball</strong><p>Choose number of points to bet.</font><div class='respPicDiv'><img src='img/responseButtonOffersNo0L.png' class='respPic'></div></div>","5","9","Plum Powerball","Fruit/plums1.png","Lost","0.2,0.8","14","0.2","144","27","",""
"html-keyboard-response","89","240995","0.0-11.0-2.26","63d7a9346e833b93500723d4","bdp_rwlrn","Tue Mar 14 2023 20:38:26 GMT-0400 (Eastern Daylight Time)","494206","Trustworthy,Untrustworthy","","null","","","","decisionFB","","<div class='trialDiv'><img src='Fruit/plums1.png'><br><font class='baseline'><strong>Plum Powerball</strong><p>Choose number of points to bet.</font><div class='respPicDiv'><img src='img/responseButtonOffersNo0L5.png' class='respPic'></div></div>","null","9","Plum Powerball","Fruit/plums1.png","Lost","0.2,0.8","14","0.2","139","27","",""
"html-keyboard-response","90","242001","0.0-11.0-3.26","63d7a9346e833b93500723d4","bdp_rwlrn","Tue Mar 14 2023 20:38:26 GMT-0400 (Eastern Daylight Time)","494206","Trustworthy,Untrustworthy","","null","","","","feedback","","<div class='respPicDiv'><img src='img/responseButtonOffersNo0_wht.png' class='respPic'></div><div class='trialDiv'><img src='Fruit/plums1.png'><br><font class='baseline'><strong>Plum Powerball</strong><p><strong><font class='negOutcome'>You LOST</font><p>You bet: 5</strong></font> &nbsp; &nbsp; &nbsp; &nbsp; &nbsp; &nbsp;<font class='negOutcome'>You receive: <strong>0</strong></font></div>","null","9","Plum Powerball","Fruit/plums1.png","Lost","0.2,0.8","14","0.2","139","27","",""
"html-keyboard-response","91","242684","0.0-11.0-1.27","63d7a9346e833b93500723d4","bdp_rwlrn","Tue Mar 14 2023 20:38:26 GMT-0400 (Eastern Daylight Time)","494206","Trustworthy,Untrustworthy","","683","","","","decision","","<div class='trialDiv'><img src='Fruit/lime.png'><br><font class='baseline'><strong>Limin' Large</strong><p>Choose number of points to bet.</font><div class='respPicDiv'><img src='img/responseButtonOffersNo0L.png' class='respPic'></div></div>","1","10","Limin' Large","Fruit/lime.png","Lost","0.2,0.65","9","0.2","144","28","",""
"html-keyboard-response","92","242939","0.0-11.0-2.27","63d7a9346e833b93500723d4","bdp_rwlrn","Tue Mar 14 2023 20:38:26 GMT-0400 (Eastern Daylight Time)","494206","Trustworthy,Untrustworthy","","null","","","","decisionFB","","<div class='trialDiv'><img src='Fruit/lime.png'><br><font class='baseline'><strong>Limin' Large</strong><p>Choose number of points to bet.</font><div class='respPicDiv'><img src='img/responseButtonOffersNo0L1.png' class='respPic'></div></div>","null","10","Limin' Large","Fruit/lime.png","Lost","0.2,0.65","9","0.2","143","28","",""
"html-keyboard-response","93","243941","0.0-11.0-3.27","63d7a9346e833b93500723d4","bdp_rwlrn","Tue Mar 14 2023 20:38:26 GMT-0400 (Eastern Daylight Time)","494206","Trustworthy,Untrustworthy","","null","","","","feedback","","<div class='respPicDiv'><img src='img/responseButtonOffersNo0_wht.png' class='respPic'></div><div class='trialDiv'><img src='Fruit/lime.png'><br><font class='baseline'><strong>Limin' Large</strong><p><strong><font class='negOutcome'>You LOST</font><p>You bet: 1</strong></font> &nbsp; &nbsp; &nbsp; &nbsp; &nbsp; &nbsp;<font class='negOutcome'>You receive: <strong>0</strong></font></div>","null","10","Limin' Large","Fruit/lime.png","Lost","0.2,0.65","9","0.2","143","28","",""
"html-keyboard-response","94","244685","0.0-11.0-1.28","63d7a9346e833b93500723d4","bdp_rwlrn","Tue Mar 14 2023 20:38:26 GMT-0400 (Eastern Daylight Time)","494206","Trustworthy,Untrustworthy","","743","","","","decision","","<div class='trialDiv'><img src='Fruit/plums1.png'><br><font class='baseline'><strong>Plum Powerball</strong><p>Choose number of points to bet.</font><div class='respPicDiv'><img src='img/responseButtonOffersNo0L.png' class='respPic'></div></div>","1","10","Plum Powerball","Fruit/plums1.png","Lost","0.2,0.8","14","0.2","148","29","",""
"html-keyboard-response","95","244939","0.0-11.0-2.28","63d7a9346e833b93500723d4","bdp_rwlrn","Tue Mar 14 2023 20:38:26 GMT-0400 (Eastern Daylight Time)","494206","Trustworthy,Untrustworthy","","null","","","","decisionFB","","<div class='trialDiv'><img src='Fruit/plums1.png'><br><font class='baseline'><strong>Plum Powerball</strong><p>Choose number of points to bet.</font><div class='respPicDiv'><img src='img/responseButtonOffersNo0L1.png' class='respPic'></div></div>","null","10","Plum Powerball","Fruit/plums1.png","Lost","0.2,0.8","14","0.2","147","29","",""
"html-keyboard-response","96","245940","0.0-11.0-3.28","63d7a9346e833b93500723d4","bdp_rwlrn","Tue Mar 14 2023 20:38:26 GMT-0400 (Eastern Daylight Time)","494206","Trustworthy,Untrustworthy","","null","","","","feedback","","<div class='respPicDiv'><img src='img/responseButtonOffersNo0_wht.png' class='respPic'></div><div class='trialDiv'><img src='Fruit/plums1.png'><br><font class='baseline'><strong>Plum Powerball</strong><p><strong><font class='negOutcome'>You LOST</font><p>You bet: 1</strong></font> &nbsp; &nbsp; &nbsp; &nbsp; &nbsp; &nbsp;<font class='negOutcome'>You receive: <strong>0</strong></font></div>","null","10","Plum Powerball","Fruit/plums1.png","Lost","0.2,0.8","14","0.2","147","29","",""
"html-keyboard-response","97","246300","0.0-11.0-1.29","63d7a9346e833b93500723d4","bdp_rwlrn","Tue Mar 14 2023 20:38:26 GMT-0400 (Eastern Daylight Time)","494206","Trustworthy,Untrustworthy","","359","","","","decision","","<div class='trialDiv'><img src='Fruit/watermelon.png'><br><font class='baseline'><strong>Watermelon Win$</strong><p>Choose number of points to bet.</font><div class='respPicDiv'><img src='img/responseButtonOffersNo0L.png' class='respPic'></div></div>","5","10","Watermelon Win$","Fruit/watermelon.png","Lost","0.65,0.2","9","0.65","152","30","",""
"html-keyboard-response","98","246555","0.0-11.0-2.29","63d7a9346e833b93500723d4","bdp_rwlrn","Tue Mar 14 2023 20:38:26 GMT-0400 (Eastern Daylight Time)","494206","Trustworthy,Untrustworthy","","null","","","","decisionFB","","<div class='trialDiv'><img src='Fruit/watermelon.png'><br><font class='baseline'><strong>Watermelon Win$</strong><p>Choose number of points to bet.</font><div class='respPicDiv'><img src='img/responseButtonOffersNo0L5.png' class='respPic'></div></div>","null","10","Watermelon Win$","Fruit/watermelon.png","Lost","0.65,0.2","9","0.65","147","30","",""
"html-keyboard-response","99","247556","0.0-11.0-3.29","63d7a9346e833b93500723d4","bdp_rwlrn","Tue Mar 14 2023 20:38:26 GMT-0400 (Eastern Daylight Time)","494206","Trustworthy,Untrustworthy","","null","","","","feedback","","<div class='respPicDiv'><img src='img/responseButtonOffersNo0_wht.png' class='respPic'></div><div class='trialDiv'><img src='Fruit/watermelon.png'><br><font class='baseline'><strong>Watermelon Win$</strong><p><strong><font class='negOutcome'>You LOST</font><p>You bet: 5</strong></font> &nbsp; &nbsp; &nbsp; &nbsp; &nbsp; &nbsp;<font class='negOutcome'>You receive: <strong>0</strong></font></div>","null","10","Watermelon Win$","Fruit/watermelon.png","Lost","0.65,0.2","9","0.65","147","30","",""
"html-keyboard-response","100","247932","0.0-11.0-1.30","63d7a9346e833b93500723d4","bdp_rwlrn","Tue Mar 14 2023 20:38:26 GMT-0400 (Eastern Daylight Time)","494206","Trustworthy,Untrustworthy","","376","","","","decision","","<div class='trialDiv'><img src='Fruit/plums1.png'><br><font class='baseline'><strong>Plum Powerball</strong><p>Choose number of points to bet.</font><div class='respPicDiv'><img src='img/responseButtonOffersNo0L.png' class='respPic'></div></div>","1","11","Plum Powerball","Fruit/plums1.png","Lost","0.2,0.8","14","0.2","152","31","",""
"html-keyboard-response","101","248195","0.0-11.0-2.30","63d7a9346e833b93500723d4","bdp_rwlrn","Tue Mar 14 2023 20:38:26 GMT-0400 (Eastern Daylight Time)","494206","Trustworthy,Untrustworthy","","null","","","","decisionFB","","<div class='trialDiv'><img src='Fruit/plums1.png'><br><font class='baseline'><strong>Plum Powerball</strong><p>Choose number of points to bet.</font><div class='respPicDiv'><img src='img/responseButtonOffersNo0L1.png' class='respPic'></div></div>","null","11","Plum Powerball","Fruit/plums1.png","Lost","0.2,0.8","14","0.2","151","31","",""
"html-keyboard-response","102","249209","0.0-11.0-3.30","63d7a9346e833b93500723d4","bdp_rwlrn","Tue Mar 14 2023 20:38:26 GMT-0400 (Eastern Daylight Time)","494206","Trustworthy,Untrustworthy","","null","","","","feedback","","<div class='respPicDiv'><img src='img/responseButtonOffersNo0_wht.png' class='respPic'></div><div class='trialDiv'><img src='Fruit/plums1.png'><br><font class='baseline'><strong>Plum Powerball</strong><p><strong><font class='negOutcome'>You LOST</font><p>You bet: 1</strong></font> &nbsp; &nbsp; &nbsp; &nbsp; &nbsp; &nbsp;<font class='negOutcome'>You receive: <strong>0</strong></font></div>","null","11","Plum Powerball","Fruit/plums1.png","Lost","0.2,0.8","14","0.2","151","31","",""
"html-keyboard-response","103","251213","0.0-11.0-1.31","63d7a9346e833b93500723d4","bdp_rwlrn","Tue Mar 14 2023 20:38:26 GMT-0400 (Eastern Daylight Time)","494206","Trustworthy,Untrustworthy","","2004","","","","decision","","<div class='trialDiv'><img src='Fruit/watermelon.png'><br><font class='baseline'><strong>Watermelon Win$</strong><p>Choose number of points to bet.</font><div class='respPicDiv'><img src='img/responseButtonOffersNo0L.png' class='respPic'></div></div>","3","11","Watermelon Win$","Fruit/watermelon.png","Lost","0.65,0.2","9","0.65","156","32","",""
"html-keyboard-response","104","251475","0.0-11.0-2.31","63d7a9346e833b93500723d4","bdp_rwlrn","Tue Mar 14 2023 20:38:26 GMT-0400 (Eastern Daylight Time)","494206","Trustworthy,Untrustworthy","","null","","","","decisionFB","","<div class='trialDiv'><img src='Fruit/watermelon.png'><br><font class='baseline'><strong>Watermelon Win$</strong><p>Choose number of points to bet.</font><div class='respPicDiv'><img src='img/responseButtonOffersNo0L3.png' class='respPic'></div></div>","null","11","Watermelon Win$","Fruit/watermelon.png","Lost","0.65,0.2","9","0.65","153","32","",""
"html-keyboard-response","105","252478","0.0-11.0-3.31","63d7a9346e833b93500723d4","bdp_rwlrn","Tue Mar 14 2023 20:38:26 GMT-0400 (Eastern Daylight Time)","494206","Trustworthy,Untrustworthy","","null","","","","feedback","","<div class='respPicDiv'><img src='img/responseButtonOffersNo0_wht.png' class='respPic'></div><div class='trialDiv'><img src='Fruit/watermelon.png'><br><font class='baseline'><strong>Watermelon Win$</strong><p><strong><font class='negOutcome'>You LOST</font><p>You bet: 3</strong></font> &nbsp; &nbsp; &nbsp; &nbsp; &nbsp; &nbsp;<font class='negOutcome'>You receive: <strong>0</strong></font></div>","null","11","Watermelon Win$","Fruit/watermelon.png","Lost","0.65,0.2","9","0.65","153","32","",""
"html-keyboard-response","106","253548","0.0-11.0-1.32","63d7a9346e833b93500723d4","bdp_rwlrn","Tue Mar 14 2023 20:38:26 GMT-0400 (Eastern Daylight Time)","494206","Trustworthy,Untrustworthy","","1068","","","","decision","","<div class='trialDiv'><img src='Fruit/lime.png'><br><font class='baseline'><strong>Limin' Large</strong><p>Choose number of points to bet.</font><div class='respPicDiv'><img src='img/responseButtonOffersNo0L.png' class='respPic'></div></div>","4","11","Limin' Large","Fruit/lime.png","Won","0.2,0.65","9","0.2","158","33","",""
"html-keyboard-response","107","253811","0.0-11.0-2.32","63d7a9346e833b93500723d4","bdp_rwlrn","Tue Mar 14 2023 20:38:26 GMT-0400 (Eastern Daylight Time)","494206","Trustworthy,Untrustworthy","","null","","","","decisionFB","","<div class='trialDiv'><img src='Fruit/lime.png'><br><font class='baseline'><strong>Limin' Large</strong><p>Choose number of points to bet.</font><div class='respPicDiv'><img src='img/responseButtonOffersNo0L4.png' class='respPic'></div></div>","null","11","Limin' Large","Fruit/lime.png","Won","0.2,0.65","9","0.2","154","33","",""
"html-keyboard-response","108","254815","0.0-11.0-3.32","63d7a9346e833b93500723d4","bdp_rwlrn","Tue Mar 14 2023 20:38:26 GMT-0400 (Eastern Daylight Time)","494206","Trustworthy,Untrustworthy","","null","","","","feedback","","<div class='respPicDiv'><img src='img/responseButtonOffersNo0_wht.png' class='respPic'></div><div class='trialDiv'><img src='Fruit/lime.png'><br><font class='baseline'><strong>Limin' Large</strong><p><strong><font class='posOutcome'>You WON</font><p>You bet: 4</strong></font> &nbsp; &nbsp; &nbsp; &nbsp; &nbsp; &nbsp;<font class='posOutcome'>you receive: <strong>8</strong></font></div>","null","11","Limin' Large","Fruit/lime.png","Won","0.2,0.65","9","0.2","162","33","",""
"html-keyboard-response","109","256125","0.0-11.0-1.33","63d7a9346e833b93500723d4","bdp_rwlrn","Tue Mar 14 2023 20:38:26 GMT-0400 (Eastern Daylight Time)","494206","Trustworthy,Untrustworthy","","1310","","","","decision","","<div class='trialDiv'><img src='Fruit/watermelon.png'><br><font class='baseline'><strong>Watermelon Win$</strong><p>Choose number of points to bet.</font><div class='respPicDiv'><img src='img/responseButtonOffersNo0L.png' class='respPic'></div></div>","2","12","Watermelon Win$","Fruit/watermelon.png","Lost","0.65,0.2","9","0.65","167","34","",""
"html-keyboard-response","110","256379","0.0-11.0-2.33","63d7a9346e833b93500723d4","bdp_rwlrn","Tue Mar 14 2023 20:38:26 GMT-0400 (Eastern Daylight Time)","494206","Trustworthy,Untrustworthy","","null","","","","decisionFB","","<div class='trialDiv'><img src='Fruit/watermelon.png'><br><font class='baseline'><strong>Watermelon Win$</strong><p>Choose number of points to bet.</font><div class='respPicDiv'><img src='img/responseButtonOffersNo0L2.png' class='respPic'></div></div>","null","12","Watermelon Win$","Fruit/watermelon.png","Lost","0.65,0.2","9","0.65","165","34","",""
"html-keyboard-response","111","257391","0.0-11.0-3.33","63d7a9346e833b93500723d4","bdp_rwlrn","Tue Mar 14 2023 20:38:26 GMT-0400 (Eastern Daylight Time)","494206","Trustworthy,Untrustworthy","","null","","","","feedback","","<div class='respPicDiv'><img src='img/responseButtonOffersNo0_wht.png' class='respPic'></div><div class='trialDiv'><img src='Fruit/watermelon.png'><br><font class='baseline'><strong>Watermelon Win$</strong><p><strong><font class='negOutcome'>You LOST</font><p>You bet: 2</strong></font> &nbsp; &nbsp; &nbsp; &nbsp; &nbsp; &nbsp;<font class='negOutcome'>You receive: <strong>0</strong></font></div>","null","12","Watermelon Win$","Fruit/watermelon.png","Lost","0.65,0.2","9","0.65","165","34","",""
"html-keyboard-response","112","259726","0.0-11.0-1.34","63d7a9346e833b93500723d4","bdp_rwlrn","Tue Mar 14 2023 20:38:26 GMT-0400 (Eastern Daylight Time)","494206","Trustworthy,Untrustworthy","","2334","","","","decision","","<div class='trialDiv'><img src='Fruit/plums1.png'><br><font class='baseline'><strong>Plum Powerball</strong><p>Choose number of points to bet.</font><div class='respPicDiv'><img src='img/responseButtonOffersNo0L.png' class='respPic'></div></div>","1","12","Plum Powerball","Fruit/plums1.png","Won","0.2,0.8","14","0.2","170","35","",""
"html-keyboard-response","113","259991","0.0-11.0-2.34","63d7a9346e833b93500723d4","bdp_rwlrn","Tue Mar 14 2023 20:38:26 GMT-0400 (Eastern Daylight Time)","494206","Trustworthy,Untrustworthy","","null","","","","decisionFB","","<div class='trialDiv'><img src='Fruit/plums1.png'><br><font class='baseline'><strong>Plum Powerball</strong><p>Choose number of points to bet.</font><div class='respPicDiv'><img src='img/responseButtonOffersNo0L1.png' class='respPic'></div></div>","null","12","Plum Powerball","Fruit/plums1.png","Won","0.2,0.8","14","0.2","169","35","",""
"html-keyboard-response","114","260993","0.0-11.0-3.34","63d7a9346e833b93500723d4","bdp_rwlrn","Tue Mar 14 2023 20:38:26 GMT-0400 (Eastern Daylight Time)","494206","Trustworthy,Untrustworthy","","null","","","","feedback","","<div class='respPicDiv'><img src='img/responseButtonOffersNo0_wht.png' class='respPic'></div><div class='trialDiv'><img src='Fruit/plums1.png'><br><font class='baseline'><strong>Plum Powerball</strong><p><strong><font class='posOutcome'>You WON</font><p>You bet: 1</strong></font> &nbsp; &nbsp; &nbsp; &nbsp; &nbsp; &nbsp;<font class='posOutcome'>you receive: <strong>2</strong></font></div>","null","12","Plum Powerball","Fruit/plums1.png","Won","0.2,0.8","14","0.2","171","35","",""
"html-keyboard-response","115","261885","0.0-11.0-1.35","63d7a9346e833b93500723d4","bdp_rwlrn","Tue Mar 14 2023 20:38:26 GMT-0400 (Eastern Daylight Time)","494206","Trustworthy,Untrustworthy","","892","","","","decision","","<div class='trialDiv'><img src='Fruit/lime.png'><br><font class='baseline'><strong>Limin' Large</strong><p>Choose number of points to bet.</font><div class='respPicDiv'><img src='img/responseButtonOffersNo0L.png' class='respPic'></div></div>","4","12","Limin' Large","Fruit/lime.png","Lost","0.2,0.65","9","0.2","176","36","",""
"html-keyboard-response","116","262138","0.0-11.0-2.35","63d7a9346e833b93500723d4","bdp_rwlrn","Tue Mar 14 2023 20:38:26 GMT-0400 (Eastern Daylight Time)","494206","Trustworthy,Untrustworthy","","null","","","","decisionFB","","<div class='trialDiv'><img src='Fruit/lime.png'><br><font class='baseline'><strong>Limin' Large</strong><p>Choose number of points to bet.</font><div class='respPicDiv'><img src='img/responseButtonOffersNo0L4.png' class='respPic'></div></div>","null","12","Limin' Large","Fruit/lime.png","Lost","0.2,0.65","9","0.2","172","36","",""
"html-keyboard-response","117","263151","0.0-11.0-3.35","63d7a9346e833b93500723d4","bdp_rwlrn","Tue Mar 14 2023 20:38:26 GMT-0400 (Eastern Daylight Time)","494206","Trustworthy,Untrustworthy","","null","","","","feedback","","<div class='respPicDiv'><img src='img/responseButtonOffersNo0_wht.png' class='respPic'></div><div class='trialDiv'><img src='Fruit/lime.png'><br><font class='baseline'><strong>Limin' Large</strong><p><strong><font class='negOutcome'>You LOST</font><p>You bet: 4</strong></font> &nbsp; &nbsp; &nbsp; &nbsp; &nbsp; &nbsp;<font class='negOutcome'>You receive: <strong>0</strong></font></div>","null","12","Limin' Large","Fruit/lime.png","Lost","0.2,0.65","9","0.2","172","36","",""
"html-keyboard-response","118","264284","0.0-11.0-1.36","63d7a9346e833b93500723d4","bdp_rwlrn","Tue Mar 14 2023 20:38:26 GMT-0400 (Eastern Daylight Time)","494206","Trustworthy,Untrustworthy","","1133","","","","decision","","<div class='trialDiv'><img src='Fruit/plums1.png'><br><font class='baseline'><strong>Plum Powerball</strong><p>Choose number of points to bet.</font><div class='respPicDiv'><img src='img/responseButtonOffersNo0L.png' class='respPic'></div></div>","4","13","Plum Powerball","Fruit/plums1.png","Lost","0.2,0.8","14","0.2","177","37","",""
"html-keyboard-response","119","264544","0.0-11.0-2.36","63d7a9346e833b93500723d4","bdp_rwlrn","Tue Mar 14 2023 20:38:26 GMT-0400 (Eastern Daylight Time)","494206","Trustworthy,Untrustworthy","","null","","","","decisionFB","","<div class='trialDiv'><img src='Fruit/plums1.png'><br><font class='baseline'><strong>Plum Powerball</strong><p>Choose number of points to bet.</font><div class='respPicDiv'><img src='img/responseButtonOffersNo0L4.png' class='respPic'></div></div>","null","13","Plum Powerball","Fruit/plums1.png","Lost","0.2,0.8","14","0.2","173","37","",""
"html-keyboard-response","120","265559","0.0-11.0-3.36","63d7a9346e833b93500723d4","bdp_rwlrn","Tue Mar 14 2023 20:38:26 GMT-0400 (Eastern Daylight Time)","494206","Trustworthy,Untrustworthy","","null","","","","feedback","","<div class='respPicDiv'><img src='img/responseButtonOffersNo0_wht.png' class='respPic'></div><div class='trialDiv'><img src='Fruit/plums1.png'><br><font class='baseline'><strong>Plum Powerball</strong><p><strong><font class='negOutcome'>You LOST</font><p>You bet: 4</strong></font> &nbsp; &nbsp; &nbsp; &nbsp; &nbsp; &nbsp;<font class='negOutcome'>You receive: <strong>0</strong></font></div>","null","13","Plum Powerball","Fruit/plums1.png","Lost","0.2,0.8","14","0.2","173","37","",""
"html-keyboard-response","121","265980","0.0-11.0-1.37","63d7a9346e833b93500723d4","bdp_rwlrn","Tue Mar 14 2023 20:38:26 GMT-0400 (Eastern Daylight Time)","494206","Trustworthy,Untrustworthy","","420","","","","decision","","<div class='trialDiv'><img src='Fruit/lime.png'><br><font class='baseline'><strong>Limin' Large</strong><p>Choose number of points to bet.</font><div class='respPicDiv'><img src='img/responseButtonOffersNo0L.png' class='respPic'></div></div>","5","13","Limin' Large","Fruit/lime.png","Lost","0.2,0.65","9","0.2","178","38","",""
"html-keyboard-response","122","266242","0.0-11.0-2.37","63d7a9346e833b93500723d4","bdp_rwlrn","Tue Mar 14 2023 20:38:26 GMT-0400 (Eastern Daylight Time)","494206","Trustworthy,Untrustworthy","","null","","","","decisionFB","","<div class='trialDiv'><img src='Fruit/lime.png'><br><font class='baseline'><strong>Limin' Large</strong><p>Choose number of points to bet.</font><div class='respPicDiv'><img src='img/responseButtonOffersNo0L5.png' class='respPic'></div></div>","null","13","Limin' Large","Fruit/lime.png","Lost","0.2,0.65","9","0.2","173","38","",""
"html-keyboard-response","123","267248","0.0-11.0-3.37","63d7a9346e833b93500723d4","bdp_rwlrn","Tue Mar 14 2023 20:38:26 GMT-0400 (Eastern Daylight Time)","494206","Trustworthy,Untrustworthy","","null","","","","feedback","","<div class='respPicDiv'><img src='img/responseButtonOffersNo0_wht.png' class='respPic'></div><div class='trialDiv'><img src='Fruit/lime.png'><br><font class='baseline'><strong>Limin' Large</strong><p><strong><font class='negOutcome'>You LOST</font><p>You bet: 5</strong></font> &nbsp; &nbsp; &nbsp; &nbsp; &nbsp; &nbsp;<font class='negOutcome'>You receive: <strong>0</strong></font></div>","null","13","Limin' Large","Fruit/lime.png","Lost","0.2,0.65","9","0.2","173","38","",""
"html-keyboard-response","124","268372","0.0-11.0-1.38","63d7a9346e833b93500723d4","bdp_rwlrn","Tue Mar 14 2023 20:38:26 GMT-0400 (Eastern Daylight Time)","494206","Trustworthy,Untrustworthy","","1123","","","","decision","","<div class='trialDiv'><img src='Fruit/watermelon.png'><br><font class='baseline'><strong>Watermelon Win$</strong><p>Choose number of points to bet.</font><div class='respPicDiv'><img src='img/responseButtonOffersNo0L.png' class='respPic'></div></div>","4","13","Watermelon Win$","Fruit/watermelon.png","Lost","0.65,0.2","9","0.65","178","39","",""
"html-keyboard-response","125","268637","0.0-11.0-2.38","63d7a9346e833b93500723d4","bdp_rwlrn","Tue Mar 14 2023 20:38:26 GMT-0400 (Eastern Daylight Time)","494206","Trustworthy,Untrustworthy","","null","","","","decisionFB","","<div class='trialDiv'><img src='Fruit/watermelon.png'><br><font class='baseline'><strong>Watermelon Win$</strong><p>Choose number of points to bet.</font><div class='respPicDiv'><img src='img/responseButtonOffersNo0L4.png' class='respPic'></div></div>","null","13","Watermelon Win$","Fruit/watermelon.png","Lost","0.65,0.2","9","0.65","174","39","",""
"html-keyboard-response","126","269652","0.0-11.0-3.38","63d7a9346e833b93500723d4","bdp_rwlrn","Tue Mar 14 2023 20:38:26 GMT-0400 (Eastern Daylight Time)","494206","Trustworthy,Untrustworthy","","null","","","","feedback","","<div class='respPicDiv'><img src='img/responseButtonOffersNo0_wht.png' class='respPic'></div><div class='trialDiv'><img src='Fruit/watermelon.png'><br><font class='baseline'><strong>Watermelon Win$</strong><p><strong><font class='negOutcome'>You LOST</font><p>You bet: 4</strong></font> &nbsp; &nbsp; &nbsp; &nbsp; &nbsp; &nbsp;<font class='negOutcome'>You receive: <strong>0</strong></font></div>","null","13","Watermelon Win$","Fruit/watermelon.png","Lost","0.65,0.2","9","0.65","174","39","",""
"html-keyboard-response","127","270389","0.0-11.0-1.39","63d7a9346e833b93500723d4","bdp_rwlrn","Tue Mar 14 2023 20:38:26 GMT-0400 (Eastern Daylight Time)","494206","Trustworthy,Untrustworthy","","736","","","","decision","","<div class='trialDiv'><img src='Fruit/plums1.png'><br><font class='baseline'><strong>Plum Powerball</strong><p>Choose number of points to bet.</font><div class='respPicDiv'><img src='img/responseButtonOffersNo0L.png' class='respPic'></div></div>","1","14","Plum Powerball","Fruit/plums1.png","Lost","0.2,0.8","14","0.2","179","40","",""
"html-keyboard-response","128","270644","0.0-11.0-2.39","63d7a9346e833b93500723d4","bdp_rwlrn","Tue Mar 14 2023 20:38:26 GMT-0400 (Eastern Daylight Time)","494206","Trustworthy,Untrustworthy","","null","","","","decisionFB","","<div class='trialDiv'><img src='Fruit/plums1.png'><br><font class='baseline'><strong>Plum Powerball</strong><p>Choose number of points to bet.</font><div class='respPicDiv'><img src='img/responseButtonOffersNo0L1.png' class='respPic'></div></div>","null","14","Plum Powerball","Fruit/plums1.png","Lost","0.2,0.8","14","0.2","178","40","",""
"html-keyboard-response","129","271656","0.0-11.0-3.39","63d7a9346e833b93500723d4","bdp_rwlrn","Tue Mar 14 2023 20:38:26 GMT-0400 (Eastern Daylight Time)","494206","Trustworthy,Untrustworthy","","null","","","","feedback","","<div class='respPicDiv'><img src='img/responseButtonOffersNo0_wht.png' class='respPic'></div><div class='trialDiv'><img src='Fruit/plums1.png'><br><font class='baseline'><strong>Plum Powerball</strong><p><strong><font class='negOutcome'>You LOST</font><p>You bet: 1</strong></font> &nbsp; &nbsp; &nbsp; &nbsp; &nbsp; &nbsp;<font class='negOutcome'>You receive: <strong>0</strong></font></div>","null","14","Plum Powerball","Fruit/plums1.png","Lost","0.2,0.8","14","0.2","178","40","",""
"html-keyboard-response","130","272469","0.0-11.0-1.40","63d7a9346e833b93500723d4","bdp_rwlrn","Tue Mar 14 2023 20:38:26 GMT-0400 (Eastern Daylight Time)","494206","Trustworthy,Untrustworthy","","813","","","","decision","","<div class='trialDiv'><img src='Fruit/lime.png'><br><font class='baseline'><strong>Limin' Large</strong><p>Choose number of points to bet.</font><div class='respPicDiv'><img src='img/responseButtonOffersNo0L.png' class='respPic'></div></div>","5","14","Limin' Large","Fruit/lime.png","Won","0.2,0.65","9","0.2","183","41","",""
"html-keyboard-response","131","272720","0.0-11.0-2.40","63d7a9346e833b93500723d4","bdp_rwlrn","Tue Mar 14 2023 20:38:26 GMT-0400 (Eastern Daylight Time)","494206","Trustworthy,Untrustworthy","","null","","","","decisionFB","","<div class='trialDiv'><img src='Fruit/lime.png'><br><font class='baseline'><strong>Limin' Large</strong><p>Choose number of points to bet.</font><div class='respPicDiv'><img src='img/responseButtonOffersNo0L5.png' class='respPic'></div></div>","null","14","Limin' Large","Fruit/lime.png","Won","0.2,0.65","9","0.2","178","41","",""
"html-keyboard-response","132","273724","0.0-11.0-3.40","63d7a9346e833b93500723d4","bdp_rwlrn","Tue Mar 14 2023 20:38:26 GMT-0400 (Eastern Daylight Time)","494206","Trustworthy,Untrustworthy","","null","","","","feedback","","<div class='respPicDiv'><img src='img/responseButtonOffersNo0_wht.png' class='respPic'></div><div class='trialDiv'><img src='Fruit/lime.png'><br><font class='baseline'><strong>Limin' Large</strong><p><strong><font class='posOutcome'>You WON</font><p>You bet: 5</strong></font> &nbsp; &nbsp; &nbsp; &nbsp; &nbsp; &nbsp;<font class='posOutcome'>you receive: <strong>10</strong></font></div>","null","14","Limin' Large","Fruit/lime.png","Won","0.2,0.65","9","0.2","188","41","",""
"html-keyboard-response","133","275604","0.0-11.0-1.41","63d7a9346e833b93500723d4","bdp_rwlrn","Tue Mar 14 2023 20:38:26 GMT-0400 (Eastern Daylight Time)","494206","Trustworthy,Untrustworthy","","1880","","","","decision","","<div class='trialDiv'><img src='Fruit/watermelon.png'><br><font class='baseline'><strong>Watermelon Win$</strong><p>Choose number of points to bet.</font><div class='respPicDiv'><img src='img/responseButtonOffersNo0L.png' class='respPic'></div></div>","1","14","Watermelon Win$","Fruit/watermelon.png","Lost","0.65,0.2","9","0.65","193","42","",""
"html-keyboard-response","134","275860","0.0-11.0-2.41","63d7a9346e833b93500723d4","bdp_rwlrn","Tue Mar 14 2023 20:38:26 GMT-0400 (Eastern Daylight Time)","494206","Trustworthy,Untrustworthy","","null","","","","decisionFB","","<div class='trialDiv'><img src='Fruit/watermelon.png'><br><font class='baseline'><strong>Watermelon Win$</strong><p>Choose number of points to bet.</font><div class='respPicDiv'><img src='img/responseButtonOffersNo0L1.png' class='respPic'></div></div>","null","14","Watermelon Win$","Fruit/watermelon.png","Lost","0.65,0.2","9","0.65","192","42","",""
"html-keyboard-response","135","276863","0.0-11.0-3.41","63d7a9346e833b93500723d4","bdp_rwlrn","Tue Mar 14 2023 20:38:26 GMT-0400 (Eastern Daylight Time)","494206","Trustworthy,Untrustworthy","","null","","","","feedback","","<div class='respPicDiv'><img src='img/responseButtonOffersNo0_wht.png' class='respPic'></div><div class='trialDiv'><img src='Fruit/watermelon.png'><br><font class='baseline'><strong>Watermelon Win$</strong><p><strong><font class='negOutcome'>You LOST</font><p>You bet: 1</strong></font> &nbsp; &nbsp; &nbsp; &nbsp; &nbsp; &nbsp;<font class='negOutcome'>You receive: <strong>0</strong></font></div>","null","14","Watermelon Win$","Fruit/watermelon.png","Lost","0.65,0.2","9","0.65","192","42","",""
"html-keyboard-response","136","278108","0.0-11.0-1.42","63d7a9346e833b93500723d4","bdp_rwlrn","Tue Mar 14 2023 20:38:26 GMT-0400 (Eastern Daylight Time)","494206","Trustworthy,Untrustworthy","","1245","","","","decision","","<div class='trialDiv'><img src='Fruit/lime.png'><br><font class='baseline'><strong>Limin' Large</strong><p>Choose number of points to bet.</font><div class='respPicDiv'><img src='img/responseButtonOffersNo0L.png' class='respPic'></div></div>","5","15","Limin' Large","Fruit/lime.png","Lost","0.2,0.65","9","0.2","197","43","",""
"html-keyboard-response","137","278367","0.0-11.0-2.42","63d7a9346e833b93500723d4","bdp_rwlrn","Tue Mar 14 2023 20:38:26 GMT-0400 (Eastern Daylight Time)","494206","Trustworthy,Untrustworthy","","null","","","","decisionFB","","<div class='trialDiv'><img src='Fruit/lime.png'><br><font class='baseline'><strong>Limin' Large</strong><p>Choose number of points to bet.</font><div class='respPicDiv'><img src='img/responseButtonOffersNo0L5.png' class='respPic'></div></div>","null","15","Limin' Large","Fruit/lime.png","Lost","0.2,0.65","9","0.2","192","43","",""
"html-keyboard-response","138","279384","0.0-11.0-3.42","63d7a9346e833b93500723d4","bdp_rwlrn","Tue Mar 14 2023 20:38:26 GMT-0400 (Eastern Daylight Time)","494206","Trustworthy,Untrustworthy","","null","","","","feedback","","<div class='respPicDiv'><img src='img/responseButtonOffersNo0_wht.png' class='respPic'></div><div class='trialDiv'><img src='Fruit/lime.png'><br><font class='baseline'><strong>Limin' Large</strong><p><strong><font class='negOutcome'>You LOST</font><p>You bet: 5</strong></font> &nbsp; &nbsp; &nbsp; &nbsp; &nbsp; &nbsp;<font class='negOutcome'>You receive: <strong>0</strong></font></div>","null","15","Limin' Large","Fruit/lime.png","Lost","0.2,0.65","9","0.2","192","43","",""
"html-keyboard-response","139","279996","0.0-11.0-1.43","63d7a9346e833b93500723d4","bdp_rwlrn","Tue Mar 14 2023 20:38:26 GMT-0400 (Eastern Daylight Time)","494206","Trustworthy,Untrustworthy","","612","","","","decision","","<div class='trialDiv'><img src='Fruit/watermelon.png'><br><font class='baseline'><strong>Watermelon Win$</strong><p>Choose number of points to bet.</font><div class='respPicDiv'><img src='img/responseButtonOffersNo0L.png' class='respPic'></div></div>","1","15","Watermelon Win$","Fruit/watermelon.png","Won","0.65,0.2","9","0.65","197","44","",""
"html-keyboard-response","140","280259","0.0-11.0-2.43","63d7a9346e833b93500723d4","bdp_rwlrn","Tue Mar 14 2023 20:38:26 GMT-0400 (Eastern Daylight Time)","494206","Trustworthy,Untrustworthy","","null","","","","decisionFB","","<div class='trialDiv'><img src='Fruit/watermelon.png'><br><font class='baseline'><strong>Watermelon Win$</strong><p>Choose number of points to bet.</font><div class='respPicDiv'><img src='img/responseButtonOffersNo0L1.png' class='respPic'></div></div>","null","15","Watermelon Win$","Fruit/watermelon.png","Won","0.65,0.2","9","0.65","196","44","",""
"html-keyboard-response","141","281266","0.0-11.0-3.43","63d7a9346e833b93500723d4","bdp_rwlrn","Tue Mar 14 2023 20:38:26 GMT-0400 (Eastern Daylight Time)","494206","Trustworthy,Untrustworthy","","null","","","","feedback","","<div class='respPicDiv'><img src='img/responseButtonOffersNo0_wht.png' class='respPic'></div><div class='trialDiv'><img src='Fruit/watermelon.png'><br><font class='baseline'><strong>Watermelon Win$</strong><p><strong><font class='posOutcome'>You WON</font><p>You bet: 1</strong></font> &nbsp; &nbsp; &nbsp; &nbsp; &nbsp; &nbsp;<font class='posOutcome'>you receive: <strong>2</strong></font></div>","null","15","Watermelon Win$","Fruit/watermelon.png","Won","0.65,0.2","9","0.65","198","44","",""
"html-keyboard-response","142","282181","0.0-11.0-1.44","63d7a9346e833b93500723d4","bdp_rwlrn","Tue Mar 14 2023 20:38:26 GMT-0400 (Eastern Daylight Time)","494206","Trustworthy,Untrustworthy","","914","","","","decision","","<div class='trialDiv'><img src='Fruit/plums1.png'><br><font class='baseline'><strong>Plum Powerball</strong><p>Choose number of points to bet.</font><div class='respPicDiv'><img src='img/responseButtonOffersNo0L.png' class='respPic'></div></div>","2","15","Plum Powerball","Fruit/plums1.png","Won","0.2,0.8","14","0.2","203","45","",""
"html-keyboard-response","143","282439","0.0-11.0-2.44","63d7a9346e833b93500723d4","bdp_rwlrn","Tue Mar 14 2023 20:38:26 GMT-0400 (Eastern Daylight Time)","494206","Trustworthy,Untrustworthy","","null","","","","decisionFB","","<div class='trialDiv'><img src='Fruit/plums1.png'><br><font class='baseline'><strong>Plum Powerball</strong><p>Choose number of points to bet.</font><div class='respPicDiv'><img src='img/responseButtonOffersNo0L2.png' class='respPic'></div></div>","null","15","Plum Powerball","Fruit/plums1.png","Won","0.2,0.8","14","0.2","201","45","",""
"html-keyboard-response","144","283442","0.0-11.0-3.44","63d7a9346e833b93500723d4","bdp_rwlrn","Tue Mar 14 2023 20:38:26 GMT-0400 (Eastern Daylight Time)","494206","Trustworthy,Untrustworthy","","null","","","","feedback","","<div class='respPicDiv'><img src='img/responseButtonOffersNo0_wht.png' class='respPic'></div><div class='trialDiv'><img src='Fruit/plums1.png'><br><font class='baseline'><strong>Plum Powerball</strong><p><strong><font class='posOutcome'>You WON</font><p>You bet: 2</strong></font> &nbsp; &nbsp; &nbsp; &nbsp; &nbsp; &nbsp;<font class='posOutcome'>you receive: <strong>4</strong></font></div>","null","15","Plum Powerball","Fruit/plums1.png","Won","0.2,0.8","14","0.2","205","45","",""
"html-keyboard-response","145","285909","0.0-11.0-1.45","63d7a9346e833b93500723d4","bdp_rwlrn","Tue Mar 14 2023 20:38:26 GMT-0400 (Eastern Daylight Time)","494206","Trustworthy,Untrustworthy","","2466","","","","decision","","<div class='trialDiv'><img src='Fruit/lime.png'><br><font class='baseline'><strong>Limin' Large</strong><p>Choose number of points to bet.</font><div class='respPicDiv'><img src='img/responseButtonOffersNo0L.png' class='respPic'></div></div>","5","16","Limin' Large","Fruit/lime.png","Lost","0.2,0.65","9","0.2","210","46","",""
"html-keyboard-response","146","286160","0.0-11.0-2.45","63d7a9346e833b93500723d4","bdp_rwlrn","Tue Mar 14 2023 20:38:26 GMT-0400 (Eastern Daylight Time)","494206","Trustworthy,Untrustworthy","","null","","","","decisionFB","","<div class='trialDiv'><img src='Fruit/lime.png'><br><font class='baseline'><strong>Limin' Large</strong><p>Choose number of points to bet.</font><div class='respPicDiv'><img src='img/responseButtonOffersNo0L5.png' class='respPic'></div></div>","null","16","Limin' Large","Fruit/lime.png","Lost","0.2,0.65","9","0.2","205","46","",""
"html-keyboard-response","147","287162","0.0-11.0-3.45","63d7a9346e833b93500723d4","bdp_rwlrn","Tue Mar 14 2023 20:38:26 GMT-0400 (Eastern Daylight Time)","494206","Trustworthy,Untrustworthy","","null","","","","feedback","","<div class='respPicDiv'><img src='img/responseButtonOffersNo0_wht.png' class='respPic'></div><div class='trialDiv'><img src='Fruit/lime.png'><br><font class='baseline'><strong>Limin' Large</strong><p><strong><font class='negOutcome'>You LOST</font><p>You bet: 5</strong></font> &nbsp; &nbsp; &nbsp; &nbsp; &nbsp; &nbsp;<font class='negOutcome'>You receive: <strong>0</strong></font></div>","null","16","Limin' Large","Fruit/lime.png","Lost","0.2,0.65","9","0.2","205","46","",""
"html-keyboard-response","148","287644","0.0-11.0-1.46","63d7a9346e833b93500723d4","bdp_rwlrn","Tue Mar 14 2023 20:38:26 GMT-0400 (Eastern Daylight Time)","494206","Trustworthy,Untrustworthy","","482","","","","decision","","<div class='trialDiv'><img src='Fruit/watermelon.png'><br><font class='baseline'><strong>Watermelon Win$</strong><p>Choose number of points to bet.</font><div class='respPicDiv'><img src='img/responseButtonOffersNo0L.png' class='respPic'></div></div>","3","16","Watermelon Win$","Fruit/watermelon.png","Lost","0.65,0.2","9","0.65","210","47","",""
"html-keyboard-response","149","287901","0.0-11.0-2.46","63d7a9346e833b93500723d4","bdp_rwlrn","Tue Mar 14 2023 20:38:26 GMT-0400 (Eastern Daylight Time)","494206","Trustworthy,Untrustworthy","","null","","","","decisionFB","","<div class='trialDiv'><img src='Fruit/watermelon.png'><br><font class='baseline'><strong>Watermelon Win$</strong><p>Choose number of points to bet.</font><div class='respPicDiv'><img src='img/responseButtonOffersNo0L3.png' class='respPic'></div></div>","null","16","Watermelon Win$","Fruit/watermelon.png","Lost","0.65,0.2","9","0.65","207","47","",""
"html-keyboard-response","150","288918","0.0-11.0-3.46","63d7a9346e833b93500723d4","bdp_rwlrn","Tue Mar 14 2023 20:38:26 GMT-0400 (Eastern Daylight Time)","494206","Trustworthy,Untrustworthy","","null","","","","feedback","","<div class='respPicDiv'><img src='img/responseButtonOffersNo0_wht.png' class='respPic'></div><div class='trialDiv'><img src='Fruit/watermelon.png'><br><font class='baseline'><strong>Watermelon Win$</strong><p><strong><font class='negOutcome'>You LOST</font><p>You bet: 3</strong></font> &nbsp; &nbsp; &nbsp; &nbsp; &nbsp; &nbsp;<font class='negOutcome'>You receive: <strong>0</strong></font></div>","null","16","Watermelon Win$","Fruit/watermelon.png","Lost","0.65,0.2","9","0.65","207","47","",""
"html-keyboard-response","151","290300","0.0-11.0-1.47","63d7a9346e833b93500723d4","bdp_rwlrn","Tue Mar 14 2023 20:38:26 GMT-0400 (Eastern Daylight Time)","494206","Trustworthy,Untrustworthy","","1382","","","","decision","","<div class='trialDiv'><img src='Fruit/plums1.png'><br><font class='baseline'><strong>Plum Powerball</strong><p>Choose number of points to bet.</font><div class='respPicDiv'><img src='img/responseButtonOffersNo0L.png' class='respPic'></div></div>","5","16","Plum Powerball","Fruit/plums1.png","Lost","0.2,0.8","14","0.2","212","48","",""
"html-keyboard-response","152","290560","0.0-11.0-2.47","63d7a9346e833b93500723d4","bdp_rwlrn","Tue Mar 14 2023 20:38:26 GMT-0400 (Eastern Daylight Time)","494206","Trustworthy,Untrustworthy","","null","","","","decisionFB","","<div class='trialDiv'><img src='Fruit/plums1.png'><br><font class='baseline'><strong>Plum Powerball</strong><p>Choose number of points to bet.</font><div class='respPicDiv'><img src='img/responseButtonOffersNo0L5.png' class='respPic'></div></div>","null","16","Plum Powerball","Fruit/plums1.png","Lost","0.2,0.8","14","0.2","207","48","",""
"html-keyboard-response","153","291577","0.0-11.0-3.47","63d7a9346e833b93500723d4","bdp_rwlrn","Tue Mar 14 2023 20:38:26 GMT-0400 (Eastern Daylight Time)","494206","Trustworthy,Untrustworthy","","null","","","","feedback","","<div class='respPicDiv'><img src='img/responseButtonOffersNo0_wht.png' class='respPic'></div><div class='trialDiv'><img src='Fruit/plums1.png'><br><font class='baseline'><strong>Plum Powerball</strong><p><strong><font class='negOutcome'>You LOST</font><p>You bet: 5</strong></font> &nbsp; &nbsp; &nbsp; &nbsp; &nbsp; &nbsp;<font class='negOutcome'>You receive: <strong>0</strong></font></div>","null","16","Plum Powerball","Fruit/plums1.png","Lost","0.2,0.8","14","0.2","207","48","",""
"html-keyboard-response","154","292460","0.0-11.0-1.48","63d7a9346e833b93500723d4","bdp_rwlrn","Tue Mar 14 2023 20:38:26 GMT-0400 (Eastern Daylight Time)","494206","Trustworthy,Untrustworthy","","883","","","","decision","","<div class='trialDiv'><img src='Fruit/lime.png'><br><font class='baseline'><strong>Limin' Large</strong><p>Choose number of points to bet.</font><div class='respPicDiv'><img src='img/responseButtonOffersNo0L.png' class='respPic'></div></div>","5","17","Limin' Large","Fruit/lime.png","Lost","0.2,0.65","9","0.2","212","49","",""
"html-keyboard-response","155","292716","0.0-11.0-2.48","63d7a9346e833b93500723d4","bdp_rwlrn","Tue Mar 14 2023 20:38:26 GMT-0400 (Eastern Daylight Time)","494206","Trustworthy,Untrustworthy","","null","","","","decisionFB","","<div class='trialDiv'><img src='Fruit/lime.png'><br><font class='baseline'><strong>Limin' Large</strong><p>Choose number of points to bet.</font><div class='respPicDiv'><img src='img/responseButtonOffersNo0L5.png' class='respPic'></div></div>","null","17","Limin' Large","Fruit/lime.png","Lost","0.2,0.65","9","0.2","207","49","",""
"html-keyboard-response","156","293723","0.0-11.0-3.48","63d7a9346e833b93500723d4","bdp_rwlrn","Tue Mar 14 2023 20:38:26 GMT-0400 (Eastern Daylight Time)","494206","Trustworthy,Untrustworthy","","null","","","","feedback","","<div class='respPicDiv'><img src='img/responseButtonOffersNo0_wht.png' class='respPic'></div><div class='trialDiv'><img src='Fruit/lime.png'><br><font class='baseline'><strong>Limin' Large</strong><p><strong><font class='negOutcome'>You LOST</font><p>You bet: 5</strong></font> &nbsp; &nbsp; &nbsp; &nbsp; &nbsp; &nbsp;<font class='negOutcome'>You receive: <strong>0</strong></font></div>","null","17","Limin' Large","Fruit/lime.png","Lost","0.2,0.65","9","0.2","207","49","",""
"html-keyboard-response","157","294269","0.0-11.0-1.49","63d7a9346e833b93500723d4","bdp_rwlrn","Tue Mar 14 2023 20:38:26 GMT-0400 (Eastern Daylight Time)","494206","Trustworthy,Untrustworthy","","545","","","","decision","","<div class='trialDiv'><img src='Fruit/plums1.png'><br><font class='baseline'><strong>Plum Powerball</strong><p>Choose number of points to bet.</font><div class='respPicDiv'><img src='img/responseButtonOffersNo0L.png' class='respPic'></div></div>","5","17","Plum Powerball","Fruit/plums1.png","Won","0.2,0.8","14","0.2","212","50","",""
"html-keyboard-response","158","294535","0.0-11.0-2.49","63d7a9346e833b93500723d4","bdp_rwlrn","Tue Mar 14 2023 20:38:26 GMT-0400 (Eastern Daylight Time)","494206","Trustworthy,Untrustworthy","","null","","","","decisionFB","","<div class='trialDiv'><img src='Fruit/plums1.png'><br><font class='baseline'><strong>Plum Powerball</strong><p>Choose number of points to bet.</font><div class='respPicDiv'><img src='img/responseButtonOffersNo0L5.png' class='respPic'></div></div>","null","17","Plum Powerball","Fruit/plums1.png","Won","0.2,0.8","14","0.2","207","50","",""
"html-keyboard-response","159","295538","0.0-11.0-3.49","63d7a9346e833b93500723d4","bdp_rwlrn","Tue Mar 14 2023 20:38:26 GMT-0400 (Eastern Daylight Time)","494206","Trustworthy,Untrustworthy","","null","","","","feedback","","<div class='respPicDiv'><img src='img/responseButtonOffersNo0_wht.png' class='respPic'></div><div class='trialDiv'><img src='Fruit/plums1.png'><br><font class='baseline'><strong>Plum Powerball</strong><p><strong><font class='posOutcome'>You WON</font><p>You bet: 5</strong></font> &nbsp; &nbsp; &nbsp; &nbsp; &nbsp; &nbsp;<font class='posOutcome'>you receive: <strong>10</strong></font></div>","null","17","Plum Powerball","Fruit/plums1.png","Won","0.2,0.8","14","0.2","217","50","",""
"html-keyboard-response","160","296565","0.0-11.0-1.50","63d7a9346e833b93500723d4","bdp_rwlrn","Tue Mar 14 2023 20:38:26 GMT-0400 (Eastern Daylight Time)","494206","Trustworthy,Untrustworthy","","1026","","","","decision","","<div class='trialDiv'><img src='Fruit/watermelon.png'><br><font class='baseline'><strong>Watermelon Win$</strong><p>Choose number of points to bet.</font><div class='respPicDiv'><img src='img/responseButtonOffersNo0L.png' class='respPic'></div></div>","5","17","Watermelon Win$","Fruit/watermelon.png","Lost","0.65,0.2","9","0.65","222","51","",""
"html-keyboard-response","161","296822","0.0-11.0-2.50","63d7a9346e833b93500723d4","bdp_rwlrn","Tue Mar 14 2023 20:38:26 GMT-0400 (Eastern Daylight Time)","494206","Trustworthy,Untrustworthy","","null","","","","decisionFB","","<div class='trialDiv'><img src='Fruit/watermelon.png'><br><font class='baseline'><strong>Watermelon Win$</strong><p>Choose number of points to bet.</font><div class='respPicDiv'><img src='img/responseButtonOffersNo0L5.png' class='respPic'></div></div>","null","17","Watermelon Win$","Fruit/watermelon.png","Lost","0.65,0.2","9","0.65","217","51","",""
"html-keyboard-response","162","297835","0.0-11.0-3.50","63d7a9346e833b93500723d4","bdp_rwlrn","Tue Mar 14 2023 20:38:26 GMT-0400 (Eastern Daylight Time)","494206","Trustworthy,Untrustworthy","","null","","","","feedback","","<div class='respPicDiv'><img src='img/responseButtonOffersNo0_wht.png' class='respPic'></div><div class='trialDiv'><img src='Fruit/watermelon.png'><br><font class='baseline'><strong>Watermelon Win$</strong><p><strong><font class='negOutcome'>You LOST</font><p>You bet: 5</strong></font> &nbsp; &nbsp; &nbsp; &nbsp; &nbsp; &nbsp;<font class='negOutcome'>You receive: <strong>0</strong></font></div>","null","17","Watermelon Win$","Fruit/watermelon.png","Lost","0.65,0.2","9","0.65","217","51","",""
