"event","trial","time","trialtype","subject_id","task","startTime","totalTime","labels","numBlurs","trial_type","trial_index","time_elapsed","internal_node_id","view_history","rt","success","stimulus","key_press","ltround","name","fileID","outcome","lottotype","lottoswpt","lottocurrpshare","point_total","round","faceID","face"
"focus","0","0","focusevent","63ea79021f0c43def6174042","bdp_rwlrn","Mon Mar 13 2023 23:16:45 GMT-0500 (Central Daylight Time)","491865","Trustworthy,Untrustworthy","","","","","","","","","","","","","","","","","","","","",""
"blur","0","0","blurevent","63ea79021f0c43def6174042","bdp_rwlrn","Mon Mar 13 2023 23:16:45 GMT-0500 (Central Daylight Time)","491865","Trustworthy,Untrustworthy","1","","","","","","","","","","","","","","","","","","","",""
"focus","0","0","focusevent","63ea79021f0c43def6174042","bdp_rwlrn","Mon Mar 13 2023 23:16:45 GMT-0500 (Central Daylight Time)","491865","Trustworthy,Untrustworthy","","","","","","","","","","","","","","","","","","","","",""
"blur","0","0","blurevent","63ea79021f0c43def6174042","bdp_rwlrn","Mon Mar 13 2023 23:16:45 GMT-0500 (Central Daylight Time)","491865","Trustworthy,Untrustworthy","","","","","","","","","","","","","","","","","","","","",""
"","","","","63ea79021f0c43def6174042","bdp_rwlrn","Mon Mar 13 2023 23:16:45 GMT-0500 (Central Daylight Time)","491865","Trustworthy,Untrustworthy","","pavlovia","0","2","0.0-0.0","","","","","","","","","","","","","","","",""
"focus","1","9536","focusevent","63ea79021f0c43def6174042","bdp_rwlrn","Mon Mar 13 2023 23:16:45 GMT-0500 (Central Daylight Time)","491865","Trustworthy,Untrustworthy","","","","","","","","","","","","","","","","","","","","",""
"blur","1","13919","blurevent","63ea79021f0c43def6174042","bdp_rwlrn","Mon Mar 13 2023 23:16:45 GMT-0500 (Central Daylight Time)","491865","Trustworthy,Untrustworthy","2","","","","","","","","","","","","","","","","","","","",""
"focus","1","23604","focusevent","63ea79021f0c43def6174042","bdp_rwlrn","Mon Mar 13 2023 23:16:45 GMT-0500 (Central Daylight Time)","491865","Trustworthy,Untrustworthy","","","","","","","","","","","","","","","","","","","","",""
"","","","","63ea79021f0c43def6174042","bdp_rwlrn","Mon Mar 13 2023 23:16:45 GMT-0500 (Central Daylight Time)","491865","Trustworthy,Untrustworthy","","instructions","1","27951","0.0-1.0","[{""page_index"":0,""viewing_time"":27948}]","27948","","","","","","","","","","","","","",""
"fullscreenenter","2","31253","fullscreenenter","63ea79021f0c43def6174042","bdp_rwlrn","Mon Mar 13 2023 23:16:45 GMT-0500 (Central Daylight Time)","491865","Trustworthy,Untrustworthy","","","","","","","","","","","","","","","","","","","","",""
"","","","","63ea79021f0c43def6174042","bdp_rwlrn","Mon Mar 13 2023 23:16:45 GMT-0500 (Central Daylight Time)","491865","Trustworthy,Untrustworthy","","fullscreen","2","32246","0.0-2.0","","","true","","","","","","","","","","","","",""
"blur","3","74131","blurevent","63ea79021f0c43def6174042","bdp_rwlrn","Mon Mar 13 2023 23:16:45 GMT-0500 (Central Daylight Time)","491865","Trustworthy,Untrustworthy","3","","","","","","","","","","","","","","","","","","","",""
"focus","3","76077","focusevent","63ea79021f0c43def6174042","bdp_rwlrn","Mon Mar 13 2023 23:16:45 GMT-0500 (Central Daylight Time)","491865","Trustworthy,Untrustworthy","","","","","","","","","","","","","","","","","","","","",""
"fullscreenexit","3","76637","fullscreenexit","63ea79021f0c43def6174042","bdp_rwlrn","Mon Mar 13 2023 23:16:45 GMT-0500 (Central Daylight Time)","491865","Trustworthy,Untrustworthy","","","","","","","","","","","","","","","","","","","","",""
"blur","3","77780","blurevent","63ea79021f0c43def6174042","bdp_rwlrn","Mon Mar 13 2023 23:16:45 GMT-0500 (Central Daylight Time)","491865","Trustworthy,Untrustworthy","","","","","","","","","","","","","","","","","","","","",""
"focus","3","87218","focusevent","63ea79021f0c43def6174042","bdp_rwlrn","Mon Mar 13 2023 23:16:45 GMT-0500 (Central Daylight Time)","491865","Trustworthy,Untrustworthy","","","","","","","","","","","","","","","","","","","","",""
"blur","3","89222","blurevent","63ea79021f0c43def6174042","bdp_rwlrn","Mon Mar 13 2023 23:16:45 GMT-0500 (Central Daylight Time)","491865","Trustworthy,Untrustworthy","","","","","","","","","","","","","","","","","","","","",""
"focus","3","104360","focusevent","63ea79021f0c43def6174042","bdp_rwlrn","Mon Mar 13 2023 23:16:45 GMT-0500 (Central Daylight Time)","491865","Trustworthy,Untrustworthy","","","","","","","","","","","","","","","","","","","","",""
"","","","","63ea79021f0c43def6174042","bdp_rwlrn","Mon Mar 13 2023 23:16:45 GMT-0500 (Central Daylight Time)","491865","Trustworthy,Untrustworthy","","instructions","3","162629","0.0-4.0","[{""page_index"":0,""viewing_time"":12592},{""page_index"":1,""viewing_time"":16174},{""page_index"":2,""viewing_time"":4937},{""page_index"":3,""viewing_time"":66171},{""page_index"":4,""viewing_time"":16299},{""page_index"":5,""viewing_time"":11475},{""page_index"":4,""viewing_time"":1897},{""page_index"":5,""viewing_time"":838}]","130383","","","","","","","","","","","","","",""
"","","","","63ea79021f0c43def6174042","bdp_rwlrn","Mon Mar 13 2023 23:16:45 GMT-0500 (Central Daylight Time)","491865","Trustworthy,Untrustworthy","","html-keyboard-response","4","169294","0.0-5.0","","6663","","<div class='header' style='text-align:left; position: absolute; top: 5%; left: 5%;'><small>Task 1 of 5</small></div><div class='instruxDiv'><p><strong>1) What is the maximum number of points you can choose to bet on a lottery?</strong></p><p>a) 0</p><p>b) 1</p><p>c) 5</p>","C","","","","","","","","","","",""
"","","","","63ea79021f0c43def6174042","bdp_rwlrn","Mon Mar 13 2023 23:16:45 GMT-0500 (Central Daylight Time)","491865","Trustworthy,Untrustworthy","","html-keyboard-response","5","171152","0.0-6.0","","1754","","<div class='header' style='text-align:left; position: absolute; top: 5%; left: 5%;'><small>Task 1 of 5</small></div><div class='instruxDiv'><p><strong>1) What is the maximum number of points you can choose to bet on a lottery?</strong></p><p>a) 1</p><p>b) 1</p><p style='color:#00FF00'>c) 5</p><h3 style='color:#00FF00'>Correct!</h3><h3 class='center-content'>The correct response is c).</h3><h3 class='center-content'>The maximum number of points you can choose to bet on a lottery is 5 points.</h3><p><em>Press SPACEBAR to continue</em></p></div>"," ","","","","","","","","","","",""
"","","","","63ea79021f0c43def6174042","bdp_rwlrn","Mon Mar 13 2023 23:16:45 GMT-0500 (Central Daylight Time)","491865","Trustworthy,Untrustworthy","","html-keyboard-response","6","175068","0.0-7.0","","3801","","<div class='header' style='text-align:left; position: absolute; top: 5%; left: 5%;'><small>Task 1 of 5</small></div><div class='instruxDiv'><p><strong>2) How many points can you win each round?</strong></p><p>a) 10 points</p><p>b) Double what you bet</p><p>c) Quadruple what you bet</p>","B","","","","","","","","","","",""
"","","","","63ea79021f0c43def6174042","bdp_rwlrn","Mon Mar 13 2023 23:16:45 GMT-0500 (Central Daylight Time)","491865","Trustworthy,Untrustworthy","","html-keyboard-response","7","175929","0.0-8.0","","755","","<div class='header' style='text-align:left; position: absolute; top: 5%; left: 5%;'><small>Task 1 of 5</small></div><div class='instruxDiv'><p><strong>2) How many points can you win each round?</strong></p><p>a) 10 points</p><p style='color:#00FF00'>b) Double what you bet</p><p>c) Quadruple what you bet</p><h3 style='color:#00FF00'>Correct!</h3><h3 class='center-content'>The correct response is b).</h3><h3 class='center-content'>You can win double the amount of points you bet.</h3><p><em>Press SPACEBAR to continue</em></p></div>"," ","","","","","","","","","","",""
"","","","","63ea79021f0c43def6174042","bdp_rwlrn","Mon Mar 13 2023 23:16:45 GMT-0500 (Central Daylight Time)","491865","Trustworthy,Untrustworthy","","html-keyboard-response","8","181032","0.0-9.0","","null","","<div class='header' style='text-align:left; position: absolute; top: 5%; left: 5%;'><small>Task 1 of 5</small></div><div class='instruxDiv'><p>Thank you for completing the quiz<p>These are the actual lotteries you will be playing in the next block:<p><div class='tc' align='center'><img class='introPic' src='Fruit/papayas.png'><br><strong>Papaya Payday</strong></div><div class='bl' align='center'><img class='introPic' src='Fruit/plums1.png'><br><strong>Plum Powerball</strong></div><div class='br' align='center'><img class='introPic' src='Fruit/Kiwi.png'><br><strong>Kiwi Kash</strong></div></div><p>Across <strong>66 rounds</strong> you will play each lottery <strong>22 times</strong> (in random order).<p style='align:center; color:white'><font <em>Press SPACEBAR to continue</em></p>","null","","","","","","","","","","",""
"blur","9","189604","blurevent","63ea79021f0c43def6174042","bdp_rwlrn","Mon Mar 13 2023 23:16:45 GMT-0500 (Central Daylight Time)","491865","Trustworthy,Untrustworthy","4","","","","","","","","","","","","","","","","","","","",""
"focus","9","205353","focusevent","63ea79021f0c43def6174042","bdp_rwlrn","Mon Mar 13 2023 23:16:45 GMT-0500 (Central Daylight Time)","491865","Trustworthy,Untrustworthy","","","","","","","","","","","","","","","","","","","","",""
"blur","9","205952","blurevent","63ea79021f0c43def6174042","bdp_rwlrn","Mon Mar 13 2023 23:16:45 GMT-0500 (Central Daylight Time)","491865","Trustworthy,Untrustworthy","","","","","","","","","","","","","","","","","","","","",""
"focus","9","263787","focusevent","63ea79021f0c43def6174042","bdp_rwlrn","Mon Mar 13 2023 23:16:45 GMT-0500 (Central Daylight Time)","491865","Trustworthy,Untrustworthy","","","","","","","","","","","","","","","","","","","","",""
"","","","","63ea79021f0c43def6174042","bdp_rwlrn","Mon Mar 13 2023 23:16:45 GMT-0500 (Central Daylight Time)","491865","Trustworthy,Untrustworthy","","instructions","9","268299","0.0-10.0","[{""page_index"":0,""viewing_time"":83906},{""page_index"":1,""viewing_time"":3361}]","87267","","","","","","","","","","","","","",""
"","","","decision","63ea79021f0c43def6174042","bdp_rwlrn","Mon Mar 13 2023 23:16:45 GMT-0500 (Central Daylight Time)","491865","Trustworthy,Untrustworthy","","html-keyboard-response","10","272542","0.0-11.0-1.0","","4137","","<div class='trialDiv'><img src='Fruit/papayas.png'><br><font class='baseline'><strong>Papaya Payday</strong><p>Choose number of points to bet.</font><div class='respPicDiv'><img src='img/responseButtonOffersNo0L.png' class='respPic'></div></div>","5","1","Papaya Payday","Fruit/papayas.png","Won","0.65,0.35","10","0.65","5","1","",""
"","","","decisionFB","63ea79021f0c43def6174042","bdp_rwlrn","Mon Mar 13 2023 23:16:45 GMT-0500 (Central Daylight Time)","491865","Trustworthy,Untrustworthy","","html-keyboard-response","11","272802","0.0-11.0-2.0","","null","","<div class='trialDiv'><img src='Fruit/papayas.png'><br><font class='baseline'><strong>Papaya Payday</strong><p>Choose number of points to bet.</font><div class='respPicDiv'><img src='img/responseButtonOffersNo0L5.png' class='respPic'></div></div>","null","1","Papaya Payday","Fruit/papayas.png","Won","0.65,0.35","10","0.65","0","1","",""
"","","","feedback","63ea79021f0c43def6174042","bdp_rwlrn","Mon Mar 13 2023 23:16:45 GMT-0500 (Central Daylight Time)","491865","Trustworthy,Untrustworthy","","html-keyboard-response","12","273808","0.0-11.0-3.0","","null","","<div class='respPicDiv'><img src='img/responseButtonOffersNo0_wht.png' class='respPic'></div><div class='trialDiv'><img src='Fruit/papayas.png'><br><font class='baseline'><strong>Papaya Payday</strong><p><strong><font class='posOutcome'>You WON</font><p>You bet: 5</strong></font> &nbsp; &nbsp; &nbsp; &nbsp; &nbsp; &nbsp;<font class='posOutcome'>you receive: <strong>10</strong></font></div>","null","1","Papaya Payday","Fruit/papayas.png","Won","0.65,0.35","10","0.65","10","1","",""
"","","","decision","63ea79021f0c43def6174042","bdp_rwlrn","Mon Mar 13 2023 23:16:45 GMT-0500 (Central Daylight Time)","491865","Trustworthy,Untrustworthy","","html-keyboard-response","13","275164","0.0-11.0-1.1","","1355","","<div class='trialDiv'><img src='Fruit/Kiwi.png'><br><font class='baseline'><strong>Kiwi Kash</strong><p>Choose number of points to bet.</font><div class='respPicDiv'><img src='img/responseButtonOffersNo0L.png' class='respPic'></div></div>","5","1","Kiwi Kash","Fruit/Kiwi.png","Won","0.35,0.8","12","0.35","15","2","",""
"","","","decisionFB","63ea79021f0c43def6174042","bdp_rwlrn","Mon Mar 13 2023 23:16:45 GMT-0500 (Central Daylight Time)","491865","Trustworthy,Untrustworthy","","html-keyboard-response","14","275424","0.0-11.0-2.1","","null","","<div class='trialDiv'><img src='Fruit/Kiwi.png'><br><font class='baseline'><strong>Kiwi Kash</strong><p>Choose number of points to bet.</font><div class='respPicDiv'><img src='img/responseButtonOffersNo0L5.png' class='respPic'></div></div>","null","1","Kiwi Kash","Fruit/Kiwi.png","Won","0.35,0.8","12","0.35","10","2","",""
"","","","feedback","63ea79021f0c43def6174042","bdp_rwlrn","Mon Mar 13 2023 23:16:45 GMT-0500 (Central Daylight Time)","491865","Trustworthy,Untrustworthy","","html-keyboard-response","15","276433","0.0-11.0-3.1","","null","","<div class='respPicDiv'><img src='img/responseButtonOffersNo0_wht.png' class='respPic'></div><div class='trialDiv'><img src='Fruit/Kiwi.png'><br><font class='baseline'><strong>Kiwi Kash</strong><p><strong><font class='posOutcome'>You WON</font><p>You bet: 5</strong></font> &nbsp; &nbsp; &nbsp; &nbsp; &nbsp; &nbsp;<font class='posOutcome'>you receive: <strong>10</strong></font></div>","null","1","Kiwi Kash","Fruit/Kiwi.png","Won","0.35,0.8","12","0.35","20","2","",""
"","","","decision","63ea79021f0c43def6174042","bdp_rwlrn","Mon Mar 13 2023 23:16:45 GMT-0500 (Central Daylight Time)","491865","Trustworthy,Untrustworthy","","html-keyboard-response","16","276830","0.0-11.0-1.2","","396","","<div class='trialDiv'><img src='Fruit/plums1.png'><br><font class='baseline'><strong>Plum Powerball</strong><p>Choose number of points to bet.</font><div class='respPicDiv'><img src='img/responseButtonOffersNo0L.png' class='respPic'></div></div>","5","1","Plum Powerball","Fruit/plums1.png","Won","0.8,0.35","9","0.8","25","3","",""
"","","","decisionFB","63ea79021f0c43def6174042","bdp_rwlrn","Mon Mar 13 2023 23:16:45 GMT-0500 (Central Daylight Time)","491865","Trustworthy,Untrustworthy","","html-keyboard-response","17","277088","0.0-11.0-2.2","","null","","<div class='trialDiv'><img src='Fruit/plums1.png'><br><font class='baseline'><strong>Plum Powerball</strong><p>Choose number of points to bet.</font><div class='respPicDiv'><img src='img/responseButtonOffersNo0L5.png' class='respPic'></div></div>","null","1","Plum Powerball","Fruit/plums1.png","Won","0.8,0.35","9","0.8","20","3","",""
"","","","feedback","63ea79021f0c43def6174042","bdp_rwlrn","Mon Mar 13 2023 23:16:45 GMT-0500 (Central Daylight Time)","491865","Trustworthy,Untrustworthy","","html-keyboard-response","18","278097","0.0-11.0-3.2","","null","","<div class='respPicDiv'><img src='img/responseButtonOffersNo0_wht.png' class='respPic'></div><div class='trialDiv'><img src='Fruit/plums1.png'><br><font class='baseline'><strong>Plum Powerball</strong><p><strong><font class='posOutcome'>You WON</font><p>You bet: 5</strong></font> &nbsp; &nbsp; &nbsp; &nbsp; &nbsp; &nbsp;<font class='posOutcome'>you receive: <strong>10</strong></font></div>","null","1","Plum Powerball","Fruit/plums1.png","Won","0.8,0.35","9","0.8","30","3","",""
"","","","decision","63ea79021f0c43def6174042","bdp_rwlrn","Mon Mar 13 2023 23:16:45 GMT-0500 (Central Daylight Time)","491865","Trustworthy,Untrustworthy","","html-keyboard-response","19","278375","0.0-11.0-1.3","","278","","<div class='trialDiv'><img src='Fruit/Kiwi.png'><br><font class='baseline'><strong>Kiwi Kash</strong><p>Choose number of points to bet.</font><div class='respPicDiv'><img src='img/responseButtonOffersNo0L.png' class='respPic'></div></div>","5","2","Kiwi Kash","Fruit/Kiwi.png","Lost","0.35,0.8","12","0.35","35","4","",""
"","","","decisionFB","63ea79021f0c43def6174042","bdp_rwlrn","Mon Mar 13 2023 23:16:45 GMT-0500 (Central Daylight Time)","491865","Trustworthy,Untrustworthy","","html-keyboard-response","20","278626","0.0-11.0-2.3","","null","","<div class='trialDiv'><img src='Fruit/Kiwi.png'><br><font class='baseline'><strong>Kiwi Kash</strong><p>Choose number of points to bet.</font><div class='respPicDiv'><img src='img/responseButtonOffersNo0L5.png' class='respPic'></div></div>","null","2","Kiwi Kash","Fruit/Kiwi.png","Lost","0.35,0.8","12","0.35","30","4","",""
"","","","feedback","63ea79021f0c43def6174042","bdp_rwlrn","Mon Mar 13 2023 23:16:45 GMT-0500 (Central Daylight Time)","491865","Trustworthy,Untrustworthy","","html-keyboard-response","21","279639","0.0-11.0-3.3","","null","","<div class='respPicDiv'><img src='img/responseButtonOffersNo0_wht.png' class='respPic'></div><div class='trialDiv'><img src='Fruit/Kiwi.png'><br><font class='baseline'><strong>Kiwi Kash</strong><p><strong><font class='negOutcome'>You LOST</font><p>You bet: 5</strong></font> &nbsp; &nbsp; &nbsp; &nbsp; &nbsp; &nbsp;<font class='negOutcome'>You receive: <strong>0</strong></font></div>","null","2","Kiwi Kash","Fruit/Kiwi.png","Lost","0.35,0.8","12","0.35","30","4","",""
"","","","decision","63ea79021f0c43def6174042","bdp_rwlrn","Mon Mar 13 2023 23:16:45 GMT-0500 (Central Daylight Time)","491865","Trustworthy,Untrustworthy","","html-keyboard-response","22","279891","0.0-11.0-1.4","","251","","<div class='trialDiv'><img src='Fruit/plums1.png'><br><font class='baseline'><strong>Plum Powerball</strong><p>Choose number of points to bet.</font><div class='respPicDiv'><img src='img/responseButtonOffersNo0L.png' class='respPic'></div></div>","5","2","Plum Powerball","Fruit/plums1.png","Won","0.8,0.35","9","0.8","35","5","",""
"","","","decisionFB","63ea79021f0c43def6174042","bdp_rwlrn","Mon Mar 13 2023 23:16:45 GMT-0500 (Central Daylight Time)","491865","Trustworthy,Untrustworthy","","html-keyboard-response","23","280151","0.0-11.0-2.4","","null","","<div class='trialDiv'><img src='Fruit/plums1.png'><br><font class='baseline'><strong>Plum Powerball</strong><p>Choose number of points to bet.</font><div class='respPicDiv'><img src='img/responseButtonOffersNo0L5.png' class='respPic'></div></div>","null","2","Plum Powerball","Fruit/plums1.png","Won","0.8,0.35","9","0.8","30","5","",""
"","","","feedback","63ea79021f0c43def6174042","bdp_rwlrn","Mon Mar 13 2023 23:16:45 GMT-0500 (Central Daylight Time)","491865","Trustworthy,Untrustworthy","","html-keyboard-response","24","281162","0.0-11.0-3.4","","null","","<div class='respPicDiv'><img src='img/responseButtonOffersNo0_wht.png' class='respPic'></div><div class='trialDiv'><img src='Fruit/plums1.png'><br><font class='baseline'><strong>Plum Powerball</strong><p><strong><font class='posOutcome'>You WON</font><p>You bet: 5</strong></font> &nbsp; &nbsp; &nbsp; &nbsp; &nbsp; &nbsp;<font class='posOutcome'>you receive: <strong>10</strong></font></div>","null","2","Plum Powerball","Fruit/plums1.png","Won","0.8,0.35","9","0.8","40","5","",""
"","","","decision","63ea79021f0c43def6174042","bdp_rwlrn","Mon Mar 13 2023 23:16:45 GMT-0500 (Central Daylight Time)","491865","Trustworthy,Untrustworthy","","html-keyboard-response","25","281474","0.0-11.0-1.5","","311","","<div class='trialDiv'><img src='Fruit/papayas.png'><br><font class='baseline'><strong>Papaya Payday</strong><p>Choose number of points to bet.</font><div class='respPicDiv'><img src='img/responseButtonOffersNo0L.png' class='respPic'></div></div>","5","2","Papaya Payday","Fruit/papayas.png","Won","0.65,0.35","10","0.65","45","6","",""
"","","","decisionFB","63ea79021f0c43def6174042","bdp_rwlrn","Mon Mar 13 2023 23:16:45 GMT-0500 (Central Daylight Time)","491865","Trustworthy,Untrustworthy","","html-keyboard-response","26","281734","0.0-11.0-2.5","","null","","<div class='trialDiv'><img src='Fruit/papayas.png'><br><font class='baseline'><strong>Papaya Payday</strong><p>Choose number of points to bet.</font><div class='respPicDiv'><img src='img/responseButtonOffersNo0L5.png' class='respPic'></div></div>","null","2","Papaya Payday","Fruit/papayas.png","Won","0.65,0.35","10","0.65","40","6","",""
"","","","feedback","63ea79021f0c43def6174042","bdp_rwlrn","Mon Mar 13 2023 23:16:45 GMT-0500 (Central Daylight Time)","491865","Trustworthy,Untrustworthy","","html-keyboard-response","27","282745","0.0-11.0-3.5","","null","","<div class='respPicDiv'><img src='img/responseButtonOffersNo0_wht.png' class='respPic'></div><div class='trialDiv'><img src='Fruit/papayas.png'><br><font class='baseline'><strong>Papaya Payday</strong><p><strong><font class='posOutcome'>You WON</font><p>You bet: 5</strong></font> &nbsp; &nbsp; &nbsp; &nbsp; &nbsp; &nbsp;<font class='posOutcome'>you receive: <strong>10</strong></font></div>","null","2","Papaya Payday","Fruit/papayas.png","Won","0.65,0.35","10","0.65","50","6","",""
"","","","decision","63ea79021f0c43def6174042","bdp_rwlrn","Mon Mar 13 2023 23:16:45 GMT-0500 (Central Daylight Time)","491865","Trustworthy,Untrustworthy","","html-keyboard-response","28","283044","0.0-11.0-1.6","","298","","<div class='trialDiv'><img src='Fruit/Kiwi.png'><br><font class='baseline'><strong>Kiwi Kash</strong><p>Choose number of points to bet.</font><div class='respPicDiv'><img src='img/responseButtonOffersNo0L.png' class='respPic'></div></div>","5","3","Kiwi Kash","Fruit/Kiwi.png","Won","0.35,0.8","12","0.35","55","7","",""
"","","","decisionFB","63ea79021f0c43def6174042","bdp_rwlrn","Mon Mar 13 2023 23:16:45 GMT-0500 (Central Daylight Time)","491865","Trustworthy,Untrustworthy","","html-keyboard-response","29","283303","0.0-11.0-2.6","","null","","<div class='trialDiv'><img src='Fruit/Kiwi.png'><br><font class='baseline'><strong>Kiwi Kash</strong><p>Choose number of points to bet.</font><div class='respPicDiv'><img src='img/responseButtonOffersNo0L5.png' class='respPic'></div></div>","null","3","Kiwi Kash","Fruit/Kiwi.png","Won","0.35,0.8","12","0.35","50","7","",""
"","","","feedback","63ea79021f0c43def6174042","bdp_rwlrn","Mon Mar 13 2023 23:16:45 GMT-0500 (Central Daylight Time)","491865","Trustworthy,Untrustworthy","","html-keyboard-response","30","284314","0.0-11.0-3.6","","null","","<div class='respPicDiv'><img src='img/responseButtonOffersNo0_wht.png' class='respPic'></div><div class='trialDiv'><img src='Fruit/Kiwi.png'><br><font class='baseline'><strong>Kiwi Kash</strong><p><strong><font class='posOutcome'>You WON</font><p>You bet: 5</strong></font> &nbsp; &nbsp; &nbsp; &nbsp; &nbsp; &nbsp;<font class='posOutcome'>you receive: <strong>10</strong></font></div>","null","3","Kiwi Kash","Fruit/Kiwi.png","Won","0.35,0.8","12","0.35","60","7","",""
"","","","decision","63ea79021f0c43def6174042","bdp_rwlrn","Mon Mar 13 2023 23:16:45 GMT-0500 (Central Daylight Time)","491865","Trustworthy,Untrustworthy","","html-keyboard-response","31","284536","0.0-11.0-1.7","","221","","<div class='trialDiv'><img src='Fruit/plums1.png'><br><font class='baseline'><strong>Plum Powerball</strong><p>Choose number of points to bet.</font><div class='respPicDiv'><img src='img/responseButtonOffersNo0L.png' class='respPic'></div></div>","5","3","Plum Powerball","Fruit/plums1.png","Won","0.8,0.35","9","0.8","65","8","",""
"","","","decisionFB","63ea79021f0c43def6174042","bdp_rwlrn","Mon Mar 13 2023 23:16:45 GMT-0500 (Central Daylight Time)","491865","Trustworthy,Untrustworthy","","html-keyboard-response","32","284796","0.0-11.0-2.7","","null","","<div class='trialDiv'><img src='Fruit/plums1.png'><br><font class='baseline'><strong>Plum Powerball</strong><p>Choose number of points to bet.</font><div class='respPicDiv'><img src='img/responseButtonOffersNo0L5.png' class='respPic'></div></div>","null","3","Plum Powerball","Fruit/plums1.png","Won","0.8,0.35","9","0.8","60","8","",""
"","","","feedback","63ea79021f0c43def6174042","bdp_rwlrn","Mon Mar 13 2023 23:16:45 GMT-0500 (Central Daylight Time)","491865","Trustworthy,Untrustworthy","","html-keyboard-response","33","285803","0.0-11.0-3.7","","null","","<div class='respPicDiv'><img src='img/responseButtonOffersNo0_wht.png' class='respPic'></div><div class='trialDiv'><img src='Fruit/plums1.png'><br><font class='baseline'><strong>Plum Powerball</strong><p><strong><font class='posOutcome'>You WON</font><p>You bet: 5</strong></font> &nbsp; &nbsp; &nbsp; &nbsp; &nbsp; &nbsp;<font class='posOutcome'>you receive: <strong>10</strong></font></div>","null","3","Plum Powerball","Fruit/plums1.png","Won","0.8,0.35","9","0.8","70","8","",""
"","","","decision","63ea79021f0c43def6174042","bdp_rwlrn","Mon Mar 13 2023 23:16:45 GMT-0500 (Central Daylight Time)","491865","Trustworthy,Untrustworthy","","html-keyboard-response","34","286048","0.0-11.0-1.8","","244","","<div class='trialDiv'><img src='Fruit/papayas.png'><br><font class='baseline'><strong>Papaya Payday</strong><p>Choose number of points to bet.</font><div class='respPicDiv'><img src='img/responseButtonOffersNo0L.png' class='respPic'></div></div>","5","3","Papaya Payday","Fruit/papayas.png","Won","0.65,0.35","10","0.65","75","9","",""
"","","","decisionFB","63ea79021f0c43def6174042","bdp_rwlrn","Mon Mar 13 2023 23:16:45 GMT-0500 (Central Daylight Time)","491865","Trustworthy,Untrustworthy","","html-keyboard-response","35","286300","0.0-11.0-2.8","","null","","<div class='trialDiv'><img src='Fruit/papayas.png'><br><font class='baseline'><strong>Papaya Payday</strong><p>Choose number of points to bet.</font><div class='respPicDiv'><img src='img/responseButtonOffersNo0L5.png' class='respPic'></div></div>","null","3","Papaya Payday","Fruit/papayas.png","Won","0.65,0.35","10","0.65","70","9","",""
"","","","feedback","63ea79021f0c43def6174042","bdp_rwlrn","Mon Mar 13 2023 23:16:45 GMT-0500 (Central Daylight Time)","491865","Trustworthy,Untrustworthy","","html-keyboard-response","36","287312","0.0-11.0-3.8","","null","","<div class='respPicDiv'><img src='img/responseButtonOffersNo0_wht.png' class='respPic'></div><div class='trialDiv'><img src='Fruit/papayas.png'><br><font class='baseline'><strong>Papaya Payday</strong><p><strong><font class='posOutcome'>You WON</font><p>You bet: 5</strong></font> &nbsp; &nbsp; &nbsp; &nbsp; &nbsp; &nbsp;<font class='posOutcome'>you receive: <strong>10</strong></font></div>","null","3","Papaya Payday","Fruit/papayas.png","Won","0.65,0.35","10","0.65","80","9","",""
"","","","decision","63ea79021f0c43def6174042","bdp_rwlrn","Mon Mar 13 2023 23:16:45 GMT-0500 (Central Daylight Time)","491865","Trustworthy,Untrustworthy","","html-keyboard-response","37","287516","0.0-11.0-1.9","","203","","<div class='trialDiv'><img src='Fruit/plums1.png'><br><font class='baseline'><strong>Plum Powerball</strong><p>Choose number of points to bet.</font><div class='respPicDiv'><img src='img/responseButtonOffersNo0L.png' class='respPic'></div></div>","5","4","Plum Powerball","Fruit/plums1.png","Lost","0.8,0.35","9","0.8","85","10","",""
"","","","decisionFB","63ea79021f0c43def6174042","bdp_rwlrn","Mon Mar 13 2023 23:16:45 GMT-0500 (Central Daylight Time)","491865","Trustworthy,Untrustworthy","","html-keyboard-response","38","287777","0.0-11.0-2.9","","null","","<div class='trialDiv'><img src='Fruit/plums1.png'><br><font class='baseline'><strong>Plum Powerball</strong><p>Choose number of points to bet.</font><div class='respPicDiv'><img src='img/responseButtonOffersNo0L5.png' class='respPic'></div></div>","null","4","Plum Powerball","Fruit/plums1.png","Lost","0.8,0.35","9","0.8","80","10","",""
"","","","feedback","63ea79021f0c43def6174042","bdp_rwlrn","Mon Mar 13 2023 23:16:45 GMT-0500 (Central Daylight Time)","491865","Trustworthy,Untrustworthy","","html-keyboard-response","39","288790","0.0-11.0-3.9","","null","","<div class='respPicDiv'><img src='img/responseButtonOffersNo0_wht.png' class='respPic'></div><div class='trialDiv'><img src='Fruit/plums1.png'><br><font class='baseline'><strong>Plum Powerball</strong><p><strong><font class='negOutcome'>You LOST</font><p>You bet: 5</strong></font> &nbsp; &nbsp; &nbsp; &nbsp; &nbsp; &nbsp;<font class='negOutcome'>You receive: <strong>0</strong></font></div>","null","4","Plum Powerball","Fruit/plums1.png","Lost","0.8,0.35","9","0.8","80","10","",""
"","","","decision","63ea79021f0c43def6174042","bdp_rwlrn","Mon Mar 13 2023 23:16:45 GMT-0500 (Central Daylight Time)","491865","Trustworthy,Untrustworthy","","html-keyboard-response","40","289024","0.0-11.0-1.10","","233","","<div class='trialDiv'><img src='Fruit/Kiwi.png'><br><font class='baseline'><strong>Kiwi Kash</strong><p>Choose number of points to bet.</font><div class='respPicDiv'><img src='img/responseButtonOffersNo0L.png' class='respPic'></div></div>","5","4","Kiwi Kash","Fruit/Kiwi.png","Won","0.35,0.8","12","0.35","85","11","",""
"","","","decisionFB","63ea79021f0c43def6174042","bdp_rwlrn","Mon Mar 13 2023 23:16:45 GMT-0500 (Central Daylight Time)","491865","Trustworthy,Untrustworthy","","html-keyboard-response","41","289287","0.0-11.0-2.10","","null","","<div class='trialDiv'><img src='Fruit/Kiwi.png'><br><font class='baseline'><strong>Kiwi Kash</strong><p>Choose number of points to bet.</font><div class='respPicDiv'><img src='img/responseButtonOffersNo0L5.png' class='respPic'></div></div>","null","4","Kiwi Kash","Fruit/Kiwi.png","Won","0.35,0.8","12","0.35","80","11","",""
"","","","feedback","63ea79021f0c43def6174042","bdp_rwlrn","Mon Mar 13 2023 23:16:45 GMT-0500 (Central Daylight Time)","491865","Trustworthy,Untrustworthy","","html-keyboard-response","42","290297","0.0-11.0-3.10","","null","","<div class='respPicDiv'><img src='img/responseButtonOffersNo0_wht.png' class='respPic'></div><div class='trialDiv'><img src='Fruit/Kiwi.png'><br><font class='baseline'><strong>Kiwi Kash</strong><p><strong><font class='posOutcome'>You WON</font><p>You bet: 5</strong></font> &nbsp; &nbsp; &nbsp; &nbsp; &nbsp; &nbsp;<font class='posOutcome'>you receive: <strong>10</strong></font></div>","null","4","Kiwi Kash","Fruit/Kiwi.png","Won","0.35,0.8","12","0.35","90","11","",""
"","","","decision","63ea79021f0c43def6174042","bdp_rwlrn","Mon Mar 13 2023 23:16:45 GMT-0500 (Central Daylight Time)","491865","Trustworthy,Untrustworthy","","html-keyboard-response","43","290376","0.0-11.0-1.11","","78","","<div class='trialDiv'><img src='Fruit/papayas.png'><br><font class='baseline'><strong>Papaya Payday</strong><p>Choose number of points to bet.</font><div class='respPicDiv'><img src='img/responseButtonOffersNo0L.png' class='respPic'></div></div>","5","4","Papaya Payday","Fruit/papayas.png","Won","0.65,0.35","10","0.65","95","12","",""
"","","","decisionFB","63ea79021f0c43def6174042","bdp_rwlrn","Mon Mar 13 2023 23:16:45 GMT-0500 (Central Daylight Time)","491865","Trustworthy,Untrustworthy","","html-keyboard-response","44","290637","0.0-11.0-2.11","","null","","<div class='trialDiv'><img src='Fruit/papayas.png'><br><font class='baseline'><strong>Papaya Payday</strong><p>Choose number of points to bet.</font><div class='respPicDiv'><img src='img/responseButtonOffersNo0L5.png' class='respPic'></div></div>","null","4","Papaya Payday","Fruit/papayas.png","Won","0.65,0.35","10","0.65","90","12","",""
"","","","feedback","63ea79021f0c43def6174042","bdp_rwlrn","Mon Mar 13 2023 23:16:45 GMT-0500 (Central Daylight Time)","491865","Trustworthy,Untrustworthy","","html-keyboard-response","45","291648","0.0-11.0-3.11","","null","","<div class='respPicDiv'><img src='img/responseButtonOffersNo0_wht.png' class='respPic'></div><div class='trialDiv'><img src='Fruit/papayas.png'><br><font class='baseline'><strong>Papaya Payday</strong><p><strong><font class='posOutcome'>You WON</font><p>You bet: 5</strong></font> &nbsp; &nbsp; &nbsp; &nbsp; &nbsp; &nbsp;<font class='posOutcome'>you receive: <strong>10</strong></font></div>","null","4","Papaya Payday","Fruit/papayas.png","Won","0.65,0.35","10","0.65","100","12","",""
"","","","decision","63ea79021f0c43def6174042","bdp_rwlrn","Mon Mar 13 2023 23:16:45 GMT-0500 (Central Daylight Time)","491865","Trustworthy,Untrustworthy","","html-keyboard-response","46","291793","0.0-11.0-1.12","","145","","<div class='trialDiv'><img src='Fruit/plums1.png'><br><font class='baseline'><strong>Plum Powerball</strong><p>Choose number of points to bet.</font><div class='respPicDiv'><img src='img/responseButtonOffersNo0L.png' class='respPic'></div></div>","5","5","Plum Powerball","Fruit/plums1.png","Won","0.8,0.35","9","0.8","105","13","",""
"","","","decisionFB","63ea79021f0c43def6174042","bdp_rwlrn","Mon Mar 13 2023 23:16:45 GMT-0500 (Central Daylight Time)","491865","Trustworthy,Untrustworthy","","html-keyboard-response","47","292052","0.0-11.0-2.12","","null","","<div class='trialDiv'><img src='Fruit/plums1.png'><br><font class='baseline'><strong>Plum Powerball</strong><p>Choose number of points to bet.</font><div class='respPicDiv'><img src='img/responseButtonOffersNo0L5.png' class='respPic'></div></div>","null","5","Plum Powerball","Fruit/plums1.png","Won","0.8,0.35","9","0.8","100","13","",""
"","","","feedback","63ea79021f0c43def6174042","bdp_rwlrn","Mon Mar 13 2023 23:16:45 GMT-0500 (Central Daylight Time)","491865","Trustworthy,Untrustworthy","","html-keyboard-response","48","293061","0.0-11.0-3.12","","null","","<div class='respPicDiv'><img src='img/responseButtonOffersNo0_wht.png' class='respPic'></div><div class='trialDiv'><img src='Fruit/plums1.png'><br><font class='baseline'><strong>Plum Powerball</strong><p><strong><font class='posOutcome'>You WON</font><p>You bet: 5</strong></font> &nbsp; &nbsp; &nbsp; &nbsp; &nbsp; &nbsp;<font class='posOutcome'>you receive: <strong>10</strong></font></div>","null","5","Plum Powerball","Fruit/plums1.png","Won","0.8,0.35","9","0.8","110","13","",""
"","","","decision","63ea79021f0c43def6174042","bdp_rwlrn","Mon Mar 13 2023 23:16:45 GMT-0500 (Central Daylight Time)","491865","Trustworthy,Untrustworthy","","html-keyboard-response","49","293268","0.0-11.0-1.13","","206","","<div class='trialDiv'><img src='Fruit/Kiwi.png'><br><font class='baseline'><strong>Kiwi Kash</strong><p>Choose number of points to bet.</font><div class='respPicDiv'><img src='img/responseButtonOffersNo0L.png' class='respPic'></div></div>","5","5","Kiwi Kash","Fruit/Kiwi.png","Lost","0.35,0.8","12","0.35","115","14","",""
"","","","decisionFB","63ea79021f0c43def6174042","bdp_rwlrn","Mon Mar 13 2023 23:16:45 GMT-0500 (Central Daylight Time)","491865","Trustworthy,Untrustworthy","","html-keyboard-response","50","293529","0.0-11.0-2.13","","null","","<div class='trialDiv'><img src='Fruit/Kiwi.png'><br><font class='baseline'><strong>Kiwi Kash</strong><p>Choose number of points to bet.</font><div class='respPicDiv'><img src='img/responseButtonOffersNo0L5.png' class='respPic'></div></div>","null","5","Kiwi Kash","Fruit/Kiwi.png","Lost","0.35,0.8","12","0.35","110","14","",""
"","","","feedback","63ea79021f0c43def6174042","bdp_rwlrn","Mon Mar 13 2023 23:16:45 GMT-0500 (Central Daylight Time)","491865","Trustworthy,Untrustworthy","","html-keyboard-response","51","294537","0.0-11.0-3.13","","null","","<div class='respPicDiv'><img src='img/responseButtonOffersNo0_wht.png' class='respPic'></div><div class='trialDiv'><img src='Fruit/Kiwi.png'><br><font class='baseline'><strong>Kiwi Kash</strong><p><strong><font class='negOutcome'>You LOST</font><p>You bet: 5</strong></font> &nbsp; &nbsp; &nbsp; &nbsp; &nbsp; &nbsp;<font class='negOutcome'>You receive: <strong>0</strong></font></div>","null","5","Kiwi Kash","Fruit/Kiwi.png","Lost","0.35,0.8","12","0.35","110","14","",""
"","","","decision","63ea79021f0c43def6174042","bdp_rwlrn","Mon Mar 13 2023 23:16:45 GMT-0500 (Central Daylight Time)","491865","Trustworthy,Untrustworthy","","html-keyboard-response","52","294742","0.0-11.0-1.14","","204","","<div class='trialDiv'><img src='Fruit/papayas.png'><br><font class='baseline'><strong>Papaya Payday</strong><p>Choose number of points to bet.</font><div class='respPicDiv'><img src='img/responseButtonOffersNo0L.png' class='respPic'></div></div>","5","5","Papaya Payday","Fruit/papayas.png","Won","0.65,0.35","10","0.65","115","15","",""
"","","","decisionFB","63ea79021f0c43def6174042","bdp_rwlrn","Mon Mar 13 2023 23:16:45 GMT-0500 (Central Daylight Time)","491865","Trustworthy,Untrustworthy","","html-keyboard-response","53","295001","0.0-11.0-2.14","","null","","<div class='trialDiv'><img src='Fruit/papayas.png'><br><font class='baseline'><strong>Papaya Payday</strong><p>Choose number of points to bet.</font><div class='respPicDiv'><img src='img/responseButtonOffersNo0L5.png' class='respPic'></div></div>","null","5","Papaya Payday","Fruit/papayas.png","Won","0.65,0.35","10","0.65","110","15","",""
"","","","feedback","63ea79021f0c43def6174042","bdp_rwlrn","Mon Mar 13 2023 23:16:45 GMT-0500 (Central Daylight Time)","491865","Trustworthy,Untrustworthy","","html-keyboard-response","54","296011","0.0-11.0-3.14","","null","","<div class='respPicDiv'><img src='img/responseButtonOffersNo0_wht.png' class='respPic'></div><div class='trialDiv'><img src='Fruit/papayas.png'><br><font class='baseline'><strong>Papaya Payday</strong><p><strong><font class='posOutcome'>You WON</font><p>You bet: 5</strong></font> &nbsp; &nbsp; &nbsp; &nbsp; &nbsp; &nbsp;<font class='posOutcome'>you receive: <strong>10</strong></font></div>","null","5","Papaya Payday","Fruit/papayas.png","Won","0.65,0.35","10","0.65","120","15","",""
"","","","decision","63ea79021f0c43def6174042","bdp_rwlrn","Mon Mar 13 2023 23:16:45 GMT-0500 (Central Daylight Time)","491865","Trustworthy,Untrustworthy","","html-keyboard-response","55","296169","0.0-11.0-1.15","","157","","<div class='trialDiv'><img src='Fruit/Kiwi.png'><br><font class='baseline'><strong>Kiwi Kash</strong><p>Choose number of points to bet.</font><div class='respPicDiv'><img src='img/responseButtonOffersNo0L.png' class='respPic'></div></div>","5","6","Kiwi Kash","Fruit/Kiwi.png","Won","0.35,0.8","12","0.35","125","16","",""
"","","","decisionFB","63ea79021f0c43def6174042","bdp_rwlrn","Mon Mar 13 2023 23:16:45 GMT-0500 (Central Daylight Time)","491865","Trustworthy,Untrustworthy","","html-keyboard-response","56","296429","0.0-11.0-2.15","","null","","<div class='trialDiv'><img src='Fruit/Kiwi.png'><br><font class='baseline'><strong>Kiwi Kash</strong><p>Choose number of points to bet.</font><div class='respPicDiv'><img src='img/responseButtonOffersNo0L5.png' class='respPic'></div></div>","null","6","Kiwi Kash","Fruit/Kiwi.png","Won","0.35,0.8","12","0.35","120","16","",""
"","","","feedback","63ea79021f0c43def6174042","bdp_rwlrn","Mon Mar 13 2023 23:16:45 GMT-0500 (Central Daylight Time)","491865","Trustworthy,Untrustworthy","","html-keyboard-response","57","297438","0.0-11.0-3.15","","null","","<div class='respPicDiv'><img src='img/responseButtonOffersNo0_wht.png' class='respPic'></div><div class='trialDiv'><img src='Fruit/Kiwi.png'><br><font class='baseline'><strong>Kiwi Kash</strong><p><strong><font class='posOutcome'>You WON</font><p>You bet: 5</strong></font> &nbsp; &nbsp; &nbsp; &nbsp; &nbsp; &nbsp;<font class='posOutcome'>you receive: <strong>10</strong></font></div>","null","6","Kiwi Kash","Fruit/Kiwi.png","Won","0.35,0.8","12","0.35","130","16","",""
"","","","decision","63ea79021f0c43def6174042","bdp_rwlrn","Mon Mar 13 2023 23:16:45 GMT-0500 (Central Daylight Time)","491865","Trustworthy,Untrustworthy","","html-keyboard-response","58","297715","0.0-11.0-1.16","","276","","<div class='trialDiv'><img src='Fruit/papayas.png'><br><font class='baseline'><strong>Papaya Payday</strong><p>Choose number of points to bet.</font><div class='respPicDiv'><img src='img/responseButtonOffersNo0L.png' class='respPic'></div></div>","5","6","Papaya Payday","Fruit/papayas.png","Won","0.65,0.35","10","0.65","135","17","",""
"","","","decisionFB","63ea79021f0c43def6174042","bdp_rwlrn","Mon Mar 13 2023 23:16:45 GMT-0500 (Central Daylight Time)","491865","Trustworthy,Untrustworthy","","html-keyboard-response","59","297966","0.0-11.0-2.16","","null","","<div class='trialDiv'><img src='Fruit/papayas.png'><br><font class='baseline'><strong>Papaya Payday</strong><p>Choose number of points to bet.</font><div class='respPicDiv'><img src='img/responseButtonOffersNo0L5.png' class='respPic'></div></div>","null","6","Papaya Payday","Fruit/papayas.png","Won","0.65,0.35","10","0.65","130","17","",""
"","","","feedback","63ea79021f0c43def6174042","bdp_rwlrn","Mon Mar 13 2023 23:16:45 GMT-0500 (Central Daylight Time)","491865","Trustworthy,Untrustworthy","","html-keyboard-response","60","298975","0.0-11.0-3.16","","null","","<div class='respPicDiv'><img src='img/responseButtonOffersNo0_wht.png' class='respPic'></div><div class='trialDiv'><img src='Fruit/papayas.png'><br><font class='baseline'><strong>Papaya Payday</strong><p><strong><font class='posOutcome'>You WON</font><p>You bet: 5</strong></font> &nbsp; &nbsp; &nbsp; &nbsp; &nbsp; &nbsp;<font class='posOutcome'>you receive: <strong>10</strong></font></div>","null","6","Papaya Payday","Fruit/papayas.png","Won","0.65,0.35","10","0.65","140","17","",""
"","","","decision","63ea79021f0c43def6174042","bdp_rwlrn","Mon Mar 13 2023 23:16:45 GMT-0500 (Central Daylight Time)","491865","Trustworthy,Untrustworthy","","html-keyboard-response","61","299122","0.0-11.0-1.17","","146","","<div class='trialDiv'><img src='Fruit/plums1.png'><br><font class='baseline'><strong>Plum Powerball</strong><p>Choose number of points to bet.</font><div class='respPicDiv'><img src='img/responseButtonOffersNo0L.png' class='respPic'></div></div>","5","6","Plum Powerball","Fruit/plums1.png","Won","0.8,0.35","9","0.8","145","18","",""
"","","","decisionFB","63ea79021f0c43def6174042","bdp_rwlrn","Mon Mar 13 2023 23:16:45 GMT-0500 (Central Daylight Time)","491865","Trustworthy,Untrustworthy","","html-keyboard-response","62","299378","0.0-11.0-2.17","","null","","<div class='trialDiv'><img src='Fruit/plums1.png'><br><font class='baseline'><strong>Plum Powerball</strong><p>Choose number of points to bet.</font><div class='respPicDiv'><img src='img/responseButtonOffersNo0L5.png' class='respPic'></div></div>","null","6","Plum Powerball","Fruit/plums1.png","Won","0.8,0.35","9","0.8","140","18","",""
"","","","feedback","63ea79021f0c43def6174042","bdp_rwlrn","Mon Mar 13 2023 23:16:45 GMT-0500 (Central Daylight Time)","491865","Trustworthy,Untrustworthy","","html-keyboard-response","63","300386","0.0-11.0-3.17","","null","","<div class='respPicDiv'><img src='img/responseButtonOffersNo0_wht.png' class='respPic'></div><div class='trialDiv'><img src='Fruit/plums1.png'><br><font class='baseline'><strong>Plum Powerball</strong><p><strong><font class='posOutcome'>You WON</font><p>You bet: 5</strong></font> &nbsp; &nbsp; &nbsp; &nbsp; &nbsp; &nbsp;<font class='posOutcome'>you receive: <strong>10</strong></font></div>","null","6","Plum Powerball","Fruit/plums1.png","Won","0.8,0.35","9","0.8","150","18","",""
"","","","decision","63ea79021f0c43def6174042","bdp_rwlrn","Mon Mar 13 2023 23:16:45 GMT-0500 (Central Daylight Time)","491865","Trustworthy,Untrustworthy","","html-keyboard-response","64","300488","0.0-11.0-1.18","","101","","<div class='trialDiv'><img src='Fruit/papayas.png'><br><font class='baseline'><strong>Papaya Payday</strong><p>Choose number of points to bet.</font><div class='respPicDiv'><img src='img/responseButtonOffersNo0L.png' class='respPic'></div></div>","5","7","Papaya Payday","Fruit/papayas.png","Lost","0.65,0.35","10","0.65","155","19","",""
"","","","decisionFB","63ea79021f0c43def6174042","bdp_rwlrn","Mon Mar 13 2023 23:16:45 GMT-0500 (Central Daylight Time)","491865","Trustworthy,Untrustworthy","","html-keyboard-response","65","300744","0.0-11.0-2.18","","null","","<div class='trialDiv'><img src='Fruit/papayas.png'><br><font class='baseline'><strong>Papaya Payday</strong><p>Choose number of points to bet.</font><div class='respPicDiv'><img src='img/responseButtonOffersNo0L5.png' class='respPic'></div></div>","null","7","Papaya Payday","Fruit/papayas.png","Lost","0.65,0.35","10","0.65","150","19","",""
"","","","feedback","63ea79021f0c43def6174042","bdp_rwlrn","Mon Mar 13 2023 23:16:45 GMT-0500 (Central Daylight Time)","491865","Trustworthy,Untrustworthy","","html-keyboard-response","66","301753","0.0-11.0-3.18","","null","","<div class='respPicDiv'><img src='img/responseButtonOffersNo0_wht.png' class='respPic'></div><div class='trialDiv'><img src='Fruit/papayas.png'><br><font class='baseline'><strong>Papaya Payday</strong><p><strong><font class='negOutcome'>You LOST</font><p>You bet: 5</strong></font> &nbsp; &nbsp; &nbsp; &nbsp; &nbsp; &nbsp;<font class='negOutcome'>You receive: <strong>0</strong></font></div>","null","7","Papaya Payday","Fruit/papayas.png","Lost","0.65,0.35","10","0.65","150","19","",""
"","","","decision","63ea79021f0c43def6174042","bdp_rwlrn","Mon Mar 13 2023 23:16:45 GMT-0500 (Central Daylight Time)","491865","Trustworthy,Untrustworthy","","html-keyboard-response","67","301955","0.0-11.0-1.19","","201","","<div class='trialDiv'><img src='Fruit/Kiwi.png'><br><font class='baseline'><strong>Kiwi Kash</strong><p>Choose number of points to bet.</font><div class='respPicDiv'><img src='img/responseButtonOffersNo0L.png' class='respPic'></div></div>","5","7","Kiwi Kash","Fruit/Kiwi.png","Lost","0.35,0.8","12","0.35","155","20","",""
"","","","decisionFB","63ea79021f0c43def6174042","bdp_rwlrn","Mon Mar 13 2023 23:16:45 GMT-0500 (Central Daylight Time)","491865","Trustworthy,Untrustworthy","","html-keyboard-response","68","302220","0.0-11.0-2.19","","null","","<div class='trialDiv'><img src='Fruit/Kiwi.png'><br><font class='baseline'><strong>Kiwi Kash</strong><p>Choose number of points to bet.</font><div class='respPicDiv'><img src='img/responseButtonOffersNo0L5.png' class='respPic'></div></div>","null","7","Kiwi Kash","Fruit/Kiwi.png","Lost","0.35,0.8","12","0.35","150","20","",""
"","","","feedback","63ea79021f0c43def6174042","bdp_rwlrn","Mon Mar 13 2023 23:16:45 GMT-0500 (Central Daylight Time)","491865","Trustworthy,Untrustworthy","","html-keyboard-response","69","303225","0.0-11.0-3.19","","null","","<div class='respPicDiv'><img src='img/responseButtonOffersNo0_wht.png' class='respPic'></div><div class='trialDiv'><img src='Fruit/Kiwi.png'><br><font class='baseline'><strong>Kiwi Kash</strong><p><strong><font class='negOutcome'>You LOST</font><p>You bet: 5</strong></font> &nbsp; &nbsp; &nbsp; &nbsp; &nbsp; &nbsp;<font class='negOutcome'>You receive: <strong>0</strong></font></div>","null","7","Kiwi Kash","Fruit/Kiwi.png","Lost","0.35,0.8","12","0.35","150","20","",""
"","","","decision","63ea79021f0c43def6174042","bdp_rwlrn","Mon Mar 13 2023 23:16:45 GMT-0500 (Central Daylight Time)","491865","Trustworthy,Untrustworthy","","html-keyboard-response","70","303433","0.0-11.0-1.20","","207","","<div class='trialDiv'><img src='Fruit/plums1.png'><br><font class='baseline'><strong>Plum Powerball</strong><p>Choose number of points to bet.</font><div class='respPicDiv'><img src='img/responseButtonOffersNo0L.png' class='respPic'></div></div>","5","7","Plum Powerball","Fruit/plums1.png","Lost","0.8,0.35","9","0.8","155","21","",""
"","","","decisionFB","63ea79021f0c43def6174042","bdp_rwlrn","Mon Mar 13 2023 23:16:45 GMT-0500 (Central Daylight Time)","491865","Trustworthy,Untrustworthy","","html-keyboard-response","71","303688","0.0-11.0-2.20","","null","","<div class='trialDiv'><img src='Fruit/plums1.png'><br><font class='baseline'><strong>Plum Powerball</strong><p>Choose number of points to bet.</font><div class='respPicDiv'><img src='img/responseButtonOffersNo0L5.png' class='respPic'></div></div>","null","7","Plum Powerball","Fruit/plums1.png","Lost","0.8,0.35","9","0.8","150","21","",""
"","","","feedback","63ea79021f0c43def6174042","bdp_rwlrn","Mon Mar 13 2023 23:16:45 GMT-0500 (Central Daylight Time)","491865","Trustworthy,Untrustworthy","","html-keyboard-response","72","304700","0.0-11.0-3.20","","null","","<div class='respPicDiv'><img src='img/responseButtonOffersNo0_wht.png' class='respPic'></div><div class='trialDiv'><img src='Fruit/plums1.png'><br><font class='baseline'><strong>Plum Powerball</strong><p><strong><font class='negOutcome'>You LOST</font><p>You bet: 5</strong></font> &nbsp; &nbsp; &nbsp; &nbsp; &nbsp; &nbsp;<font class='negOutcome'>You receive: <strong>0</strong></font></div>","null","7","Plum Powerball","Fruit/plums1.png","Lost","0.8,0.35","9","0.8","150","21","",""
"","","","decision","63ea79021f0c43def6174042","bdp_rwlrn","Mon Mar 13 2023 23:16:45 GMT-0500 (Central Daylight Time)","491865","Trustworthy,Untrustworthy","","html-keyboard-response","73","304745","0.0-11.0-1.21","","44","","<div class='trialDiv'><img src='Fruit/Kiwi.png'><br><font class='baseline'><strong>Kiwi Kash</strong><p>Choose number of points to bet.</font><div class='respPicDiv'><img src='img/responseButtonOffersNo0L.png' class='respPic'></div></div>","5","8","Kiwi Kash","Fruit/Kiwi.png","Lost","0.35,0.8","12","0.35","155","22","",""
"","","","decisionFB","63ea79021f0c43def6174042","bdp_rwlrn","Mon Mar 13 2023 23:16:45 GMT-0500 (Central Daylight Time)","491865","Trustworthy,Untrustworthy","","html-keyboard-response","74","304996","0.0-11.0-2.21","","null","","<div class='trialDiv'><img src='Fruit/Kiwi.png'><br><font class='baseline'><strong>Kiwi Kash</strong><p>Choose number of points to bet.</font><div class='respPicDiv'><img src='img/responseButtonOffersNo0L5.png' class='respPic'></div></div>","null","8","Kiwi Kash","Fruit/Kiwi.png","Lost","0.35,0.8","12","0.35","150","22","",""
"","","","feedback","63ea79021f0c43def6174042","bdp_rwlrn","Mon Mar 13 2023 23:16:45 GMT-0500 (Central Daylight Time)","491865","Trustworthy,Untrustworthy","","html-keyboard-response","75","306005","0.0-11.0-3.21","","null","","<div class='respPicDiv'><img src='img/responseButtonOffersNo0_wht.png' class='respPic'></div><div class='trialDiv'><img src='Fruit/Kiwi.png'><br><font class='baseline'><strong>Kiwi Kash</strong><p><strong><font class='negOutcome'>You LOST</font><p>You bet: 5</strong></font> &nbsp; &nbsp; &nbsp; &nbsp; &nbsp; &nbsp;<font class='negOutcome'>You receive: <strong>0</strong></font></div>","null","8","Kiwi Kash","Fruit/Kiwi.png","Lost","0.35,0.8","12","0.35","150","22","",""
"","","","decision","63ea79021f0c43def6174042","bdp_rwlrn","Mon Mar 13 2023 23:16:45 GMT-0500 (Central Daylight Time)","491865","Trustworthy,Untrustworthy","","html-keyboard-response","76","306025","0.0-11.0-1.22","","19","","<div class='trialDiv'><img src='Fruit/plums1.png'><br><font class='baseline'><strong>Plum Powerball</strong><p>Choose number of points to bet.</font><div class='respPicDiv'><img src='img/responseButtonOffersNo0L.png' class='respPic'></div></div>","5","8","Plum Powerball","Fruit/plums1.png","Won","0.8,0.35","9","0.8","155","23","",""
"","","","decisionFB","63ea79021f0c43def6174042","bdp_rwlrn","Mon Mar 13 2023 23:16:45 GMT-0500 (Central Daylight Time)","491865","Trustworthy,Untrustworthy","","html-keyboard-response","77","306285","0.0-11.0-2.22","","null","","<div class='trialDiv'><img src='Fruit/plums1.png'><br><font class='baseline'><strong>Plum Powerball</strong><p>Choose number of points to bet.</font><div class='respPicDiv'><img src='img/responseButtonOffersNo0L5.png' class='respPic'></div></div>","null","8","Plum Powerball","Fruit/plums1.png","Won","0.8,0.35","9","0.8","150","23","",""
"","","","feedback","63ea79021f0c43def6174042","bdp_rwlrn","Mon Mar 13 2023 23:16:45 GMT-0500 (Central Daylight Time)","491865","Trustworthy,Untrustworthy","","html-keyboard-response","78","307293","0.0-11.0-3.22","","null","","<div class='respPicDiv'><img src='img/responseButtonOffersNo0_wht.png' class='respPic'></div><div class='trialDiv'><img src='Fruit/plums1.png'><br><font class='baseline'><strong>Plum Powerball</strong><p><strong><font class='posOutcome'>You WON</font><p>You bet: 5</strong></font> &nbsp; &nbsp; &nbsp; &nbsp; &nbsp; &nbsp;<font class='posOutcome'>you receive: <strong>10</strong></font></div>","null","8","Plum Powerball","Fruit/plums1.png","Won","0.8,0.35","9","0.8","160","23","",""
"","","","decision","63ea79021f0c43def6174042","bdp_rwlrn","Mon Mar 13 2023 23:16:45 GMT-0500 (Central Daylight Time)","491865","Trustworthy,Untrustworthy","","html-keyboard-response","79","307312","0.0-11.0-1.23","","18","","<div class='trialDiv'><img src='Fruit/papayas.png'><br><font class='baseline'><strong>Papaya Payday</strong><p>Choose number of points to bet.</font><div class='respPicDiv'><img src='img/responseButtonOffersNo0L.png' class='respPic'></div></div>","5","8","Papaya Payday","Fruit/papayas.png","Won","0.65,0.35","10","0.65","165","24","",""
"","","","decisionFB","63ea79021f0c43def6174042","bdp_rwlrn","Mon Mar 13 2023 23:16:45 GMT-0500 (Central Daylight Time)","491865","Trustworthy,Untrustworthy","","html-keyboard-response","80","307573","0.0-11.0-2.23","","null","","<div class='trialDiv'><img src='Fruit/papayas.png'><br><font class='baseline'><strong>Papaya Payday</strong><p>Choose number of points to bet.</font><div class='respPicDiv'><img src='img/responseButtonOffersNo0L5.png' class='respPic'></div></div>","null","8","Papaya Payday","Fruit/papayas.png","Won","0.65,0.35","10","0.65","160","24","",""
"","","","feedback","63ea79021f0c43def6174042","bdp_rwlrn","Mon Mar 13 2023 23:16:45 GMT-0500 (Central Daylight Time)","491865","Trustworthy,Untrustworthy","","html-keyboard-response","81","308581","0.0-11.0-3.23","","null","","<div class='respPicDiv'><img src='img/responseButtonOffersNo0_wht.png' class='respPic'></div><div class='trialDiv'><img src='Fruit/papayas.png'><br><font class='baseline'><strong>Papaya Payday</strong><p><strong><font class='posOutcome'>You WON</font><p>You bet: 5</strong></font> &nbsp; &nbsp; &nbsp; &nbsp; &nbsp; &nbsp;<font class='posOutcome'>you receive: <strong>10</strong></font></div>","null","8","Papaya Payday","Fruit/papayas.png","Won","0.65,0.35","10","0.65","170","24","",""
"","","","decision","63ea79021f0c43def6174042","bdp_rwlrn","Mon Mar 13 2023 23:16:45 GMT-0500 (Central Daylight Time)","491865","Trustworthy,Untrustworthy","","html-keyboard-response","82","308767","0.0-11.0-1.24","","185","","<div class='trialDiv'><img src='Fruit/plums1.png'><br><font class='baseline'><strong>Plum Powerball</strong><p>Choose number of points to bet.</font><div class='respPicDiv'><img src='img/responseButtonOffersNo0L.png' class='respPic'></div></div>","5","9","Plum Powerball","Fruit/plums1.png","Lost","0.8,0.35","9","0.8","175","25","",""
"","","","decisionFB","63ea79021f0c43def6174042","bdp_rwlrn","Mon Mar 13 2023 23:16:45 GMT-0500 (Central Daylight Time)","491865","Trustworthy,Untrustworthy","","html-keyboard-response","83","309032","0.0-11.0-2.24","","null","","<div class='trialDiv'><img src='Fruit/plums1.png'><br><font class='baseline'><strong>Plum Powerball</strong><p>Choose number of points to bet.</font><div class='respPicDiv'><img src='img/responseButtonOffersNo0L5.png' class='respPic'></div></div>","null","9","Plum Powerball","Fruit/plums1.png","Lost","0.8,0.35","9","0.8","170","25","",""
"","","","feedback","63ea79021f0c43def6174042","bdp_rwlrn","Mon Mar 13 2023 23:16:45 GMT-0500 (Central Daylight Time)","491865","Trustworthy,Untrustworthy","","html-keyboard-response","84","310041","0.0-11.0-3.24","","null","","<div class='respPicDiv'><img src='img/responseButtonOffersNo0_wht.png' class='respPic'></div><div class='trialDiv'><img src='Fruit/plums1.png'><br><font class='baseline'><strong>Plum Powerball</strong><p><strong><font class='negOutcome'>You LOST</font><p>You bet: 5</strong></font> &nbsp; &nbsp; &nbsp; &nbsp; &nbsp; &nbsp;<font class='negOutcome'>You receive: <strong>0</strong></font></div>","null","9","Plum Powerball","Fruit/plums1.png","Lost","0.8,0.35","9","0.8","170","25","",""
"","","","decision","63ea79021f0c43def6174042","bdp_rwlrn","Mon Mar 13 2023 23:16:45 GMT-0500 (Central Daylight Time)","491865","Trustworthy,Untrustworthy","","html-keyboard-response","85","310360","0.0-11.0-1.25","","318","","<div class='trialDiv'><img src='Fruit/Kiwi.png'><br><font class='baseline'><strong>Kiwi Kash</strong><p>Choose number of points to bet.</font><div class='respPicDiv'><img src='img/responseButtonOffersNo0L.png' class='respPic'></div></div>","5","9","Kiwi Kash","Fruit/Kiwi.png","Lost","0.35,0.8","12","0.35","175","26","",""
"","","","decisionFB","63ea79021f0c43def6174042","bdp_rwlrn","Mon Mar 13 2023 23:16:45 GMT-0500 (Central Daylight Time)","491865","Trustworthy,Untrustworthy","","html-keyboard-response","86","310615","0.0-11.0-2.25","","null","","<div class='trialDiv'><img src='Fruit/Kiwi.png'><br><font class='baseline'><strong>Kiwi Kash</strong><p>Choose number of points to bet.</font><div class='respPicDiv'><img src='img/responseButtonOffersNo0L5.png' class='respPic'></div></div>","null","9","Kiwi Kash","Fruit/Kiwi.png","Lost","0.35,0.8","12","0.35","170","26","",""
"","","","feedback","63ea79021f0c43def6174042","bdp_rwlrn","Mon Mar 13 2023 23:16:45 GMT-0500 (Central Daylight Time)","491865","Trustworthy,Untrustworthy","","html-keyboard-response","87","311624","0.0-11.0-3.25","","null","","<div class='respPicDiv'><img src='img/responseButtonOffersNo0_wht.png' class='respPic'></div><div class='trialDiv'><img src='Fruit/Kiwi.png'><br><font class='baseline'><strong>Kiwi Kash</strong><p><strong><font class='negOutcome'>You LOST</font><p>You bet: 5</strong></font> &nbsp; &nbsp; &nbsp; &nbsp; &nbsp; &nbsp;<font class='negOutcome'>You receive: <strong>0</strong></font></div>","null","9","Kiwi Kash","Fruit/Kiwi.png","Lost","0.35,0.8","12","0.35","170","26","",""
"","","","decision","63ea79021f0c43def6174042","bdp_rwlrn","Mon Mar 13 2023 23:16:45 GMT-0500 (Central Daylight Time)","491865","Trustworthy,Untrustworthy","","html-keyboard-response","88","311825","0.0-11.0-1.26","","200","","<div class='trialDiv'><img src='Fruit/papayas.png'><br><font class='baseline'><strong>Papaya Payday</strong><p>Choose number of points to bet.</font><div class='respPicDiv'><img src='img/responseButtonOffersNo0L.png' class='respPic'></div></div>","5","9","Papaya Payday","Fruit/papayas.png","Lost","0.65,0.35","10","0.65","175","27","",""
"","","","decisionFB","63ea79021f0c43def6174042","bdp_rwlrn","Mon Mar 13 2023 23:16:45 GMT-0500 (Central Daylight Time)","491865","Trustworthy,Untrustworthy","","html-keyboard-response","89","312076","0.0-11.0-2.26","","null","","<div class='trialDiv'><img src='Fruit/papayas.png'><br><font class='baseline'><strong>Papaya Payday</strong><p>Choose number of points to bet.</font><div class='respPicDiv'><img src='img/responseButtonOffersNo0L5.png' class='respPic'></div></div>","null","9","Papaya Payday","Fruit/papayas.png","Lost","0.65,0.35","10","0.65","170","27","",""
"","","","feedback","63ea79021f0c43def6174042","bdp_rwlrn","Mon Mar 13 2023 23:16:45 GMT-0500 (Central Daylight Time)","491865","Trustworthy,Untrustworthy","","html-keyboard-response","90","313085","0.0-11.0-3.26","","null","","<div class='respPicDiv'><img src='img/responseButtonOffersNo0_wht.png' class='respPic'></div><div class='trialDiv'><img src='Fruit/papayas.png'><br><font class='baseline'><strong>Papaya Payday</strong><p><strong><font class='negOutcome'>You LOST</font><p>You bet: 5</strong></font> &nbsp; &nbsp; &nbsp; &nbsp; &nbsp; &nbsp;<font class='negOutcome'>You receive: <strong>0</strong></font></div>","null","9","Papaya Payday","Fruit/papayas.png","Lost","0.65,0.35","10","0.65","170","27","",""
"","","","decision","63ea79021f0c43def6174042","bdp_rwlrn","Mon Mar 13 2023 23:16:45 GMT-0500 (Central Daylight Time)","491865","Trustworthy,Untrustworthy","","html-keyboard-response","91","313235","0.0-11.0-1.27","","149","","<div class='trialDiv'><img src='Fruit/plums1.png'><br><font class='baseline'><strong>Plum Powerball</strong><p>Choose number of points to bet.</font><div class='respPicDiv'><img src='img/responseButtonOffersNo0L.png' class='respPic'></div></div>","5","10","Plum Powerball","Fruit/plums1.png","Lost","0.8,0.35","9","0.8","175","28","",""
"","","","decisionFB","63ea79021f0c43def6174042","bdp_rwlrn","Mon Mar 13 2023 23:16:45 GMT-0500 (Central Daylight Time)","491865","Trustworthy,Untrustworthy","","html-keyboard-response","92","313490","0.0-11.0-2.27","","null","","<div class='trialDiv'><img src='Fruit/plums1.png'><br><font class='baseline'><strong>Plum Powerball</strong><p>Choose number of points to bet.</font><div class='respPicDiv'><img src='img/responseButtonOffersNo0L5.png' class='respPic'></div></div>","null","10","Plum Powerball","Fruit/plums1.png","Lost","0.8,0.35","9","0.8","170","28","",""
"","","","feedback","63ea79021f0c43def6174042","bdp_rwlrn","Mon Mar 13 2023 23:16:45 GMT-0500 (Central Daylight Time)","491865","Trustworthy,Untrustworthy","","html-keyboard-response","93","314500","0.0-11.0-3.27","","null","","<div class='respPicDiv'><img src='img/responseButtonOffersNo0_wht.png' class='respPic'></div><div class='trialDiv'><img src='Fruit/plums1.png'><br><font class='baseline'><strong>Plum Powerball</strong><p><strong><font class='negOutcome'>You LOST</font><p>You bet: 5</strong></font> &nbsp; &nbsp; &nbsp; &nbsp; &nbsp; &nbsp;<font class='negOutcome'>You receive: <strong>0</strong></font></div>","null","10","Plum Powerball","Fruit/plums1.png","Lost","0.8,0.35","9","0.8","170","28","",""
"","","","decision","63ea79021f0c43def6174042","bdp_rwlrn","Mon Mar 13 2023 23:16:45 GMT-0500 (Central Daylight Time)","491865","Trustworthy,Untrustworthy","","html-keyboard-response","94","314703","0.0-11.0-1.28","","202","","<div class='trialDiv'><img src='Fruit/Kiwi.png'><br><font class='baseline'><strong>Kiwi Kash</strong><p>Choose number of points to bet.</font><div class='respPicDiv'><img src='img/responseButtonOffersNo0L.png' class='respPic'></div></div>","5","10","Kiwi Kash","Fruit/Kiwi.png","Won","0.35,0.8","12","0.35","175","29","",""
"","","","decisionFB","63ea79021f0c43def6174042","bdp_rwlrn","Mon Mar 13 2023 23:16:45 GMT-0500 (Central Daylight Time)","491865","Trustworthy,Untrustworthy","","html-keyboard-response","95","314967","0.0-11.0-2.28","","null","","<div class='trialDiv'><img src='Fruit/Kiwi.png'><br><font class='baseline'><strong>Kiwi Kash</strong><p>Choose number of points to bet.</font><div class='respPicDiv'><img src='img/responseButtonOffersNo0L5.png' class='respPic'></div></div>","null","10","Kiwi Kash","Fruit/Kiwi.png","Won","0.35,0.8","12","0.35","170","29","",""
"","","","feedback","63ea79021f0c43def6174042","bdp_rwlrn","Mon Mar 13 2023 23:16:45 GMT-0500 (Central Daylight Time)","491865","Trustworthy,Untrustworthy","","html-keyboard-response","96","315977","0.0-11.0-3.28","","null","","<div class='respPicDiv'><img src='img/responseButtonOffersNo0_wht.png' class='respPic'></div><div class='trialDiv'><img src='Fruit/Kiwi.png'><br><font class='baseline'><strong>Kiwi Kash</strong><p><strong><font class='posOutcome'>You WON</font><p>You bet: 5</strong></font> &nbsp; &nbsp; &nbsp; &nbsp; &nbsp; &nbsp;<font class='posOutcome'>you receive: <strong>10</strong></font></div>","null","10","Kiwi Kash","Fruit/Kiwi.png","Won","0.35,0.8","12","0.35","180","29","",""
"","","","decision","63ea79021f0c43def6174042","bdp_rwlrn","Mon Mar 13 2023 23:16:45 GMT-0500 (Central Daylight Time)","491865","Trustworthy,Untrustworthy","","html-keyboard-response","97","316188","0.0-11.0-1.29","","210","","<div class='trialDiv'><img src='Fruit/papayas.png'><br><font class='baseline'><strong>Papaya Payday</strong><p>Choose number of points to bet.</font><div class='respPicDiv'><img src='img/responseButtonOffersNo0L.png' class='respPic'></div></div>","5","10","Papaya Payday","Fruit/papayas.png","Lost","0.65,0.35","10","0.65","185","30","",""
"","","","decisionFB","63ea79021f0c43def6174042","bdp_rwlrn","Mon Mar 13 2023 23:16:45 GMT-0500 (Central Daylight Time)","491865","Trustworthy,Untrustworthy","","html-keyboard-response","98","316442","0.0-11.0-2.29","","null","","<div class='trialDiv'><img src='Fruit/papayas.png'><br><font class='baseline'><strong>Papaya Payday</strong><p>Choose number of points to bet.</font><div class='respPicDiv'><img src='img/responseButtonOffersNo0L5.png' class='respPic'></div></div>","null","10","Papaya Payday","Fruit/papayas.png","Lost","0.65,0.35","10","0.65","180","30","",""
"","","","feedback","63ea79021f0c43def6174042","bdp_rwlrn","Mon Mar 13 2023 23:16:45 GMT-0500 (Central Daylight Time)","491865","Trustworthy,Untrustworthy","","html-keyboard-response","99","317449","0.0-11.0-3.29","","null","","<div class='respPicDiv'><img src='img/responseButtonOffersNo0_wht.png' class='respPic'></div><div class='trialDiv'><img src='Fruit/papayas.png'><br><font class='baseline'><strong>Papaya Payday</strong><p><strong><font class='negOutcome'>You LOST</font><p>You bet: 5</strong></font> &nbsp; &nbsp; &nbsp; &nbsp; &nbsp; &nbsp;<font class='negOutcome'>You receive: <strong>0</strong></font></div>","null","10","Papaya Payday","Fruit/papayas.png","Lost","0.65,0.35","10","0.65","180","30","",""
"","","","decision","63ea79021f0c43def6174042","bdp_rwlrn","Mon Mar 13 2023 23:16:45 GMT-0500 (Central Daylight Time)","491865","Trustworthy,Untrustworthy","","html-keyboard-response","100","317509","0.0-11.0-1.30","","59","","<div class='trialDiv'><img src='Fruit/Kiwi.png'><br><font class='baseline'><strong>Kiwi Kash</strong><p>Choose number of points to bet.</font><div class='respPicDiv'><img src='img/responseButtonOffersNo0L.png' class='respPic'></div></div>","5","11","Kiwi Kash","Fruit/Kiwi.png","Lost","0.35,0.8","12","0.35","185","31","",""
"","","","decisionFB","63ea79021f0c43def6174042","bdp_rwlrn","Mon Mar 13 2023 23:16:45 GMT-0500 (Central Daylight Time)","491865","Trustworthy,Untrustworthy","","html-keyboard-response","101","317774","0.0-11.0-2.30","","null","","<div class='trialDiv'><img src='Fruit/Kiwi.png'><br><font class='baseline'><strong>Kiwi Kash</strong><p>Choose number of points to bet.</font><div class='respPicDiv'><img src='img/responseButtonOffersNo0L5.png' class='respPic'></div></div>","null","11","Kiwi Kash","Fruit/Kiwi.png","Lost","0.35,0.8","12","0.35","180","31","",""
"","","","feedback","63ea79021f0c43def6174042","bdp_rwlrn","Mon Mar 13 2023 23:16:45 GMT-0500 (Central Daylight Time)","491865","Trustworthy,Untrustworthy","","html-keyboard-response","102","318788","0.0-11.0-3.30","","null","","<div class='respPicDiv'><img src='img/responseButtonOffersNo0_wht.png' class='respPic'></div><div class='trialDiv'><img src='Fruit/Kiwi.png'><br><font class='baseline'><strong>Kiwi Kash</strong><p><strong><font class='negOutcome'>You LOST</font><p>You bet: 5</strong></font> &nbsp; &nbsp; &nbsp; &nbsp; &nbsp; &nbsp;<font class='negOutcome'>You receive: <strong>0</strong></font></div>","null","11","Kiwi Kash","Fruit/Kiwi.png","Lost","0.35,0.8","12","0.35","180","31","",""
"","","","decision","63ea79021f0c43def6174042","bdp_rwlrn","Mon Mar 13 2023 23:16:45 GMT-0500 (Central Daylight Time)","491865","Trustworthy,Untrustworthy","","html-keyboard-response","103","318789","0.0-11.0-1.31","","0","","<div class='trialDiv'><img src='Fruit/papayas.png'><br><font class='baseline'><strong>Papaya Payday</strong><p>Choose number of points to bet.</font><div class='respPicDiv'><img src='img/responseButtonOffersNo0L.png' class='respPic'></div></div>","5","11","Papaya Payday","Fruit/papayas.png","Won","0.65,0.35","10","0.65","185","32","",""
"","","","decisionFB","63ea79021f0c43def6174042","bdp_rwlrn","Mon Mar 13 2023 23:16:45 GMT-0500 (Central Daylight Time)","491865","Trustworthy,Untrustworthy","","html-keyboard-response","104","319051","0.0-11.0-2.31","","null","","<div class='trialDiv'><img src='Fruit/papayas.png'><br><font class='baseline'><strong>Papaya Payday</strong><p>Choose number of points to bet.</font><div class='respPicDiv'><img src='img/responseButtonOffersNo0L5.png' class='respPic'></div></div>","null","11","Papaya Payday","Fruit/papayas.png","Won","0.65,0.35","10","0.65","180","32","",""
"","","","feedback","63ea79021f0c43def6174042","bdp_rwlrn","Mon Mar 13 2023 23:16:45 GMT-0500 (Central Daylight Time)","491865","Trustworthy,Untrustworthy","","html-keyboard-response","105","320063","0.0-11.0-3.31","","null","","<div class='respPicDiv'><img src='img/responseButtonOffersNo0_wht.png' class='respPic'></div><div class='trialDiv'><img src='Fruit/papayas.png'><br><font class='baseline'><strong>Papaya Payday</strong><p><strong><font class='posOutcome'>You WON</font><p>You bet: 5</strong></font> &nbsp; &nbsp; &nbsp; &nbsp; &nbsp; &nbsp;<font class='posOutcome'>you receive: <strong>10</strong></font></div>","null","11","Papaya Payday","Fruit/papayas.png","Won","0.65,0.35","10","0.65","190","32","",""
"","","","decision","63ea79021f0c43def6174042","bdp_rwlrn","Mon Mar 13 2023 23:16:45 GMT-0500 (Central Daylight Time)","491865","Trustworthy,Untrustworthy","","html-keyboard-response","106","320066","0.0-11.0-1.32","","2","","<div class='trialDiv'><img src='Fruit/plums1.png'><br><font class='baseline'><strong>Plum Powerball</strong><p>Choose number of points to bet.</font><div class='respPicDiv'><img src='img/responseButtonOffersNo0L.png' class='respPic'></div></div>","5","11","Plum Powerball","Fruit/plums1.png","Lost","0.8,0.35","9","0.8","195","33","",""
"","","","decisionFB","63ea79021f0c43def6174042","bdp_rwlrn","Mon Mar 13 2023 23:16:45 GMT-0500 (Central Daylight Time)","491865","Trustworthy,Untrustworthy","","html-keyboard-response","107","320327","0.0-11.0-2.32","","null","","<div class='trialDiv'><img src='Fruit/plums1.png'><br><font class='baseline'><strong>Plum Powerball</strong><p>Choose number of points to bet.</font><div class='respPicDiv'><img src='img/responseButtonOffersNo0L5.png' class='respPic'></div></div>","null","11","Plum Powerball","Fruit/plums1.png","Lost","0.8,0.35","9","0.8","190","33","",""
"","","","feedback","63ea79021f0c43def6174042","bdp_rwlrn","Mon Mar 13 2023 23:16:45 GMT-0500 (Central Daylight Time)","491865","Trustworthy,Untrustworthy","","html-keyboard-response","108","321335","0.0-11.0-3.32","","null","","<div class='respPicDiv'><img src='img/responseButtonOffersNo0_wht.png' class='respPic'></div><div class='trialDiv'><img src='Fruit/plums1.png'><br><font class='baseline'><strong>Plum Powerball</strong><p><strong><font class='negOutcome'>You LOST</font><p>You bet: 5</strong></font> &nbsp; &nbsp; &nbsp; &nbsp; &nbsp; &nbsp;<font class='negOutcome'>You receive: <strong>0</strong></font></div>","null","11","Plum Powerball","Fruit/plums1.png","Lost","0.8,0.35","9","0.8","190","33","",""
"","","","decision","63ea79021f0c43def6174042","bdp_rwlrn","Mon Mar 13 2023 23:16:45 GMT-0500 (Central Daylight Time)","491865","Trustworthy,Untrustworthy","","html-keyboard-response","109","321701","0.0-11.0-1.33","","365","","<div class='trialDiv'><img src='Fruit/Kiwi.png'><br><font class='baseline'><strong>Kiwi Kash</strong><p>Choose number of points to bet.</font><div class='respPicDiv'><img src='img/responseButtonOffersNo0L.png' class='respPic'></div></div>","5","12","Kiwi Kash","Fruit/Kiwi.png","Won","0.35,0.8","12","0.35","195","34","",""
"","","","decisionFB","63ea79021f0c43def6174042","bdp_rwlrn","Mon Mar 13 2023 23:16:45 GMT-0500 (Central Daylight Time)","491865","Trustworthy,Untrustworthy","","html-keyboard-response","110","321957","0.0-11.0-2.33","","null","","<div class='trialDiv'><img src='Fruit/Kiwi.png'><br><font class='baseline'><strong>Kiwi Kash</strong><p>Choose number of points to bet.</font><div class='respPicDiv'><img src='img/responseButtonOffersNo0L5.png' class='respPic'></div></div>","null","12","Kiwi Kash","Fruit/Kiwi.png","Won","0.35,0.8","12","0.35","190","34","",""
"","","","feedback","63ea79021f0c43def6174042","bdp_rwlrn","Mon Mar 13 2023 23:16:45 GMT-0500 (Central Daylight Time)","491865","Trustworthy,Untrustworthy","","html-keyboard-response","111","322968","0.0-11.0-3.33","","null","","<div class='respPicDiv'><img src='img/responseButtonOffersNo0_wht.png' class='respPic'></div><div class='trialDiv'><img src='Fruit/Kiwi.png'><br><font class='baseline'><strong>Kiwi Kash</strong><p><strong><font class='posOutcome'>You WON</font><p>You bet: 5</strong></font> &nbsp; &nbsp; &nbsp; &nbsp; &nbsp; &nbsp;<font class='posOutcome'>you receive: <strong>10</strong></font></div>","null","12","Kiwi Kash","Fruit/Kiwi.png","Won","0.35,0.8","12","0.35","200","34","",""
"","","","decision","63ea79021f0c43def6174042","bdp_rwlrn","Mon Mar 13 2023 23:16:45 GMT-0500 (Central Daylight Time)","491865","Trustworthy,Untrustworthy","","html-keyboard-response","112","323220","0.0-11.0-1.34","","251","","<div class='trialDiv'><img src='Fruit/papayas.png'><br><font class='baseline'><strong>Papaya Payday</strong><p>Choose number of points to bet.</font><div class='respPicDiv'><img src='img/responseButtonOffersNo0L.png' class='respPic'></div></div>","5","12","Papaya Payday","Fruit/papayas.png","Lost","0.65,0.35","10","0.65","205","35","",""
"","","","decisionFB","63ea79021f0c43def6174042","bdp_rwlrn","Mon Mar 13 2023 23:16:45 GMT-0500 (Central Daylight Time)","491865","Trustworthy,Untrustworthy","","html-keyboard-response","113","323479","0.0-11.0-2.34","","null","","<div class='trialDiv'><img src='Fruit/papayas.png'><br><font class='baseline'><strong>Papaya Payday</strong><p>Choose number of points to bet.</font><div class='respPicDiv'><img src='img/responseButtonOffersNo0L5.png' class='respPic'></div></div>","null","12","Papaya Payday","Fruit/papayas.png","Lost","0.65,0.35","10","0.65","200","35","",""
"","","","feedback","63ea79021f0c43def6174042","bdp_rwlrn","Mon Mar 13 2023 23:16:45 GMT-0500 (Central Daylight Time)","491865","Trustworthy,Untrustworthy","","html-keyboard-response","114","324485","0.0-11.0-3.34","","null","","<div class='respPicDiv'><img src='img/responseButtonOffersNo0_wht.png' class='respPic'></div><div class='trialDiv'><img src='Fruit/papayas.png'><br><font class='baseline'><strong>Papaya Payday</strong><p><strong><font class='negOutcome'>You LOST</font><p>You bet: 5</strong></font> &nbsp; &nbsp; &nbsp; &nbsp; &nbsp; &nbsp;<font class='negOutcome'>You receive: <strong>0</strong></font></div>","null","12","Papaya Payday","Fruit/papayas.png","Lost","0.65,0.35","10","0.65","200","35","",""
"","","","decision","63ea79021f0c43def6174042","bdp_rwlrn","Mon Mar 13 2023 23:16:45 GMT-0500 (Central Daylight Time)","491865","Trustworthy,Untrustworthy","","html-keyboard-response","115","324756","0.0-11.0-1.35","","270","","<div class='trialDiv'><img src='Fruit/plums1.png'><br><font class='baseline'><strong>Plum Powerball</strong><p>Choose number of points to bet.</font><div class='respPicDiv'><img src='img/responseButtonOffersNo0L.png' class='respPic'></div></div>","5","12","Plum Powerball","Fruit/plums1.png","Won","0.8,0.35","9","0.8","205","36","",""
"","","","decisionFB","63ea79021f0c43def6174042","bdp_rwlrn","Mon Mar 13 2023 23:16:45 GMT-0500 (Central Daylight Time)","491865","Trustworthy,Untrustworthy","","html-keyboard-response","116","325011","0.0-11.0-2.35","","null","","<div class='trialDiv'><img src='Fruit/plums1.png'><br><font class='baseline'><strong>Plum Powerball</strong><p>Choose number of points to bet.</font><div class='respPicDiv'><img src='img/responseButtonOffersNo0L5.png' class='respPic'></div></div>","null","12","Plum Powerball","Fruit/plums1.png","Won","0.8,0.35","9","0.8","200","36","",""
"","","","feedback","63ea79021f0c43def6174042","bdp_rwlrn","Mon Mar 13 2023 23:16:45 GMT-0500 (Central Daylight Time)","491865","Trustworthy,Untrustworthy","","html-keyboard-response","117","326022","0.0-11.0-3.35","","null","","<div class='respPicDiv'><img src='img/responseButtonOffersNo0_wht.png' class='respPic'></div><div class='trialDiv'><img src='Fruit/plums1.png'><br><font class='baseline'><strong>Plum Powerball</strong><p><strong><font class='posOutcome'>You WON</font><p>You bet: 5</strong></font> &nbsp; &nbsp; &nbsp; &nbsp; &nbsp; &nbsp;<font class='posOutcome'>you receive: <strong>10</strong></font></div>","null","12","Plum Powerball","Fruit/plums1.png","Won","0.8,0.35","9","0.8","210","36","",""
"","","","decision","63ea79021f0c43def6174042","bdp_rwlrn","Mon Mar 13 2023 23:16:45 GMT-0500 (Central Daylight Time)","491865","Trustworthy,Untrustworthy","","html-keyboard-response","118","326251","0.0-11.0-1.36","","228","","<div class='trialDiv'><img src='Fruit/Kiwi.png'><br><font class='baseline'><strong>Kiwi Kash</strong><p>Choose number of points to bet.</font><div class='respPicDiv'><img src='img/responseButtonOffersNo0L.png' class='respPic'></div></div>","5","13","Kiwi Kash","Fruit/Kiwi.png","Won","0.35,0.8","12","0.35","215","37","",""
"","","","decisionFB","63ea79021f0c43def6174042","bdp_rwlrn","Mon Mar 13 2023 23:16:45 GMT-0500 (Central Daylight Time)","491865","Trustworthy,Untrustworthy","","html-keyboard-response","119","326504","0.0-11.0-2.36","","null","","<div class='trialDiv'><img src='Fruit/Kiwi.png'><br><font class='baseline'><strong>Kiwi Kash</strong><p>Choose number of points to bet.</font><div class='respPicDiv'><img src='img/responseButtonOffersNo0L5.png' class='respPic'></div></div>","null","13","Kiwi Kash","Fruit/Kiwi.png","Won","0.35,0.8","12","0.35","210","37","",""
"","","","feedback","63ea79021f0c43def6174042","bdp_rwlrn","Mon Mar 13 2023 23:16:45 GMT-0500 (Central Daylight Time)","491865","Trustworthy,Untrustworthy","","html-keyboard-response","120","327513","0.0-11.0-3.36","","null","","<div class='respPicDiv'><img src='img/responseButtonOffersNo0_wht.png' class='respPic'></div><div class='trialDiv'><img src='Fruit/Kiwi.png'><br><font class='baseline'><strong>Kiwi Kash</strong><p><strong><font class='posOutcome'>You WON</font><p>You bet: 5</strong></font> &nbsp; &nbsp; &nbsp; &nbsp; &nbsp; &nbsp;<font class='posOutcome'>you receive: <strong>10</strong></font></div>","null","13","Kiwi Kash","Fruit/Kiwi.png","Won","0.35,0.8","12","0.35","220","37","",""
"","","","decision","63ea79021f0c43def6174042","bdp_rwlrn","Mon Mar 13 2023 23:16:45 GMT-0500 (Central Daylight Time)","491865","Trustworthy,Untrustworthy","","html-keyboard-response","121","327681","0.0-11.0-1.37","","167","","<div class='trialDiv'><img src='Fruit/plums1.png'><br><font class='baseline'><strong>Plum Powerball</strong><p>Choose number of points to bet.</font><div class='respPicDiv'><img src='img/responseButtonOffersNo0L.png' class='respPic'></div></div>","5","13","Plum Powerball","Fruit/plums1.png","Won","0.8,0.35","9","0.8","225","38","",""
"","","","decisionFB","63ea79021f0c43def6174042","bdp_rwlrn","Mon Mar 13 2023 23:16:45 GMT-0500 (Central Daylight Time)","491865","Trustworthy,Untrustworthy","","html-keyboard-response","122","327947","0.0-11.0-2.37","","null","","<div class='trialDiv'><img src='Fruit/plums1.png'><br><font class='baseline'><strong>Plum Powerball</strong><p>Choose number of points to bet.</font><div class='respPicDiv'><img src='img/responseButtonOffersNo0L5.png' class='respPic'></div></div>","null","13","Plum Powerball","Fruit/plums1.png","Won","0.8,0.35","9","0.8","220","38","",""
"","","","feedback","63ea79021f0c43def6174042","bdp_rwlrn","Mon Mar 13 2023 23:16:45 GMT-0500 (Central Daylight Time)","491865","Trustworthy,Untrustworthy","","html-keyboard-response","123","328958","0.0-11.0-3.37","","null","","<div class='respPicDiv'><img src='img/responseButtonOffersNo0_wht.png' class='respPic'></div><div class='trialDiv'><img src='Fruit/plums1.png'><br><font class='baseline'><strong>Plum Powerball</strong><p><strong><font class='posOutcome'>You WON</font><p>You bet: 5</strong></font> &nbsp; &nbsp; &nbsp; &nbsp; &nbsp; &nbsp;<font class='posOutcome'>you receive: <strong>10</strong></font></div>","null","13","Plum Powerball","Fruit/plums1.png","Won","0.8,0.35","9","0.8","230","38","",""
"","","","decision","63ea79021f0c43def6174042","bdp_rwlrn","Mon Mar 13 2023 23:16:45 GMT-0500 (Central Daylight Time)","491865","Trustworthy,Untrustworthy","","html-keyboard-response","124","329146","0.0-11.0-1.38","","187","","<div class='trialDiv'><img src='Fruit/papayas.png'><br><font class='baseline'><strong>Papaya Payday</strong><p>Choose number of points to bet.</font><div class='respPicDiv'><img src='img/responseButtonOffersNo0L.png' class='respPic'></div></div>","5","13","Papaya Payday","Fruit/papayas.png","Won","0.65,0.35","10","0.65","235","39","",""
"","","","decisionFB","63ea79021f0c43def6174042","bdp_rwlrn","Mon Mar 13 2023 23:16:45 GMT-0500 (Central Daylight Time)","491865","Trustworthy,Untrustworthy","","html-keyboard-response","125","329409","0.0-11.0-2.38","","null","","<div class='trialDiv'><img src='Fruit/papayas.png'><br><font class='baseline'><strong>Papaya Payday</strong><p>Choose number of points to bet.</font><div class='respPicDiv'><img src='img/responseButtonOffersNo0L5.png' class='respPic'></div></div>","null","13","Papaya Payday","Fruit/papayas.png","Won","0.65,0.35","10","0.65","230","39","",""
"","","","feedback","63ea79021f0c43def6174042","bdp_rwlrn","Mon Mar 13 2023 23:16:45 GMT-0500 (Central Daylight Time)","491865","Trustworthy,Untrustworthy","","html-keyboard-response","126","330419","0.0-11.0-3.38","","null","","<div class='respPicDiv'><img src='img/responseButtonOffersNo0_wht.png' class='respPic'></div><div class='trialDiv'><img src='Fruit/papayas.png'><br><font class='baseline'><strong>Papaya Payday</strong><p><strong><font class='posOutcome'>You WON</font><p>You bet: 5</strong></font> &nbsp; &nbsp; &nbsp; &nbsp; &nbsp; &nbsp;<font class='posOutcome'>you receive: <strong>10</strong></font></div>","null","13","Papaya Payday","Fruit/papayas.png","Won","0.65,0.35","10","0.65","240","39","",""
"","","","decision","63ea79021f0c43def6174042","bdp_rwlrn","Mon Mar 13 2023 23:16:45 GMT-0500 (Central Daylight Time)","491865","Trustworthy,Untrustworthy","","html-keyboard-response","127","330600","0.0-11.0-1.39","","181","","<div class='trialDiv'><img src='Fruit/Kiwi.png'><br><font class='baseline'><strong>Kiwi Kash</strong><p>Choose number of points to bet.</font><div class='respPicDiv'><img src='img/responseButtonOffersNo0L.png' class='respPic'></div></div>","5","14","Kiwi Kash","Fruit/Kiwi.png","Lost","0.35,0.8","12","0.35","245","40","",""
"","","","decisionFB","63ea79021f0c43def6174042","bdp_rwlrn","Mon Mar 13 2023 23:16:45 GMT-0500 (Central Daylight Time)","491865","Trustworthy,Untrustworthy","","html-keyboard-response","128","330856","0.0-11.0-2.39","","null","","<div class='trialDiv'><img src='Fruit/Kiwi.png'><br><font class='baseline'><strong>Kiwi Kash</strong><p>Choose number of points to bet.</font><div class='respPicDiv'><img src='img/responseButtonOffersNo0L5.png' class='respPic'></div></div>","null","14","Kiwi Kash","Fruit/Kiwi.png","Lost","0.35,0.8","12","0.35","240","40","",""
"","","","feedback","63ea79021f0c43def6174042","bdp_rwlrn","Mon Mar 13 2023 23:16:45 GMT-0500 (Central Daylight Time)","491865","Trustworthy,Untrustworthy","","html-keyboard-response","129","331865","0.0-11.0-3.39","","null","","<div class='respPicDiv'><img src='img/responseButtonOffersNo0_wht.png' class='respPic'></div><div class='trialDiv'><img src='Fruit/Kiwi.png'><br><font class='baseline'><strong>Kiwi Kash</strong><p><strong><font class='negOutcome'>You LOST</font><p>You bet: 5</strong></font> &nbsp; &nbsp; &nbsp; &nbsp; &nbsp; &nbsp;<font class='negOutcome'>You receive: <strong>0</strong></font></div>","null","14","Kiwi Kash","Fruit/Kiwi.png","Lost","0.35,0.8","12","0.35","240","40","",""
"","","","decision","63ea79021f0c43def6174042","bdp_rwlrn","Mon Mar 13 2023 23:16:45 GMT-0500 (Central Daylight Time)","491865","Trustworthy,Untrustworthy","","html-keyboard-response","130","331972","0.0-11.0-1.40","","106","","<div class='trialDiv'><img src='Fruit/plums1.png'><br><font class='baseline'><strong>Plum Powerball</strong><p>Choose number of points to bet.</font><div class='respPicDiv'><img src='img/responseButtonOffersNo0L.png' class='respPic'></div></div>","5","14","Plum Powerball","Fruit/plums1.png","Won","0.8,0.35","9","0.8","245","41","",""
"","","","decisionFB","63ea79021f0c43def6174042","bdp_rwlrn","Mon Mar 13 2023 23:16:45 GMT-0500 (Central Daylight Time)","491865","Trustworthy,Untrustworthy","","html-keyboard-response","131","332236","0.0-11.0-2.40","","null","","<div class='trialDiv'><img src='Fruit/plums1.png'><br><font class='baseline'><strong>Plum Powerball</strong><p>Choose number of points to bet.</font><div class='respPicDiv'><img src='img/responseButtonOffersNo0L5.png' class='respPic'></div></div>","null","14","Plum Powerball","Fruit/plums1.png","Won","0.8,0.35","9","0.8","240","41","",""
"","","","feedback","63ea79021f0c43def6174042","bdp_rwlrn","Mon Mar 13 2023 23:16:45 GMT-0500 (Central Daylight Time)","491865","Trustworthy,Untrustworthy","","html-keyboard-response","132","333246","0.0-11.0-3.40","","null","","<div class='respPicDiv'><img src='img/responseButtonOffersNo0_wht.png' class='respPic'></div><div class='trialDiv'><img src='Fruit/plums1.png'><br><font class='baseline'><strong>Plum Powerball</strong><p><strong><font class='posOutcome'>You WON</font><p>You bet: 5</strong></font> &nbsp; &nbsp; &nbsp; &nbsp; &nbsp; &nbsp;<font class='posOutcome'>you receive: <strong>10</strong></font></div>","null","14","Plum Powerball","Fruit/plums1.png","Won","0.8,0.35","9","0.8","250","41","",""
"","","","decision","63ea79021f0c43def6174042","bdp_rwlrn","Mon Mar 13 2023 23:16:45 GMT-0500 (Central Daylight Time)","491865","Trustworthy,Untrustworthy","","html-keyboard-response","133","333362","0.0-11.0-1.41","","115","","<div class='trialDiv'><img src='Fruit/papayas.png'><br><font class='baseline'><strong>Papaya Payday</strong><p>Choose number of points to bet.</font><div class='respPicDiv'><img src='img/responseButtonOffersNo0L.png' class='respPic'></div></div>","5","14","Papaya Payday","Fruit/papayas.png","Won","0.65,0.35","10","0.65","255","42","",""
"","","","decisionFB","63ea79021f0c43def6174042","bdp_rwlrn","Mon Mar 13 2023 23:16:45 GMT-0500 (Central Daylight Time)","491865","Trustworthy,Untrustworthy","","html-keyboard-response","134","333617","0.0-11.0-2.41","","null","","<div class='trialDiv'><img src='Fruit/papayas.png'><br><font class='baseline'><strong>Papaya Payday</strong><p>Choose number of points to bet.</font><div class='respPicDiv'><img src='img/responseButtonOffersNo0L5.png' class='respPic'></div></div>","null","14","Papaya Payday","Fruit/papayas.png","Won","0.65,0.35","10","0.65","250","42","",""
"","","","feedback","63ea79021f0c43def6174042","bdp_rwlrn","Mon Mar 13 2023 23:16:45 GMT-0500 (Central Daylight Time)","491865","Trustworthy,Untrustworthy","","html-keyboard-response","135","334631","0.0-11.0-3.41","","null","","<div class='respPicDiv'><img src='img/responseButtonOffersNo0_wht.png' class='respPic'></div><div class='trialDiv'><img src='Fruit/papayas.png'><br><font class='baseline'><strong>Papaya Payday</strong><p><strong><font class='posOutcome'>You WON</font><p>You bet: 5</strong></font> &nbsp; &nbsp; &nbsp; &nbsp; &nbsp; &nbsp;<font class='posOutcome'>you receive: <strong>10</strong></font></div>","null","14","Papaya Payday","Fruit/papayas.png","Won","0.65,0.35","10","0.65","260","42","",""
"","","","decision","63ea79021f0c43def6174042","bdp_rwlrn","Mon Mar 13 2023 23:16:45 GMT-0500 (Central Daylight Time)","491865","Trustworthy,Untrustworthy","","html-keyboard-response","136","334792","0.0-11.0-1.42","","161","","<div class='trialDiv'><img src='Fruit/Kiwi.png'><br><font class='baseline'><strong>Kiwi Kash</strong><p>Choose number of points to bet.</font><div class='respPicDiv'><img src='img/responseButtonOffersNo0L.png' class='respPic'></div></div>","5","15","Kiwi Kash","Fruit/Kiwi.png","Won","0.35,0.8","12","0.35","265","43","",""
"","","","decisionFB","63ea79021f0c43def6174042","bdp_rwlrn","Mon Mar 13 2023 23:16:45 GMT-0500 (Central Daylight Time)","491865","Trustworthy,Untrustworthy","","html-keyboard-response","137","335051","0.0-11.0-2.42","","null","","<div class='trialDiv'><img src='Fruit/Kiwi.png'><br><font class='baseline'><strong>Kiwi Kash</strong><p>Choose number of points to bet.</font><div class='respPicDiv'><img src='img/responseButtonOffersNo0L5.png' class='respPic'></div></div>","null","15","Kiwi Kash","Fruit/Kiwi.png","Won","0.35,0.8","12","0.35","260","43","",""
"","","","feedback","63ea79021f0c43def6174042","bdp_rwlrn","Mon Mar 13 2023 23:16:45 GMT-0500 (Central Daylight Time)","491865","Trustworthy,Untrustworthy","","html-keyboard-response","138","336062","0.0-11.0-3.42","","null","","<div class='respPicDiv'><img src='img/responseButtonOffersNo0_wht.png' class='respPic'></div><div class='trialDiv'><img src='Fruit/Kiwi.png'><br><font class='baseline'><strong>Kiwi Kash</strong><p><strong><font class='posOutcome'>You WON</font><p>You bet: 5</strong></font> &nbsp; &nbsp; &nbsp; &nbsp; &nbsp; &nbsp;<font class='posOutcome'>you receive: <strong>10</strong></font></div>","null","15","Kiwi Kash","Fruit/Kiwi.png","Won","0.35,0.8","12","0.35","270","43","",""
"","","","decision","63ea79021f0c43def6174042","bdp_rwlrn","Mon Mar 13 2023 23:16:45 GMT-0500 (Central Daylight Time)","491865","Trustworthy,Untrustworthy","","html-keyboard-response","139","336195","0.0-11.0-1.43","","132","","<div class='trialDiv'><img src='Fruit/plums1.png'><br><font class='baseline'><strong>Plum Powerball</strong><p>Choose number of points to bet.</font><div class='respPicDiv'><img src='img/responseButtonOffersNo0L.png' class='respPic'></div></div>","5","15","Plum Powerball","Fruit/plums1.png","Lost","0.8,0.35","9","0.8","275","44","",""
"","","","decisionFB","63ea79021f0c43def6174042","bdp_rwlrn","Mon Mar 13 2023 23:16:45 GMT-0500 (Central Daylight Time)","491865","Trustworthy,Untrustworthy","","html-keyboard-response","140","336449","0.0-11.0-2.43","","null","","<div class='trialDiv'><img src='Fruit/plums1.png'><br><font class='baseline'><strong>Plum Powerball</strong><p>Choose number of points to bet.</font><div class='respPicDiv'><img src='img/responseButtonOffersNo0L5.png' class='respPic'></div></div>","null","15","Plum Powerball","Fruit/plums1.png","Lost","0.8,0.35","9","0.8","270","44","",""
"","","","feedback","63ea79021f0c43def6174042","bdp_rwlrn","Mon Mar 13 2023 23:16:45 GMT-0500 (Central Daylight Time)","491865","Trustworthy,Untrustworthy","","html-keyboard-response","141","337457","0.0-11.0-3.43","","null","","<div class='respPicDiv'><img src='img/responseButtonOffersNo0_wht.png' class='respPic'></div><div class='trialDiv'><img src='Fruit/plums1.png'><br><font class='baseline'><strong>Plum Powerball</strong><p><strong><font class='negOutcome'>You LOST</font><p>You bet: 5</strong></font> &nbsp; &nbsp; &nbsp; &nbsp; &nbsp; &nbsp;<font class='negOutcome'>You receive: <strong>0</strong></font></div>","null","15","Plum Powerball","Fruit/plums1.png","Lost","0.8,0.35","9","0.8","270","44","",""
"","","","decision","63ea79021f0c43def6174042","bdp_rwlrn","Mon Mar 13 2023 23:16:45 GMT-0500 (Central Daylight Time)","491865","Trustworthy,Untrustworthy","","html-keyboard-response","142","337547","0.0-11.0-1.44","","90","","<div class='trialDiv'><img src='Fruit/papayas.png'><br><font class='baseline'><strong>Papaya Payday</strong><p>Choose number of points to bet.</font><div class='respPicDiv'><img src='img/responseButtonOffersNo0L.png' class='respPic'></div></div>","5","15","Papaya Payday","Fruit/papayas.png","Lost","0.65,0.35","10","0.65","275","45","",""
"","","","decisionFB","63ea79021f0c43def6174042","bdp_rwlrn","Mon Mar 13 2023 23:16:45 GMT-0500 (Central Daylight Time)","491865","Trustworthy,Untrustworthy","","html-keyboard-response","143","337798","0.0-11.0-2.44","","null","","<div class='trialDiv'><img src='Fruit/papayas.png'><br><font class='baseline'><strong>Papaya Payday</strong><p>Choose number of points to bet.</font><div class='respPicDiv'><img src='img/responseButtonOffersNo0L5.png' class='respPic'></div></div>","null","15","Papaya Payday","Fruit/papayas.png","Lost","0.65,0.35","10","0.65","270","45","",""
"","","","feedback","63ea79021f0c43def6174042","bdp_rwlrn","Mon Mar 13 2023 23:16:45 GMT-0500 (Central Daylight Time)","491865","Trustworthy,Untrustworthy","","html-keyboard-response","144","338807","0.0-11.0-3.44","","null","","<div class='respPicDiv'><img src='img/responseButtonOffersNo0_wht.png' class='respPic'></div><div class='trialDiv'><img src='Fruit/papayas.png'><br><font class='baseline'><strong>Papaya Payday</strong><p><strong><font class='negOutcome'>You LOST</font><p>You bet: 5</strong></font> &nbsp; &nbsp; &nbsp; &nbsp; &nbsp; &nbsp;<font class='negOutcome'>You receive: <strong>0</strong></font></div>","null","15","Papaya Payday","Fruit/papayas.png","Lost","0.65,0.35","10","0.65","270","45","",""
"","","","decision","63ea79021f0c43def6174042","bdp_rwlrn","Mon Mar 13 2023 23:16:45 GMT-0500 (Central Daylight Time)","491865","Trustworthy,Untrustworthy","","html-keyboard-response","145","338838","0.0-11.0-1.45","","31","","<div class='trialDiv'><img src='Fruit/plums1.png'><br><font class='baseline'><strong>Plum Powerball</strong><p>Choose number of points to bet.</font><div class='respPicDiv'><img src='img/responseButtonOffersNo0L.png' class='respPic'></div></div>","5","16","Plum Powerball","Fruit/plums1.png","Lost","0.8,0.35","9","0.8","275","46","",""
"","","","decisionFB","63ea79021f0c43def6174042","bdp_rwlrn","Mon Mar 13 2023 23:16:45 GMT-0500 (Central Daylight Time)","491865","Trustworthy,Untrustworthy","","html-keyboard-response","146","339101","0.0-11.0-2.45","","null","","<div class='trialDiv'><img src='Fruit/plums1.png'><br><font class='baseline'><strong>Plum Powerball</strong><p>Choose number of points to bet.</font><div class='respPicDiv'><img src='img/responseButtonOffersNo0L5.png' class='respPic'></div></div>","null","16","Plum Powerball","Fruit/plums1.png","Lost","0.8,0.35","9","0.8","270","46","",""
"","","","feedback","63ea79021f0c43def6174042","bdp_rwlrn","Mon Mar 13 2023 23:16:45 GMT-0500 (Central Daylight Time)","491865","Trustworthy,Untrustworthy","","html-keyboard-response","147","340114","0.0-11.0-3.45","","null","","<div class='respPicDiv'><img src='img/responseButtonOffersNo0_wht.png' class='respPic'></div><div class='trialDiv'><img src='Fruit/plums1.png'><br><font class='baseline'><strong>Plum Powerball</strong><p><strong><font class='negOutcome'>You LOST</font><p>You bet: 5</strong></font> &nbsp; &nbsp; &nbsp; &nbsp; &nbsp; &nbsp;<font class='negOutcome'>You receive: <strong>0</strong></font></div>","null","16","Plum Powerball","Fruit/plums1.png","Lost","0.8,0.35","9","0.8","270","46","",""
"","","","decision","63ea79021f0c43def6174042","bdp_rwlrn","Mon Mar 13 2023 23:16:45 GMT-0500 (Central Daylight Time)","491865","Trustworthy,Untrustworthy","","html-keyboard-response","148","340255","0.0-11.0-1.46","","141","","<div class='trialDiv'><img src='Fruit/papayas.png'><br><font class='baseline'><strong>Papaya Payday</strong><p>Choose number of points to bet.</font><div class='respPicDiv'><img src='img/responseButtonOffersNo0L.png' class='respPic'></div></div>","5","16","Papaya Payday","Fruit/papayas.png","Won","0.65,0.35","10","0.65","275","47","",""
"","","","decisionFB","63ea79021f0c43def6174042","bdp_rwlrn","Mon Mar 13 2023 23:16:45 GMT-0500 (Central Daylight Time)","491865","Trustworthy,Untrustworthy","","html-keyboard-response","149","340517","0.0-11.0-2.46","","null","","<div class='trialDiv'><img src='Fruit/papayas.png'><br><font class='baseline'><strong>Papaya Payday</strong><p>Choose number of points to bet.</font><div class='respPicDiv'><img src='img/responseButtonOffersNo0L5.png' class='respPic'></div></div>","null","16","Papaya Payday","Fruit/papayas.png","Won","0.65,0.35","10","0.65","270","47","",""
"","","","feedback","63ea79021f0c43def6174042","bdp_rwlrn","Mon Mar 13 2023 23:16:45 GMT-0500 (Central Daylight Time)","491865","Trustworthy,Untrustworthy","","html-keyboard-response","150","341526","0.0-11.0-3.46","","null","","<div class='respPicDiv'><img src='img/responseButtonOffersNo0_wht.png' class='respPic'></div><div class='trialDiv'><img src='Fruit/papayas.png'><br><font class='baseline'><strong>Papaya Payday</strong><p><strong><font class='posOutcome'>You WON</font><p>You bet: 5</strong></font> &nbsp; &nbsp; &nbsp; &nbsp; &nbsp; &nbsp;<font class='posOutcome'>you receive: <strong>10</strong></font></div>","null","16","Papaya Payday","Fruit/papayas.png","Won","0.65,0.35","10","0.65","280","47","",""
"","","","decision","63ea79021f0c43def6174042","bdp_rwlrn","Mon Mar 13 2023 23:16:45 GMT-0500 (Central Daylight Time)","491865","Trustworthy,Untrustworthy","","html-keyboard-response","151","341804","0.0-11.0-1.47","","278","","<div class='trialDiv'><img src='Fruit/Kiwi.png'><br><font class='baseline'><strong>Kiwi Kash</strong><p>Choose number of points to bet.</font><div class='respPicDiv'><img src='img/responseButtonOffersNo0L.png' class='respPic'></div></div>","5","16","Kiwi Kash","Fruit/Kiwi.png","Lost","0.35,0.8","12","0.35","285","48","",""
"","","","decisionFB","63ea79021f0c43def6174042","bdp_rwlrn","Mon Mar 13 2023 23:16:45 GMT-0500 (Central Daylight Time)","491865","Trustworthy,Untrustworthy","","html-keyboard-response","152","342065","0.0-11.0-2.47","","null","","<div class='trialDiv'><img src='Fruit/Kiwi.png'><br><font class='baseline'><strong>Kiwi Kash</strong><p>Choose number of points to bet.</font><div class='respPicDiv'><img src='img/responseButtonOffersNo0L5.png' class='respPic'></div></div>","null","16","Kiwi Kash","Fruit/Kiwi.png","Lost","0.35,0.8","12","0.35","280","48","",""
"","","","feedback","63ea79021f0c43def6174042","bdp_rwlrn","Mon Mar 13 2023 23:16:45 GMT-0500 (Central Daylight Time)","491865","Trustworthy,Untrustworthy","","html-keyboard-response","153","343078","0.0-11.0-3.47","","null","","<div class='respPicDiv'><img src='img/responseButtonOffersNo0_wht.png' class='respPic'></div><div class='trialDiv'><img src='Fruit/Kiwi.png'><br><font class='baseline'><strong>Kiwi Kash</strong><p><strong><font class='negOutcome'>You LOST</font><p>You bet: 5</strong></font> &nbsp; &nbsp; &nbsp; &nbsp; &nbsp; &nbsp;<font class='negOutcome'>You receive: <strong>0</strong></font></div>","null","16","Kiwi Kash","Fruit/Kiwi.png","Lost","0.35,0.8","12","0.35","280","48","",""
"","","","decision","63ea79021f0c43def6174042","bdp_rwlrn","Mon Mar 13 2023 23:16:45 GMT-0500 (Central Daylight Time)","491865","Trustworthy,Untrustworthy","","html-keyboard-response","154","343207","0.0-11.0-1.48","","128","","<div class='trialDiv'><img src='Fruit/plums1.png'><br><font class='baseline'><strong>Plum Powerball</strong><p>Choose number of points to bet.</font><div class='respPicDiv'><img src='img/responseButtonOffersNo0L.png' class='respPic'></div></div>","5","17","Plum Powerball","Fruit/plums1.png","Won","0.8,0.35","9","0.8","285","49","",""
"","","","decisionFB","63ea79021f0c43def6174042","bdp_rwlrn","Mon Mar 13 2023 23:16:45 GMT-0500 (Central Daylight Time)","491865","Trustworthy,Untrustworthy","","html-keyboard-response","155","343465","0.0-11.0-2.48","","null","","<div class='trialDiv'><img src='Fruit/plums1.png'><br><font class='baseline'><strong>Plum Powerball</strong><p>Choose number of points to bet.</font><div class='respPicDiv'><img src='img/responseButtonOffersNo0L5.png' class='respPic'></div></div>","null","17","Plum Powerball","Fruit/plums1.png","Won","0.8,0.35","9","0.8","280","49","",""
