"trial_type","trial_index","time_elapsed","internal_node_id","subject_id","task","startTime","totalTime","labels","view_history","rt","event","trial","time","trialtype","success","stimulus","key_press","ltround","name","fileID","outcome","lottotype","lottoswpt","lottocurrpshare","point_total","round","faceID","face"
"pavlovia","0","10","0.0-0.0","63f7b890b9c9e7b19a2e9281","bdp_rwlrn","Sat Apr 08 2023 11:35:32 GMT-0400 (Eastern Daylight Time)","349272","Untrustworthy,Trustworthy","","","","","","","","","","","","","","","","","","","",""
"instructions","1","4599","0.0-1.0","63f7b890b9c9e7b19a2e9281","bdp_rwlrn","Sat Apr 08 2023 11:35:32 GMT-0400 (Eastern Daylight Time)","349272","Untrustworthy,Trustworthy","[{""page_index"":0,""viewing_time"":4588}]","4588","","","","","","","","","","","","","","","","","",""
"","","","","63f7b890b9c9e7b19a2e9281","bdp_rwlrn","Sat Apr 08 2023 11:35:32 GMT-0400 (Eastern Daylight Time)","349272","Untrustworthy,Trustworthy","","","fullscreenenter","2","7770","fullscreenenter","","","","","","","","","","","","","",""
"fullscreen","2","8763","0.0-2.0","63f7b890b9c9e7b19a2e9281","bdp_rwlrn","Sat Apr 08 2023 11:35:32 GMT-0400 (Eastern Daylight Time)","349272","Untrustworthy,Trustworthy","","","","","","","true","","","","","","","","","","","","",""
"instructions","3","60970","0.0-4.0","63f7b890b9c9e7b19a2e9281","bdp_rwlrn","Sat Apr 08 2023 11:35:32 GMT-0400 (Eastern Daylight Time)","349272","Untrustworthy,Trustworthy","[{""page_index"":0,""viewing_time"":12020},{""page_index"":1,""viewing_time"":9886},{""page_index"":2,""viewing_time"":5413},{""page_index"":3,""viewing_time"":5695},{""page_index"":4,""viewing_time"":14213},{""page_index"":5,""viewing_time"":4980}]","52207","","","","","","","","","","","","","","","","","",""
"html-keyboard-response","4","66531","0.0-5.0","63f7b890b9c9e7b19a2e9281","bdp_rwlrn","Sat Apr 08 2023 11:35:32 GMT-0400 (Eastern Daylight Time)","349272","Untrustworthy,Trustworthy","","5556","","","","","","<div class='header' style='text-align:left; position: absolute; top: 5%; left: 5%;'><small>Task 3 of 5</small></div><div class='instruxDiv'><p><strong>1) What is the maximum number of points you can choose to bet on a lottery?</strong></p><p>a) 0</p><p>b) 1</p><p>c) 5</p>","C","","","","","","","","","","",""
"html-keyboard-response","5","67638","0.0-6.0","63f7b890b9c9e7b19a2e9281","bdp_rwlrn","Sat Apr 08 2023 11:35:32 GMT-0400 (Eastern Daylight Time)","349272","Untrustworthy,Trustworthy","","1002","","","","","","<div class='header' style='text-align:left; position: absolute; top: 5%; left: 5%;'><small>Task 3 of 5</small></div><div class='instruxDiv'><p><strong>1) What is the maximum number of points you can choose to bet on a lottery?</strong></p><p>a) 1</p><p>b) 1</p><p style='color:#00FF00'>c) 5</p><h3 style='color:#00FF00'>Correct!</h3><h3 class='center-content'>The correct response is c).</h3><h3 class='center-content'>The maximum number of points you can choose to bet on a lottery is 5 points.</h3><p><em>Press SPACEBAR to continue</em></p></div>"," ","","","","","","","","","","",""
"html-keyboard-response","6","71960","0.0-7.0","63f7b890b9c9e7b19a2e9281","bdp_rwlrn","Sat Apr 08 2023 11:35:32 GMT-0400 (Eastern Daylight Time)","349272","Untrustworthy,Trustworthy","","4222","","","","","","<div class='header' style='text-align:left; position: absolute; top: 5%; left: 5%;'><small>Task 3 of 5</small></div><div class='instruxDiv'><p><strong>2) How many points can you win each round?</strong></p><p>a) 10 points</p><p>b) Double what you bet</p><p>c) Quadruple what you bet</p>","B","","","","","","","","","","",""
"html-keyboard-response","7","72861","0.0-8.0","63f7b890b9c9e7b19a2e9281","bdp_rwlrn","Sat Apr 08 2023 11:35:32 GMT-0400 (Eastern Daylight Time)","349272","Untrustworthy,Trustworthy","","793","","","","","","<div class='header' style='text-align:left; position: absolute; top: 5%; left: 5%;'><small>Task 3 of 5</small></div><div class='instruxDiv'><p><strong>2) How many points can you win each round?</strong></p><p>a) 10 points</p><p style='color:#00FF00'>b) Double what you bet</p><p>c) Quadruple what you bet</p><h3 style='color:#00FF00'>Correct!</h3><h3 class='center-content'>The correct response is b).</h3><h3 class='center-content'>You can win double the amount of points you bet.</h3><p><em>Press SPACEBAR to continue</em></p></div>"," ","","","","","","","","","","",""
"html-keyboard-response","8","77971","0.0-9.0","63f7b890b9c9e7b19a2e9281","bdp_rwlrn","Sat Apr 08 2023 11:35:32 GMT-0400 (Eastern Daylight Time)","349272","Untrustworthy,Trustworthy","","null","","","","","","<div class='header' style='text-align:left; position: absolute; top: 5%; left: 5%;'><small>Task 3 of 5</small></div><div class='instruxDiv'><p>Thank you for completing the quiz<p>These are the actual lotteries you will be playing in the next block:<p><div class='tc' align='center'><img class='introPic' src='Fruit/lime.png'><br><strong>Limin' Large</strong></div><div class='bl' align='center'><img class='introPic' src='Fruit/melon.png'><br><strong>Melon Millions</strong></div><div class='br' align='center'><img class='introPic' src='Fruit/apple.png'><br><strong>Awesome Apples</strong></div></div><p>Across <strong>66 rounds</strong> you will play each lottery <strong>22 times</strong> (in random order).<p style='align:center; color:white'><font <em>Press SPACEBAR to continue</em></p>","null","","","","","","","","","","",""
"instructions","9","85718","0.0-10.0","63f7b890b9c9e7b19a2e9281","bdp_rwlrn","Sat Apr 08 2023 11:35:32 GMT-0400 (Eastern Daylight Time)","349272","Untrustworthy,Trustworthy","[{""page_index"":0,""viewing_time"":6288},{""page_index"":1,""viewing_time"":1457}]","7745","","","","","","","","","","","","","","","","","",""
"html-keyboard-response","10","86983","0.0-11.0-1.0","63f7b890b9c9e7b19a2e9281","bdp_rwlrn","Sat Apr 08 2023 11:35:32 GMT-0400 (Eastern Daylight Time)","349272","Untrustworthy,Trustworthy","","1161","","","","decision","","<div class='trialDiv'><img src='Fruit/lime.png'><br><font class='baseline'><strong>Limin' Large</strong><p>Choose number of points to bet.</font><div class='respPicDiv'><img src='img/responseButtonOffersNo0L.png' class='respPic'></div></div>","2","1","Limin' Large","Fruit/lime.png","Lost","0.35,0.8","13","0.35","5","1","",""
"html-keyboard-response","11","87242","0.0-11.0-2.0","63f7b890b9c9e7b19a2e9281","bdp_rwlrn","Sat Apr 08 2023 11:35:32 GMT-0400 (Eastern Daylight Time)","349272","Untrustworthy,Trustworthy","","null","","","","decisionFB","","<div class='trialDiv'><img src='Fruit/lime.png'><br><font class='baseline'><strong>Limin' Large</strong><p>Choose number of points to bet.</font><div class='respPicDiv'><img src='img/responseButtonOffersNo0L2.png' class='respPic'></div></div>","null","1","Limin' Large","Fruit/lime.png","Lost","0.35,0.8","13","0.35","3","1","",""
"html-keyboard-response","12","88250","0.0-11.0-3.0","63f7b890b9c9e7b19a2e9281","bdp_rwlrn","Sat Apr 08 2023 11:35:32 GMT-0400 (Eastern Daylight Time)","349272","Untrustworthy,Trustworthy","","null","","","","feedback","","<div class='respPicDiv'><img src='img/responseButtonOffersNo0_wht.png' class='respPic'></div><div class='trialDiv'><img src='Fruit/lime.png'><br><font class='baseline'><strong>Limin' Large</strong><p><strong><font class='negOutcome'>You LOST</font><p>You bet: 2</strong></font> &nbsp; &nbsp; &nbsp; &nbsp; &nbsp; &nbsp;<font class='negOutcome'>You receive: <strong>0</strong></font></div>","null","1","Limin' Large","Fruit/lime.png","Lost","0.35,0.8","13","0.35","3","1","",""
"html-keyboard-response","13","89330","0.0-11.0-1.1","63f7b890b9c9e7b19a2e9281","bdp_rwlrn","Sat Apr 08 2023 11:35:32 GMT-0400 (Eastern Daylight Time)","349272","Untrustworthy,Trustworthy","","1078","","","","decision","","<div class='trialDiv'><img src='Fruit/melon.png'><br><font class='baseline'><strong>Melon Millions</strong><p>Choose number of points to bet.</font><div class='respPicDiv'><img src='img/responseButtonOffersNo0L.png' class='respPic'></div></div>","5","1","Melon Millions","Fruit/melon.png","Lost","0.65,0.35","11","0.65","8","2","",""
"html-keyboard-response","14","89586","0.0-11.0-2.1","63f7b890b9c9e7b19a2e9281","bdp_rwlrn","Sat Apr 08 2023 11:35:32 GMT-0400 (Eastern Daylight Time)","349272","Untrustworthy,Trustworthy","","null","","","","decisionFB","","<div class='trialDiv'><img src='Fruit/melon.png'><br><font class='baseline'><strong>Melon Millions</strong><p>Choose number of points to bet.</font><div class='respPicDiv'><img src='img/responseButtonOffersNo0L5.png' class='respPic'></div></div>","null","1","Melon Millions","Fruit/melon.png","Lost","0.65,0.35","11","0.65","3","2","",""
"html-keyboard-response","15","90594","0.0-11.0-3.1","63f7b890b9c9e7b19a2e9281","bdp_rwlrn","Sat Apr 08 2023 11:35:32 GMT-0400 (Eastern Daylight Time)","349272","Untrustworthy,Trustworthy","","null","","","","feedback","","<div class='respPicDiv'><img src='img/responseButtonOffersNo0_wht.png' class='respPic'></div><div class='trialDiv'><img src='Fruit/melon.png'><br><font class='baseline'><strong>Melon Millions</strong><p><strong><font class='negOutcome'>You LOST</font><p>You bet: 5</strong></font> &nbsp; &nbsp; &nbsp; &nbsp; &nbsp; &nbsp;<font class='negOutcome'>You receive: <strong>0</strong></font></div>","null","1","Melon Millions","Fruit/melon.png","Lost","0.65,0.35","11","0.65","3","2","",""
"html-keyboard-response","16","91039","0.0-11.0-1.2","63f7b890b9c9e7b19a2e9281","bdp_rwlrn","Sat Apr 08 2023 11:35:32 GMT-0400 (Eastern Daylight Time)","349272","Untrustworthy,Trustworthy","","442","","","","decision","","<div class='trialDiv'><img src='Fruit/apple.png'><br><font class='baseline'><strong>Awesome Apples</strong><p>Choose number of points to bet.</font><div class='respPicDiv'><img src='img/responseButtonOffersNo0L.png' class='respPic'></div></div>","5","1","Awesome Apples","Fruit/apple.png","Won","0.8,0.35","13","0.8","8","3","",""
"html-keyboard-response","17","91290","0.0-11.0-2.2","63f7b890b9c9e7b19a2e9281","bdp_rwlrn","Sat Apr 08 2023 11:35:32 GMT-0400 (Eastern Daylight Time)","349272","Untrustworthy,Trustworthy","","null","","","","decisionFB","","<div class='trialDiv'><img src='Fruit/apple.png'><br><font class='baseline'><strong>Awesome Apples</strong><p>Choose number of points to bet.</font><div class='respPicDiv'><img src='img/responseButtonOffersNo0L5.png' class='respPic'></div></div>","null","1","Awesome Apples","Fruit/apple.png","Won","0.8,0.35","13","0.8","3","3","",""
"html-keyboard-response","18","92299","0.0-11.0-3.2","63f7b890b9c9e7b19a2e9281","bdp_rwlrn","Sat Apr 08 2023 11:35:32 GMT-0400 (Eastern Daylight Time)","349272","Untrustworthy,Trustworthy","","null","","","","feedback","","<div class='respPicDiv'><img src='img/responseButtonOffersNo0_wht.png' class='respPic'></div><div class='trialDiv'><img src='Fruit/apple.png'><br><font class='baseline'><strong>Awesome Apples</strong><p><strong><font class='posOutcome'>You WON</font><p>You bet: 5</strong></font> &nbsp; &nbsp; &nbsp; &nbsp; &nbsp; &nbsp;<font class='posOutcome'>you receive: <strong>10</strong></font></div>","null","1","Awesome Apples","Fruit/apple.png","Won","0.8,0.35","13","0.8","13","3","",""
"html-keyboard-response","19","93127","0.0-11.0-1.3","63f7b890b9c9e7b19a2e9281","bdp_rwlrn","Sat Apr 08 2023 11:35:32 GMT-0400 (Eastern Daylight Time)","349272","Untrustworthy,Trustworthy","","826","","","","decision","","<div class='trialDiv'><img src='Fruit/lime.png'><br><font class='baseline'><strong>Limin' Large</strong><p>Choose number of points to bet.</font><div class='respPicDiv'><img src='img/responseButtonOffersNo0L.png' class='respPic'></div></div>","3","2","Limin' Large","Fruit/lime.png","Lost","0.35,0.8","13","0.35","18","4","",""
"html-keyboard-response","20","93379","0.0-11.0-2.3","63f7b890b9c9e7b19a2e9281","bdp_rwlrn","Sat Apr 08 2023 11:35:32 GMT-0400 (Eastern Daylight Time)","349272","Untrustworthy,Trustworthy","","null","","","","decisionFB","","<div class='trialDiv'><img src='Fruit/lime.png'><br><font class='baseline'><strong>Limin' Large</strong><p>Choose number of points to bet.</font><div class='respPicDiv'><img src='img/responseButtonOffersNo0L3.png' class='respPic'></div></div>","null","2","Limin' Large","Fruit/lime.png","Lost","0.35,0.8","13","0.35","15","4","",""
"html-keyboard-response","21","94387","0.0-11.0-3.3","63f7b890b9c9e7b19a2e9281","bdp_rwlrn","Sat Apr 08 2023 11:35:32 GMT-0400 (Eastern Daylight Time)","349272","Untrustworthy,Trustworthy","","null","","","","feedback","","<div class='respPicDiv'><img src='img/responseButtonOffersNo0_wht.png' class='respPic'></div><div class='trialDiv'><img src='Fruit/lime.png'><br><font class='baseline'><strong>Limin' Large</strong><p><strong><font class='negOutcome'>You LOST</font><p>You bet: 3</strong></font> &nbsp; &nbsp; &nbsp; &nbsp; &nbsp; &nbsp;<font class='negOutcome'>You receive: <strong>0</strong></font></div>","null","2","Limin' Large","Fruit/lime.png","Lost","0.35,0.8","13","0.35","15","4","",""
"html-keyboard-response","22","95291","0.0-11.0-1.4","63f7b890b9c9e7b19a2e9281","bdp_rwlrn","Sat Apr 08 2023 11:35:32 GMT-0400 (Eastern Daylight Time)","349272","Untrustworthy,Trustworthy","","902","","","","decision","","<div class='trialDiv'><img src='Fruit/melon.png'><br><font class='baseline'><strong>Melon Millions</strong><p>Choose number of points to bet.</font><div class='respPicDiv'><img src='img/responseButtonOffersNo0L.png' class='respPic'></div></div>","1","2","Melon Millions","Fruit/melon.png","Won","0.65,0.35","11","0.65","20","5","",""
"html-keyboard-response","23","95547","0.0-11.0-2.4","63f7b890b9c9e7b19a2e9281","bdp_rwlrn","Sat Apr 08 2023 11:35:32 GMT-0400 (Eastern Daylight Time)","349272","Untrustworthy,Trustworthy","","null","","","","decisionFB","","<div class='trialDiv'><img src='Fruit/melon.png'><br><font class='baseline'><strong>Melon Millions</strong><p>Choose number of points to bet.</font><div class='respPicDiv'><img src='img/responseButtonOffersNo0L1.png' class='respPic'></div></div>","null","2","Melon Millions","Fruit/melon.png","Won","0.65,0.35","11","0.65","19","5","",""
"html-keyboard-response","24","96556","0.0-11.0-3.4","63f7b890b9c9e7b19a2e9281","bdp_rwlrn","Sat Apr 08 2023 11:35:32 GMT-0400 (Eastern Daylight Time)","349272","Untrustworthy,Trustworthy","","null","","","","feedback","","<div class='respPicDiv'><img src='img/responseButtonOffersNo0_wht.png' class='respPic'></div><div class='trialDiv'><img src='Fruit/melon.png'><br><font class='baseline'><strong>Melon Millions</strong><p><strong><font class='posOutcome'>You WON</font><p>You bet: 1</strong></font> &nbsp; &nbsp; &nbsp; &nbsp; &nbsp; &nbsp;<font class='posOutcome'>you receive: <strong>2</strong></font></div>","null","2","Melon Millions","Fruit/melon.png","Won","0.65,0.35","11","0.65","21","5","",""
"html-keyboard-response","25","96952","0.0-11.0-1.5","63f7b890b9c9e7b19a2e9281","bdp_rwlrn","Sat Apr 08 2023 11:35:32 GMT-0400 (Eastern Daylight Time)","349272","Untrustworthy,Trustworthy","","393","","","","decision","","<div class='trialDiv'><img src='Fruit/apple.png'><br><font class='baseline'><strong>Awesome Apples</strong><p>Choose number of points to bet.</font><div class='respPicDiv'><img src='img/responseButtonOffersNo0L.png' class='respPic'></div></div>","5","2","Awesome Apples","Fruit/apple.png","Won","0.8,0.35","13","0.8","26","6","",""
"html-keyboard-response","26","97203","0.0-11.0-2.5","63f7b890b9c9e7b19a2e9281","bdp_rwlrn","Sat Apr 08 2023 11:35:32 GMT-0400 (Eastern Daylight Time)","349272","Untrustworthy,Trustworthy","","null","","","","decisionFB","","<div class='trialDiv'><img src='Fruit/apple.png'><br><font class='baseline'><strong>Awesome Apples</strong><p>Choose number of points to bet.</font><div class='respPicDiv'><img src='img/responseButtonOffersNo0L5.png' class='respPic'></div></div>","null","2","Awesome Apples","Fruit/apple.png","Won","0.8,0.35","13","0.8","21","6","",""
"html-keyboard-response","27","98211","0.0-11.0-3.5","63f7b890b9c9e7b19a2e9281","bdp_rwlrn","Sat Apr 08 2023 11:35:32 GMT-0400 (Eastern Daylight Time)","349272","Untrustworthy,Trustworthy","","null","","","","feedback","","<div class='respPicDiv'><img src='img/responseButtonOffersNo0_wht.png' class='respPic'></div><div class='trialDiv'><img src='Fruit/apple.png'><br><font class='baseline'><strong>Awesome Apples</strong><p><strong><font class='posOutcome'>You WON</font><p>You bet: 5</strong></font> &nbsp; &nbsp; &nbsp; &nbsp; &nbsp; &nbsp;<font class='posOutcome'>you receive: <strong>10</strong></font></div>","null","2","Awesome Apples","Fruit/apple.png","Won","0.8,0.35","13","0.8","31","6","",""
"html-keyboard-response","28","98608","0.0-11.0-1.6","63f7b890b9c9e7b19a2e9281","bdp_rwlrn","Sat Apr 08 2023 11:35:32 GMT-0400 (Eastern Daylight Time)","349272","Untrustworthy,Trustworthy","","393","","","","decision","","<div class='trialDiv'><img src='Fruit/lime.png'><br><font class='baseline'><strong>Limin' Large</strong><p>Choose number of points to bet.</font><div class='respPicDiv'><img src='img/responseButtonOffersNo0L.png' class='respPic'></div></div>","2","3","Limin' Large","Fruit/lime.png","Lost","0.35,0.8","13","0.35","36","7","",""
"html-keyboard-response","29","98859","0.0-11.0-2.6","63f7b890b9c9e7b19a2e9281","bdp_rwlrn","Sat Apr 08 2023 11:35:32 GMT-0400 (Eastern Daylight Time)","349272","Untrustworthy,Trustworthy","","null","","","","decisionFB","","<div class='trialDiv'><img src='Fruit/lime.png'><br><font class='baseline'><strong>Limin' Large</strong><p>Choose number of points to bet.</font><div class='respPicDiv'><img src='img/responseButtonOffersNo0L2.png' class='respPic'></div></div>","null","3","Limin' Large","Fruit/lime.png","Lost","0.35,0.8","13","0.35","34","7","",""
"html-keyboard-response","30","99867","0.0-11.0-3.6","63f7b890b9c9e7b19a2e9281","bdp_rwlrn","Sat Apr 08 2023 11:35:32 GMT-0400 (Eastern Daylight Time)","349272","Untrustworthy,Trustworthy","","null","","","","feedback","","<div class='respPicDiv'><img src='img/responseButtonOffersNo0_wht.png' class='respPic'></div><div class='trialDiv'><img src='Fruit/lime.png'><br><font class='baseline'><strong>Limin' Large</strong><p><strong><font class='negOutcome'>You LOST</font><p>You bet: 2</strong></font> &nbsp; &nbsp; &nbsp; &nbsp; &nbsp; &nbsp;<font class='negOutcome'>You receive: <strong>0</strong></font></div>","null","3","Limin' Large","Fruit/lime.png","Lost","0.35,0.8","13","0.35","34","7","",""
"html-keyboard-response","31","100386","0.0-11.0-1.7","63f7b890b9c9e7b19a2e9281","bdp_rwlrn","Sat Apr 08 2023 11:35:32 GMT-0400 (Eastern Daylight Time)","349272","Untrustworthy,Trustworthy","","516","","","","decision","","<div class='trialDiv'><img src='Fruit/melon.png'><br><font class='baseline'><strong>Melon Millions</strong><p>Choose number of points to bet.</font><div class='respPicDiv'><img src='img/responseButtonOffersNo0L.png' class='respPic'></div></div>","1","3","Melon Millions","Fruit/melon.png","Won","0.65,0.35","11","0.65","39","8","",""
"html-keyboard-response","32","100643","0.0-11.0-2.7","63f7b890b9c9e7b19a2e9281","bdp_rwlrn","Sat Apr 08 2023 11:35:32 GMT-0400 (Eastern Daylight Time)","349272","Untrustworthy,Trustworthy","","null","","","","decisionFB","","<div class='trialDiv'><img src='Fruit/melon.png'><br><font class='baseline'><strong>Melon Millions</strong><p>Choose number of points to bet.</font><div class='respPicDiv'><img src='img/responseButtonOffersNo0L1.png' class='respPic'></div></div>","null","3","Melon Millions","Fruit/melon.png","Won","0.65,0.35","11","0.65","38","8","",""
"html-keyboard-response","33","101651","0.0-11.0-3.7","63f7b890b9c9e7b19a2e9281","bdp_rwlrn","Sat Apr 08 2023 11:35:32 GMT-0400 (Eastern Daylight Time)","349272","Untrustworthy,Trustworthy","","null","","","","feedback","","<div class='respPicDiv'><img src='img/responseButtonOffersNo0_wht.png' class='respPic'></div><div class='trialDiv'><img src='Fruit/melon.png'><br><font class='baseline'><strong>Melon Millions</strong><p><strong><font class='posOutcome'>You WON</font><p>You bet: 1</strong></font> &nbsp; &nbsp; &nbsp; &nbsp; &nbsp; &nbsp;<font class='posOutcome'>you receive: <strong>2</strong></font></div>","null","3","Melon Millions","Fruit/melon.png","Won","0.65,0.35","11","0.65","40","8","",""
"html-keyboard-response","34","102135","0.0-11.0-1.8","63f7b890b9c9e7b19a2e9281","bdp_rwlrn","Sat Apr 08 2023 11:35:32 GMT-0400 (Eastern Daylight Time)","349272","Untrustworthy,Trustworthy","","483","","","","decision","","<div class='trialDiv'><img src='Fruit/apple.png'><br><font class='baseline'><strong>Awesome Apples</strong><p>Choose number of points to bet.</font><div class='respPicDiv'><img src='img/responseButtonOffersNo0L.png' class='respPic'></div></div>","4","3","Awesome Apples","Fruit/apple.png","Lost","0.8,0.35","13","0.8","45","9","",""
"html-keyboard-response","35","102387","0.0-11.0-2.8","63f7b890b9c9e7b19a2e9281","bdp_rwlrn","Sat Apr 08 2023 11:35:32 GMT-0400 (Eastern Daylight Time)","349272","Untrustworthy,Trustworthy","","null","","","","decisionFB","","<div class='trialDiv'><img src='Fruit/apple.png'><br><font class='baseline'><strong>Awesome Apples</strong><p>Choose number of points to bet.</font><div class='respPicDiv'><img src='img/responseButtonOffersNo0L4.png' class='respPic'></div></div>","null","3","Awesome Apples","Fruit/apple.png","Lost","0.8,0.35","13","0.8","41","9","",""
"html-keyboard-response","36","103395","0.0-11.0-3.8","63f7b890b9c9e7b19a2e9281","bdp_rwlrn","Sat Apr 08 2023 11:35:32 GMT-0400 (Eastern Daylight Time)","349272","Untrustworthy,Trustworthy","","null","","","","feedback","","<div class='respPicDiv'><img src='img/responseButtonOffersNo0_wht.png' class='respPic'></div><div class='trialDiv'><img src='Fruit/apple.png'><br><font class='baseline'><strong>Awesome Apples</strong><p><strong><font class='negOutcome'>You LOST</font><p>You bet: 4</strong></font> &nbsp; &nbsp; &nbsp; &nbsp; &nbsp; &nbsp;<font class='negOutcome'>You receive: <strong>0</strong></font></div>","null","3","Awesome Apples","Fruit/apple.png","Lost","0.8,0.35","13","0.8","41","9","",""
"html-keyboard-response","37","103924","0.0-11.0-1.9","63f7b890b9c9e7b19a2e9281","bdp_rwlrn","Sat Apr 08 2023 11:35:32 GMT-0400 (Eastern Daylight Time)","349272","Untrustworthy,Trustworthy","","526","","","","decision","","<div class='trialDiv'><img src='Fruit/melon.png'><br><font class='baseline'><strong>Melon Millions</strong><p>Choose number of points to bet.</font><div class='respPicDiv'><img src='img/responseButtonOffersNo0L.png' class='respPic'></div></div>","2","4","Melon Millions","Fruit/melon.png","Lost","0.65,0.35","11","0.65","46","10","",""
"html-keyboard-response","38","104179","0.0-11.0-2.9","63f7b890b9c9e7b19a2e9281","bdp_rwlrn","Sat Apr 08 2023 11:35:32 GMT-0400 (Eastern Daylight Time)","349272","Untrustworthy,Trustworthy","","null","","","","decisionFB","","<div class='trialDiv'><img src='Fruit/melon.png'><br><font class='baseline'><strong>Melon Millions</strong><p>Choose number of points to bet.</font><div class='respPicDiv'><img src='img/responseButtonOffersNo0L2.png' class='respPic'></div></div>","null","4","Melon Millions","Fruit/melon.png","Lost","0.65,0.35","11","0.65","44","10","",""
"html-keyboard-response","39","105201","0.0-11.0-3.9","63f7b890b9c9e7b19a2e9281","bdp_rwlrn","Sat Apr 08 2023 11:35:32 GMT-0400 (Eastern Daylight Time)","349272","Untrustworthy,Trustworthy","","null","","","","feedback","","<div class='respPicDiv'><img src='img/responseButtonOffersNo0_wht.png' class='respPic'></div><div class='trialDiv'><img src='Fruit/melon.png'><br><font class='baseline'><strong>Melon Millions</strong><p><strong><font class='negOutcome'>You LOST</font><p>You bet: 2</strong></font> &nbsp; &nbsp; &nbsp; &nbsp; &nbsp; &nbsp;<font class='negOutcome'>You receive: <strong>0</strong></font></div>","null","4","Melon Millions","Fruit/melon.png","Lost","0.65,0.35","11","0.65","44","10","",""
"html-keyboard-response","40","105956","0.0-11.0-1.10","63f7b890b9c9e7b19a2e9281","bdp_rwlrn","Sat Apr 08 2023 11:35:32 GMT-0400 (Eastern Daylight Time)","349272","Untrustworthy,Trustworthy","","754","","","","decision","","<div class='trialDiv'><img src='Fruit/apple.png'><br><font class='baseline'><strong>Awesome Apples</strong><p>Choose number of points to bet.</font><div class='respPicDiv'><img src='img/responseButtonOffersNo0L.png' class='respPic'></div></div>","5","4","Awesome Apples","Fruit/apple.png","Won","0.8,0.35","13","0.8","49","11","",""
"html-keyboard-response","41","106211","0.0-11.0-2.10","63f7b890b9c9e7b19a2e9281","bdp_rwlrn","Sat Apr 08 2023 11:35:32 GMT-0400 (Eastern Daylight Time)","349272","Untrustworthy,Trustworthy","","null","","","","decisionFB","","<div class='trialDiv'><img src='Fruit/apple.png'><br><font class='baseline'><strong>Awesome Apples</strong><p>Choose number of points to bet.</font><div class='respPicDiv'><img src='img/responseButtonOffersNo0L5.png' class='respPic'></div></div>","null","4","Awesome Apples","Fruit/apple.png","Won","0.8,0.35","13","0.8","44","11","",""
"html-keyboard-response","42","107220","0.0-11.0-3.10","63f7b890b9c9e7b19a2e9281","bdp_rwlrn","Sat Apr 08 2023 11:35:32 GMT-0400 (Eastern Daylight Time)","349272","Untrustworthy,Trustworthy","","null","","","","feedback","","<div class='respPicDiv'><img src='img/responseButtonOffersNo0_wht.png' class='respPic'></div><div class='trialDiv'><img src='Fruit/apple.png'><br><font class='baseline'><strong>Awesome Apples</strong><p><strong><font class='posOutcome'>You WON</font><p>You bet: 5</strong></font> &nbsp; &nbsp; &nbsp; &nbsp; &nbsp; &nbsp;<font class='posOutcome'>you receive: <strong>10</strong></font></div>","null","4","Awesome Apples","Fruit/apple.png","Won","0.8,0.35","13","0.8","54","11","",""
"html-keyboard-response","43","108594","0.0-11.0-1.11","63f7b890b9c9e7b19a2e9281","bdp_rwlrn","Sat Apr 08 2023 11:35:32 GMT-0400 (Eastern Daylight Time)","349272","Untrustworthy,Trustworthy","","1373","","","","decision","","<div class='trialDiv'><img src='Fruit/lime.png'><br><font class='baseline'><strong>Limin' Large</strong><p>Choose number of points to bet.</font><div class='respPicDiv'><img src='img/responseButtonOffersNo0L.png' class='respPic'></div></div>","3","4","Limin' Large","Fruit/lime.png","Won","0.35,0.8","13","0.35","59","12","",""
"html-keyboard-response","44","108851","0.0-11.0-2.11","63f7b890b9c9e7b19a2e9281","bdp_rwlrn","Sat Apr 08 2023 11:35:32 GMT-0400 (Eastern Daylight Time)","349272","Untrustworthy,Trustworthy","","null","","","","decisionFB","","<div class='trialDiv'><img src='Fruit/lime.png'><br><font class='baseline'><strong>Limin' Large</strong><p>Choose number of points to bet.</font><div class='respPicDiv'><img src='img/responseButtonOffersNo0L3.png' class='respPic'></div></div>","null","4","Limin' Large","Fruit/lime.png","Won","0.35,0.8","13","0.35","56","12","",""
"html-keyboard-response","45","109859","0.0-11.0-3.11","63f7b890b9c9e7b19a2e9281","bdp_rwlrn","Sat Apr 08 2023 11:35:32 GMT-0400 (Eastern Daylight Time)","349272","Untrustworthy,Trustworthy","","null","","","","feedback","","<div class='respPicDiv'><img src='img/responseButtonOffersNo0_wht.png' class='respPic'></div><div class='trialDiv'><img src='Fruit/lime.png'><br><font class='baseline'><strong>Limin' Large</strong><p><strong><font class='posOutcome'>You WON</font><p>You bet: 3</strong></font> &nbsp; &nbsp; &nbsp; &nbsp; &nbsp; &nbsp;<font class='posOutcome'>you receive: <strong>6</strong></font></div>","null","4","Limin' Large","Fruit/lime.png","Won","0.35,0.8","13","0.35","62","12","",""
"html-keyboard-response","46","110566","0.0-11.0-1.12","63f7b890b9c9e7b19a2e9281","bdp_rwlrn","Sat Apr 08 2023 11:35:32 GMT-0400 (Eastern Daylight Time)","349272","Untrustworthy,Trustworthy","","703","","","","decision","","<div class='trialDiv'><img src='Fruit/melon.png'><br><font class='baseline'><strong>Melon Millions</strong><p>Choose number of points to bet.</font><div class='respPicDiv'><img src='img/responseButtonOffersNo0L.png' class='respPic'></div></div>","1","5","Melon Millions","Fruit/melon.png","Won","0.65,0.35","11","0.65","67","13","",""
"html-keyboard-response","47","110819","0.0-11.0-2.12","63f7b890b9c9e7b19a2e9281","bdp_rwlrn","Sat Apr 08 2023 11:35:32 GMT-0400 (Eastern Daylight Time)","349272","Untrustworthy,Trustworthy","","null","","","","decisionFB","","<div class='trialDiv'><img src='Fruit/melon.png'><br><font class='baseline'><strong>Melon Millions</strong><p>Choose number of points to bet.</font><div class='respPicDiv'><img src='img/responseButtonOffersNo0L1.png' class='respPic'></div></div>","null","5","Melon Millions","Fruit/melon.png","Won","0.65,0.35","11","0.65","66","13","",""
"html-keyboard-response","48","111828","0.0-11.0-3.12","63f7b890b9c9e7b19a2e9281","bdp_rwlrn","Sat Apr 08 2023 11:35:32 GMT-0400 (Eastern Daylight Time)","349272","Untrustworthy,Trustworthy","","null","","","","feedback","","<div class='respPicDiv'><img src='img/responseButtonOffersNo0_wht.png' class='respPic'></div><div class='trialDiv'><img src='Fruit/melon.png'><br><font class='baseline'><strong>Melon Millions</strong><p><strong><font class='posOutcome'>You WON</font><p>You bet: 1</strong></font> &nbsp; &nbsp; &nbsp; &nbsp; &nbsp; &nbsp;<font class='posOutcome'>you receive: <strong>2</strong></font></div>","null","5","Melon Millions","Fruit/melon.png","Won","0.65,0.35","11","0.65","68","13","",""
"html-keyboard-response","49","112486","0.0-11.0-1.13","63f7b890b9c9e7b19a2e9281","bdp_rwlrn","Sat Apr 08 2023 11:35:32 GMT-0400 (Eastern Daylight Time)","349272","Untrustworthy,Trustworthy","","656","","","","decision","","<div class='trialDiv'><img src='Fruit/lime.png'><br><font class='baseline'><strong>Limin' Large</strong><p>Choose number of points to bet.</font><div class='respPicDiv'><img src='img/responseButtonOffersNo0L.png' class='respPic'></div></div>","4","5","Limin' Large","Fruit/lime.png","Lost","0.35,0.8","13","0.35","73","14","",""
"html-keyboard-response","50","112739","0.0-11.0-2.13","63f7b890b9c9e7b19a2e9281","bdp_rwlrn","Sat Apr 08 2023 11:35:32 GMT-0400 (Eastern Daylight Time)","349272","Untrustworthy,Trustworthy","","null","","","","decisionFB","","<div class='trialDiv'><img src='Fruit/lime.png'><br><font class='baseline'><strong>Limin' Large</strong><p>Choose number of points to bet.</font><div class='respPicDiv'><img src='img/responseButtonOffersNo0L4.png' class='respPic'></div></div>","null","5","Limin' Large","Fruit/lime.png","Lost","0.35,0.8","13","0.35","69","14","",""
"html-keyboard-response","51","113747","0.0-11.0-3.13","63f7b890b9c9e7b19a2e9281","bdp_rwlrn","Sat Apr 08 2023 11:35:32 GMT-0400 (Eastern Daylight Time)","349272","Untrustworthy,Trustworthy","","null","","","","feedback","","<div class='respPicDiv'><img src='img/responseButtonOffersNo0_wht.png' class='respPic'></div><div class='trialDiv'><img src='Fruit/lime.png'><br><font class='baseline'><strong>Limin' Large</strong><p><strong><font class='negOutcome'>You LOST</font><p>You bet: 4</strong></font> &nbsp; &nbsp; &nbsp; &nbsp; &nbsp; &nbsp;<font class='negOutcome'>You receive: <strong>0</strong></font></div>","null","5","Limin' Large","Fruit/lime.png","Lost","0.35,0.8","13","0.35","69","14","",""
"html-keyboard-response","52","114223","0.0-11.0-1.14","63f7b890b9c9e7b19a2e9281","bdp_rwlrn","Sat Apr 08 2023 11:35:32 GMT-0400 (Eastern Daylight Time)","349272","Untrustworthy,Trustworthy","","474","","","","decision","","<div class='trialDiv'><img src='Fruit/apple.png'><br><font class='baseline'><strong>Awesome Apples</strong><p>Choose number of points to bet.</font><div class='respPicDiv'><img src='img/responseButtonOffersNo0L.png' class='respPic'></div></div>","5","5","Awesome Apples","Fruit/apple.png","Won","0.8,0.35","13","0.8","74","15","",""
"html-keyboard-response","53","114475","0.0-11.0-2.14","63f7b890b9c9e7b19a2e9281","bdp_rwlrn","Sat Apr 08 2023 11:35:32 GMT-0400 (Eastern Daylight Time)","349272","Untrustworthy,Trustworthy","","null","","","","decisionFB","","<div class='trialDiv'><img src='Fruit/apple.png'><br><font class='baseline'><strong>Awesome Apples</strong><p>Choose number of points to bet.</font><div class='respPicDiv'><img src='img/responseButtonOffersNo0L5.png' class='respPic'></div></div>","null","5","Awesome Apples","Fruit/apple.png","Won","0.8,0.35","13","0.8","69","15","",""
"html-keyboard-response","54","115483","0.0-11.0-3.14","63f7b890b9c9e7b19a2e9281","bdp_rwlrn","Sat Apr 08 2023 11:35:32 GMT-0400 (Eastern Daylight Time)","349272","Untrustworthy,Trustworthy","","null","","","","feedback","","<div class='respPicDiv'><img src='img/responseButtonOffersNo0_wht.png' class='respPic'></div><div class='trialDiv'><img src='Fruit/apple.png'><br><font class='baseline'><strong>Awesome Apples</strong><p><strong><font class='posOutcome'>You WON</font><p>You bet: 5</strong></font> &nbsp; &nbsp; &nbsp; &nbsp; &nbsp; &nbsp;<font class='posOutcome'>you receive: <strong>10</strong></font></div>","null","5","Awesome Apples","Fruit/apple.png","Won","0.8,0.35","13","0.8","79","15","",""
"html-keyboard-response","55","116728","0.0-11.0-1.15","63f7b890b9c9e7b19a2e9281","bdp_rwlrn","Sat Apr 08 2023 11:35:32 GMT-0400 (Eastern Daylight Time)","349272","Untrustworthy,Trustworthy","","1242","","","","decision","","<div class='trialDiv'><img src='Fruit/lime.png'><br><font class='baseline'><strong>Limin' Large</strong><p>Choose number of points to bet.</font><div class='respPicDiv'><img src='img/responseButtonOffersNo0L.png' class='respPic'></div></div>","3","6","Limin' Large","Fruit/lime.png","Lost","0.35,0.8","13","0.35","84","16","",""
"html-keyboard-response","56","116987","0.0-11.0-2.15","63f7b890b9c9e7b19a2e9281","bdp_rwlrn","Sat Apr 08 2023 11:35:32 GMT-0400 (Eastern Daylight Time)","349272","Untrustworthy,Trustworthy","","null","","","","decisionFB","","<div class='trialDiv'><img src='Fruit/lime.png'><br><font class='baseline'><strong>Limin' Large</strong><p>Choose number of points to bet.</font><div class='respPicDiv'><img src='img/responseButtonOffersNo0L3.png' class='respPic'></div></div>","null","6","Limin' Large","Fruit/lime.png","Lost","0.35,0.8","13","0.35","81","16","",""
"html-keyboard-response","57","117995","0.0-11.0-3.15","63f7b890b9c9e7b19a2e9281","bdp_rwlrn","Sat Apr 08 2023 11:35:32 GMT-0400 (Eastern Daylight Time)","349272","Untrustworthy,Trustworthy","","null","","","","feedback","","<div class='respPicDiv'><img src='img/responseButtonOffersNo0_wht.png' class='respPic'></div><div class='trialDiv'><img src='Fruit/lime.png'><br><font class='baseline'><strong>Limin' Large</strong><p><strong><font class='negOutcome'>You LOST</font><p>You bet: 3</strong></font> &nbsp; &nbsp; &nbsp; &nbsp; &nbsp; &nbsp;<font class='negOutcome'>You receive: <strong>0</strong></font></div>","null","6","Limin' Large","Fruit/lime.png","Lost","0.35,0.8","13","0.35","81","16","",""
"html-keyboard-response","58","118745","0.0-11.0-1.16","63f7b890b9c9e7b19a2e9281","bdp_rwlrn","Sat Apr 08 2023 11:35:32 GMT-0400 (Eastern Daylight Time)","349272","Untrustworthy,Trustworthy","","747","","","","decision","","<div class='trialDiv'><img src='Fruit/apple.png'><br><font class='baseline'><strong>Awesome Apples</strong><p>Choose number of points to bet.</font><div class='respPicDiv'><img src='img/responseButtonOffersNo0L.png' class='respPic'></div></div>","5","6","Awesome Apples","Fruit/apple.png","Won","0.8,0.35","13","0.8","86","17","",""
"html-keyboard-response","59","119003","0.0-11.0-2.16","63f7b890b9c9e7b19a2e9281","bdp_rwlrn","Sat Apr 08 2023 11:35:32 GMT-0400 (Eastern Daylight Time)","349272","Untrustworthy,Trustworthy","","null","","","","decisionFB","","<div class='trialDiv'><img src='Fruit/apple.png'><br><font class='baseline'><strong>Awesome Apples</strong><p>Choose number of points to bet.</font><div class='respPicDiv'><img src='img/responseButtonOffersNo0L5.png' class='respPic'></div></div>","null","6","Awesome Apples","Fruit/apple.png","Won","0.8,0.35","13","0.8","81","17","",""
"html-keyboard-response","60","120011","0.0-11.0-3.16","63f7b890b9c9e7b19a2e9281","bdp_rwlrn","Sat Apr 08 2023 11:35:32 GMT-0400 (Eastern Daylight Time)","349272","Untrustworthy,Trustworthy","","null","","","","feedback","","<div class='respPicDiv'><img src='img/responseButtonOffersNo0_wht.png' class='respPic'></div><div class='trialDiv'><img src='Fruit/apple.png'><br><font class='baseline'><strong>Awesome Apples</strong><p><strong><font class='posOutcome'>You WON</font><p>You bet: 5</strong></font> &nbsp; &nbsp; &nbsp; &nbsp; &nbsp; &nbsp;<font class='posOutcome'>you receive: <strong>10</strong></font></div>","null","6","Awesome Apples","Fruit/apple.png","Won","0.8,0.35","13","0.8","91","17","",""
"html-keyboard-response","61","120751","0.0-11.0-1.17","63f7b890b9c9e7b19a2e9281","bdp_rwlrn","Sat Apr 08 2023 11:35:32 GMT-0400 (Eastern Daylight Time)","349272","Untrustworthy,Trustworthy","","738","","","","decision","","<div class='trialDiv'><img src='Fruit/melon.png'><br><font class='baseline'><strong>Melon Millions</strong><p>Choose number of points to bet.</font><div class='respPicDiv'><img src='img/responseButtonOffersNo0L.png' class='respPic'></div></div>","1","6","Melon Millions","Fruit/melon.png","Won","0.65,0.35","11","0.65","96","18","",""
"html-keyboard-response","62","121003","0.0-11.0-2.17","63f7b890b9c9e7b19a2e9281","bdp_rwlrn","Sat Apr 08 2023 11:35:32 GMT-0400 (Eastern Daylight Time)","349272","Untrustworthy,Trustworthy","","null","","","","decisionFB","","<div class='trialDiv'><img src='Fruit/melon.png'><br><font class='baseline'><strong>Melon Millions</strong><p>Choose number of points to bet.</font><div class='respPicDiv'><img src='img/responseButtonOffersNo0L1.png' class='respPic'></div></div>","null","6","Melon Millions","Fruit/melon.png","Won","0.65,0.35","11","0.65","95","18","",""
"html-keyboard-response","63","122011","0.0-11.0-3.17","63f7b890b9c9e7b19a2e9281","bdp_rwlrn","Sat Apr 08 2023 11:35:32 GMT-0400 (Eastern Daylight Time)","349272","Untrustworthy,Trustworthy","","null","","","","feedback","","<div class='respPicDiv'><img src='img/responseButtonOffersNo0_wht.png' class='respPic'></div><div class='trialDiv'><img src='Fruit/melon.png'><br><font class='baseline'><strong>Melon Millions</strong><p><strong><font class='posOutcome'>You WON</font><p>You bet: 1</strong></font> &nbsp; &nbsp; &nbsp; &nbsp; &nbsp; &nbsp;<font class='posOutcome'>you receive: <strong>2</strong></font></div>","null","6","Melon Millions","Fruit/melon.png","Won","0.65,0.35","11","0.65","97","18","",""
"html-keyboard-response","64","122606","0.0-11.0-1.18","63f7b890b9c9e7b19a2e9281","bdp_rwlrn","Sat Apr 08 2023 11:35:32 GMT-0400 (Eastern Daylight Time)","349272","Untrustworthy,Trustworthy","","594","","","","decision","","<div class='trialDiv'><img src='Fruit/lime.png'><br><font class='baseline'><strong>Limin' Large</strong><p>Choose number of points to bet.</font><div class='respPicDiv'><img src='img/responseButtonOffersNo0L.png' class='respPic'></div></div>","2","7","Limin' Large","Fruit/lime.png","Lost","0.35,0.8","13","0.35","102","19","",""
"html-keyboard-response","65","122859","0.0-11.0-2.18","63f7b890b9c9e7b19a2e9281","bdp_rwlrn","Sat Apr 08 2023 11:35:32 GMT-0400 (Eastern Daylight Time)","349272","Untrustworthy,Trustworthy","","null","","","","decisionFB","","<div class='trialDiv'><img src='Fruit/lime.png'><br><font class='baseline'><strong>Limin' Large</strong><p>Choose number of points to bet.</font><div class='respPicDiv'><img src='img/responseButtonOffersNo0L2.png' class='respPic'></div></div>","null","7","Limin' Large","Fruit/lime.png","Lost","0.35,0.8","13","0.35","100","19","",""
"html-keyboard-response","66","123867","0.0-11.0-3.18","63f7b890b9c9e7b19a2e9281","bdp_rwlrn","Sat Apr 08 2023 11:35:32 GMT-0400 (Eastern Daylight Time)","349272","Untrustworthy,Trustworthy","","null","","","","feedback","","<div class='respPicDiv'><img src='img/responseButtonOffersNo0_wht.png' class='respPic'></div><div class='trialDiv'><img src='Fruit/lime.png'><br><font class='baseline'><strong>Limin' Large</strong><p><strong><font class='negOutcome'>You LOST</font><p>You bet: 2</strong></font> &nbsp; &nbsp; &nbsp; &nbsp; &nbsp; &nbsp;<font class='negOutcome'>You receive: <strong>0</strong></font></div>","null","7","Limin' Large","Fruit/lime.png","Lost","0.35,0.8","13","0.35","100","19","",""
"html-keyboard-response","67","124337","0.0-11.0-1.19","63f7b890b9c9e7b19a2e9281","bdp_rwlrn","Sat Apr 08 2023 11:35:32 GMT-0400 (Eastern Daylight Time)","349272","Untrustworthy,Trustworthy","","468","","","","decision","","<div class='trialDiv'><img src='Fruit/apple.png'><br><font class='baseline'><strong>Awesome Apples</strong><p>Choose number of points to bet.</font><div class='respPicDiv'><img src='img/responseButtonOffersNo0L.png' class='respPic'></div></div>","5","7","Awesome Apples","Fruit/apple.png","Won","0.8,0.35","13","0.8","105","20","",""
"html-keyboard-response","68","124595","0.0-11.0-2.19","63f7b890b9c9e7b19a2e9281","bdp_rwlrn","Sat Apr 08 2023 11:35:32 GMT-0400 (Eastern Daylight Time)","349272","Untrustworthy,Trustworthy","","null","","","","decisionFB","","<div class='trialDiv'><img src='Fruit/apple.png'><br><font class='baseline'><strong>Awesome Apples</strong><p>Choose number of points to bet.</font><div class='respPicDiv'><img src='img/responseButtonOffersNo0L5.png' class='respPic'></div></div>","null","7","Awesome Apples","Fruit/apple.png","Won","0.8,0.35","13","0.8","100","20","",""
"html-keyboard-response","69","125603","0.0-11.0-3.19","63f7b890b9c9e7b19a2e9281","bdp_rwlrn","Sat Apr 08 2023 11:35:32 GMT-0400 (Eastern Daylight Time)","349272","Untrustworthy,Trustworthy","","null","","","","feedback","","<div class='respPicDiv'><img src='img/responseButtonOffersNo0_wht.png' class='respPic'></div><div class='trialDiv'><img src='Fruit/apple.png'><br><font class='baseline'><strong>Awesome Apples</strong><p><strong><font class='posOutcome'>You WON</font><p>You bet: 5</strong></font> &nbsp; &nbsp; &nbsp; &nbsp; &nbsp; &nbsp;<font class='posOutcome'>you receive: <strong>10</strong></font></div>","null","7","Awesome Apples","Fruit/apple.png","Won","0.8,0.35","13","0.8","110","20","",""
"html-keyboard-response","70","126287","0.0-11.0-1.20","63f7b890b9c9e7b19a2e9281","bdp_rwlrn","Sat Apr 08 2023 11:35:32 GMT-0400 (Eastern Daylight Time)","349272","Untrustworthy,Trustworthy","","681","","","","decision","","<div class='trialDiv'><img src='Fruit/melon.png'><br><font class='baseline'><strong>Melon Millions</strong><p>Choose number of points to bet.</font><div class='respPicDiv'><img src='img/responseButtonOffersNo0L.png' class='respPic'></div></div>","1","7","Melon Millions","Fruit/melon.png","Won","0.65,0.35","11","0.65","115","21","",""
"html-keyboard-response","71","126539","0.0-11.0-2.20","63f7b890b9c9e7b19a2e9281","bdp_rwlrn","Sat Apr 08 2023 11:35:32 GMT-0400 (Eastern Daylight Time)","349272","Untrustworthy,Trustworthy","","null","","","","decisionFB","","<div class='trialDiv'><img src='Fruit/melon.png'><br><font class='baseline'><strong>Melon Millions</strong><p>Choose number of points to bet.</font><div class='respPicDiv'><img src='img/responseButtonOffersNo0L1.png' class='respPic'></div></div>","null","7","Melon Millions","Fruit/melon.png","Won","0.65,0.35","11","0.65","114","21","",""
"html-keyboard-response","72","127547","0.0-11.0-3.20","63f7b890b9c9e7b19a2e9281","bdp_rwlrn","Sat Apr 08 2023 11:35:32 GMT-0400 (Eastern Daylight Time)","349272","Untrustworthy,Trustworthy","","null","","","","feedback","","<div class='respPicDiv'><img src='img/responseButtonOffersNo0_wht.png' class='respPic'></div><div class='trialDiv'><img src='Fruit/melon.png'><br><font class='baseline'><strong>Melon Millions</strong><p><strong><font class='posOutcome'>You WON</font><p>You bet: 1</strong></font> &nbsp; &nbsp; &nbsp; &nbsp; &nbsp; &nbsp;<font class='posOutcome'>you receive: <strong>2</strong></font></div>","null","7","Melon Millions","Fruit/melon.png","Won","0.65,0.35","11","0.65","116","21","",""
"html-keyboard-response","73","128477","0.0-11.0-1.21","63f7b890b9c9e7b19a2e9281","bdp_rwlrn","Sat Apr 08 2023 11:35:32 GMT-0400 (Eastern Daylight Time)","349272","Untrustworthy,Trustworthy","","928","","","","decision","","<div class='trialDiv'><img src='Fruit/lime.png'><br><font class='baseline'><strong>Limin' Large</strong><p>Choose number of points to bet.</font><div class='respPicDiv'><img src='img/responseButtonOffersNo0L.png' class='respPic'></div></div>","1","8","Limin' Large","Fruit/lime.png","Won","0.35,0.8","13","0.35","121","22","",""
"html-keyboard-response","74","128731","0.0-11.0-2.21","63f7b890b9c9e7b19a2e9281","bdp_rwlrn","Sat Apr 08 2023 11:35:32 GMT-0400 (Eastern Daylight Time)","349272","Untrustworthy,Trustworthy","","null","","","","decisionFB","","<div class='trialDiv'><img src='Fruit/lime.png'><br><font class='baseline'><strong>Limin' Large</strong><p>Choose number of points to bet.</font><div class='respPicDiv'><img src='img/responseButtonOffersNo0L1.png' class='respPic'></div></div>","null","8","Limin' Large","Fruit/lime.png","Won","0.35,0.8","13","0.35","120","22","",""
"html-keyboard-response","75","129739","0.0-11.0-3.21","63f7b890b9c9e7b19a2e9281","bdp_rwlrn","Sat Apr 08 2023 11:35:32 GMT-0400 (Eastern Daylight Time)","349272","Untrustworthy,Trustworthy","","null","","","","feedback","","<div class='respPicDiv'><img src='img/responseButtonOffersNo0_wht.png' class='respPic'></div><div class='trialDiv'><img src='Fruit/lime.png'><br><font class='baseline'><strong>Limin' Large</strong><p><strong><font class='posOutcome'>You WON</font><p>You bet: 1</strong></font> &nbsp; &nbsp; &nbsp; &nbsp; &nbsp; &nbsp;<font class='posOutcome'>you receive: <strong>2</strong></font></div>","null","8","Limin' Large","Fruit/lime.png","Won","0.35,0.8","13","0.35","122","22","",""
"html-keyboard-response","76","130000","0.0-11.0-1.22","63f7b890b9c9e7b19a2e9281","bdp_rwlrn","Sat Apr 08 2023 11:35:32 GMT-0400 (Eastern Daylight Time)","349272","Untrustworthy,Trustworthy","","258","","","","decision","","<div class='trialDiv'><img src='Fruit/apple.png'><br><font class='baseline'><strong>Awesome Apples</strong><p>Choose number of points to bet.</font><div class='respPicDiv'><img src='img/responseButtonOffersNo0L.png' class='respPic'></div></div>","5","8","Awesome Apples","Fruit/apple.png","Won","0.8,0.35","13","0.8","127","23","",""
"html-keyboard-response","77","130251","0.0-11.0-2.22","63f7b890b9c9e7b19a2e9281","bdp_rwlrn","Sat Apr 08 2023 11:35:32 GMT-0400 (Eastern Daylight Time)","349272","Untrustworthy,Trustworthy","","null","","","","decisionFB","","<div class='trialDiv'><img src='Fruit/apple.png'><br><font class='baseline'><strong>Awesome Apples</strong><p>Choose number of points to bet.</font><div class='respPicDiv'><img src='img/responseButtonOffersNo0L5.png' class='respPic'></div></div>","null","8","Awesome Apples","Fruit/apple.png","Won","0.8,0.35","13","0.8","122","23","",""
"html-keyboard-response","78","131259","0.0-11.0-3.22","63f7b890b9c9e7b19a2e9281","bdp_rwlrn","Sat Apr 08 2023 11:35:32 GMT-0400 (Eastern Daylight Time)","349272","Untrustworthy,Trustworthy","","null","","","","feedback","","<div class='respPicDiv'><img src='img/responseButtonOffersNo0_wht.png' class='respPic'></div><div class='trialDiv'><img src='Fruit/apple.png'><br><font class='baseline'><strong>Awesome Apples</strong><p><strong><font class='posOutcome'>You WON</font><p>You bet: 5</strong></font> &nbsp; &nbsp; &nbsp; &nbsp; &nbsp; &nbsp;<font class='posOutcome'>you receive: <strong>10</strong></font></div>","null","8","Awesome Apples","Fruit/apple.png","Won","0.8,0.35","13","0.8","132","23","",""
"html-keyboard-response","79","131813","0.0-11.0-1.23","63f7b890b9c9e7b19a2e9281","bdp_rwlrn","Sat Apr 08 2023 11:35:32 GMT-0400 (Eastern Daylight Time)","349272","Untrustworthy,Trustworthy","","551","","","","decision","","<div class='trialDiv'><img src='Fruit/melon.png'><br><font class='baseline'><strong>Melon Millions</strong><p>Choose number of points to bet.</font><div class='respPicDiv'><img src='img/responseButtonOffersNo0L.png' class='respPic'></div></div>","1","8","Melon Millions","Fruit/melon.png","Won","0.65,0.35","11","0.65","137","24","",""
"html-keyboard-response","80","132067","0.0-11.0-2.23","63f7b890b9c9e7b19a2e9281","bdp_rwlrn","Sat Apr 08 2023 11:35:32 GMT-0400 (Eastern Daylight Time)","349272","Untrustworthy,Trustworthy","","null","","","","decisionFB","","<div class='trialDiv'><img src='Fruit/melon.png'><br><font class='baseline'><strong>Melon Millions</strong><p>Choose number of points to bet.</font><div class='respPicDiv'><img src='img/responseButtonOffersNo0L1.png' class='respPic'></div></div>","null","8","Melon Millions","Fruit/melon.png","Won","0.65,0.35","11","0.65","136","24","",""
"html-keyboard-response","81","133075","0.0-11.0-3.23","63f7b890b9c9e7b19a2e9281","bdp_rwlrn","Sat Apr 08 2023 11:35:32 GMT-0400 (Eastern Daylight Time)","349272","Untrustworthy,Trustworthy","","null","","","","feedback","","<div class='respPicDiv'><img src='img/responseButtonOffersNo0_wht.png' class='respPic'></div><div class='trialDiv'><img src='Fruit/melon.png'><br><font class='baseline'><strong>Melon Millions</strong><p><strong><font class='posOutcome'>You WON</font><p>You bet: 1</strong></font> &nbsp; &nbsp; &nbsp; &nbsp; &nbsp; &nbsp;<font class='posOutcome'>you receive: <strong>2</strong></font></div>","null","8","Melon Millions","Fruit/melon.png","Won","0.65,0.35","11","0.65","138","24","",""
"html-keyboard-response","82","133576","0.0-11.0-1.24","63f7b890b9c9e7b19a2e9281","bdp_rwlrn","Sat Apr 08 2023 11:35:32 GMT-0400 (Eastern Daylight Time)","349272","Untrustworthy,Trustworthy","","496","","","","decision","","<div class='trialDiv'><img src='Fruit/lime.png'><br><font class='baseline'><strong>Limin' Large</strong><p>Choose number of points to bet.</font><div class='respPicDiv'><img src='img/responseButtonOffersNo0L.png' class='respPic'></div></div>","1","9","Limin' Large","Fruit/lime.png","Won","0.35,0.8","13","0.35","143","25","",""
"html-keyboard-response","83","133827","0.0-11.0-2.24","63f7b890b9c9e7b19a2e9281","bdp_rwlrn","Sat Apr 08 2023 11:35:32 GMT-0400 (Eastern Daylight Time)","349272","Untrustworthy,Trustworthy","","null","","","","decisionFB","","<div class='trialDiv'><img src='Fruit/lime.png'><br><font class='baseline'><strong>Limin' Large</strong><p>Choose number of points to bet.</font><div class='respPicDiv'><img src='img/responseButtonOffersNo0L1.png' class='respPic'></div></div>","null","9","Limin' Large","Fruit/lime.png","Won","0.35,0.8","13","0.35","142","25","",""
"html-keyboard-response","84","134835","0.0-11.0-3.24","63f7b890b9c9e7b19a2e9281","bdp_rwlrn","Sat Apr 08 2023 11:35:32 GMT-0400 (Eastern Daylight Time)","349272","Untrustworthy,Trustworthy","","null","","","","feedback","","<div class='respPicDiv'><img src='img/responseButtonOffersNo0_wht.png' class='respPic'></div><div class='trialDiv'><img src='Fruit/lime.png'><br><font class='baseline'><strong>Limin' Large</strong><p><strong><font class='posOutcome'>You WON</font><p>You bet: 1</strong></font> &nbsp; &nbsp; &nbsp; &nbsp; &nbsp; &nbsp;<font class='posOutcome'>you receive: <strong>2</strong></font></div>","null","9","Limin' Large","Fruit/lime.png","Won","0.35,0.8","13","0.35","144","25","",""
"html-keyboard-response","85","135240","0.0-11.0-1.25","63f7b890b9c9e7b19a2e9281","bdp_rwlrn","Sat Apr 08 2023 11:35:32 GMT-0400 (Eastern Daylight Time)","349272","Untrustworthy,Trustworthy","","402","","","","decision","","<div class='trialDiv'><img src='Fruit/apple.png'><br><font class='baseline'><strong>Awesome Apples</strong><p>Choose number of points to bet.</font><div class='respPicDiv'><img src='img/responseButtonOffersNo0L.png' class='respPic'></div></div>","5","9","Awesome Apples","Fruit/apple.png","Lost","0.8,0.35","13","0.8","149","26","",""
"html-keyboard-response","86","135499","0.0-11.0-2.25","63f7b890b9c9e7b19a2e9281","bdp_rwlrn","Sat Apr 08 2023 11:35:32 GMT-0400 (Eastern Daylight Time)","349272","Untrustworthy,Trustworthy","","null","","","","decisionFB","","<div class='trialDiv'><img src='Fruit/apple.png'><br><font class='baseline'><strong>Awesome Apples</strong><p>Choose number of points to bet.</font><div class='respPicDiv'><img src='img/responseButtonOffersNo0L5.png' class='respPic'></div></div>","null","9","Awesome Apples","Fruit/apple.png","Lost","0.8,0.35","13","0.8","144","26","",""
"html-keyboard-response","87","136507","0.0-11.0-3.25","63f7b890b9c9e7b19a2e9281","bdp_rwlrn","Sat Apr 08 2023 11:35:32 GMT-0400 (Eastern Daylight Time)","349272","Untrustworthy,Trustworthy","","null","","","","feedback","","<div class='respPicDiv'><img src='img/responseButtonOffersNo0_wht.png' class='respPic'></div><div class='trialDiv'><img src='Fruit/apple.png'><br><font class='baseline'><strong>Awesome Apples</strong><p><strong><font class='negOutcome'>You LOST</font><p>You bet: 5</strong></font> &nbsp; &nbsp; &nbsp; &nbsp; &nbsp; &nbsp;<font class='negOutcome'>You receive: <strong>0</strong></font></div>","null","9","Awesome Apples","Fruit/apple.png","Lost","0.8,0.35","13","0.8","144","26","",""
"html-keyboard-response","88","136889","0.0-11.0-1.26","63f7b890b9c9e7b19a2e9281","bdp_rwlrn","Sat Apr 08 2023 11:35:32 GMT-0400 (Eastern Daylight Time)","349272","Untrustworthy,Trustworthy","","380","","","","decision","","<div class='trialDiv'><img src='Fruit/melon.png'><br><font class='baseline'><strong>Melon Millions</strong><p>Choose number of points to bet.</font><div class='respPicDiv'><img src='img/responseButtonOffersNo0L.png' class='respPic'></div></div>","1","9","Melon Millions","Fruit/melon.png","Lost","0.65,0.35","11","0.65","149","27","",""
"html-keyboard-response","89","137147","0.0-11.0-2.26","63f7b890b9c9e7b19a2e9281","bdp_rwlrn","Sat Apr 08 2023 11:35:32 GMT-0400 (Eastern Daylight Time)","349272","Untrustworthy,Trustworthy","","null","","","","decisionFB","","<div class='trialDiv'><img src='Fruit/melon.png'><br><font class='baseline'><strong>Melon Millions</strong><p>Choose number of points to bet.</font><div class='respPicDiv'><img src='img/responseButtonOffersNo0L1.png' class='respPic'></div></div>","null","9","Melon Millions","Fruit/melon.png","Lost","0.65,0.35","11","0.65","148","27","",""
"html-keyboard-response","90","138155","0.0-11.0-3.26","63f7b890b9c9e7b19a2e9281","bdp_rwlrn","Sat Apr 08 2023 11:35:32 GMT-0400 (Eastern Daylight Time)","349272","Untrustworthy,Trustworthy","","null","","","","feedback","","<div class='respPicDiv'><img src='img/responseButtonOffersNo0_wht.png' class='respPic'></div><div class='trialDiv'><img src='Fruit/melon.png'><br><font class='baseline'><strong>Melon Millions</strong><p><strong><font class='negOutcome'>You LOST</font><p>You bet: 1</strong></font> &nbsp; &nbsp; &nbsp; &nbsp; &nbsp; &nbsp;<font class='negOutcome'>You receive: <strong>0</strong></font></div>","null","9","Melon Millions","Fruit/melon.png","Lost","0.65,0.35","11","0.65","148","27","",""
"html-keyboard-response","91","138459","0.0-11.0-1.27","63f7b890b9c9e7b19a2e9281","bdp_rwlrn","Sat Apr 08 2023 11:35:32 GMT-0400 (Eastern Daylight Time)","349272","Untrustworthy,Trustworthy","","300","","","","decision","","<div class='trialDiv'><img src='Fruit/lime.png'><br><font class='baseline'><strong>Limin' Large</strong><p>Choose number of points to bet.</font><div class='respPicDiv'><img src='img/responseButtonOffersNo0L.png' class='respPic'></div></div>","1","10","Limin' Large","Fruit/lime.png","Won","0.35,0.8","13","0.35","153","28","",""
"html-keyboard-response","92","138715","0.0-11.0-2.27","63f7b890b9c9e7b19a2e9281","bdp_rwlrn","Sat Apr 08 2023 11:35:32 GMT-0400 (Eastern Daylight Time)","349272","Untrustworthy,Trustworthy","","null","","","","decisionFB","","<div class='trialDiv'><img src='Fruit/lime.png'><br><font class='baseline'><strong>Limin' Large</strong><p>Choose number of points to bet.</font><div class='respPicDiv'><img src='img/responseButtonOffersNo0L1.png' class='respPic'></div></div>","null","10","Limin' Large","Fruit/lime.png","Won","0.35,0.8","13","0.35","152","28","",""
"html-keyboard-response","93","139724","0.0-11.0-3.27","63f7b890b9c9e7b19a2e9281","bdp_rwlrn","Sat Apr 08 2023 11:35:32 GMT-0400 (Eastern Daylight Time)","349272","Untrustworthy,Trustworthy","","null","","","","feedback","","<div class='respPicDiv'><img src='img/responseButtonOffersNo0_wht.png' class='respPic'></div><div class='trialDiv'><img src='Fruit/lime.png'><br><font class='baseline'><strong>Limin' Large</strong><p><strong><font class='posOutcome'>You WON</font><p>You bet: 1</strong></font> &nbsp; &nbsp; &nbsp; &nbsp; &nbsp; &nbsp;<font class='posOutcome'>you receive: <strong>2</strong></font></div>","null","10","Limin' Large","Fruit/lime.png","Won","0.35,0.8","13","0.35","154","28","",""
"html-keyboard-response","94","140576","0.0-11.0-1.28","63f7b890b9c9e7b19a2e9281","bdp_rwlrn","Sat Apr 08 2023 11:35:32 GMT-0400 (Eastern Daylight Time)","349272","Untrustworthy,Trustworthy","","849","","","","decision","","<div class='trialDiv'><img src='Fruit/melon.png'><br><font class='baseline'><strong>Melon Millions</strong><p>Choose number of points to bet.</font><div class='respPicDiv'><img src='img/responseButtonOffersNo0L.png' class='respPic'></div></div>","1","10","Melon Millions","Fruit/melon.png","Lost","0.65,0.35","11","0.65","159","29","",""
"html-keyboard-response","95","140827","0.0-11.0-2.28","63f7b890b9c9e7b19a2e9281","bdp_rwlrn","Sat Apr 08 2023 11:35:32 GMT-0400 (Eastern Daylight Time)","349272","Untrustworthy,Trustworthy","","null","","","","decisionFB","","<div class='trialDiv'><img src='Fruit/melon.png'><br><font class='baseline'><strong>Melon Millions</strong><p>Choose number of points to bet.</font><div class='respPicDiv'><img src='img/responseButtonOffersNo0L1.png' class='respPic'></div></div>","null","10","Melon Millions","Fruit/melon.png","Lost","0.65,0.35","11","0.65","158","29","",""
"html-keyboard-response","96","141835","0.0-11.0-3.28","63f7b890b9c9e7b19a2e9281","bdp_rwlrn","Sat Apr 08 2023 11:35:32 GMT-0400 (Eastern Daylight Time)","349272","Untrustworthy,Trustworthy","","null","","","","feedback","","<div class='respPicDiv'><img src='img/responseButtonOffersNo0_wht.png' class='respPic'></div><div class='trialDiv'><img src='Fruit/melon.png'><br><font class='baseline'><strong>Melon Millions</strong><p><strong><font class='negOutcome'>You LOST</font><p>You bet: 1</strong></font> &nbsp; &nbsp; &nbsp; &nbsp; &nbsp; &nbsp;<font class='negOutcome'>You receive: <strong>0</strong></font></div>","null","10","Melon Millions","Fruit/melon.png","Lost","0.65,0.35","11","0.65","158","29","",""
"html-keyboard-response","97","142292","0.0-11.0-1.29","63f7b890b9c9e7b19a2e9281","bdp_rwlrn","Sat Apr 08 2023 11:35:32 GMT-0400 (Eastern Daylight Time)","349272","Untrustworthy,Trustworthy","","454","","","","decision","","<div class='trialDiv'><img src='Fruit/apple.png'><br><font class='baseline'><strong>Awesome Apples</strong><p>Choose number of points to bet.</font><div class='respPicDiv'><img src='img/responseButtonOffersNo0L.png' class='respPic'></div></div>","5","10","Awesome Apples","Fruit/apple.png","Won","0.8,0.35","13","0.8","163","30","",""
"html-keyboard-response","98","142547","0.0-11.0-2.29","63f7b890b9c9e7b19a2e9281","bdp_rwlrn","Sat Apr 08 2023 11:35:32 GMT-0400 (Eastern Daylight Time)","349272","Untrustworthy,Trustworthy","","null","","","","decisionFB","","<div class='trialDiv'><img src='Fruit/apple.png'><br><font class='baseline'><strong>Awesome Apples</strong><p>Choose number of points to bet.</font><div class='respPicDiv'><img src='img/responseButtonOffersNo0L5.png' class='respPic'></div></div>","null","10","Awesome Apples","Fruit/apple.png","Won","0.8,0.35","13","0.8","158","30","",""
"html-keyboard-response","99","143564","0.0-11.0-3.29","63f7b890b9c9e7b19a2e9281","bdp_rwlrn","Sat Apr 08 2023 11:35:32 GMT-0400 (Eastern Daylight Time)","349272","Untrustworthy,Trustworthy","","null","","","","feedback","","<div class='respPicDiv'><img src='img/responseButtonOffersNo0_wht.png' class='respPic'></div><div class='trialDiv'><img src='Fruit/apple.png'><br><font class='baseline'><strong>Awesome Apples</strong><p><strong><font class='posOutcome'>You WON</font><p>You bet: 5</strong></font> &nbsp; &nbsp; &nbsp; &nbsp; &nbsp; &nbsp;<font class='posOutcome'>you receive: <strong>10</strong></font></div>","null","10","Awesome Apples","Fruit/apple.png","Won","0.8,0.35","13","0.8","168","30","",""
"html-keyboard-response","100","144057","0.0-11.0-1.30","63f7b890b9c9e7b19a2e9281","bdp_rwlrn","Sat Apr 08 2023 11:35:32 GMT-0400 (Eastern Daylight Time)","349272","Untrustworthy,Trustworthy","","492","","","","decision","","<div class='trialDiv'><img src='Fruit/melon.png'><br><font class='baseline'><strong>Melon Millions</strong><p>Choose number of points to bet.</font><div class='respPicDiv'><img src='img/responseButtonOffersNo0L.png' class='respPic'></div></div>","2","11","Melon Millions","Fruit/melon.png","Lost","0.65,0.35","11","0.65","173","31","",""
"html-keyboard-response","101","144315","0.0-11.0-2.30","63f7b890b9c9e7b19a2e9281","bdp_rwlrn","Sat Apr 08 2023 11:35:32 GMT-0400 (Eastern Daylight Time)","349272","Untrustworthy,Trustworthy","","null","","","","decisionFB","","<div class='trialDiv'><img src='Fruit/melon.png'><br><font class='baseline'><strong>Melon Millions</strong><p>Choose number of points to bet.</font><div class='respPicDiv'><img src='img/responseButtonOffersNo0L2.png' class='respPic'></div></div>","null","11","Melon Millions","Fruit/melon.png","Lost","0.65,0.35","11","0.65","171","31","",""
"html-keyboard-response","102","145323","0.0-11.0-3.30","63f7b890b9c9e7b19a2e9281","bdp_rwlrn","Sat Apr 08 2023 11:35:32 GMT-0400 (Eastern Daylight Time)","349272","Untrustworthy,Trustworthy","","null","","","","feedback","","<div class='respPicDiv'><img src='img/responseButtonOffersNo0_wht.png' class='respPic'></div><div class='trialDiv'><img src='Fruit/melon.png'><br><font class='baseline'><strong>Melon Millions</strong><p><strong><font class='negOutcome'>You LOST</font><p>You bet: 2</strong></font> &nbsp; &nbsp; &nbsp; &nbsp; &nbsp; &nbsp;<font class='negOutcome'>You receive: <strong>0</strong></font></div>","null","11","Melon Millions","Fruit/melon.png","Lost","0.65,0.35","11","0.65","171","31","",""
"html-keyboard-response","103","146051","0.0-11.0-1.31","63f7b890b9c9e7b19a2e9281","bdp_rwlrn","Sat Apr 08 2023 11:35:32 GMT-0400 (Eastern Daylight Time)","349272","Untrustworthy,Trustworthy","","724","","","","decision","","<div class='trialDiv'><img src='Fruit/apple.png'><br><font class='baseline'><strong>Awesome Apples</strong><p>Choose number of points to bet.</font><div class='respPicDiv'><img src='img/responseButtonOffersNo0L.png' class='respPic'></div></div>","5","11","Awesome Apples","Fruit/apple.png","Lost","0.8,0.35","13","0.8","176","32","",""
"html-keyboard-response","104","146307","0.0-11.0-2.31","63f7b890b9c9e7b19a2e9281","bdp_rwlrn","Sat Apr 08 2023 11:35:32 GMT-0400 (Eastern Daylight Time)","349272","Untrustworthy,Trustworthy","","null","","","","decisionFB","","<div class='trialDiv'><img src='Fruit/apple.png'><br><font class='baseline'><strong>Awesome Apples</strong><p>Choose number of points to bet.</font><div class='respPicDiv'><img src='img/responseButtonOffersNo0L5.png' class='respPic'></div></div>","null","11","Awesome Apples","Fruit/apple.png","Lost","0.8,0.35","13","0.8","171","32","",""
"html-keyboard-response","105","147315","0.0-11.0-3.31","63f7b890b9c9e7b19a2e9281","bdp_rwlrn","Sat Apr 08 2023 11:35:32 GMT-0400 (Eastern Daylight Time)","349272","Untrustworthy,Trustworthy","","null","","","","feedback","","<div class='respPicDiv'><img src='img/responseButtonOffersNo0_wht.png' class='respPic'></div><div class='trialDiv'><img src='Fruit/apple.png'><br><font class='baseline'><strong>Awesome Apples</strong><p><strong><font class='negOutcome'>You LOST</font><p>You bet: 5</strong></font> &nbsp; &nbsp; &nbsp; &nbsp; &nbsp; &nbsp;<font class='negOutcome'>You receive: <strong>0</strong></font></div>","null","11","Awesome Apples","Fruit/apple.png","Lost","0.8,0.35","13","0.8","171","32","",""
"html-keyboard-response","106","147833","0.0-11.0-1.32","63f7b890b9c9e7b19a2e9281","bdp_rwlrn","Sat Apr 08 2023 11:35:32 GMT-0400 (Eastern Daylight Time)","349272","Untrustworthy,Trustworthy","","516","","","","decision","","<div class='trialDiv'><img src='Fruit/lime.png'><br><font class='baseline'><strong>Limin' Large</strong><p>Choose number of points to bet.</font><div class='respPicDiv'><img src='img/responseButtonOffersNo0L.png' class='respPic'></div></div>","2","11","Limin' Large","Fruit/lime.png","Won","0.35,0.8","13","0.35","176","33","",""
"html-keyboard-response","107","148091","0.0-11.0-2.32","63f7b890b9c9e7b19a2e9281","bdp_rwlrn","Sat Apr 08 2023 11:35:32 GMT-0400 (Eastern Daylight Time)","349272","Untrustworthy,Trustworthy","","null","","","","decisionFB","","<div class='trialDiv'><img src='Fruit/lime.png'><br><font class='baseline'><strong>Limin' Large</strong><p>Choose number of points to bet.</font><div class='respPicDiv'><img src='img/responseButtonOffersNo0L2.png' class='respPic'></div></div>","null","11","Limin' Large","Fruit/lime.png","Won","0.35,0.8","13","0.35","174","33","",""
"html-keyboard-response","108","149099","0.0-11.0-3.32","63f7b890b9c9e7b19a2e9281","bdp_rwlrn","Sat Apr 08 2023 11:35:32 GMT-0400 (Eastern Daylight Time)","349272","Untrustworthy,Trustworthy","","null","","","","feedback","","<div class='respPicDiv'><img src='img/responseButtonOffersNo0_wht.png' class='respPic'></div><div class='trialDiv'><img src='Fruit/lime.png'><br><font class='baseline'><strong>Limin' Large</strong><p><strong><font class='posOutcome'>You WON</font><p>You bet: 2</strong></font> &nbsp; &nbsp; &nbsp; &nbsp; &nbsp; &nbsp;<font class='posOutcome'>you receive: <strong>4</strong></font></div>","null","11","Limin' Large","Fruit/lime.png","Won","0.35,0.8","13","0.35","178","33","",""
"html-keyboard-response","109","149478","0.0-11.0-1.33","63f7b890b9c9e7b19a2e9281","bdp_rwlrn","Sat Apr 08 2023 11:35:32 GMT-0400 (Eastern Daylight Time)","349272","Untrustworthy,Trustworthy","","378","","","","decision","","<div class='trialDiv'><img src='Fruit/apple.png'><br><font class='baseline'><strong>Awesome Apples</strong><p>Choose number of points to bet.</font><div class='respPicDiv'><img src='img/responseButtonOffersNo0L.png' class='respPic'></div></div>","5","12","Awesome Apples","Fruit/apple.png","Lost","0.8,0.35","13","0.8","183","34","",""
"html-keyboard-response","110","149731","0.0-11.0-2.33","63f7b890b9c9e7b19a2e9281","bdp_rwlrn","Sat Apr 08 2023 11:35:32 GMT-0400 (Eastern Daylight Time)","349272","Untrustworthy,Trustworthy","","null","","","","decisionFB","","<div class='trialDiv'><img src='Fruit/apple.png'><br><font class='baseline'><strong>Awesome Apples</strong><p>Choose number of points to bet.</font><div class='respPicDiv'><img src='img/responseButtonOffersNo0L5.png' class='respPic'></div></div>","null","12","Awesome Apples","Fruit/apple.png","Lost","0.8,0.35","13","0.8","178","34","",""
"html-keyboard-response","111","150739","0.0-11.0-3.33","63f7b890b9c9e7b19a2e9281","bdp_rwlrn","Sat Apr 08 2023 11:35:32 GMT-0400 (Eastern Daylight Time)","349272","Untrustworthy,Trustworthy","","null","","","","feedback","","<div class='respPicDiv'><img src='img/responseButtonOffersNo0_wht.png' class='respPic'></div><div class='trialDiv'><img src='Fruit/apple.png'><br><font class='baseline'><strong>Awesome Apples</strong><p><strong><font class='negOutcome'>You LOST</font><p>You bet: 5</strong></font> &nbsp; &nbsp; &nbsp; &nbsp; &nbsp; &nbsp;<font class='negOutcome'>You receive: <strong>0</strong></font></div>","null","12","Awesome Apples","Fruit/apple.png","Lost","0.8,0.35","13","0.8","178","34","",""
"html-keyboard-response","112","151148","0.0-11.0-1.34","63f7b890b9c9e7b19a2e9281","bdp_rwlrn","Sat Apr 08 2023 11:35:32 GMT-0400 (Eastern Daylight Time)","349272","Untrustworthy,Trustworthy","","407","","","","decision","","<div class='trialDiv'><img src='Fruit/melon.png'><br><font class='baseline'><strong>Melon Millions</strong><p>Choose number of points to bet.</font><div class='respPicDiv'><img src='img/responseButtonOffersNo0L.png' class='respPic'></div></div>","2","12","Melon Millions","Fruit/melon.png","Lost","0.65,0.35","11","0.65","183","35","",""
"html-keyboard-response","113","151403","0.0-11.0-2.34","63f7b890b9c9e7b19a2e9281","bdp_rwlrn","Sat Apr 08 2023 11:35:32 GMT-0400 (Eastern Daylight Time)","349272","Untrustworthy,Trustworthy","","null","","","","decisionFB","","<div class='trialDiv'><img src='Fruit/melon.png'><br><font class='baseline'><strong>Melon Millions</strong><p>Choose number of points to bet.</font><div class='respPicDiv'><img src='img/responseButtonOffersNo0L2.png' class='respPic'></div></div>","null","12","Melon Millions","Fruit/melon.png","Lost","0.65,0.35","11","0.65","181","35","",""
"html-keyboard-response","114","152410","0.0-11.0-3.34","63f7b890b9c9e7b19a2e9281","bdp_rwlrn","Sat Apr 08 2023 11:35:32 GMT-0400 (Eastern Daylight Time)","349272","Untrustworthy,Trustworthy","","null","","","","feedback","","<div class='respPicDiv'><img src='img/responseButtonOffersNo0_wht.png' class='respPic'></div><div class='trialDiv'><img src='Fruit/melon.png'><br><font class='baseline'><strong>Melon Millions</strong><p><strong><font class='negOutcome'>You LOST</font><p>You bet: 2</strong></font> &nbsp; &nbsp; &nbsp; &nbsp; &nbsp; &nbsp;<font class='negOutcome'>You receive: <strong>0</strong></font></div>","null","12","Melon Millions","Fruit/melon.png","Lost","0.65,0.35","11","0.65","181","35","",""
"html-keyboard-response","115","152918","0.0-11.0-1.35","63f7b890b9c9e7b19a2e9281","bdp_rwlrn","Sat Apr 08 2023 11:35:32 GMT-0400 (Eastern Daylight Time)","349272","Untrustworthy,Trustworthy","","507","","","","decision","","<div class='trialDiv'><img src='Fruit/lime.png'><br><font class='baseline'><strong>Limin' Large</strong><p>Choose number of points to bet.</font><div class='respPicDiv'><img src='img/responseButtonOffersNo0L.png' class='respPic'></div></div>","1","12","Limin' Large","Fruit/lime.png","Lost","0.35,0.8","13","0.35","186","36","",""
"html-keyboard-response","116","153170","0.0-11.0-2.35","63f7b890b9c9e7b19a2e9281","bdp_rwlrn","Sat Apr 08 2023 11:35:32 GMT-0400 (Eastern Daylight Time)","349272","Untrustworthy,Trustworthy","","null","","","","decisionFB","","<div class='trialDiv'><img src='Fruit/lime.png'><br><font class='baseline'><strong>Limin' Large</strong><p>Choose number of points to bet.</font><div class='respPicDiv'><img src='img/responseButtonOffersNo0L1.png' class='respPic'></div></div>","null","12","Limin' Large","Fruit/lime.png","Lost","0.35,0.8","13","0.35","185","36","",""
"html-keyboard-response","117","154178","0.0-11.0-3.35","63f7b890b9c9e7b19a2e9281","bdp_rwlrn","Sat Apr 08 2023 11:35:32 GMT-0400 (Eastern Daylight Time)","349272","Untrustworthy,Trustworthy","","null","","","","feedback","","<div class='respPicDiv'><img src='img/responseButtonOffersNo0_wht.png' class='respPic'></div><div class='trialDiv'><img src='Fruit/lime.png'><br><font class='baseline'><strong>Limin' Large</strong><p><strong><font class='negOutcome'>You LOST</font><p>You bet: 1</strong></font> &nbsp; &nbsp; &nbsp; &nbsp; &nbsp; &nbsp;<font class='negOutcome'>You receive: <strong>0</strong></font></div>","null","12","Limin' Large","Fruit/lime.png","Lost","0.35,0.8","13","0.35","185","36","",""
"html-keyboard-response","118","154722","0.0-11.0-1.36","63f7b890b9c9e7b19a2e9281","bdp_rwlrn","Sat Apr 08 2023 11:35:32 GMT-0400 (Eastern Daylight Time)","349272","Untrustworthy,Trustworthy","","542","","","","decision","","<div class='trialDiv'><img src='Fruit/apple.png'><br><font class='baseline'><strong>Awesome Apples</strong><p>Choose number of points to bet.</font><div class='respPicDiv'><img src='img/responseButtonOffersNo0L.png' class='respPic'></div></div>","5","13","Awesome Apples","Fruit/apple.png","Won","0.8,0.35","13","0.8","190","37","",""
"html-keyboard-response","119","154978","0.0-11.0-2.36","63f7b890b9c9e7b19a2e9281","bdp_rwlrn","Sat Apr 08 2023 11:35:32 GMT-0400 (Eastern Daylight Time)","349272","Untrustworthy,Trustworthy","","null","","","","decisionFB","","<div class='trialDiv'><img src='Fruit/apple.png'><br><font class='baseline'><strong>Awesome Apples</strong><p>Choose number of points to bet.</font><div class='respPicDiv'><img src='img/responseButtonOffersNo0L5.png' class='respPic'></div></div>","null","13","Awesome Apples","Fruit/apple.png","Won","0.8,0.35","13","0.8","185","37","",""
"html-keyboard-response","120","155986","0.0-11.0-3.36","63f7b890b9c9e7b19a2e9281","bdp_rwlrn","Sat Apr 08 2023 11:35:32 GMT-0400 (Eastern Daylight Time)","349272","Untrustworthy,Trustworthy","","null","","","","feedback","","<div class='respPicDiv'><img src='img/responseButtonOffersNo0_wht.png' class='respPic'></div><div class='trialDiv'><img src='Fruit/apple.png'><br><font class='baseline'><strong>Awesome Apples</strong><p><strong><font class='posOutcome'>You WON</font><p>You bet: 5</strong></font> &nbsp; &nbsp; &nbsp; &nbsp; &nbsp; &nbsp;<font class='posOutcome'>you receive: <strong>10</strong></font></div>","null","13","Awesome Apples","Fruit/apple.png","Won","0.8,0.35","13","0.8","195","37","",""
"html-keyboard-response","121","156565","0.0-11.0-1.37","63f7b890b9c9e7b19a2e9281","bdp_rwlrn","Sat Apr 08 2023 11:35:32 GMT-0400 (Eastern Daylight Time)","349272","Untrustworthy,Trustworthy","","576","","","","decision","","<div class='trialDiv'><img src='Fruit/lime.png'><br><font class='baseline'><strong>Limin' Large</strong><p>Choose number of points to bet.</font><div class='respPicDiv'><img src='img/responseButtonOffersNo0L.png' class='respPic'></div></div>","1","13","Limin' Large","Fruit/lime.png","Won","0.35,0.8","13","0.35","200","38","",""
"html-keyboard-response","122","156818","0.0-11.0-2.37","63f7b890b9c9e7b19a2e9281","bdp_rwlrn","Sat Apr 08 2023 11:35:32 GMT-0400 (Eastern Daylight Time)","349272","Untrustworthy,Trustworthy","","null","","","","decisionFB","","<div class='trialDiv'><img src='Fruit/lime.png'><br><font class='baseline'><strong>Limin' Large</strong><p>Choose number of points to bet.</font><div class='respPicDiv'><img src='img/responseButtonOffersNo0L1.png' class='respPic'></div></div>","null","13","Limin' Large","Fruit/lime.png","Won","0.35,0.8","13","0.35","199","38","",""
"html-keyboard-response","123","157832","0.0-11.0-3.37","63f7b890b9c9e7b19a2e9281","bdp_rwlrn","Sat Apr 08 2023 11:35:32 GMT-0400 (Eastern Daylight Time)","349272","Untrustworthy,Trustworthy","","null","","","","feedback","","<div class='respPicDiv'><img src='img/responseButtonOffersNo0_wht.png' class='respPic'></div><div class='trialDiv'><img src='Fruit/lime.png'><br><font class='baseline'><strong>Limin' Large</strong><p><strong><font class='posOutcome'>You WON</font><p>You bet: 1</strong></font> &nbsp; &nbsp; &nbsp; &nbsp; &nbsp; &nbsp;<font class='posOutcome'>you receive: <strong>2</strong></font></div>","null","13","Limin' Large","Fruit/lime.png","Won","0.35,0.8","13","0.35","201","38","",""
"html-keyboard-response","124","158590","0.0-11.0-1.38","63f7b890b9c9e7b19a2e9281","bdp_rwlrn","Sat Apr 08 2023 11:35:32 GMT-0400 (Eastern Daylight Time)","349272","Untrustworthy,Trustworthy","","756","","","","decision","","<div class='trialDiv'><img src='Fruit/melon.png'><br><font class='baseline'><strong>Melon Millions</strong><p>Choose number of points to bet.</font><div class='respPicDiv'><img src='img/responseButtonOffersNo0L.png' class='respPic'></div></div>","1","13","Melon Millions","Fruit/melon.png","Lost","0.65,0.35","11","0.65","206","39","",""
"html-keyboard-response","125","158842","0.0-11.0-2.38","63f7b890b9c9e7b19a2e9281","bdp_rwlrn","Sat Apr 08 2023 11:35:32 GMT-0400 (Eastern Daylight Time)","349272","Untrustworthy,Trustworthy","","null","","","","decisionFB","","<div class='trialDiv'><img src='Fruit/melon.png'><br><font class='baseline'><strong>Melon Millions</strong><p>Choose number of points to bet.</font><div class='respPicDiv'><img src='img/responseButtonOffersNo0L1.png' class='respPic'></div></div>","null","13","Melon Millions","Fruit/melon.png","Lost","0.65,0.35","11","0.65","205","39","",""
"html-keyboard-response","126","159850","0.0-11.0-3.38","63f7b890b9c9e7b19a2e9281","bdp_rwlrn","Sat Apr 08 2023 11:35:32 GMT-0400 (Eastern Daylight Time)","349272","Untrustworthy,Trustworthy","","null","","","","feedback","","<div class='respPicDiv'><img src='img/responseButtonOffersNo0_wht.png' class='respPic'></div><div class='trialDiv'><img src='Fruit/melon.png'><br><font class='baseline'><strong>Melon Millions</strong><p><strong><font class='negOutcome'>You LOST</font><p>You bet: 1</strong></font> &nbsp; &nbsp; &nbsp; &nbsp; &nbsp; &nbsp;<font class='negOutcome'>You receive: <strong>0</strong></font></div>","null","13","Melon Millions","Fruit/melon.png","Lost","0.65,0.35","11","0.65","205","39","",""
"html-keyboard-response","127","160274","0.0-11.0-1.39","63f7b890b9c9e7b19a2e9281","bdp_rwlrn","Sat Apr 08 2023 11:35:32 GMT-0400 (Eastern Daylight Time)","349272","Untrustworthy,Trustworthy","","421","","","","decision","","<div class='trialDiv'><img src='Fruit/apple.png'><br><font class='baseline'><strong>Awesome Apples</strong><p>Choose number of points to bet.</font><div class='respPicDiv'><img src='img/responseButtonOffersNo0L.png' class='respPic'></div></div>","5","14","Awesome Apples","Fruit/apple.png","Lost","0.8,0.35","13","0.8","210","40","",""
"html-keyboard-response","128","160530","0.0-11.0-2.39","63f7b890b9c9e7b19a2e9281","bdp_rwlrn","Sat Apr 08 2023 11:35:32 GMT-0400 (Eastern Daylight Time)","349272","Untrustworthy,Trustworthy","","null","","","","decisionFB","","<div class='trialDiv'><img src='Fruit/apple.png'><br><font class='baseline'><strong>Awesome Apples</strong><p>Choose number of points to bet.</font><div class='respPicDiv'><img src='img/responseButtonOffersNo0L5.png' class='respPic'></div></div>","null","14","Awesome Apples","Fruit/apple.png","Lost","0.8,0.35","13","0.8","205","40","",""
"html-keyboard-response","129","161538","0.0-11.0-3.39","63f7b890b9c9e7b19a2e9281","bdp_rwlrn","Sat Apr 08 2023 11:35:32 GMT-0400 (Eastern Daylight Time)","349272","Untrustworthy,Trustworthy","","null","","","","feedback","","<div class='respPicDiv'><img src='img/responseButtonOffersNo0_wht.png' class='respPic'></div><div class='trialDiv'><img src='Fruit/apple.png'><br><font class='baseline'><strong>Awesome Apples</strong><p><strong><font class='negOutcome'>You LOST</font><p>You bet: 5</strong></font> &nbsp; &nbsp; &nbsp; &nbsp; &nbsp; &nbsp;<font class='negOutcome'>You receive: <strong>0</strong></font></div>","null","14","Awesome Apples","Fruit/apple.png","Lost","0.8,0.35","13","0.8","205","40","",""
"html-keyboard-response","130","161845","0.0-11.0-1.40","63f7b890b9c9e7b19a2e9281","bdp_rwlrn","Sat Apr 08 2023 11:35:32 GMT-0400 (Eastern Daylight Time)","349272","Untrustworthy,Trustworthy","","305","","","","decision","","<div class='trialDiv'><img src='Fruit/lime.png'><br><font class='baseline'><strong>Limin' Large</strong><p>Choose number of points to bet.</font><div class='respPicDiv'><img src='img/responseButtonOffersNo0L.png' class='respPic'></div></div>","1","14","Limin' Large","Fruit/lime.png","Won","0.35,0.8","13","0.35","210","41","",""
"html-keyboard-response","131","162098","0.0-11.0-2.40","63f7b890b9c9e7b19a2e9281","bdp_rwlrn","Sat Apr 08 2023 11:35:32 GMT-0400 (Eastern Daylight Time)","349272","Untrustworthy,Trustworthy","","null","","","","decisionFB","","<div class='trialDiv'><img src='Fruit/lime.png'><br><font class='baseline'><strong>Limin' Large</strong><p>Choose number of points to bet.</font><div class='respPicDiv'><img src='img/responseButtonOffersNo0L1.png' class='respPic'></div></div>","null","14","Limin' Large","Fruit/lime.png","Won","0.35,0.8","13","0.35","209","41","",""
"html-keyboard-response","132","163125","0.0-11.0-3.40","63f7b890b9c9e7b19a2e9281","bdp_rwlrn","Sat Apr 08 2023 11:35:32 GMT-0400 (Eastern Daylight Time)","349272","Untrustworthy,Trustworthy","","null","","","","feedback","","<div class='respPicDiv'><img src='img/responseButtonOffersNo0_wht.png' class='respPic'></div><div class='trialDiv'><img src='Fruit/lime.png'><br><font class='baseline'><strong>Limin' Large</strong><p><strong><font class='posOutcome'>You WON</font><p>You bet: 1</strong></font> &nbsp; &nbsp; &nbsp; &nbsp; &nbsp; &nbsp;<font class='posOutcome'>you receive: <strong>2</strong></font></div>","null","14","Limin' Large","Fruit/lime.png","Won","0.35,0.8","13","0.35","211","41","",""
"html-keyboard-response","133","163830","0.0-11.0-1.41","63f7b890b9c9e7b19a2e9281","bdp_rwlrn","Sat Apr 08 2023 11:35:32 GMT-0400 (Eastern Daylight Time)","349272","Untrustworthy,Trustworthy","","704","","","","decision","","<div class='trialDiv'><img src='Fruit/melon.png'><br><font class='baseline'><strong>Melon Millions</strong><p>Choose number of points to bet.</font><div class='respPicDiv'><img src='img/responseButtonOffersNo0L.png' class='respPic'></div></div>","1","14","Melon Millions","Fruit/melon.png","Lost","0.65,0.35","11","0.65","216","42","",""
"html-keyboard-response","134","164082","0.0-11.0-2.41","63f7b890b9c9e7b19a2e9281","bdp_rwlrn","Sat Apr 08 2023 11:35:32 GMT-0400 (Eastern Daylight Time)","349272","Untrustworthy,Trustworthy","","null","","","","decisionFB","","<div class='trialDiv'><img src='Fruit/melon.png'><br><font class='baseline'><strong>Melon Millions</strong><p>Choose number of points to bet.</font><div class='respPicDiv'><img src='img/responseButtonOffersNo0L1.png' class='respPic'></div></div>","null","14","Melon Millions","Fruit/melon.png","Lost","0.65,0.35","11","0.65","215","42","",""
"html-keyboard-response","135","165091","0.0-11.0-3.41","63f7b890b9c9e7b19a2e9281","bdp_rwlrn","Sat Apr 08 2023 11:35:32 GMT-0400 (Eastern Daylight Time)","349272","Untrustworthy,Trustworthy","","null","","","","feedback","","<div class='respPicDiv'><img src='img/responseButtonOffersNo0_wht.png' class='respPic'></div><div class='trialDiv'><img src='Fruit/melon.png'><br><font class='baseline'><strong>Melon Millions</strong><p><strong><font class='negOutcome'>You LOST</font><p>You bet: 1</strong></font> &nbsp; &nbsp; &nbsp; &nbsp; &nbsp; &nbsp;<font class='negOutcome'>You receive: <strong>0</strong></font></div>","null","14","Melon Millions","Fruit/melon.png","Lost","0.65,0.35","11","0.65","215","42","",""
"html-keyboard-response","136","165586","0.0-11.0-1.42","63f7b890b9c9e7b19a2e9281","bdp_rwlrn","Sat Apr 08 2023 11:35:32 GMT-0400 (Eastern Daylight Time)","349272","Untrustworthy,Trustworthy","","493","","","","decision","","<div class='trialDiv'><img src='Fruit/lime.png'><br><font class='baseline'><strong>Limin' Large</strong><p>Choose number of points to bet.</font><div class='respPicDiv'><img src='img/responseButtonOffersNo0L.png' class='respPic'></div></div>","1","15","Limin' Large","Fruit/lime.png","Won","0.35,0.8","13","0.35","220","43","",""
"html-keyboard-response","137","165864","0.0-11.0-2.42","63f7b890b9c9e7b19a2e9281","bdp_rwlrn","Sat Apr 08 2023 11:35:32 GMT-0400 (Eastern Daylight Time)","349272","Untrustworthy,Trustworthy","","null","","","","decisionFB","","<div class='trialDiv'><img src='Fruit/lime.png'><br><font class='baseline'><strong>Limin' Large</strong><p>Choose number of points to bet.</font><div class='respPicDiv'><img src='img/responseButtonOffersNo0L1.png' class='respPic'></div></div>","null","15","Limin' Large","Fruit/lime.png","Won","0.35,0.8","13","0.35","219","43","",""
"html-keyboard-response","138","166868","0.0-11.0-3.42","63f7b890b9c9e7b19a2e9281","bdp_rwlrn","Sat Apr 08 2023 11:35:32 GMT-0400 (Eastern Daylight Time)","349272","Untrustworthy,Trustworthy","","null","","","","feedback","","<div class='respPicDiv'><img src='img/responseButtonOffersNo0_wht.png' class='respPic'></div><div class='trialDiv'><img src='Fruit/lime.png'><br><font class='baseline'><strong>Limin' Large</strong><p><strong><font class='posOutcome'>You WON</font><p>You bet: 1</strong></font> &nbsp; &nbsp; &nbsp; &nbsp; &nbsp; &nbsp;<font class='posOutcome'>you receive: <strong>2</strong></font></div>","null","15","Limin' Large","Fruit/lime.png","Won","0.35,0.8","13","0.35","221","43","",""
"html-keyboard-response","139","167394","0.0-11.0-1.43","63f7b890b9c9e7b19a2e9281","bdp_rwlrn","Sat Apr 08 2023 11:35:32 GMT-0400 (Eastern Daylight Time)","349272","Untrustworthy,Trustworthy","","524","","","","decision","","<div class='trialDiv'><img src='Fruit/apple.png'><br><font class='baseline'><strong>Awesome Apples</strong><p>Choose number of points to bet.</font><div class='respPicDiv'><img src='img/responseButtonOffersNo0L.png' class='respPic'></div></div>","5","15","Awesome Apples","Fruit/apple.png","Lost","0.8,0.35","13","0.8","226","44","",""
"html-keyboard-response","140","167650","0.0-11.0-2.43","63f7b890b9c9e7b19a2e9281","bdp_rwlrn","Sat Apr 08 2023 11:35:32 GMT-0400 (Eastern Daylight Time)","349272","Untrustworthy,Trustworthy","","null","","","","decisionFB","","<div class='trialDiv'><img src='Fruit/apple.png'><br><font class='baseline'><strong>Awesome Apples</strong><p>Choose number of points to bet.</font><div class='respPicDiv'><img src='img/responseButtonOffersNo0L5.png' class='respPic'></div></div>","null","15","Awesome Apples","Fruit/apple.png","Lost","0.8,0.35","13","0.8","221","44","",""
"html-keyboard-response","141","168659","0.0-11.0-3.43","63f7b890b9c9e7b19a2e9281","bdp_rwlrn","Sat Apr 08 2023 11:35:32 GMT-0400 (Eastern Daylight Time)","349272","Untrustworthy,Trustworthy","","null","","","","feedback","","<div class='respPicDiv'><img src='img/responseButtonOffersNo0_wht.png' class='respPic'></div><div class='trialDiv'><img src='Fruit/apple.png'><br><font class='baseline'><strong>Awesome Apples</strong><p><strong><font class='negOutcome'>You LOST</font><p>You bet: 5</strong></font> &nbsp; &nbsp; &nbsp; &nbsp; &nbsp; &nbsp;<font class='negOutcome'>You receive: <strong>0</strong></font></div>","null","15","Awesome Apples","Fruit/apple.png","Lost","0.8,0.35","13","0.8","221","44","",""
"html-keyboard-response","142","168890","0.0-11.0-1.44","63f7b890b9c9e7b19a2e9281","bdp_rwlrn","Sat Apr 08 2023 11:35:32 GMT-0400 (Eastern Daylight Time)","349272","Untrustworthy,Trustworthy","","229","","","","decision","","<div class='trialDiv'><img src='Fruit/melon.png'><br><font class='baseline'><strong>Melon Millions</strong><p>Choose number of points to bet.</font><div class='respPicDiv'><img src='img/responseButtonOffersNo0L.png' class='respPic'></div></div>","1","15","Melon Millions","Fruit/melon.png","Lost","0.65,0.35","11","0.65","226","45","",""
"html-keyboard-response","143","169142","0.0-11.0-2.44","63f7b890b9c9e7b19a2e9281","bdp_rwlrn","Sat Apr 08 2023 11:35:32 GMT-0400 (Eastern Daylight Time)","349272","Untrustworthy,Trustworthy","","null","","","","decisionFB","","<div class='trialDiv'><img src='Fruit/melon.png'><br><font class='baseline'><strong>Melon Millions</strong><p>Choose number of points to bet.</font><div class='respPicDiv'><img src='img/responseButtonOffersNo0L1.png' class='respPic'></div></div>","null","15","Melon Millions","Fruit/melon.png","Lost","0.65,0.35","11","0.65","225","45","",""
"html-keyboard-response","144","170146","0.0-11.0-3.44","63f7b890b9c9e7b19a2e9281","bdp_rwlrn","Sat Apr 08 2023 11:35:32 GMT-0400 (Eastern Daylight Time)","349272","Untrustworthy,Trustworthy","","null","","","","feedback","","<div class='respPicDiv'><img src='img/responseButtonOffersNo0_wht.png' class='respPic'></div><div class='trialDiv'><img src='Fruit/melon.png'><br><font class='baseline'><strong>Melon Millions</strong><p><strong><font class='negOutcome'>You LOST</font><p>You bet: 1</strong></font> &nbsp; &nbsp; &nbsp; &nbsp; &nbsp; &nbsp;<font class='negOutcome'>You receive: <strong>0</strong></font></div>","null","15","Melon Millions","Fruit/melon.png","Lost","0.65,0.35","11","0.65","225","45","",""
"html-keyboard-response","145","170170","0.0-11.0-1.45","63f7b890b9c9e7b19a2e9281","bdp_rwlrn","Sat Apr 08 2023 11:35:32 GMT-0400 (Eastern Daylight Time)","349272","Untrustworthy,Trustworthy","","23","","","","decision","","<div class='trialDiv'><img src='Fruit/lime.png'><br><font class='baseline'><strong>Limin' Large</strong><p>Choose number of points to bet.</font><div class='respPicDiv'><img src='img/responseButtonOffersNo0L.png' class='respPic'></div></div>","1","16","Limin' Large","Fruit/lime.png","Lost","0.35,0.8","13","0.35","230","46","",""
"html-keyboard-response","146","170426","0.0-11.0-2.45","63f7b890b9c9e7b19a2e9281","bdp_rwlrn","Sat Apr 08 2023 11:35:32 GMT-0400 (Eastern Daylight Time)","349272","Untrustworthy,Trustworthy","","null","","","","decisionFB","","<div class='trialDiv'><img src='Fruit/lime.png'><br><font class='baseline'><strong>Limin' Large</strong><p>Choose number of points to bet.</font><div class='respPicDiv'><img src='img/responseButtonOffersNo0L1.png' class='respPic'></div></div>","null","16","Limin' Large","Fruit/lime.png","Lost","0.35,0.8","13","0.35","229","46","",""
"html-keyboard-response","147","171434","0.0-11.0-3.45","63f7b890b9c9e7b19a2e9281","bdp_rwlrn","Sat Apr 08 2023 11:35:32 GMT-0400 (Eastern Daylight Time)","349272","Untrustworthy,Trustworthy","","null","","","","feedback","","<div class='respPicDiv'><img src='img/responseButtonOffersNo0_wht.png' class='respPic'></div><div class='trialDiv'><img src='Fruit/lime.png'><br><font class='baseline'><strong>Limin' Large</strong><p><strong><font class='negOutcome'>You LOST</font><p>You bet: 1</strong></font> &nbsp; &nbsp; &nbsp; &nbsp; &nbsp; &nbsp;<font class='negOutcome'>You receive: <strong>0</strong></font></div>","null","16","Limin' Large","Fruit/lime.png","Lost","0.35,0.8","13","0.35","229","46","",""
"html-keyboard-response","148","172336","0.0-11.0-1.46","63f7b890b9c9e7b19a2e9281","bdp_rwlrn","Sat Apr 08 2023 11:35:32 GMT-0400 (Eastern Daylight Time)","349272","Untrustworthy,Trustworthy","","900","","","","decision","","<div class='trialDiv'><img src='Fruit/melon.png'><br><font class='baseline'><strong>Melon Millions</strong><p>Choose number of points to bet.</font><div class='respPicDiv'><img src='img/responseButtonOffersNo0L.png' class='respPic'></div></div>","3","16","Melon Millions","Fruit/melon.png","Lost","0.65,0.35","11","0.65","234","47","",""
"html-keyboard-response","149","172594","0.0-11.0-2.46","63f7b890b9c9e7b19a2e9281","bdp_rwlrn","Sat Apr 08 2023 11:35:32 GMT-0400 (Eastern Daylight Time)","349272","Untrustworthy,Trustworthy","","null","","","","decisionFB","","<div class='trialDiv'><img src='Fruit/melon.png'><br><font class='baseline'><strong>Melon Millions</strong><p>Choose number of points to bet.</font><div class='respPicDiv'><img src='img/responseButtonOffersNo0L3.png' class='respPic'></div></div>","null","16","Melon Millions","Fruit/melon.png","Lost","0.65,0.35","11","0.65","231","47","",""
"html-keyboard-response","150","173602","0.0-11.0-3.46","63f7b890b9c9e7b19a2e9281","bdp_rwlrn","Sat Apr 08 2023 11:35:32 GMT-0400 (Eastern Daylight Time)","349272","Untrustworthy,Trustworthy","","null","","","","feedback","","<div class='respPicDiv'><img src='img/responseButtonOffersNo0_wht.png' class='respPic'></div><div class='trialDiv'><img src='Fruit/melon.png'><br><font class='baseline'><strong>Melon Millions</strong><p><strong><font class='negOutcome'>You LOST</font><p>You bet: 3</strong></font> &nbsp; &nbsp; &nbsp; &nbsp; &nbsp; &nbsp;<font class='negOutcome'>You receive: <strong>0</strong></font></div>","null","16","Melon Millions","Fruit/melon.png","Lost","0.65,0.35","11","0.65","231","47","",""
"html-keyboard-response","151","174532","0.0-11.0-1.47","63f7b890b9c9e7b19a2e9281","bdp_rwlrn","Sat Apr 08 2023 11:35:32 GMT-0400 (Eastern Daylight Time)","349272","Untrustworthy,Trustworthy","","929","","","","decision","","<div class='trialDiv'><img src='Fruit/apple.png'><br><font class='baseline'><strong>Awesome Apples</strong><p>Choose number of points to bet.</font><div class='respPicDiv'><img src='img/responseButtonOffersNo0L.png' class='respPic'></div></div>","4","16","Awesome Apples","Fruit/apple.png","Lost","0.8,0.35","13","0.8","236","48","",""
"html-keyboard-response","152","174789","0.0-11.0-2.47","63f7b890b9c9e7b19a2e9281","bdp_rwlrn","Sat Apr 08 2023 11:35:32 GMT-0400 (Eastern Daylight Time)","349272","Untrustworthy,Trustworthy","","null","","","","decisionFB","","<div class='trialDiv'><img src='Fruit/apple.png'><br><font class='baseline'><strong>Awesome Apples</strong><p>Choose number of points to bet.</font><div class='respPicDiv'><img src='img/responseButtonOffersNo0L4.png' class='respPic'></div></div>","null","16","Awesome Apples","Fruit/apple.png","Lost","0.8,0.35","13","0.8","232","48","",""
"html-keyboard-response","153","175794","0.0-11.0-3.47","63f7b890b9c9e7b19a2e9281","bdp_rwlrn","Sat Apr 08 2023 11:35:32 GMT-0400 (Eastern Daylight Time)","349272","Untrustworthy,Trustworthy","","null","","","","feedback","","<div class='respPicDiv'><img src='img/responseButtonOffersNo0_wht.png' class='respPic'></div><div class='trialDiv'><img src='Fruit/apple.png'><br><font class='baseline'><strong>Awesome Apples</strong><p><strong><font class='negOutcome'>You LOST</font><p>You bet: 4</strong></font> &nbsp; &nbsp; &nbsp; &nbsp; &nbsp; &nbsp;<font class='negOutcome'>You receive: <strong>0</strong></font></div>","null","16","Awesome Apples","Fruit/apple.png","Lost","0.8,0.35","13","0.8","232","48","",""
"html-keyboard-response","154","176075","0.0-11.0-1.48","63f7b890b9c9e7b19a2e9281","bdp_rwlrn","Sat Apr 08 2023 11:35:32 GMT-0400 (Eastern Daylight Time)","349272","Untrustworthy,Trustworthy","","280","","","","decision","","<div class='trialDiv'><img src='Fruit/lime.png'><br><font class='baseline'><strong>Limin' Large</strong><p>Choose number of points to bet.</font><div class='respPicDiv'><img src='img/responseButtonOffersNo0L.png' class='respPic'></div></div>","2","17","Limin' Large","Fruit/lime.png","Won","0.35,0.8","13","0.35","237","49","",""
"html-keyboard-response","155","176330","0.0-11.0-2.48","63f7b890b9c9e7b19a2e9281","bdp_rwlrn","Sat Apr 08 2023 11:35:32 GMT-0400 (Eastern Daylight Time)","349272","Untrustworthy,Trustworthy","","null","","","","decisionFB","","<div class='trialDiv'><img src='Fruit/lime.png'><br><font class='baseline'><strong>Limin' Large</strong><p>Choose number of points to bet.</font><div class='respPicDiv'><img src='img/responseButtonOffersNo0L2.png' class='respPic'></div></div>","null","17","Limin' Large","Fruit/lime.png","Won","0.35,0.8","13","0.35","235","49","",""
"html-keyboard-response","156","177339","0.0-11.0-3.48","63f7b890b9c9e7b19a2e9281","bdp_rwlrn","Sat Apr 08 2023 11:35:32 GMT-0400 (Eastern Daylight Time)","349272","Untrustworthy,Trustworthy","","null","","","","feedback","","<div class='respPicDiv'><img src='img/responseButtonOffersNo0_wht.png' class='respPic'></div><div class='trialDiv'><img src='Fruit/lime.png'><br><font class='baseline'><strong>Limin' Large</strong><p><strong><font class='posOutcome'>You WON</font><p>You bet: 2</strong></font> &nbsp; &nbsp; &nbsp; &nbsp; &nbsp; &nbsp;<font class='posOutcome'>you receive: <strong>4</strong></font></div>","null","17","Limin' Large","Fruit/lime.png","Won","0.35,0.8","13","0.35","239","49","",""
"html-keyboard-response","157","177377","0.0-11.0-1.49","63f7b890b9c9e7b19a2e9281","bdp_rwlrn","Sat Apr 08 2023 11:35:32 GMT-0400 (Eastern Daylight Time)","349272","Untrustworthy,Trustworthy","","37","","","","decision","","<div class='trialDiv'><img src='Fruit/melon.png'><br><font class='baseline'><strong>Melon Millions</strong><p>Choose number of points to bet.</font><div class='respPicDiv'><img src='img/responseButtonOffersNo0L.png' class='respPic'></div></div>","3","17","Melon Millions","Fruit/melon.png","Lost","0.65,0.35","11","0.65","244","50","",""
"html-keyboard-response","158","177634","0.0-11.0-2.49","63f7b890b9c9e7b19a2e9281","bdp_rwlrn","Sat Apr 08 2023 11:35:32 GMT-0400 (Eastern Daylight Time)","349272","Untrustworthy,Trustworthy","","null","","","","decisionFB","","<div class='trialDiv'><img src='Fruit/melon.png'><br><font class='baseline'><strong>Melon Millions</strong><p>Choose number of points to bet.</font><div class='respPicDiv'><img src='img/responseButtonOffersNo0L3.png' class='respPic'></div></div>","null","17","Melon Millions","Fruit/melon.png","Lost","0.65,0.35","11","0.65","241","50","",""
"html-keyboard-response","159","178642","0.0-11.0-3.49","63f7b890b9c9e7b19a2e9281","bdp_rwlrn","Sat Apr 08 2023 11:35:32 GMT-0400 (Eastern Daylight Time)","349272","Untrustworthy,Trustworthy","","null","","","","feedback","","<div class='respPicDiv'><img src='img/responseButtonOffersNo0_wht.png' class='respPic'></div><div class='trialDiv'><img src='Fruit/melon.png'><br><font class='baseline'><strong>Melon Millions</strong><p><strong><font class='negOutcome'>You LOST</font><p>You bet: 3</strong></font> &nbsp; &nbsp; &nbsp; &nbsp; &nbsp; &nbsp;<font class='negOutcome'>You receive: <strong>0</strong></font></div>","null","17","Melon Millions","Fruit/melon.png","Lost","0.65,0.35","11","0.65","241","50","",""
"html-keyboard-response","160","179295","0.0-11.0-1.50","63f7b890b9c9e7b19a2e9281","bdp_rwlrn","Sat Apr 08 2023 11:35:32 GMT-0400 (Eastern Daylight Time)","349272","Untrustworthy,Trustworthy","","652","","","","decision","","<div class='trialDiv'><img src='Fruit/apple.png'><br><font class='baseline'><strong>Awesome Apples</strong><p>Choose number of points to bet.</font><div class='respPicDiv'><img src='img/responseButtonOffersNo0L.png' class='respPic'></div></div>","5","17","Awesome Apples","Fruit/apple.png","Won","0.8,0.35","13","0.8","246","51","",""
"html-keyboard-response","161","179546","0.0-11.0-2.50","63f7b890b9c9e7b19a2e9281","bdp_rwlrn","Sat Apr 08 2023 11:35:32 GMT-0400 (Eastern Daylight Time)","349272","Untrustworthy,Trustworthy","","null","","","","decisionFB","","<div class='trialDiv'><img src='Fruit/apple.png'><br><font class='baseline'><strong>Awesome Apples</strong><p>Choose number of points to bet.</font><div class='respPicDiv'><img src='img/responseButtonOffersNo0L5.png' class='respPic'></div></div>","null","17","Awesome Apples","Fruit/apple.png","Won","0.8,0.35","13","0.8","241","51","",""
"html-keyboard-response","162","180554","0.0-11.0-3.50","63f7b890b9c9e7b19a2e9281","bdp_rwlrn","Sat Apr 08 2023 11:35:32 GMT-0400 (Eastern Daylight Time)","349272","Untrustworthy,Trustworthy","","null","","","","feedback","","<div class='respPicDiv'><img src='img/responseButtonOffersNo0_wht.png' class='respPic'></div><div class='trialDiv'><img src='Fruit/apple.png'><br><font class='baseline'><strong>Awesome Apples</strong><p><strong><font class='posOutcome'>You WON</font><p>You bet: 5</strong></font> &nbsp; &nbsp; &nbsp; &nbsp; &nbsp; &nbsp;<font class='posOutcome'>you receive: <strong>10</strong></font></div>","null","17","Awesome Apples","Fruit/apple.png","Won","0.8,0.35","13","0.8","251","51","",""
"html-keyboard-response","163","181313","0.0-11.0-1.51","63f7b890b9c9e7b19a2e9281","bdp_rwlrn","Sat Apr 08 2023 11:35:32 GMT-0400 (Eastern Daylight Time)","349272","Untrustworthy,Trustworthy","","757","","","","decision","","<div class='trialDiv'><img src='Fruit/lime.png'><br><font class='baseline'><strong>Limin' Large</strong><p>Choose number of points to bet.</font><div class='respPicDiv'><img src='img/responseButtonOffersNo0L.png' class='respPic'></div></div>","2","18","Limin' Large","Fruit/lime.png","Won","0.35,0.8","13","0.35","256","52","",""
