"trial_type","trial_index","time_elapsed","internal_node_id","subject_id","task","startTime","totalTime","labels","view_history","rt","event","trial","time","trialtype","success","stimulus","key_press","ltround","name","fileID","outcome","lottotype","lottoswpt","lottocurrpshare","point_total","round","faceID","face"
"pavlovia","0","6","0.0-0.0","6361769fee0c219b0f1cc480","bdp_rwlrn","Sun Mar 12 2023 22:34:17 GMT-0500 (Central Daylight Time)","396633","Untrustworthy,Trustworthy","","","","","","","","","","","","","","","","","","","",""
"instructions","1","3488","0.0-1.0","6361769fee0c219b0f1cc480","bdp_rwlrn","Sun Mar 12 2023 22:34:17 GMT-0500 (Central Daylight Time)","396633","Untrustworthy,Trustworthy","[{""page_index"":0,""viewing_time"":3480}]","3481","","","","","","","","","","","","","","","","","",""
"","","","","6361769fee0c219b0f1cc480","bdp_rwlrn","Sun Mar 12 2023 22:34:17 GMT-0500 (Central Daylight Time)","396633","Untrustworthy,Trustworthy","","","fullscreenenter","2","11656","fullscreenenter","","","","","","","","","","","","","",""
"fullscreen","2","12652","0.0-2.0","6361769fee0c219b0f1cc480","bdp_rwlrn","Sun Mar 12 2023 22:34:17 GMT-0500 (Central Daylight Time)","396633","Untrustworthy,Trustworthy","","","","","","","true","","","","","","","","","","","","",""
"instructions","3","73892","0.0-4.0","6361769fee0c219b0f1cc480","bdp_rwlrn","Sun Mar 12 2023 22:34:17 GMT-0500 (Central Daylight Time)","396633","Untrustworthy,Trustworthy","[{""page_index"":0,""viewing_time"":11384},{""page_index"":1,""viewing_time"":20782},{""page_index"":2,""viewing_time"":3554},{""page_index"":3,""viewing_time"":6526},{""page_index"":4,""viewing_time"":15133},{""page_index"":5,""viewing_time"":3859}]","61238","","","","","","","","","","","","","","","","","",""
"html-keyboard-response","4","76750","0.0-5.0","6361769fee0c219b0f1cc480","bdp_rwlrn","Sun Mar 12 2023 22:34:17 GMT-0500 (Central Daylight Time)","396633","Untrustworthy,Trustworthy","","2855","","","","","","<div class='header' style='text-align:left; position: absolute; top: 5%; left: 5%;'><small>Task 3 of 5</small></div><div class='instruxDiv'><p><strong>1) What is the maximum number of points you can choose to bet on a lottery?</strong></p><p>a) 0</p><p>b) 1</p><p>c) 5</p>","C","","","","","","","","","","",""
"html-keyboard-response","5","78174","0.0-6.0","6361769fee0c219b0f1cc480","bdp_rwlrn","Sun Mar 12 2023 22:34:17 GMT-0500 (Central Daylight Time)","396633","Untrustworthy,Trustworthy","","1322","","","","","","<div class='header' style='text-align:left; position: absolute; top: 5%; left: 5%;'><small>Task 3 of 5</small></div><div class='instruxDiv'><p><strong>1) What is the maximum number of points you can choose to bet on a lottery?</strong></p><p>a) 1</p><p>b) 1</p><p style='color:#00FF00'>c) 5</p><h3 style='color:#00FF00'>Correct!</h3><h3 class='center-content'>The correct response is c).</h3><h3 class='center-content'>The maximum number of points you can choose to bet on a lottery is 5 points.</h3><p><em>Press SPACEBAR to continue</em></p></div>"," ","","","","","","","","","","",""
"html-keyboard-response","6","83640","0.0-7.0","6361769fee0c219b0f1cc480","bdp_rwlrn","Sun Mar 12 2023 22:34:17 GMT-0500 (Central Daylight Time)","396633","Untrustworthy,Trustworthy","","5365","","","","","","<div class='header' style='text-align:left; position: absolute; top: 5%; left: 5%;'><small>Task 3 of 5</small></div><div class='instruxDiv'><p><strong>2) How many points can you win each round?</strong></p><p>a) 10 points</p><p>b) Double what you bet</p><p>c) Quadruple what you bet</p>","B","","","","","","","","","","",""
"html-keyboard-response","7","84581","0.0-8.0","6361769fee0c219b0f1cc480","bdp_rwlrn","Sun Mar 12 2023 22:34:17 GMT-0500 (Central Daylight Time)","396633","Untrustworthy,Trustworthy","","839","","","","","","<div class='header' style='text-align:left; position: absolute; top: 5%; left: 5%;'><small>Task 3 of 5</small></div><div class='instruxDiv'><p><strong>2) How many points can you win each round?</strong></p><p>a) 10 points</p><p style='color:#00FF00'>b) Double what you bet</p><p>c) Quadruple what you bet</p><h3 style='color:#00FF00'>Correct!</h3><h3 class='center-content'>The correct response is b).</h3><h3 class='center-content'>You can win double the amount of points you bet.</h3><p><em>Press SPACEBAR to continue</em></p></div>"," ","","","","","","","","","","",""
"html-keyboard-response","8","89685","0.0-9.0","6361769fee0c219b0f1cc480","bdp_rwlrn","Sun Mar 12 2023 22:34:17 GMT-0500 (Central Daylight Time)","396633","Untrustworthy,Trustworthy","","null","","","","","","<div class='header' style='text-align:left; position: absolute; top: 5%; left: 5%;'><small>Task 3 of 5</small></div><div class='instruxDiv'><p>Thank you for completing the quiz<p>These are the actual lotteries you will be playing in the next block:<p><div class='tc' align='center'><img class='introPic' src='Fruit/cherrie.png'><br><strong>Cherry Chances</strong></div><div class='bl' align='center'><img class='introPic' src='Fruit/melon.png'><br><strong>Melon Millions</strong></div><div class='br' align='center'><img class='introPic' src='Fruit/lemon.png'><br><strong>Lucky Lemons</strong></div></div><p>Across <strong>66 rounds</strong> you will play each lottery <strong>22 times</strong> (in random order).<p style='align:center; color:white'><font <em>Press SPACEBAR to continue</em></p>","null","","","","","","","","","","",""
"instructions","9","94737","0.0-10.0","6361769fee0c219b0f1cc480","bdp_rwlrn","Sun Mar 12 2023 22:34:17 GMT-0500 (Central Daylight Time)","396633","Untrustworthy,Trustworthy","[{""page_index"":0,""viewing_time"":3051},{""page_index"":1,""viewing_time"":1999}]","5051","","","","","","","","","","","","","","","","","",""
"html-keyboard-response","10","97441","0.0-11.0-1.0","6361769fee0c219b0f1cc480","bdp_rwlrn","Sun Mar 12 2023 22:34:17 GMT-0500 (Central Daylight Time)","396633","Untrustworthy,Trustworthy","","2601","","","","decision","","<div class='trialDiv'><img src='Fruit/cherrie.png'><br><font class='baseline'><strong>Cherry Chances</strong><p>Choose number of points to bet.</font><div class='respPicDiv'><img src='img/responseButtonOffersNo0L.png' class='respPic'></div></div>","2","1","Cherry Chances","Fruit/cherrie.png","Won","0.2,0.65","12","0.2","5","1","",""
"html-keyboard-response","11","97694","0.0-11.0-2.0","6361769fee0c219b0f1cc480","bdp_rwlrn","Sun Mar 12 2023 22:34:17 GMT-0500 (Central Daylight Time)","396633","Untrustworthy,Trustworthy","","null","","","","decisionFB","","<div class='trialDiv'><img src='Fruit/cherrie.png'><br><font class='baseline'><strong>Cherry Chances</strong><p>Choose number of points to bet.</font><div class='respPicDiv'><img src='img/responseButtonOffersNo0L2.png' class='respPic'></div></div>","null","1","Cherry Chances","Fruit/cherrie.png","Won","0.2,0.65","12","0.2","3","1","",""
"html-keyboard-response","12","98697","0.0-11.0-3.0","6361769fee0c219b0f1cc480","bdp_rwlrn","Sun Mar 12 2023 22:34:17 GMT-0500 (Central Daylight Time)","396633","Untrustworthy,Trustworthy","","null","","","","feedback","","<div class='respPicDiv'><img src='img/responseButtonOffersNo0_wht.png' class='respPic'></div><div class='trialDiv'><img src='Fruit/cherrie.png'><br><font class='baseline'><strong>Cherry Chances</strong><p><strong><font class='posOutcome'>You WON</font><p>You bet: 2</strong></font> &nbsp; &nbsp; &nbsp; &nbsp; &nbsp; &nbsp;<font class='posOutcome'>you receive: <strong>4</strong></font></div>","null","1","Cherry Chances","Fruit/cherrie.png","Won","0.2,0.65","12","0.2","7","1","",""
"html-keyboard-response","13","99950","0.0-11.0-1.1","6361769fee0c219b0f1cc480","bdp_rwlrn","Sun Mar 12 2023 22:34:17 GMT-0500 (Central Daylight Time)","396633","Untrustworthy,Trustworthy","","1251","","","","decision","","<div class='trialDiv'><img src='Fruit/lemon.png'><br><font class='baseline'><strong>Lucky Lemons</strong><p>Choose number of points to bet.</font><div class='respPicDiv'><img src='img/responseButtonOffersNo0L.png' class='respPic'></div></div>","2","1","Lucky Lemons","Fruit/lemon.png","Won","0.8,0.35","12","0.8","12","2","",""
"html-keyboard-response","14","100202","0.0-11.0-2.1","6361769fee0c219b0f1cc480","bdp_rwlrn","Sun Mar 12 2023 22:34:17 GMT-0500 (Central Daylight Time)","396633","Untrustworthy,Trustworthy","","null","","","","decisionFB","","<div class='trialDiv'><img src='Fruit/lemon.png'><br><font class='baseline'><strong>Lucky Lemons</strong><p>Choose number of points to bet.</font><div class='respPicDiv'><img src='img/responseButtonOffersNo0L2.png' class='respPic'></div></div>","null","1","Lucky Lemons","Fruit/lemon.png","Won","0.8,0.35","12","0.8","10","2","",""
"html-keyboard-response","15","101205","0.0-11.0-3.1","6361769fee0c219b0f1cc480","bdp_rwlrn","Sun Mar 12 2023 22:34:17 GMT-0500 (Central Daylight Time)","396633","Untrustworthy,Trustworthy","","null","","","","feedback","","<div class='respPicDiv'><img src='img/responseButtonOffersNo0_wht.png' class='respPic'></div><div class='trialDiv'><img src='Fruit/lemon.png'><br><font class='baseline'><strong>Lucky Lemons</strong><p><strong><font class='posOutcome'>You WON</font><p>You bet: 2</strong></font> &nbsp; &nbsp; &nbsp; &nbsp; &nbsp; &nbsp;<font class='posOutcome'>you receive: <strong>4</strong></font></div>","null","1","Lucky Lemons","Fruit/lemon.png","Won","0.8,0.35","12","0.8","14","2","",""
"html-keyboard-response","16","102396","0.0-11.0-1.2","6361769fee0c219b0f1cc480","bdp_rwlrn","Sun Mar 12 2023 22:34:17 GMT-0500 (Central Daylight Time)","396633","Untrustworthy,Trustworthy","","1190","","","","decision","","<div class='trialDiv'><img src='Fruit/melon.png'><br><font class='baseline'><strong>Melon Millions</strong><p>Choose number of points to bet.</font><div class='respPicDiv'><img src='img/responseButtonOffersNo0L.png' class='respPic'></div></div>","2","1","Melon Millions","Fruit/melon.png","Won","0.35,0.65","11","0.35","19","3","",""
"html-keyboard-response","17","102648","0.0-11.0-2.2","6361769fee0c219b0f1cc480","bdp_rwlrn","Sun Mar 12 2023 22:34:17 GMT-0500 (Central Daylight Time)","396633","Untrustworthy,Trustworthy","","null","","","","decisionFB","","<div class='trialDiv'><img src='Fruit/melon.png'><br><font class='baseline'><strong>Melon Millions</strong><p>Choose number of points to bet.</font><div class='respPicDiv'><img src='img/responseButtonOffersNo0L2.png' class='respPic'></div></div>","null","1","Melon Millions","Fruit/melon.png","Won","0.35,0.65","11","0.35","17","3","",""
"html-keyboard-response","18","103651","0.0-11.0-3.2","6361769fee0c219b0f1cc480","bdp_rwlrn","Sun Mar 12 2023 22:34:17 GMT-0500 (Central Daylight Time)","396633","Untrustworthy,Trustworthy","","null","","","","feedback","","<div class='respPicDiv'><img src='img/responseButtonOffersNo0_wht.png' class='respPic'></div><div class='trialDiv'><img src='Fruit/melon.png'><br><font class='baseline'><strong>Melon Millions</strong><p><strong><font class='posOutcome'>You WON</font><p>You bet: 2</strong></font> &nbsp; &nbsp; &nbsp; &nbsp; &nbsp; &nbsp;<font class='posOutcome'>you receive: <strong>4</strong></font></div>","null","1","Melon Millions","Fruit/melon.png","Won","0.35,0.65","11","0.35","21","3","",""
"html-keyboard-response","19","105684","0.0-11.0-1.3","6361769fee0c219b0f1cc480","bdp_rwlrn","Sun Mar 12 2023 22:34:17 GMT-0500 (Central Daylight Time)","396633","Untrustworthy,Trustworthy","","2032","","","","decision","","<div class='trialDiv'><img src='Fruit/lemon.png'><br><font class='baseline'><strong>Lucky Lemons</strong><p>Choose number of points to bet.</font><div class='respPicDiv'><img src='img/responseButtonOffersNo0L.png' class='respPic'></div></div>","2","2","Lucky Lemons","Fruit/lemon.png","Won","0.8,0.35","12","0.8","26","4","",""
"html-keyboard-response","20","105936","0.0-11.0-2.3","6361769fee0c219b0f1cc480","bdp_rwlrn","Sun Mar 12 2023 22:34:17 GMT-0500 (Central Daylight Time)","396633","Untrustworthy,Trustworthy","","null","","","","decisionFB","","<div class='trialDiv'><img src='Fruit/lemon.png'><br><font class='baseline'><strong>Lucky Lemons</strong><p>Choose number of points to bet.</font><div class='respPicDiv'><img src='img/responseButtonOffersNo0L2.png' class='respPic'></div></div>","null","2","Lucky Lemons","Fruit/lemon.png","Won","0.8,0.35","12","0.8","24","4","",""
"html-keyboard-response","21","106939","0.0-11.0-3.3","6361769fee0c219b0f1cc480","bdp_rwlrn","Sun Mar 12 2023 22:34:17 GMT-0500 (Central Daylight Time)","396633","Untrustworthy,Trustworthy","","null","","","","feedback","","<div class='respPicDiv'><img src='img/responseButtonOffersNo0_wht.png' class='respPic'></div><div class='trialDiv'><img src='Fruit/lemon.png'><br><font class='baseline'><strong>Lucky Lemons</strong><p><strong><font class='posOutcome'>You WON</font><p>You bet: 2</strong></font> &nbsp; &nbsp; &nbsp; &nbsp; &nbsp; &nbsp;<font class='posOutcome'>you receive: <strong>4</strong></font></div>","null","2","Lucky Lemons","Fruit/lemon.png","Won","0.8,0.35","12","0.8","28","4","",""
"html-keyboard-response","22","108685","0.0-11.0-1.4","6361769fee0c219b0f1cc480","bdp_rwlrn","Sun Mar 12 2023 22:34:17 GMT-0500 (Central Daylight Time)","396633","Untrustworthy,Trustworthy","","1744","","","","decision","","<div class='trialDiv'><img src='Fruit/melon.png'><br><font class='baseline'><strong>Melon Millions</strong><p>Choose number of points to bet.</font><div class='respPicDiv'><img src='img/responseButtonOffersNo0L.png' class='respPic'></div></div>","2","2","Melon Millions","Fruit/melon.png","Lost","0.35,0.65","11","0.35","33","5","",""
"html-keyboard-response","23","108938","0.0-11.0-2.4","6361769fee0c219b0f1cc480","bdp_rwlrn","Sun Mar 12 2023 22:34:17 GMT-0500 (Central Daylight Time)","396633","Untrustworthy,Trustworthy","","null","","","","decisionFB","","<div class='trialDiv'><img src='Fruit/melon.png'><br><font class='baseline'><strong>Melon Millions</strong><p>Choose number of points to bet.</font><div class='respPicDiv'><img src='img/responseButtonOffersNo0L2.png' class='respPic'></div></div>","null","2","Melon Millions","Fruit/melon.png","Lost","0.35,0.65","11","0.35","31","5","",""
"html-keyboard-response","24","109940","0.0-11.0-3.4","6361769fee0c219b0f1cc480","bdp_rwlrn","Sun Mar 12 2023 22:34:17 GMT-0500 (Central Daylight Time)","396633","Untrustworthy,Trustworthy","","null","","","","feedback","","<div class='respPicDiv'><img src='img/responseButtonOffersNo0_wht.png' class='respPic'></div><div class='trialDiv'><img src='Fruit/melon.png'><br><font class='baseline'><strong>Melon Millions</strong><p><strong><font class='negOutcome'>You LOST</font><p>You bet: 2</strong></font> &nbsp; &nbsp; &nbsp; &nbsp; &nbsp; &nbsp;<font class='negOutcome'>You receive: <strong>0</strong></font></div>","null","2","Melon Millions","Fruit/melon.png","Lost","0.35,0.65","11","0.35","31","5","",""
"html-keyboard-response","25","110889","0.0-11.0-1.5","6361769fee0c219b0f1cc480","bdp_rwlrn","Sun Mar 12 2023 22:34:17 GMT-0500 (Central Daylight Time)","396633","Untrustworthy,Trustworthy","","947","","","","decision","","<div class='trialDiv'><img src='Fruit/cherrie.png'><br><font class='baseline'><strong>Cherry Chances</strong><p>Choose number of points to bet.</font><div class='respPicDiv'><img src='img/responseButtonOffersNo0L.png' class='respPic'></div></div>","2","2","Cherry Chances","Fruit/cherrie.png","Lost","0.2,0.65","12","0.2","36","6","",""
"html-keyboard-response","26","111144","0.0-11.0-2.5","6361769fee0c219b0f1cc480","bdp_rwlrn","Sun Mar 12 2023 22:34:17 GMT-0500 (Central Daylight Time)","396633","Untrustworthy,Trustworthy","","null","","","","decisionFB","","<div class='trialDiv'><img src='Fruit/cherrie.png'><br><font class='baseline'><strong>Cherry Chances</strong><p>Choose number of points to bet.</font><div class='respPicDiv'><img src='img/responseButtonOffersNo0L2.png' class='respPic'></div></div>","null","2","Cherry Chances","Fruit/cherrie.png","Lost","0.2,0.65","12","0.2","34","6","",""
"html-keyboard-response","27","112147","0.0-11.0-3.5","6361769fee0c219b0f1cc480","bdp_rwlrn","Sun Mar 12 2023 22:34:17 GMT-0500 (Central Daylight Time)","396633","Untrustworthy,Trustworthy","","null","","","","feedback","","<div class='respPicDiv'><img src='img/responseButtonOffersNo0_wht.png' class='respPic'></div><div class='trialDiv'><img src='Fruit/cherrie.png'><br><font class='baseline'><strong>Cherry Chances</strong><p><strong><font class='negOutcome'>You LOST</font><p>You bet: 2</strong></font> &nbsp; &nbsp; &nbsp; &nbsp; &nbsp; &nbsp;<font class='negOutcome'>You receive: <strong>0</strong></font></div>","null","2","Cherry Chances","Fruit/cherrie.png","Lost","0.2,0.65","12","0.2","34","6","",""
"html-keyboard-response","28","113093","0.0-11.0-1.6","6361769fee0c219b0f1cc480","bdp_rwlrn","Sun Mar 12 2023 22:34:17 GMT-0500 (Central Daylight Time)","396633","Untrustworthy,Trustworthy","","945","","","","decision","","<div class='trialDiv'><img src='Fruit/lemon.png'><br><font class='baseline'><strong>Lucky Lemons</strong><p>Choose number of points to bet.</font><div class='respPicDiv'><img src='img/responseButtonOffersNo0L.png' class='respPic'></div></div>","3","3","Lucky Lemons","Fruit/lemon.png","Lost","0.8,0.35","12","0.8","39","7","",""
"html-keyboard-response","29","113346","0.0-11.0-2.6","6361769fee0c219b0f1cc480","bdp_rwlrn","Sun Mar 12 2023 22:34:17 GMT-0500 (Central Daylight Time)","396633","Untrustworthy,Trustworthy","","null","","","","decisionFB","","<div class='trialDiv'><img src='Fruit/lemon.png'><br><font class='baseline'><strong>Lucky Lemons</strong><p>Choose number of points to bet.</font><div class='respPicDiv'><img src='img/responseButtonOffersNo0L3.png' class='respPic'></div></div>","null","3","Lucky Lemons","Fruit/lemon.png","Lost","0.8,0.35","12","0.8","36","7","",""
"html-keyboard-response","30","114348","0.0-11.0-3.6","6361769fee0c219b0f1cc480","bdp_rwlrn","Sun Mar 12 2023 22:34:17 GMT-0500 (Central Daylight Time)","396633","Untrustworthy,Trustworthy","","null","","","","feedback","","<div class='respPicDiv'><img src='img/responseButtonOffersNo0_wht.png' class='respPic'></div><div class='trialDiv'><img src='Fruit/lemon.png'><br><font class='baseline'><strong>Lucky Lemons</strong><p><strong><font class='negOutcome'>You LOST</font><p>You bet: 3</strong></font> &nbsp; &nbsp; &nbsp; &nbsp; &nbsp; &nbsp;<font class='negOutcome'>You receive: <strong>0</strong></font></div>","null","3","Lucky Lemons","Fruit/lemon.png","Lost","0.8,0.35","12","0.8","36","7","",""
"html-keyboard-response","31","114947","0.0-11.0-1.7","6361769fee0c219b0f1cc480","bdp_rwlrn","Sun Mar 12 2023 22:34:17 GMT-0500 (Central Daylight Time)","396633","Untrustworthy,Trustworthy","","598","","","","decision","","<div class='trialDiv'><img src='Fruit/cherrie.png'><br><font class='baseline'><strong>Cherry Chances</strong><p>Choose number of points to bet.</font><div class='respPicDiv'><img src='img/responseButtonOffersNo0L.png' class='respPic'></div></div>","1","3","Cherry Chances","Fruit/cherrie.png","Lost","0.2,0.65","12","0.2","41","8","",""
"html-keyboard-response","32","115199","0.0-11.0-2.7","6361769fee0c219b0f1cc480","bdp_rwlrn","Sun Mar 12 2023 22:34:17 GMT-0500 (Central Daylight Time)","396633","Untrustworthy,Trustworthy","","null","","","","decisionFB","","<div class='trialDiv'><img src='Fruit/cherrie.png'><br><font class='baseline'><strong>Cherry Chances</strong><p>Choose number of points to bet.</font><div class='respPicDiv'><img src='img/responseButtonOffersNo0L1.png' class='respPic'></div></div>","null","3","Cherry Chances","Fruit/cherrie.png","Lost","0.2,0.65","12","0.2","40","8","",""
"html-keyboard-response","33","116202","0.0-11.0-3.7","6361769fee0c219b0f1cc480","bdp_rwlrn","Sun Mar 12 2023 22:34:17 GMT-0500 (Central Daylight Time)","396633","Untrustworthy,Trustworthy","","null","","","","feedback","","<div class='respPicDiv'><img src='img/responseButtonOffersNo0_wht.png' class='respPic'></div><div class='trialDiv'><img src='Fruit/cherrie.png'><br><font class='baseline'><strong>Cherry Chances</strong><p><strong><font class='negOutcome'>You LOST</font><p>You bet: 1</strong></font> &nbsp; &nbsp; &nbsp; &nbsp; &nbsp; &nbsp;<font class='negOutcome'>You receive: <strong>0</strong></font></div>","null","3","Cherry Chances","Fruit/cherrie.png","Lost","0.2,0.65","12","0.2","40","8","",""
"html-keyboard-response","34","118998","0.0-11.0-1.8","6361769fee0c219b0f1cc480","bdp_rwlrn","Sun Mar 12 2023 22:34:17 GMT-0500 (Central Daylight Time)","396633","Untrustworthy,Trustworthy","","2794","","","","decision","","<div class='trialDiv'><img src='Fruit/melon.png'><br><font class='baseline'><strong>Melon Millions</strong><p>Choose number of points to bet.</font><div class='respPicDiv'><img src='img/responseButtonOffersNo0L.png' class='respPic'></div></div>","4","3","Melon Millions","Fruit/melon.png","Lost","0.35,0.65","11","0.35","45","9","",""
"html-keyboard-response","35","119251","0.0-11.0-2.8","6361769fee0c219b0f1cc480","bdp_rwlrn","Sun Mar 12 2023 22:34:17 GMT-0500 (Central Daylight Time)","396633","Untrustworthy,Trustworthy","","null","","","","decisionFB","","<div class='trialDiv'><img src='Fruit/melon.png'><br><font class='baseline'><strong>Melon Millions</strong><p>Choose number of points to bet.</font><div class='respPicDiv'><img src='img/responseButtonOffersNo0L4.png' class='respPic'></div></div>","null","3","Melon Millions","Fruit/melon.png","Lost","0.35,0.65","11","0.35","41","9","",""
"html-keyboard-response","36","120254","0.0-11.0-3.8","6361769fee0c219b0f1cc480","bdp_rwlrn","Sun Mar 12 2023 22:34:17 GMT-0500 (Central Daylight Time)","396633","Untrustworthy,Trustworthy","","null","","","","feedback","","<div class='respPicDiv'><img src='img/responseButtonOffersNo0_wht.png' class='respPic'></div><div class='trialDiv'><img src='Fruit/melon.png'><br><font class='baseline'><strong>Melon Millions</strong><p><strong><font class='negOutcome'>You LOST</font><p>You bet: 4</strong></font> &nbsp; &nbsp; &nbsp; &nbsp; &nbsp; &nbsp;<font class='negOutcome'>You receive: <strong>0</strong></font></div>","null","3","Melon Millions","Fruit/melon.png","Lost","0.35,0.65","11","0.35","41","9","",""
"html-keyboard-response","37","120903","0.0-11.0-1.9","6361769fee0c219b0f1cc480","bdp_rwlrn","Sun Mar 12 2023 22:34:17 GMT-0500 (Central Daylight Time)","396633","Untrustworthy,Trustworthy","","647","","","","decision","","<div class='trialDiv'><img src='Fruit/cherrie.png'><br><font class='baseline'><strong>Cherry Chances</strong><p>Choose number of points to bet.</font><div class='respPicDiv'><img src='img/responseButtonOffersNo0L.png' class='respPic'></div></div>","1","4","Cherry Chances","Fruit/cherrie.png","Lost","0.2,0.65","12","0.2","46","10","",""
"html-keyboard-response","38","121156","0.0-11.0-2.9","6361769fee0c219b0f1cc480","bdp_rwlrn","Sun Mar 12 2023 22:34:17 GMT-0500 (Central Daylight Time)","396633","Untrustworthy,Trustworthy","","null","","","","decisionFB","","<div class='trialDiv'><img src='Fruit/cherrie.png'><br><font class='baseline'><strong>Cherry Chances</strong><p>Choose number of points to bet.</font><div class='respPicDiv'><img src='img/responseButtonOffersNo0L1.png' class='respPic'></div></div>","null","4","Cherry Chances","Fruit/cherrie.png","Lost","0.2,0.65","12","0.2","45","10","",""
"html-keyboard-response","39","122159","0.0-11.0-3.9","6361769fee0c219b0f1cc480","bdp_rwlrn","Sun Mar 12 2023 22:34:17 GMT-0500 (Central Daylight Time)","396633","Untrustworthy,Trustworthy","","null","","","","feedback","","<div class='respPicDiv'><img src='img/responseButtonOffersNo0_wht.png' class='respPic'></div><div class='trialDiv'><img src='Fruit/cherrie.png'><br><font class='baseline'><strong>Cherry Chances</strong><p><strong><font class='negOutcome'>You LOST</font><p>You bet: 1</strong></font> &nbsp; &nbsp; &nbsp; &nbsp; &nbsp; &nbsp;<font class='negOutcome'>You receive: <strong>0</strong></font></div>","null","4","Cherry Chances","Fruit/cherrie.png","Lost","0.2,0.65","12","0.2","45","10","",""
"html-keyboard-response","40","123254","0.0-11.0-1.10","6361769fee0c219b0f1cc480","bdp_rwlrn","Sun Mar 12 2023 22:34:17 GMT-0500 (Central Daylight Time)","396633","Untrustworthy,Trustworthy","","1094","","","","decision","","<div class='trialDiv'><img src='Fruit/melon.png'><br><font class='baseline'><strong>Melon Millions</strong><p>Choose number of points to bet.</font><div class='respPicDiv'><img src='img/responseButtonOffersNo0L.png' class='respPic'></div></div>","1","4","Melon Millions","Fruit/melon.png","Won","0.35,0.65","11","0.35","50","11","",""
"html-keyboard-response","41","123506","0.0-11.0-2.10","6361769fee0c219b0f1cc480","bdp_rwlrn","Sun Mar 12 2023 22:34:17 GMT-0500 (Central Daylight Time)","396633","Untrustworthy,Trustworthy","","null","","","","decisionFB","","<div class='trialDiv'><img src='Fruit/melon.png'><br><font class='baseline'><strong>Melon Millions</strong><p>Choose number of points to bet.</font><div class='respPicDiv'><img src='img/responseButtonOffersNo0L1.png' class='respPic'></div></div>","null","4","Melon Millions","Fruit/melon.png","Won","0.35,0.65","11","0.35","49","11","",""
"html-keyboard-response","42","124508","0.0-11.0-3.10","6361769fee0c219b0f1cc480","bdp_rwlrn","Sun Mar 12 2023 22:34:17 GMT-0500 (Central Daylight Time)","396633","Untrustworthy,Trustworthy","","null","","","","feedback","","<div class='respPicDiv'><img src='img/responseButtonOffersNo0_wht.png' class='respPic'></div><div class='trialDiv'><img src='Fruit/melon.png'><br><font class='baseline'><strong>Melon Millions</strong><p><strong><font class='posOutcome'>You WON</font><p>You bet: 1</strong></font> &nbsp; &nbsp; &nbsp; &nbsp; &nbsp; &nbsp;<font class='posOutcome'>you receive: <strong>2</strong></font></div>","null","4","Melon Millions","Fruit/melon.png","Won","0.35,0.65","11","0.35","51","11","",""
"html-keyboard-response","43","125120","0.0-11.0-1.11","6361769fee0c219b0f1cc480","bdp_rwlrn","Sun Mar 12 2023 22:34:17 GMT-0500 (Central Daylight Time)","396633","Untrustworthy,Trustworthy","","611","","","","decision","","<div class='trialDiv'><img src='Fruit/lemon.png'><br><font class='baseline'><strong>Lucky Lemons</strong><p>Choose number of points to bet.</font><div class='respPicDiv'><img src='img/responseButtonOffersNo0L.png' class='respPic'></div></div>","4","4","Lucky Lemons","Fruit/lemon.png","Lost","0.8,0.35","12","0.8","56","12","",""
"html-keyboard-response","44","125372","0.0-11.0-2.11","6361769fee0c219b0f1cc480","bdp_rwlrn","Sun Mar 12 2023 22:34:17 GMT-0500 (Central Daylight Time)","396633","Untrustworthy,Trustworthy","","null","","","","decisionFB","","<div class='trialDiv'><img src='Fruit/lemon.png'><br><font class='baseline'><strong>Lucky Lemons</strong><p>Choose number of points to bet.</font><div class='respPicDiv'><img src='img/responseButtonOffersNo0L4.png' class='respPic'></div></div>","null","4","Lucky Lemons","Fruit/lemon.png","Lost","0.8,0.35","12","0.8","52","12","",""
"html-keyboard-response","45","126377","0.0-11.0-3.11","6361769fee0c219b0f1cc480","bdp_rwlrn","Sun Mar 12 2023 22:34:17 GMT-0500 (Central Daylight Time)","396633","Untrustworthy,Trustworthy","","null","","","","feedback","","<div class='respPicDiv'><img src='img/responseButtonOffersNo0_wht.png' class='respPic'></div><div class='trialDiv'><img src='Fruit/lemon.png'><br><font class='baseline'><strong>Lucky Lemons</strong><p><strong><font class='negOutcome'>You LOST</font><p>You bet: 4</strong></font> &nbsp; &nbsp; &nbsp; &nbsp; &nbsp; &nbsp;<font class='negOutcome'>You receive: <strong>0</strong></font></div>","null","4","Lucky Lemons","Fruit/lemon.png","Lost","0.8,0.35","12","0.8","52","12","",""
"html-keyboard-response","46","126584","0.0-11.0-1.12","6361769fee0c219b0f1cc480","bdp_rwlrn","Sun Mar 12 2023 22:34:17 GMT-0500 (Central Daylight Time)","396633","Untrustworthy,Trustworthy","","206","","","","decision","","<div class='trialDiv'><img src='Fruit/melon.png'><br><font class='baseline'><strong>Melon Millions</strong><p>Choose number of points to bet.</font><div class='respPicDiv'><img src='img/responseButtonOffersNo0L.png' class='respPic'></div></div>","1","5","Melon Millions","Fruit/melon.png","Lost","0.35,0.65","11","0.35","57","13","",""
"html-keyboard-response","47","126835","0.0-11.0-2.12","6361769fee0c219b0f1cc480","bdp_rwlrn","Sun Mar 12 2023 22:34:17 GMT-0500 (Central Daylight Time)","396633","Untrustworthy,Trustworthy","","null","","","","decisionFB","","<div class='trialDiv'><img src='Fruit/melon.png'><br><font class='baseline'><strong>Melon Millions</strong><p>Choose number of points to bet.</font><div class='respPicDiv'><img src='img/responseButtonOffersNo0L1.png' class='respPic'></div></div>","null","5","Melon Millions","Fruit/melon.png","Lost","0.35,0.65","11","0.35","56","13","",""
"html-keyboard-response","48","127838","0.0-11.0-3.12","6361769fee0c219b0f1cc480","bdp_rwlrn","Sun Mar 12 2023 22:34:17 GMT-0500 (Central Daylight Time)","396633","Untrustworthy,Trustworthy","","null","","","","feedback","","<div class='respPicDiv'><img src='img/responseButtonOffersNo0_wht.png' class='respPic'></div><div class='trialDiv'><img src='Fruit/melon.png'><br><font class='baseline'><strong>Melon Millions</strong><p><strong><font class='negOutcome'>You LOST</font><p>You bet: 1</strong></font> &nbsp; &nbsp; &nbsp; &nbsp; &nbsp; &nbsp;<font class='negOutcome'>You receive: <strong>0</strong></font></div>","null","5","Melon Millions","Fruit/melon.png","Lost","0.35,0.65","11","0.35","56","13","",""
"html-keyboard-response","49","129082","0.0-11.0-1.13","6361769fee0c219b0f1cc480","bdp_rwlrn","Sun Mar 12 2023 22:34:17 GMT-0500 (Central Daylight Time)","396633","Untrustworthy,Trustworthy","","1243","","","","decision","","<div class='trialDiv'><img src='Fruit/lemon.png'><br><font class='baseline'><strong>Lucky Lemons</strong><p>Choose number of points to bet.</font><div class='respPicDiv'><img src='img/responseButtonOffersNo0L.png' class='respPic'></div></div>","2","5","Lucky Lemons","Fruit/lemon.png","Lost","0.8,0.35","12","0.8","61","14","",""
"html-keyboard-response","50","129334","0.0-11.0-2.13","6361769fee0c219b0f1cc480","bdp_rwlrn","Sun Mar 12 2023 22:34:17 GMT-0500 (Central Daylight Time)","396633","Untrustworthy,Trustworthy","","null","","","","decisionFB","","<div class='trialDiv'><img src='Fruit/lemon.png'><br><font class='baseline'><strong>Lucky Lemons</strong><p>Choose number of points to bet.</font><div class='respPicDiv'><img src='img/responseButtonOffersNo0L2.png' class='respPic'></div></div>","null","5","Lucky Lemons","Fruit/lemon.png","Lost","0.8,0.35","12","0.8","59","14","",""
"html-keyboard-response","51","130337","0.0-11.0-3.13","6361769fee0c219b0f1cc480","bdp_rwlrn","Sun Mar 12 2023 22:34:17 GMT-0500 (Central Daylight Time)","396633","Untrustworthy,Trustworthy","","null","","","","feedback","","<div class='respPicDiv'><img src='img/responseButtonOffersNo0_wht.png' class='respPic'></div><div class='trialDiv'><img src='Fruit/lemon.png'><br><font class='baseline'><strong>Lucky Lemons</strong><p><strong><font class='negOutcome'>You LOST</font><p>You bet: 2</strong></font> &nbsp; &nbsp; &nbsp; &nbsp; &nbsp; &nbsp;<font class='negOutcome'>You receive: <strong>0</strong></font></div>","null","5","Lucky Lemons","Fruit/lemon.png","Lost","0.8,0.35","12","0.8","59","14","",""
"html-keyboard-response","52","131346","0.0-11.0-1.14","6361769fee0c219b0f1cc480","bdp_rwlrn","Sun Mar 12 2023 22:34:17 GMT-0500 (Central Daylight Time)","396633","Untrustworthy,Trustworthy","","1007","","","","decision","","<div class='trialDiv'><img src='Fruit/cherrie.png'><br><font class='baseline'><strong>Cherry Chances</strong><p>Choose number of points to bet.</font><div class='respPicDiv'><img src='img/responseButtonOffersNo0L.png' class='respPic'></div></div>","2","5","Cherry Chances","Fruit/cherrie.png","Lost","0.2,0.65","12","0.2","64","15","",""
"html-keyboard-response","53","131598","0.0-11.0-2.14","6361769fee0c219b0f1cc480","bdp_rwlrn","Sun Mar 12 2023 22:34:17 GMT-0500 (Central Daylight Time)","396633","Untrustworthy,Trustworthy","","null","","","","decisionFB","","<div class='trialDiv'><img src='Fruit/cherrie.png'><br><font class='baseline'><strong>Cherry Chances</strong><p>Choose number of points to bet.</font><div class='respPicDiv'><img src='img/responseButtonOffersNo0L2.png' class='respPic'></div></div>","null","5","Cherry Chances","Fruit/cherrie.png","Lost","0.2,0.65","12","0.2","62","15","",""
"html-keyboard-response","54","132601","0.0-11.0-3.14","6361769fee0c219b0f1cc480","bdp_rwlrn","Sun Mar 12 2023 22:34:17 GMT-0500 (Central Daylight Time)","396633","Untrustworthy,Trustworthy","","null","","","","feedback","","<div class='respPicDiv'><img src='img/responseButtonOffersNo0_wht.png' class='respPic'></div><div class='trialDiv'><img src='Fruit/cherrie.png'><br><font class='baseline'><strong>Cherry Chances</strong><p><strong><font class='negOutcome'>You LOST</font><p>You bet: 2</strong></font> &nbsp; &nbsp; &nbsp; &nbsp; &nbsp; &nbsp;<font class='negOutcome'>You receive: <strong>0</strong></font></div>","null","5","Cherry Chances","Fruit/cherrie.png","Lost","0.2,0.65","12","0.2","62","15","",""
"html-keyboard-response","55","133218","0.0-11.0-1.15","6361769fee0c219b0f1cc480","bdp_rwlrn","Sun Mar 12 2023 22:34:17 GMT-0500 (Central Daylight Time)","396633","Untrustworthy,Trustworthy","","615","","","","decision","","<div class='trialDiv'><img src='Fruit/melon.png'><br><font class='baseline'><strong>Melon Millions</strong><p>Choose number of points to bet.</font><div class='respPicDiv'><img src='img/responseButtonOffersNo0L.png' class='respPic'></div></div>","1","6","Melon Millions","Fruit/melon.png","Lost","0.35,0.65","11","0.35","67","16","",""
"html-keyboard-response","56","133471","0.0-11.0-2.15","6361769fee0c219b0f1cc480","bdp_rwlrn","Sun Mar 12 2023 22:34:17 GMT-0500 (Central Daylight Time)","396633","Untrustworthy,Trustworthy","","null","","","","decisionFB","","<div class='trialDiv'><img src='Fruit/melon.png'><br><font class='baseline'><strong>Melon Millions</strong><p>Choose number of points to bet.</font><div class='respPicDiv'><img src='img/responseButtonOffersNo0L1.png' class='respPic'></div></div>","null","6","Melon Millions","Fruit/melon.png","Lost","0.35,0.65","11","0.35","66","16","",""
"html-keyboard-response","57","134473","0.0-11.0-3.15","6361769fee0c219b0f1cc480","bdp_rwlrn","Sun Mar 12 2023 22:34:17 GMT-0500 (Central Daylight Time)","396633","Untrustworthy,Trustworthy","","null","","","","feedback","","<div class='respPicDiv'><img src='img/responseButtonOffersNo0_wht.png' class='respPic'></div><div class='trialDiv'><img src='Fruit/melon.png'><br><font class='baseline'><strong>Melon Millions</strong><p><strong><font class='negOutcome'>You LOST</font><p>You bet: 1</strong></font> &nbsp; &nbsp; &nbsp; &nbsp; &nbsp; &nbsp;<font class='negOutcome'>You receive: <strong>0</strong></font></div>","null","6","Melon Millions","Fruit/melon.png","Lost","0.35,0.65","11","0.35","66","16","",""
"html-keyboard-response","58","134753","0.0-11.0-1.16","6361769fee0c219b0f1cc480","bdp_rwlrn","Sun Mar 12 2023 22:34:17 GMT-0500 (Central Daylight Time)","396633","Untrustworthy,Trustworthy","","279","","","","decision","","<div class='trialDiv'><img src='Fruit/lemon.png'><br><font class='baseline'><strong>Lucky Lemons</strong><p>Choose number of points to bet.</font><div class='respPicDiv'><img src='img/responseButtonOffersNo0L.png' class='respPic'></div></div>","1","6","Lucky Lemons","Fruit/lemon.png","Won","0.8,0.35","12","0.8","71","17","",""
"html-keyboard-response","59","135005","0.0-11.0-2.16","6361769fee0c219b0f1cc480","bdp_rwlrn","Sun Mar 12 2023 22:34:17 GMT-0500 (Central Daylight Time)","396633","Untrustworthy,Trustworthy","","null","","","","decisionFB","","<div class='trialDiv'><img src='Fruit/lemon.png'><br><font class='baseline'><strong>Lucky Lemons</strong><p>Choose number of points to bet.</font><div class='respPicDiv'><img src='img/responseButtonOffersNo0L1.png' class='respPic'></div></div>","null","6","Lucky Lemons","Fruit/lemon.png","Won","0.8,0.35","12","0.8","70","17","",""
"html-keyboard-response","60","136007","0.0-11.0-3.16","6361769fee0c219b0f1cc480","bdp_rwlrn","Sun Mar 12 2023 22:34:17 GMT-0500 (Central Daylight Time)","396633","Untrustworthy,Trustworthy","","null","","","","feedback","","<div class='respPicDiv'><img src='img/responseButtonOffersNo0_wht.png' class='respPic'></div><div class='trialDiv'><img src='Fruit/lemon.png'><br><font class='baseline'><strong>Lucky Lemons</strong><p><strong><font class='posOutcome'>You WON</font><p>You bet: 1</strong></font> &nbsp; &nbsp; &nbsp; &nbsp; &nbsp; &nbsp;<font class='posOutcome'>you receive: <strong>2</strong></font></div>","null","6","Lucky Lemons","Fruit/lemon.png","Won","0.8,0.35","12","0.8","72","17","",""
"html-keyboard-response","61","136718","0.0-11.0-1.17","6361769fee0c219b0f1cc480","bdp_rwlrn","Sun Mar 12 2023 22:34:17 GMT-0500 (Central Daylight Time)","396633","Untrustworthy,Trustworthy","","709","","","","decision","","<div class='trialDiv'><img src='Fruit/cherrie.png'><br><font class='baseline'><strong>Cherry Chances</strong><p>Choose number of points to bet.</font><div class='respPicDiv'><img src='img/responseButtonOffersNo0L.png' class='respPic'></div></div>","1","6","Cherry Chances","Fruit/cherrie.png","Won","0.2,0.65","12","0.2","77","18","",""
"html-keyboard-response","62","136970","0.0-11.0-2.17","6361769fee0c219b0f1cc480","bdp_rwlrn","Sun Mar 12 2023 22:34:17 GMT-0500 (Central Daylight Time)","396633","Untrustworthy,Trustworthy","","null","","","","decisionFB","","<div class='trialDiv'><img src='Fruit/cherrie.png'><br><font class='baseline'><strong>Cherry Chances</strong><p>Choose number of points to bet.</font><div class='respPicDiv'><img src='img/responseButtonOffersNo0L1.png' class='respPic'></div></div>","null","6","Cherry Chances","Fruit/cherrie.png","Won","0.2,0.65","12","0.2","76","18","",""
"html-keyboard-response","63","137973","0.0-11.0-3.17","6361769fee0c219b0f1cc480","bdp_rwlrn","Sun Mar 12 2023 22:34:17 GMT-0500 (Central Daylight Time)","396633","Untrustworthy,Trustworthy","","null","","","","feedback","","<div class='respPicDiv'><img src='img/responseButtonOffersNo0_wht.png' class='respPic'></div><div class='trialDiv'><img src='Fruit/cherrie.png'><br><font class='baseline'><strong>Cherry Chances</strong><p><strong><font class='posOutcome'>You WON</font><p>You bet: 1</strong></font> &nbsp; &nbsp; &nbsp; &nbsp; &nbsp; &nbsp;<font class='posOutcome'>you receive: <strong>2</strong></font></div>","null","6","Cherry Chances","Fruit/cherrie.png","Won","0.2,0.65","12","0.2","78","18","",""
"html-keyboard-response","64","138268","0.0-11.0-1.18","6361769fee0c219b0f1cc480","bdp_rwlrn","Sun Mar 12 2023 22:34:17 GMT-0500 (Central Daylight Time)","396633","Untrustworthy,Trustworthy","","294","","","","decision","","<div class='trialDiv'><img src='Fruit/lemon.png'><br><font class='baseline'><strong>Lucky Lemons</strong><p>Choose number of points to bet.</font><div class='respPicDiv'><img src='img/responseButtonOffersNo0L.png' class='respPic'></div></div>","1","7","Lucky Lemons","Fruit/lemon.png","Won","0.8,0.35","12","0.8","83","19","",""
"html-keyboard-response","65","138519","0.0-11.0-2.18","6361769fee0c219b0f1cc480","bdp_rwlrn","Sun Mar 12 2023 22:34:17 GMT-0500 (Central Daylight Time)","396633","Untrustworthy,Trustworthy","","null","","","","decisionFB","","<div class='trialDiv'><img src='Fruit/lemon.png'><br><font class='baseline'><strong>Lucky Lemons</strong><p>Choose number of points to bet.</font><div class='respPicDiv'><img src='img/responseButtonOffersNo0L1.png' class='respPic'></div></div>","null","7","Lucky Lemons","Fruit/lemon.png","Won","0.8,0.35","12","0.8","82","19","",""
"html-keyboard-response","66","139522","0.0-11.0-3.18","6361769fee0c219b0f1cc480","bdp_rwlrn","Sun Mar 12 2023 22:34:17 GMT-0500 (Central Daylight Time)","396633","Untrustworthy,Trustworthy","","null","","","","feedback","","<div class='respPicDiv'><img src='img/responseButtonOffersNo0_wht.png' class='respPic'></div><div class='trialDiv'><img src='Fruit/lemon.png'><br><font class='baseline'><strong>Lucky Lemons</strong><p><strong><font class='posOutcome'>You WON</font><p>You bet: 1</strong></font> &nbsp; &nbsp; &nbsp; &nbsp; &nbsp; &nbsp;<font class='posOutcome'>you receive: <strong>2</strong></font></div>","null","7","Lucky Lemons","Fruit/lemon.png","Won","0.8,0.35","12","0.8","84","19","",""
"html-keyboard-response","67","139875","0.0-11.0-1.19","6361769fee0c219b0f1cc480","bdp_rwlrn","Sun Mar 12 2023 22:34:17 GMT-0500 (Central Daylight Time)","396633","Untrustworthy,Trustworthy","","351","","","","decision","","<div class='trialDiv'><img src='Fruit/cherrie.png'><br><font class='baseline'><strong>Cherry Chances</strong><p>Choose number of points to bet.</font><div class='respPicDiv'><img src='img/responseButtonOffersNo0L.png' class='respPic'></div></div>","1","7","Cherry Chances","Fruit/cherrie.png","Lost","0.2,0.65","12","0.2","89","20","",""
"html-keyboard-response","68","140126","0.0-11.0-2.19","6361769fee0c219b0f1cc480","bdp_rwlrn","Sun Mar 12 2023 22:34:17 GMT-0500 (Central Daylight Time)","396633","Untrustworthy,Trustworthy","","null","","","","decisionFB","","<div class='trialDiv'><img src='Fruit/cherrie.png'><br><font class='baseline'><strong>Cherry Chances</strong><p>Choose number of points to bet.</font><div class='respPicDiv'><img src='img/responseButtonOffersNo0L1.png' class='respPic'></div></div>","null","7","Cherry Chances","Fruit/cherrie.png","Lost","0.2,0.65","12","0.2","88","20","",""
"html-keyboard-response","69","141128","0.0-11.0-3.19","6361769fee0c219b0f1cc480","bdp_rwlrn","Sun Mar 12 2023 22:34:17 GMT-0500 (Central Daylight Time)","396633","Untrustworthy,Trustworthy","","null","","","","feedback","","<div class='respPicDiv'><img src='img/responseButtonOffersNo0_wht.png' class='respPic'></div><div class='trialDiv'><img src='Fruit/cherrie.png'><br><font class='baseline'><strong>Cherry Chances</strong><p><strong><font class='negOutcome'>You LOST</font><p>You bet: 1</strong></font> &nbsp; &nbsp; &nbsp; &nbsp; &nbsp; &nbsp;<font class='negOutcome'>You receive: <strong>0</strong></font></div>","null","7","Cherry Chances","Fruit/cherrie.png","Lost","0.2,0.65","12","0.2","88","20","",""
"html-keyboard-response","70","141834","0.0-11.0-1.20","6361769fee0c219b0f1cc480","bdp_rwlrn","Sun Mar 12 2023 22:34:17 GMT-0500 (Central Daylight Time)","396633","Untrustworthy,Trustworthy","","704","","","","decision","","<div class='trialDiv'><img src='Fruit/melon.png'><br><font class='baseline'><strong>Melon Millions</strong><p>Choose number of points to bet.</font><div class='respPicDiv'><img src='img/responseButtonOffersNo0L.png' class='respPic'></div></div>","1","7","Melon Millions","Fruit/melon.png","Lost","0.35,0.65","11","0.35","93","21","",""
"html-keyboard-response","71","142086","0.0-11.0-2.20","6361769fee0c219b0f1cc480","bdp_rwlrn","Sun Mar 12 2023 22:34:17 GMT-0500 (Central Daylight Time)","396633","Untrustworthy,Trustworthy","","null","","","","decisionFB","","<div class='trialDiv'><img src='Fruit/melon.png'><br><font class='baseline'><strong>Melon Millions</strong><p>Choose number of points to bet.</font><div class='respPicDiv'><img src='img/responseButtonOffersNo0L1.png' class='respPic'></div></div>","null","7","Melon Millions","Fruit/melon.png","Lost","0.35,0.65","11","0.35","92","21","",""
"html-keyboard-response","72","143089","0.0-11.0-3.20","6361769fee0c219b0f1cc480","bdp_rwlrn","Sun Mar 12 2023 22:34:17 GMT-0500 (Central Daylight Time)","396633","Untrustworthy,Trustworthy","","null","","","","feedback","","<div class='respPicDiv'><img src='img/responseButtonOffersNo0_wht.png' class='respPic'></div><div class='trialDiv'><img src='Fruit/melon.png'><br><font class='baseline'><strong>Melon Millions</strong><p><strong><font class='negOutcome'>You LOST</font><p>You bet: 1</strong></font> &nbsp; &nbsp; &nbsp; &nbsp; &nbsp; &nbsp;<font class='negOutcome'>You receive: <strong>0</strong></font></div>","null","7","Melon Millions","Fruit/melon.png","Lost","0.35,0.65","11","0.35","92","21","",""
"html-keyboard-response","73","143601","0.0-11.0-1.21","6361769fee0c219b0f1cc480","bdp_rwlrn","Sun Mar 12 2023 22:34:17 GMT-0500 (Central Daylight Time)","396633","Untrustworthy,Trustworthy","","511","","","","decision","","<div class='trialDiv'><img src='Fruit/cherrie.png'><br><font class='baseline'><strong>Cherry Chances</strong><p>Choose number of points to bet.</font><div class='respPicDiv'><img src='img/responseButtonOffersNo0L.png' class='respPic'></div></div>","1","8","Cherry Chances","Fruit/cherrie.png","Lost","0.2,0.65","12","0.2","97","22","",""
"html-keyboard-response","74","143854","0.0-11.0-2.21","6361769fee0c219b0f1cc480","bdp_rwlrn","Sun Mar 12 2023 22:34:17 GMT-0500 (Central Daylight Time)","396633","Untrustworthy,Trustworthy","","null","","","","decisionFB","","<div class='trialDiv'><img src='Fruit/cherrie.png'><br><font class='baseline'><strong>Cherry Chances</strong><p>Choose number of points to bet.</font><div class='respPicDiv'><img src='img/responseButtonOffersNo0L1.png' class='respPic'></div></div>","null","8","Cherry Chances","Fruit/cherrie.png","Lost","0.2,0.65","12","0.2","96","22","",""
"html-keyboard-response","75","144855","0.0-11.0-3.21","6361769fee0c219b0f1cc480","bdp_rwlrn","Sun Mar 12 2023 22:34:17 GMT-0500 (Central Daylight Time)","396633","Untrustworthy,Trustworthy","","null","","","","feedback","","<div class='respPicDiv'><img src='img/responseButtonOffersNo0_wht.png' class='respPic'></div><div class='trialDiv'><img src='Fruit/cherrie.png'><br><font class='baseline'><strong>Cherry Chances</strong><p><strong><font class='negOutcome'>You LOST</font><p>You bet: 1</strong></font> &nbsp; &nbsp; &nbsp; &nbsp; &nbsp; &nbsp;<font class='negOutcome'>You receive: <strong>0</strong></font></div>","null","8","Cherry Chances","Fruit/cherrie.png","Lost","0.2,0.65","12","0.2","96","22","",""
"html-keyboard-response","76","146257","0.0-11.0-1.22","6361769fee0c219b0f1cc480","bdp_rwlrn","Sun Mar 12 2023 22:34:17 GMT-0500 (Central Daylight Time)","396633","Untrustworthy,Trustworthy","","1400","","","","decision","","<div class='trialDiv'><img src='Fruit/lemon.png'><br><font class='baseline'><strong>Lucky Lemons</strong><p>Choose number of points to bet.</font><div class='respPicDiv'><img src='img/responseButtonOffersNo0L.png' class='respPic'></div></div>","1","8","Lucky Lemons","Fruit/lemon.png","Won","0.8,0.35","12","0.8","101","23","",""
"html-keyboard-response","77","146509","0.0-11.0-2.22","6361769fee0c219b0f1cc480","bdp_rwlrn","Sun Mar 12 2023 22:34:17 GMT-0500 (Central Daylight Time)","396633","Untrustworthy,Trustworthy","","null","","","","decisionFB","","<div class='trialDiv'><img src='Fruit/lemon.png'><br><font class='baseline'><strong>Lucky Lemons</strong><p>Choose number of points to bet.</font><div class='respPicDiv'><img src='img/responseButtonOffersNo0L1.png' class='respPic'></div></div>","null","8","Lucky Lemons","Fruit/lemon.png","Won","0.8,0.35","12","0.8","100","23","",""
"html-keyboard-response","78","147512","0.0-11.0-3.22","6361769fee0c219b0f1cc480","bdp_rwlrn","Sun Mar 12 2023 22:34:17 GMT-0500 (Central Daylight Time)","396633","Untrustworthy,Trustworthy","","null","","","","feedback","","<div class='respPicDiv'><img src='img/responseButtonOffersNo0_wht.png' class='respPic'></div><div class='trialDiv'><img src='Fruit/lemon.png'><br><font class='baseline'><strong>Lucky Lemons</strong><p><strong><font class='posOutcome'>You WON</font><p>You bet: 1</strong></font> &nbsp; &nbsp; &nbsp; &nbsp; &nbsp; &nbsp;<font class='posOutcome'>you receive: <strong>2</strong></font></div>","null","8","Lucky Lemons","Fruit/lemon.png","Won","0.8,0.35","12","0.8","102","23","",""
"html-keyboard-response","79","148425","0.0-11.0-1.23","6361769fee0c219b0f1cc480","bdp_rwlrn","Sun Mar 12 2023 22:34:17 GMT-0500 (Central Daylight Time)","396633","Untrustworthy,Trustworthy","","912","","","","decision","","<div class='trialDiv'><img src='Fruit/melon.png'><br><font class='baseline'><strong>Melon Millions</strong><p>Choose number of points to bet.</font><div class='respPicDiv'><img src='img/responseButtonOffersNo0L.png' class='respPic'></div></div>","2","8","Melon Millions","Fruit/melon.png","Won","0.35,0.65","11","0.35","107","24","",""
"html-keyboard-response","80","148678","0.0-11.0-2.23","6361769fee0c219b0f1cc480","bdp_rwlrn","Sun Mar 12 2023 22:34:17 GMT-0500 (Central Daylight Time)","396633","Untrustworthy,Trustworthy","","null","","","","decisionFB","","<div class='trialDiv'><img src='Fruit/melon.png'><br><font class='baseline'><strong>Melon Millions</strong><p>Choose number of points to bet.</font><div class='respPicDiv'><img src='img/responseButtonOffersNo0L2.png' class='respPic'></div></div>","null","8","Melon Millions","Fruit/melon.png","Won","0.35,0.65","11","0.35","105","24","",""
"html-keyboard-response","81","149680","0.0-11.0-3.23","6361769fee0c219b0f1cc480","bdp_rwlrn","Sun Mar 12 2023 22:34:17 GMT-0500 (Central Daylight Time)","396633","Untrustworthy,Trustworthy","","null","","","","feedback","","<div class='respPicDiv'><img src='img/responseButtonOffersNo0_wht.png' class='respPic'></div><div class='trialDiv'><img src='Fruit/melon.png'><br><font class='baseline'><strong>Melon Millions</strong><p><strong><font class='posOutcome'>You WON</font><p>You bet: 2</strong></font> &nbsp; &nbsp; &nbsp; &nbsp; &nbsp; &nbsp;<font class='posOutcome'>you receive: <strong>4</strong></font></div>","null","8","Melon Millions","Fruit/melon.png","Won","0.35,0.65","11","0.35","109","24","",""
"html-keyboard-response","82","150692","0.0-11.0-1.24","6361769fee0c219b0f1cc480","bdp_rwlrn","Sun Mar 12 2023 22:34:17 GMT-0500 (Central Daylight Time)","396633","Untrustworthy,Trustworthy","","1009","","","","decision","","<div class='trialDiv'><img src='Fruit/lemon.png'><br><font class='baseline'><strong>Lucky Lemons</strong><p>Choose number of points to bet.</font><div class='respPicDiv'><img src='img/responseButtonOffersNo0L.png' class='respPic'></div></div>","2","9","Lucky Lemons","Fruit/lemon.png","Won","0.8,0.35","12","0.8","114","25","",""
"html-keyboard-response","83","150944","0.0-11.0-2.24","6361769fee0c219b0f1cc480","bdp_rwlrn","Sun Mar 12 2023 22:34:17 GMT-0500 (Central Daylight Time)","396633","Untrustworthy,Trustworthy","","null","","","","decisionFB","","<div class='trialDiv'><img src='Fruit/lemon.png'><br><font class='baseline'><strong>Lucky Lemons</strong><p>Choose number of points to bet.</font><div class='respPicDiv'><img src='img/responseButtonOffersNo0L2.png' class='respPic'></div></div>","null","9","Lucky Lemons","Fruit/lemon.png","Won","0.8,0.35","12","0.8","112","25","",""
"html-keyboard-response","84","151946","0.0-11.0-3.24","6361769fee0c219b0f1cc480","bdp_rwlrn","Sun Mar 12 2023 22:34:17 GMT-0500 (Central Daylight Time)","396633","Untrustworthy,Trustworthy","","null","","","","feedback","","<div class='respPicDiv'><img src='img/responseButtonOffersNo0_wht.png' class='respPic'></div><div class='trialDiv'><img src='Fruit/lemon.png'><br><font class='baseline'><strong>Lucky Lemons</strong><p><strong><font class='posOutcome'>You WON</font><p>You bet: 2</strong></font> &nbsp; &nbsp; &nbsp; &nbsp; &nbsp; &nbsp;<font class='posOutcome'>you receive: <strong>4</strong></font></div>","null","9","Lucky Lemons","Fruit/lemon.png","Won","0.8,0.35","12","0.8","116","25","",""
"html-keyboard-response","85","152500","0.0-11.0-1.25","6361769fee0c219b0f1cc480","bdp_rwlrn","Sun Mar 12 2023 22:34:17 GMT-0500 (Central Daylight Time)","396633","Untrustworthy,Trustworthy","","551","","","","decision","","<div class='trialDiv'><img src='Fruit/cherrie.png'><br><font class='baseline'><strong>Cherry Chances</strong><p>Choose number of points to bet.</font><div class='respPicDiv'><img src='img/responseButtonOffersNo0L.png' class='respPic'></div></div>","1","9","Cherry Chances","Fruit/cherrie.png","Lost","0.2,0.65","12","0.2","121","26","",""
"html-keyboard-response","86","152752","0.0-11.0-2.25","6361769fee0c219b0f1cc480","bdp_rwlrn","Sun Mar 12 2023 22:34:17 GMT-0500 (Central Daylight Time)","396633","Untrustworthy,Trustworthy","","null","","","","decisionFB","","<div class='trialDiv'><img src='Fruit/cherrie.png'><br><font class='baseline'><strong>Cherry Chances</strong><p>Choose number of points to bet.</font><div class='respPicDiv'><img src='img/responseButtonOffersNo0L1.png' class='respPic'></div></div>","null","9","Cherry Chances","Fruit/cherrie.png","Lost","0.2,0.65","12","0.2","120","26","",""
"html-keyboard-response","87","153754","0.0-11.0-3.25","6361769fee0c219b0f1cc480","bdp_rwlrn","Sun Mar 12 2023 22:34:17 GMT-0500 (Central Daylight Time)","396633","Untrustworthy,Trustworthy","","null","","","","feedback","","<div class='respPicDiv'><img src='img/responseButtonOffersNo0_wht.png' class='respPic'></div><div class='trialDiv'><img src='Fruit/cherrie.png'><br><font class='baseline'><strong>Cherry Chances</strong><p><strong><font class='negOutcome'>You LOST</font><p>You bet: 1</strong></font> &nbsp; &nbsp; &nbsp; &nbsp; &nbsp; &nbsp;<font class='negOutcome'>You receive: <strong>0</strong></font></div>","null","9","Cherry Chances","Fruit/cherrie.png","Lost","0.2,0.65","12","0.2","120","26","",""
"html-keyboard-response","88","154371","0.0-11.0-1.26","6361769fee0c219b0f1cc480","bdp_rwlrn","Sun Mar 12 2023 22:34:17 GMT-0500 (Central Daylight Time)","396633","Untrustworthy,Trustworthy","","616","","","","decision","","<div class='trialDiv'><img src='Fruit/melon.png'><br><font class='baseline'><strong>Melon Millions</strong><p>Choose number of points to bet.</font><div class='respPicDiv'><img src='img/responseButtonOffersNo0L.png' class='respPic'></div></div>","1","9","Melon Millions","Fruit/melon.png","Won","0.35,0.65","11","0.35","125","27","",""
"html-keyboard-response","89","154624","0.0-11.0-2.26","6361769fee0c219b0f1cc480","bdp_rwlrn","Sun Mar 12 2023 22:34:17 GMT-0500 (Central Daylight Time)","396633","Untrustworthy,Trustworthy","","null","","","","decisionFB","","<div class='trialDiv'><img src='Fruit/melon.png'><br><font class='baseline'><strong>Melon Millions</strong><p>Choose number of points to bet.</font><div class='respPicDiv'><img src='img/responseButtonOffersNo0L1.png' class='respPic'></div></div>","null","9","Melon Millions","Fruit/melon.png","Won","0.35,0.65","11","0.35","124","27","",""
"html-keyboard-response","90","155627","0.0-11.0-3.26","6361769fee0c219b0f1cc480","bdp_rwlrn","Sun Mar 12 2023 22:34:17 GMT-0500 (Central Daylight Time)","396633","Untrustworthy,Trustworthy","","null","","","","feedback","","<div class='respPicDiv'><img src='img/responseButtonOffersNo0_wht.png' class='respPic'></div><div class='trialDiv'><img src='Fruit/melon.png'><br><font class='baseline'><strong>Melon Millions</strong><p><strong><font class='posOutcome'>You WON</font><p>You bet: 1</strong></font> &nbsp; &nbsp; &nbsp; &nbsp; &nbsp; &nbsp;<font class='posOutcome'>you receive: <strong>2</strong></font></div>","null","9","Melon Millions","Fruit/melon.png","Won","0.35,0.65","11","0.35","126","27","",""
"html-keyboard-response","91","156257","0.0-11.0-1.27","6361769fee0c219b0f1cc480","bdp_rwlrn","Sun Mar 12 2023 22:34:17 GMT-0500 (Central Daylight Time)","396633","Untrustworthy,Trustworthy","","629","","","","decision","","<div class='trialDiv'><img src='Fruit/lemon.png'><br><font class='baseline'><strong>Lucky Lemons</strong><p>Choose number of points to bet.</font><div class='respPicDiv'><img src='img/responseButtonOffersNo0L.png' class='respPic'></div></div>","2","10","Lucky Lemons","Fruit/lemon.png","Lost","0.8,0.35","12","0.8","131","28","",""
"html-keyboard-response","92","156510","0.0-11.0-2.27","6361769fee0c219b0f1cc480","bdp_rwlrn","Sun Mar 12 2023 22:34:17 GMT-0500 (Central Daylight Time)","396633","Untrustworthy,Trustworthy","","null","","","","decisionFB","","<div class='trialDiv'><img src='Fruit/lemon.png'><br><font class='baseline'><strong>Lucky Lemons</strong><p>Choose number of points to bet.</font><div class='respPicDiv'><img src='img/responseButtonOffersNo0L2.png' class='respPic'></div></div>","null","10","Lucky Lemons","Fruit/lemon.png","Lost","0.8,0.35","12","0.8","129","28","",""
"html-keyboard-response","93","157512","0.0-11.0-3.27","6361769fee0c219b0f1cc480","bdp_rwlrn","Sun Mar 12 2023 22:34:17 GMT-0500 (Central Daylight Time)","396633","Untrustworthy,Trustworthy","","null","","","","feedback","","<div class='respPicDiv'><img src='img/responseButtonOffersNo0_wht.png' class='respPic'></div><div class='trialDiv'><img src='Fruit/lemon.png'><br><font class='baseline'><strong>Lucky Lemons</strong><p><strong><font class='negOutcome'>You LOST</font><p>You bet: 2</strong></font> &nbsp; &nbsp; &nbsp; &nbsp; &nbsp; &nbsp;<font class='negOutcome'>You receive: <strong>0</strong></font></div>","null","10","Lucky Lemons","Fruit/lemon.png","Lost","0.8,0.35","12","0.8","129","28","",""
"html-keyboard-response","94","157861","0.0-11.0-1.28","6361769fee0c219b0f1cc480","bdp_rwlrn","Sun Mar 12 2023 22:34:17 GMT-0500 (Central Daylight Time)","396633","Untrustworthy,Trustworthy","","346","","","","decision","","<div class='trialDiv'><img src='Fruit/cherrie.png'><br><font class='baseline'><strong>Cherry Chances</strong><p>Choose number of points to bet.</font><div class='respPicDiv'><img src='img/responseButtonOffersNo0L.png' class='respPic'></div></div>","1","10","Cherry Chances","Fruit/cherrie.png","Lost","0.2,0.65","12","0.2","134","29","",""
"html-keyboard-response","95","158113","0.0-11.0-2.28","6361769fee0c219b0f1cc480","bdp_rwlrn","Sun Mar 12 2023 22:34:17 GMT-0500 (Central Daylight Time)","396633","Untrustworthy,Trustworthy","","null","","","","decisionFB","","<div class='trialDiv'><img src='Fruit/cherrie.png'><br><font class='baseline'><strong>Cherry Chances</strong><p>Choose number of points to bet.</font><div class='respPicDiv'><img src='img/responseButtonOffersNo0L1.png' class='respPic'></div></div>","null","10","Cherry Chances","Fruit/cherrie.png","Lost","0.2,0.65","12","0.2","133","29","",""
"html-keyboard-response","96","159116","0.0-11.0-3.28","6361769fee0c219b0f1cc480","bdp_rwlrn","Sun Mar 12 2023 22:34:17 GMT-0500 (Central Daylight Time)","396633","Untrustworthy,Trustworthy","","null","","","","feedback","","<div class='respPicDiv'><img src='img/responseButtonOffersNo0_wht.png' class='respPic'></div><div class='trialDiv'><img src='Fruit/cherrie.png'><br><font class='baseline'><strong>Cherry Chances</strong><p><strong><font class='negOutcome'>You LOST</font><p>You bet: 1</strong></font> &nbsp; &nbsp; &nbsp; &nbsp; &nbsp; &nbsp;<font class='negOutcome'>You receive: <strong>0</strong></font></div>","null","10","Cherry Chances","Fruit/cherrie.png","Lost","0.2,0.65","12","0.2","133","29","",""
"html-keyboard-response","97","159416","0.0-11.0-1.29","6361769fee0c219b0f1cc480","bdp_rwlrn","Sun Mar 12 2023 22:34:17 GMT-0500 (Central Daylight Time)","396633","Untrustworthy,Trustworthy","","299","","","","decision","","<div class='trialDiv'><img src='Fruit/melon.png'><br><font class='baseline'><strong>Melon Millions</strong><p>Choose number of points to bet.</font><div class='respPicDiv'><img src='img/responseButtonOffersNo0L.png' class='respPic'></div></div>","1","10","Melon Millions","Fruit/melon.png","Won","0.35,0.65","11","0.35","138","30","",""
"html-keyboard-response","98","159669","0.0-11.0-2.29","6361769fee0c219b0f1cc480","bdp_rwlrn","Sun Mar 12 2023 22:34:17 GMT-0500 (Central Daylight Time)","396633","Untrustworthy,Trustworthy","","null","","","","decisionFB","","<div class='trialDiv'><img src='Fruit/melon.png'><br><font class='baseline'><strong>Melon Millions</strong><p>Choose number of points to bet.</font><div class='respPicDiv'><img src='img/responseButtonOffersNo0L1.png' class='respPic'></div></div>","null","10","Melon Millions","Fruit/melon.png","Won","0.35,0.65","11","0.35","137","30","",""
"html-keyboard-response","99","160672","0.0-11.0-3.29","6361769fee0c219b0f1cc480","bdp_rwlrn","Sun Mar 12 2023 22:34:17 GMT-0500 (Central Daylight Time)","396633","Untrustworthy,Trustworthy","","null","","","","feedback","","<div class='respPicDiv'><img src='img/responseButtonOffersNo0_wht.png' class='respPic'></div><div class='trialDiv'><img src='Fruit/melon.png'><br><font class='baseline'><strong>Melon Millions</strong><p><strong><font class='posOutcome'>You WON</font><p>You bet: 1</strong></font> &nbsp; &nbsp; &nbsp; &nbsp; &nbsp; &nbsp;<font class='posOutcome'>you receive: <strong>2</strong></font></div>","null","10","Melon Millions","Fruit/melon.png","Won","0.35,0.65","11","0.35","139","30","",""
"html-keyboard-response","100","162240","0.0-11.0-1.30","6361769fee0c219b0f1cc480","bdp_rwlrn","Sun Mar 12 2023 22:34:17 GMT-0500 (Central Daylight Time)","396633","Untrustworthy,Trustworthy","","1567","","","","decision","","<div class='trialDiv'><img src='Fruit/cherrie.png'><br><font class='baseline'><strong>Cherry Chances</strong><p>Choose number of points to bet.</font><div class='respPicDiv'><img src='img/responseButtonOffersNo0L.png' class='respPic'></div></div>","1","11","Cherry Chances","Fruit/cherrie.png","Won","0.2,0.65","12","0.2","144","31","",""
"html-keyboard-response","101","162493","0.0-11.0-2.30","6361769fee0c219b0f1cc480","bdp_rwlrn","Sun Mar 12 2023 22:34:17 GMT-0500 (Central Daylight Time)","396633","Untrustworthy,Trustworthy","","null","","","","decisionFB","","<div class='trialDiv'><img src='Fruit/cherrie.png'><br><font class='baseline'><strong>Cherry Chances</strong><p>Choose number of points to bet.</font><div class='respPicDiv'><img src='img/responseButtonOffersNo0L1.png' class='respPic'></div></div>","null","11","Cherry Chances","Fruit/cherrie.png","Won","0.2,0.65","12","0.2","143","31","",""
"html-keyboard-response","102","163496","0.0-11.0-3.30","6361769fee0c219b0f1cc480","bdp_rwlrn","Sun Mar 12 2023 22:34:17 GMT-0500 (Central Daylight Time)","396633","Untrustworthy,Trustworthy","","null","","","","feedback","","<div class='respPicDiv'><img src='img/responseButtonOffersNo0_wht.png' class='respPic'></div><div class='trialDiv'><img src='Fruit/cherrie.png'><br><font class='baseline'><strong>Cherry Chances</strong><p><strong><font class='posOutcome'>You WON</font><p>You bet: 1</strong></font> &nbsp; &nbsp; &nbsp; &nbsp; &nbsp; &nbsp;<font class='posOutcome'>you receive: <strong>2</strong></font></div>","null","11","Cherry Chances","Fruit/cherrie.png","Won","0.2,0.65","12","0.2","145","31","",""
"html-keyboard-response","103","164125","0.0-11.0-1.31","6361769fee0c219b0f1cc480","bdp_rwlrn","Sun Mar 12 2023 22:34:17 GMT-0500 (Central Daylight Time)","396633","Untrustworthy,Trustworthy","","627","","","","decision","","<div class='trialDiv'><img src='Fruit/lemon.png'><br><font class='baseline'><strong>Lucky Lemons</strong><p>Choose number of points to bet.</font><div class='respPicDiv'><img src='img/responseButtonOffersNo0L.png' class='respPic'></div></div>","3","11","Lucky Lemons","Fruit/lemon.png","Won","0.8,0.35","12","0.8","150","32","",""
"html-keyboard-response","104","164377","0.0-11.0-2.31","6361769fee0c219b0f1cc480","bdp_rwlrn","Sun Mar 12 2023 22:34:17 GMT-0500 (Central Daylight Time)","396633","Untrustworthy,Trustworthy","","null","","","","decisionFB","","<div class='trialDiv'><img src='Fruit/lemon.png'><br><font class='baseline'><strong>Lucky Lemons</strong><p>Choose number of points to bet.</font><div class='respPicDiv'><img src='img/responseButtonOffersNo0L3.png' class='respPic'></div></div>","null","11","Lucky Lemons","Fruit/lemon.png","Won","0.8,0.35","12","0.8","147","32","",""
"html-keyboard-response","105","165380","0.0-11.0-3.31","6361769fee0c219b0f1cc480","bdp_rwlrn","Sun Mar 12 2023 22:34:17 GMT-0500 (Central Daylight Time)","396633","Untrustworthy,Trustworthy","","null","","","","feedback","","<div class='respPicDiv'><img src='img/responseButtonOffersNo0_wht.png' class='respPic'></div><div class='trialDiv'><img src='Fruit/lemon.png'><br><font class='baseline'><strong>Lucky Lemons</strong><p><strong><font class='posOutcome'>You WON</font><p>You bet: 3</strong></font> &nbsp; &nbsp; &nbsp; &nbsp; &nbsp; &nbsp;<font class='posOutcome'>you receive: <strong>6</strong></font></div>","null","11","Lucky Lemons","Fruit/lemon.png","Won","0.8,0.35","12","0.8","153","32","",""
"html-keyboard-response","106","166160","0.0-11.0-1.32","6361769fee0c219b0f1cc480","bdp_rwlrn","Sun Mar 12 2023 22:34:17 GMT-0500 (Central Daylight Time)","396633","Untrustworthy,Trustworthy","","778","","","","decision","","<div class='trialDiv'><img src='Fruit/melon.png'><br><font class='baseline'><strong>Melon Millions</strong><p>Choose number of points to bet.</font><div class='respPicDiv'><img src='img/responseButtonOffersNo0L.png' class='respPic'></div></div>","1","11","Melon Millions","Fruit/melon.png","Won","0.35,0.65","11","0.35","158","33","",""
"html-keyboard-response","107","166412","0.0-11.0-2.32","6361769fee0c219b0f1cc480","bdp_rwlrn","Sun Mar 12 2023 22:34:17 GMT-0500 (Central Daylight Time)","396633","Untrustworthy,Trustworthy","","null","","","","decisionFB","","<div class='trialDiv'><img src='Fruit/melon.png'><br><font class='baseline'><strong>Melon Millions</strong><p>Choose number of points to bet.</font><div class='respPicDiv'><img src='img/responseButtonOffersNo0L1.png' class='respPic'></div></div>","null","11","Melon Millions","Fruit/melon.png","Won","0.35,0.65","11","0.35","157","33","",""
"html-keyboard-response","108","167414","0.0-11.0-3.32","6361769fee0c219b0f1cc480","bdp_rwlrn","Sun Mar 12 2023 22:34:17 GMT-0500 (Central Daylight Time)","396633","Untrustworthy,Trustworthy","","null","","","","feedback","","<div class='respPicDiv'><img src='img/responseButtonOffersNo0_wht.png' class='respPic'></div><div class='trialDiv'><img src='Fruit/melon.png'><br><font class='baseline'><strong>Melon Millions</strong><p><strong><font class='posOutcome'>You WON</font><p>You bet: 1</strong></font> &nbsp; &nbsp; &nbsp; &nbsp; &nbsp; &nbsp;<font class='posOutcome'>you receive: <strong>2</strong></font></div>","null","11","Melon Millions","Fruit/melon.png","Won","0.35,0.65","11","0.35","159","33","",""
"html-keyboard-response","109","168073","0.0-11.0-1.33","6361769fee0c219b0f1cc480","bdp_rwlrn","Sun Mar 12 2023 22:34:17 GMT-0500 (Central Daylight Time)","396633","Untrustworthy,Trustworthy","","656","","","","decision","","<div class='trialDiv'><img src='Fruit/cherrie.png'><br><font class='baseline'><strong>Cherry Chances</strong><p>Choose number of points to bet.</font><div class='respPicDiv'><img src='img/responseButtonOffersNo0L.png' class='respPic'></div></div>","1","12","Cherry Chances","Fruit/cherrie.png","Won","0.2,0.65","12","0.2","164","34","",""
"html-keyboard-response","110","168324","0.0-11.0-2.33","6361769fee0c219b0f1cc480","bdp_rwlrn","Sun Mar 12 2023 22:34:17 GMT-0500 (Central Daylight Time)","396633","Untrustworthy,Trustworthy","","null","","","","decisionFB","","<div class='trialDiv'><img src='Fruit/cherrie.png'><br><font class='baseline'><strong>Cherry Chances</strong><p>Choose number of points to bet.</font><div class='respPicDiv'><img src='img/responseButtonOffersNo0L1.png' class='respPic'></div></div>","null","12","Cherry Chances","Fruit/cherrie.png","Won","0.2,0.65","12","0.2","163","34","",""
"html-keyboard-response","111","169326","0.0-11.0-3.33","6361769fee0c219b0f1cc480","bdp_rwlrn","Sun Mar 12 2023 22:34:17 GMT-0500 (Central Daylight Time)","396633","Untrustworthy,Trustworthy","","null","","","","feedback","","<div class='respPicDiv'><img src='img/responseButtonOffersNo0_wht.png' class='respPic'></div><div class='trialDiv'><img src='Fruit/cherrie.png'><br><font class='baseline'><strong>Cherry Chances</strong><p><strong><font class='posOutcome'>You WON</font><p>You bet: 1</strong></font> &nbsp; &nbsp; &nbsp; &nbsp; &nbsp; &nbsp;<font class='posOutcome'>you receive: <strong>2</strong></font></div>","null","12","Cherry Chances","Fruit/cherrie.png","Won","0.2,0.65","12","0.2","165","34","",""
"html-keyboard-response","112","170292","0.0-11.0-1.34","6361769fee0c219b0f1cc480","bdp_rwlrn","Sun Mar 12 2023 22:34:17 GMT-0500 (Central Daylight Time)","396633","Untrustworthy,Trustworthy","","965","","","","decision","","<div class='trialDiv'><img src='Fruit/melon.png'><br><font class='baseline'><strong>Melon Millions</strong><p>Choose number of points to bet.</font><div class='respPicDiv'><img src='img/responseButtonOffersNo0L.png' class='respPic'></div></div>","2","12","Melon Millions","Fruit/melon.png","Lost","0.35,0.65","11","0.35","170","35","",""
"html-keyboard-response","113","170545","0.0-11.0-2.34","6361769fee0c219b0f1cc480","bdp_rwlrn","Sun Mar 12 2023 22:34:17 GMT-0500 (Central Daylight Time)","396633","Untrustworthy,Trustworthy","","null","","","","decisionFB","","<div class='trialDiv'><img src='Fruit/melon.png'><br><font class='baseline'><strong>Melon Millions</strong><p>Choose number of points to bet.</font><div class='respPicDiv'><img src='img/responseButtonOffersNo0L2.png' class='respPic'></div></div>","null","12","Melon Millions","Fruit/melon.png","Lost","0.35,0.65","11","0.35","168","35","",""
"html-keyboard-response","114","171547","0.0-11.0-3.34","6361769fee0c219b0f1cc480","bdp_rwlrn","Sun Mar 12 2023 22:34:17 GMT-0500 (Central Daylight Time)","396633","Untrustworthy,Trustworthy","","null","","","","feedback","","<div class='respPicDiv'><img src='img/responseButtonOffersNo0_wht.png' class='respPic'></div><div class='trialDiv'><img src='Fruit/melon.png'><br><font class='baseline'><strong>Melon Millions</strong><p><strong><font class='negOutcome'>You LOST</font><p>You bet: 2</strong></font> &nbsp; &nbsp; &nbsp; &nbsp; &nbsp; &nbsp;<font class='negOutcome'>You receive: <strong>0</strong></font></div>","null","12","Melon Millions","Fruit/melon.png","Lost","0.35,0.65","11","0.35","168","35","",""
"html-keyboard-response","115","172106","0.0-11.0-1.35","6361769fee0c219b0f1cc480","bdp_rwlrn","Sun Mar 12 2023 22:34:17 GMT-0500 (Central Daylight Time)","396633","Untrustworthy,Trustworthy","","557","","","","decision","","<div class='trialDiv'><img src='Fruit/lemon.png'><br><font class='baseline'><strong>Lucky Lemons</strong><p>Choose number of points to bet.</font><div class='respPicDiv'><img src='img/responseButtonOffersNo0L.png' class='respPic'></div></div>","3","12","Lucky Lemons","Fruit/lemon.png","Lost","0.8,0.35","12","0.8","173","36","",""
"html-keyboard-response","116","172357","0.0-11.0-2.35","6361769fee0c219b0f1cc480","bdp_rwlrn","Sun Mar 12 2023 22:34:17 GMT-0500 (Central Daylight Time)","396633","Untrustworthy,Trustworthy","","null","","","","decisionFB","","<div class='trialDiv'><img src='Fruit/lemon.png'><br><font class='baseline'><strong>Lucky Lemons</strong><p>Choose number of points to bet.</font><div class='respPicDiv'><img src='img/responseButtonOffersNo0L3.png' class='respPic'></div></div>","null","12","Lucky Lemons","Fruit/lemon.png","Lost","0.8,0.35","12","0.8","170","36","",""
"html-keyboard-response","117","173360","0.0-11.0-3.35","6361769fee0c219b0f1cc480","bdp_rwlrn","Sun Mar 12 2023 22:34:17 GMT-0500 (Central Daylight Time)","396633","Untrustworthy,Trustworthy","","null","","","","feedback","","<div class='respPicDiv'><img src='img/responseButtonOffersNo0_wht.png' class='respPic'></div><div class='trialDiv'><img src='Fruit/lemon.png'><br><font class='baseline'><strong>Lucky Lemons</strong><p><strong><font class='negOutcome'>You LOST</font><p>You bet: 3</strong></font> &nbsp; &nbsp; &nbsp; &nbsp; &nbsp; &nbsp;<font class='negOutcome'>You receive: <strong>0</strong></font></div>","null","12","Lucky Lemons","Fruit/lemon.png","Lost","0.8,0.35","12","0.8","170","36","",""
"html-keyboard-response","118","173874","0.0-11.0-1.36","6361769fee0c219b0f1cc480","bdp_rwlrn","Sun Mar 12 2023 22:34:17 GMT-0500 (Central Daylight Time)","396633","Untrustworthy,Trustworthy","","512","","","","decision","","<div class='trialDiv'><img src='Fruit/cherrie.png'><br><font class='baseline'><strong>Cherry Chances</strong><p>Choose number of points to bet.</font><div class='respPicDiv'><img src='img/responseButtonOffersNo0L.png' class='respPic'></div></div>","3","13","Cherry Chances","Fruit/cherrie.png","Won","0.2,0.65","12","0.2","175","37","",""
"html-keyboard-response","119","174127","0.0-11.0-2.36","6361769fee0c219b0f1cc480","bdp_rwlrn","Sun Mar 12 2023 22:34:17 GMT-0500 (Central Daylight Time)","396633","Untrustworthy,Trustworthy","","null","","","","decisionFB","","<div class='trialDiv'><img src='Fruit/cherrie.png'><br><font class='baseline'><strong>Cherry Chances</strong><p>Choose number of points to bet.</font><div class='respPicDiv'><img src='img/responseButtonOffersNo0L3.png' class='respPic'></div></div>","null","13","Cherry Chances","Fruit/cherrie.png","Won","0.2,0.65","12","0.2","172","37","",""
"html-keyboard-response","120","175129","0.0-11.0-3.36","6361769fee0c219b0f1cc480","bdp_rwlrn","Sun Mar 12 2023 22:34:17 GMT-0500 (Central Daylight Time)","396633","Untrustworthy,Trustworthy","","null","","","","feedback","","<div class='respPicDiv'><img src='img/responseButtonOffersNo0_wht.png' class='respPic'></div><div class='trialDiv'><img src='Fruit/cherrie.png'><br><font class='baseline'><strong>Cherry Chances</strong><p><strong><font class='posOutcome'>You WON</font><p>You bet: 3</strong></font> &nbsp; &nbsp; &nbsp; &nbsp; &nbsp; &nbsp;<font class='posOutcome'>you receive: <strong>6</strong></font></div>","null","13","Cherry Chances","Fruit/cherrie.png","Won","0.2,0.65","12","0.2","178","37","",""
"html-keyboard-response","121","175516","0.0-11.0-1.37","6361769fee0c219b0f1cc480","bdp_rwlrn","Sun Mar 12 2023 22:34:17 GMT-0500 (Central Daylight Time)","396633","Untrustworthy,Trustworthy","","385","","","","decision","","<div class='trialDiv'><img src='Fruit/lemon.png'><br><font class='baseline'><strong>Lucky Lemons</strong><p>Choose number of points to bet.</font><div class='respPicDiv'><img src='img/responseButtonOffersNo0L.png' class='respPic'></div></div>","1","13","Lucky Lemons","Fruit/lemon.png","Lost","0.8,0.35","12","0.8","183","38","",""
"html-keyboard-response","122","175768","0.0-11.0-2.37","6361769fee0c219b0f1cc480","bdp_rwlrn","Sun Mar 12 2023 22:34:17 GMT-0500 (Central Daylight Time)","396633","Untrustworthy,Trustworthy","","null","","","","decisionFB","","<div class='trialDiv'><img src='Fruit/lemon.png'><br><font class='baseline'><strong>Lucky Lemons</strong><p>Choose number of points to bet.</font><div class='respPicDiv'><img src='img/responseButtonOffersNo0L1.png' class='respPic'></div></div>","null","13","Lucky Lemons","Fruit/lemon.png","Lost","0.8,0.35","12","0.8","182","38","",""
"html-keyboard-response","123","176770","0.0-11.0-3.37","6361769fee0c219b0f1cc480","bdp_rwlrn","Sun Mar 12 2023 22:34:17 GMT-0500 (Central Daylight Time)","396633","Untrustworthy,Trustworthy","","null","","","","feedback","","<div class='respPicDiv'><img src='img/responseButtonOffersNo0_wht.png' class='respPic'></div><div class='trialDiv'><img src='Fruit/lemon.png'><br><font class='baseline'><strong>Lucky Lemons</strong><p><strong><font class='negOutcome'>You LOST</font><p>You bet: 1</strong></font> &nbsp; &nbsp; &nbsp; &nbsp; &nbsp; &nbsp;<font class='negOutcome'>You receive: <strong>0</strong></font></div>","null","13","Lucky Lemons","Fruit/lemon.png","Lost","0.8,0.35","12","0.8","182","38","",""
"html-keyboard-response","124","177306","0.0-11.0-1.38","6361769fee0c219b0f1cc480","bdp_rwlrn","Sun Mar 12 2023 22:34:17 GMT-0500 (Central Daylight Time)","396633","Untrustworthy,Trustworthy","","535","","","","decision","","<div class='trialDiv'><img src='Fruit/melon.png'><br><font class='baseline'><strong>Melon Millions</strong><p>Choose number of points to bet.</font><div class='respPicDiv'><img src='img/responseButtonOffersNo0L.png' class='respPic'></div></div>","1","13","Melon Millions","Fruit/melon.png","Won","0.35,0.65","11","0.35","187","39","",""
"html-keyboard-response","125","177558","0.0-11.0-2.38","6361769fee0c219b0f1cc480","bdp_rwlrn","Sun Mar 12 2023 22:34:17 GMT-0500 (Central Daylight Time)","396633","Untrustworthy,Trustworthy","","null","","","","decisionFB","","<div class='trialDiv'><img src='Fruit/melon.png'><br><font class='baseline'><strong>Melon Millions</strong><p>Choose number of points to bet.</font><div class='respPicDiv'><img src='img/responseButtonOffersNo0L1.png' class='respPic'></div></div>","null","13","Melon Millions","Fruit/melon.png","Won","0.35,0.65","11","0.35","186","39","",""
"html-keyboard-response","126","178561","0.0-11.0-3.38","6361769fee0c219b0f1cc480","bdp_rwlrn","Sun Mar 12 2023 22:34:17 GMT-0500 (Central Daylight Time)","396633","Untrustworthy,Trustworthy","","null","","","","feedback","","<div class='respPicDiv'><img src='img/responseButtonOffersNo0_wht.png' class='respPic'></div><div class='trialDiv'><img src='Fruit/melon.png'><br><font class='baseline'><strong>Melon Millions</strong><p><strong><font class='posOutcome'>You WON</font><p>You bet: 1</strong></font> &nbsp; &nbsp; &nbsp; &nbsp; &nbsp; &nbsp;<font class='posOutcome'>you receive: <strong>2</strong></font></div>","null","13","Melon Millions","Fruit/melon.png","Won","0.35,0.65","11","0.35","188","39","",""
"html-keyboard-response","127","179069","0.0-11.0-1.39","6361769fee0c219b0f1cc480","bdp_rwlrn","Sun Mar 12 2023 22:34:17 GMT-0500 (Central Daylight Time)","396633","Untrustworthy,Trustworthy","","505","","","","decision","","<div class='trialDiv'><img src='Fruit/lemon.png'><br><font class='baseline'><strong>Lucky Lemons</strong><p>Choose number of points to bet.</font><div class='respPicDiv'><img src='img/responseButtonOffersNo0L.png' class='respPic'></div></div>","1","14","Lucky Lemons","Fruit/lemon.png","Lost","0.8,0.35","12","0.8","193","40","",""
"html-keyboard-response","128","179321","0.0-11.0-2.39","6361769fee0c219b0f1cc480","bdp_rwlrn","Sun Mar 12 2023 22:34:17 GMT-0500 (Central Daylight Time)","396633","Untrustworthy,Trustworthy","","null","","","","decisionFB","","<div class='trialDiv'><img src='Fruit/lemon.png'><br><font class='baseline'><strong>Lucky Lemons</strong><p>Choose number of points to bet.</font><div class='respPicDiv'><img src='img/responseButtonOffersNo0L1.png' class='respPic'></div></div>","null","14","Lucky Lemons","Fruit/lemon.png","Lost","0.8,0.35","12","0.8","192","40","",""
"html-keyboard-response","129","180323","0.0-11.0-3.39","6361769fee0c219b0f1cc480","bdp_rwlrn","Sun Mar 12 2023 22:34:17 GMT-0500 (Central Daylight Time)","396633","Untrustworthy,Trustworthy","","null","","","","feedback","","<div class='respPicDiv'><img src='img/responseButtonOffersNo0_wht.png' class='respPic'></div><div class='trialDiv'><img src='Fruit/lemon.png'><br><font class='baseline'><strong>Lucky Lemons</strong><p><strong><font class='negOutcome'>You LOST</font><p>You bet: 1</strong></font> &nbsp; &nbsp; &nbsp; &nbsp; &nbsp; &nbsp;<font class='negOutcome'>You receive: <strong>0</strong></font></div>","null","14","Lucky Lemons","Fruit/lemon.png","Lost","0.8,0.35","12","0.8","192","40","",""
"html-keyboard-response","130","181100","0.0-11.0-1.40","6361769fee0c219b0f1cc480","bdp_rwlrn","Sun Mar 12 2023 22:34:17 GMT-0500 (Central Daylight Time)","396633","Untrustworthy,Trustworthy","","775","","","","decision","","<div class='trialDiv'><img src='Fruit/melon.png'><br><font class='baseline'><strong>Melon Millions</strong><p>Choose number of points to bet.</font><div class='respPicDiv'><img src='img/responseButtonOffersNo0L.png' class='respPic'></div></div>","1","14","Melon Millions","Fruit/melon.png","Won","0.35,0.65","11","0.35","197","41","",""
"html-keyboard-response","131","181352","0.0-11.0-2.40","6361769fee0c219b0f1cc480","bdp_rwlrn","Sun Mar 12 2023 22:34:17 GMT-0500 (Central Daylight Time)","396633","Untrustworthy,Trustworthy","","null","","","","decisionFB","","<div class='trialDiv'><img src='Fruit/melon.png'><br><font class='baseline'><strong>Melon Millions</strong><p>Choose number of points to bet.</font><div class='respPicDiv'><img src='img/responseButtonOffersNo0L1.png' class='respPic'></div></div>","null","14","Melon Millions","Fruit/melon.png","Won","0.35,0.65","11","0.35","196","41","",""
"html-keyboard-response","132","182355","0.0-11.0-3.40","6361769fee0c219b0f1cc480","bdp_rwlrn","Sun Mar 12 2023 22:34:17 GMT-0500 (Central Daylight Time)","396633","Untrustworthy,Trustworthy","","null","","","","feedback","","<div class='respPicDiv'><img src='img/responseButtonOffersNo0_wht.png' class='respPic'></div><div class='trialDiv'><img src='Fruit/melon.png'><br><font class='baseline'><strong>Melon Millions</strong><p><strong><font class='posOutcome'>You WON</font><p>You bet: 1</strong></font> &nbsp; &nbsp; &nbsp; &nbsp; &nbsp; &nbsp;<font class='posOutcome'>you receive: <strong>2</strong></font></div>","null","14","Melon Millions","Fruit/melon.png","Won","0.35,0.65","11","0.35","198","41","",""
"html-keyboard-response","133","182934","0.0-11.0-1.41","6361769fee0c219b0f1cc480","bdp_rwlrn","Sun Mar 12 2023 22:34:17 GMT-0500 (Central Daylight Time)","396633","Untrustworthy,Trustworthy","","578","","","","decision","","<div class='trialDiv'><img src='Fruit/cherrie.png'><br><font class='baseline'><strong>Cherry Chances</strong><p>Choose number of points to bet.</font><div class='respPicDiv'><img src='img/responseButtonOffersNo0L.png' class='respPic'></div></div>","1","14","Cherry Chances","Fruit/cherrie.png","Won","0.2,0.65","12","0.2","203","42","",""
"html-keyboard-response","134","183187","0.0-11.0-2.41","6361769fee0c219b0f1cc480","bdp_rwlrn","Sun Mar 12 2023 22:34:17 GMT-0500 (Central Daylight Time)","396633","Untrustworthy,Trustworthy","","null","","","","decisionFB","","<div class='trialDiv'><img src='Fruit/cherrie.png'><br><font class='baseline'><strong>Cherry Chances</strong><p>Choose number of points to bet.</font><div class='respPicDiv'><img src='img/responseButtonOffersNo0L1.png' class='respPic'></div></div>","null","14","Cherry Chances","Fruit/cherrie.png","Won","0.2,0.65","12","0.2","202","42","",""
"html-keyboard-response","135","184190","0.0-11.0-3.41","6361769fee0c219b0f1cc480","bdp_rwlrn","Sun Mar 12 2023 22:34:17 GMT-0500 (Central Daylight Time)","396633","Untrustworthy,Trustworthy","","null","","","","feedback","","<div class='respPicDiv'><img src='img/responseButtonOffersNo0_wht.png' class='respPic'></div><div class='trialDiv'><img src='Fruit/cherrie.png'><br><font class='baseline'><strong>Cherry Chances</strong><p><strong><font class='posOutcome'>You WON</font><p>You bet: 1</strong></font> &nbsp; &nbsp; &nbsp; &nbsp; &nbsp; &nbsp;<font class='posOutcome'>you receive: <strong>2</strong></font></div>","null","14","Cherry Chances","Fruit/cherrie.png","Won","0.2,0.65","12","0.2","204","42","",""
"html-keyboard-response","136","184677","0.0-11.0-1.42","6361769fee0c219b0f1cc480","bdp_rwlrn","Sun Mar 12 2023 22:34:17 GMT-0500 (Central Daylight Time)","396633","Untrustworthy,Trustworthy","","486","","","","decision","","<div class='trialDiv'><img src='Fruit/lemon.png'><br><font class='baseline'><strong>Lucky Lemons</strong><p>Choose number of points to bet.</font><div class='respPicDiv'><img src='img/responseButtonOffersNo0L.png' class='respPic'></div></div>","3","15","Lucky Lemons","Fruit/lemon.png","Lost","0.8,0.35","12","0.8","209","43","",""
"html-keyboard-response","137","184929","0.0-11.0-2.42","6361769fee0c219b0f1cc480","bdp_rwlrn","Sun Mar 12 2023 22:34:17 GMT-0500 (Central Daylight Time)","396633","Untrustworthy,Trustworthy","","null","","","","decisionFB","","<div class='trialDiv'><img src='Fruit/lemon.png'><br><font class='baseline'><strong>Lucky Lemons</strong><p>Choose number of points to bet.</font><div class='respPicDiv'><img src='img/responseButtonOffersNo0L3.png' class='respPic'></div></div>","null","15","Lucky Lemons","Fruit/lemon.png","Lost","0.8,0.35","12","0.8","206","43","",""
"html-keyboard-response","138","185931","0.0-11.0-3.42","6361769fee0c219b0f1cc480","bdp_rwlrn","Sun Mar 12 2023 22:34:17 GMT-0500 (Central Daylight Time)","396633","Untrustworthy,Trustworthy","","null","","","","feedback","","<div class='respPicDiv'><img src='img/responseButtonOffersNo0_wht.png' class='respPic'></div><div class='trialDiv'><img src='Fruit/lemon.png'><br><font class='baseline'><strong>Lucky Lemons</strong><p><strong><font class='negOutcome'>You LOST</font><p>You bet: 3</strong></font> &nbsp; &nbsp; &nbsp; &nbsp; &nbsp; &nbsp;<font class='negOutcome'>You receive: <strong>0</strong></font></div>","null","15","Lucky Lemons","Fruit/lemon.png","Lost","0.8,0.35","12","0.8","206","43","",""
"html-keyboard-response","139","186136","0.0-11.0-1.43","6361769fee0c219b0f1cc480","bdp_rwlrn","Sun Mar 12 2023 22:34:17 GMT-0500 (Central Daylight Time)","396633","Untrustworthy,Trustworthy","","202","","","","decision","","<div class='trialDiv'><img src='Fruit/cherrie.png'><br><font class='baseline'><strong>Cherry Chances</strong><p>Choose number of points to bet.</font><div class='respPicDiv'><img src='img/responseButtonOffersNo0L.png' class='respPic'></div></div>","1","15","Cherry Chances","Fruit/cherrie.png","Lost","0.2,0.65","12","0.2","211","44","",""
"html-keyboard-response","140","186388","0.0-11.0-2.43","6361769fee0c219b0f1cc480","bdp_rwlrn","Sun Mar 12 2023 22:34:17 GMT-0500 (Central Daylight Time)","396633","Untrustworthy,Trustworthy","","null","","","","decisionFB","","<div class='trialDiv'><img src='Fruit/cherrie.png'><br><font class='baseline'><strong>Cherry Chances</strong><p>Choose number of points to bet.</font><div class='respPicDiv'><img src='img/responseButtonOffersNo0L1.png' class='respPic'></div></div>","null","15","Cherry Chances","Fruit/cherrie.png","Lost","0.2,0.65","12","0.2","210","44","",""
"html-keyboard-response","141","187391","0.0-11.0-3.43","6361769fee0c219b0f1cc480","bdp_rwlrn","Sun Mar 12 2023 22:34:17 GMT-0500 (Central Daylight Time)","396633","Untrustworthy,Trustworthy","","null","","","","feedback","","<div class='respPicDiv'><img src='img/responseButtonOffersNo0_wht.png' class='respPic'></div><div class='trialDiv'><img src='Fruit/cherrie.png'><br><font class='baseline'><strong>Cherry Chances</strong><p><strong><font class='negOutcome'>You LOST</font><p>You bet: 1</strong></font> &nbsp; &nbsp; &nbsp; &nbsp; &nbsp; &nbsp;<font class='negOutcome'>You receive: <strong>0</strong></font></div>","null","15","Cherry Chances","Fruit/cherrie.png","Lost","0.2,0.65","12","0.2","210","44","",""
"html-keyboard-response","142","187767","0.0-11.0-1.44","6361769fee0c219b0f1cc480","bdp_rwlrn","Sun Mar 12 2023 22:34:17 GMT-0500 (Central Daylight Time)","396633","Untrustworthy,Trustworthy","","375","","","","decision","","<div class='trialDiv'><img src='Fruit/melon.png'><br><font class='baseline'><strong>Melon Millions</strong><p>Choose number of points to bet.</font><div class='respPicDiv'><img src='img/responseButtonOffersNo0L.png' class='respPic'></div></div>","3","15","Melon Millions","Fruit/melon.png","Won","0.35,0.65","11","0.35","215","45","",""
"html-keyboard-response","143","188020","0.0-11.0-2.44","6361769fee0c219b0f1cc480","bdp_rwlrn","Sun Mar 12 2023 22:34:17 GMT-0500 (Central Daylight Time)","396633","Untrustworthy,Trustworthy","","null","","","","decisionFB","","<div class='trialDiv'><img src='Fruit/melon.png'><br><font class='baseline'><strong>Melon Millions</strong><p>Choose number of points to bet.</font><div class='respPicDiv'><img src='img/responseButtonOffersNo0L3.png' class='respPic'></div></div>","null","15","Melon Millions","Fruit/melon.png","Won","0.35,0.65","11","0.35","212","45","",""
"html-keyboard-response","144","189023","0.0-11.0-3.44","6361769fee0c219b0f1cc480","bdp_rwlrn","Sun Mar 12 2023 22:34:17 GMT-0500 (Central Daylight Time)","396633","Untrustworthy,Trustworthy","","null","","","","feedback","","<div class='respPicDiv'><img src='img/responseButtonOffersNo0_wht.png' class='respPic'></div><div class='trialDiv'><img src='Fruit/melon.png'><br><font class='baseline'><strong>Melon Millions</strong><p><strong><font class='posOutcome'>You WON</font><p>You bet: 3</strong></font> &nbsp; &nbsp; &nbsp; &nbsp; &nbsp; &nbsp;<font class='posOutcome'>you receive: <strong>6</strong></font></div>","null","15","Melon Millions","Fruit/melon.png","Won","0.35,0.65","11","0.35","218","45","",""
"html-keyboard-response","145","189792","0.0-11.0-1.45","6361769fee0c219b0f1cc480","bdp_rwlrn","Sun Mar 12 2023 22:34:17 GMT-0500 (Central Daylight Time)","396633","Untrustworthy,Trustworthy","","768","","","","decision","","<div class='trialDiv'><img src='Fruit/cherrie.png'><br><font class='baseline'><strong>Cherry Chances</strong><p>Choose number of points to bet.</font><div class='respPicDiv'><img src='img/responseButtonOffersNo0L.png' class='respPic'></div></div>","2","16","Cherry Chances","Fruit/cherrie.png","Lost","0.2,0.65","12","0.2","223","46","",""
"html-keyboard-response","146","190044","0.0-11.0-2.45","6361769fee0c219b0f1cc480","bdp_rwlrn","Sun Mar 12 2023 22:34:17 GMT-0500 (Central Daylight Time)","396633","Untrustworthy,Trustworthy","","null","","","","decisionFB","","<div class='trialDiv'><img src='Fruit/cherrie.png'><br><font class='baseline'><strong>Cherry Chances</strong><p>Choose number of points to bet.</font><div class='respPicDiv'><img src='img/responseButtonOffersNo0L2.png' class='respPic'></div></div>","null","16","Cherry Chances","Fruit/cherrie.png","Lost","0.2,0.65","12","0.2","221","46","",""
"html-keyboard-response","147","191047","0.0-11.0-3.45","6361769fee0c219b0f1cc480","bdp_rwlrn","Sun Mar 12 2023 22:34:17 GMT-0500 (Central Daylight Time)","396633","Untrustworthy,Trustworthy","","null","","","","feedback","","<div class='respPicDiv'><img src='img/responseButtonOffersNo0_wht.png' class='respPic'></div><div class='trialDiv'><img src='Fruit/cherrie.png'><br><font class='baseline'><strong>Cherry Chances</strong><p><strong><font class='negOutcome'>You LOST</font><p>You bet: 2</strong></font> &nbsp; &nbsp; &nbsp; &nbsp; &nbsp; &nbsp;<font class='negOutcome'>You receive: <strong>0</strong></font></div>","null","16","Cherry Chances","Fruit/cherrie.png","Lost","0.2,0.65","12","0.2","221","46","",""
"html-keyboard-response","148","191284","0.0-11.0-1.46","6361769fee0c219b0f1cc480","bdp_rwlrn","Sun Mar 12 2023 22:34:17 GMT-0500 (Central Daylight Time)","396633","Untrustworthy,Trustworthy","","236","","","","decision","","<div class='trialDiv'><img src='Fruit/lemon.png'><br><font class='baseline'><strong>Lucky Lemons</strong><p>Choose number of points to bet.</font><div class='respPicDiv'><img src='img/responseButtonOffersNo0L.png' class='respPic'></div></div>","1","16","Lucky Lemons","Fruit/lemon.png","Lost","0.8,0.35","12","0.8","226","47","",""
"html-keyboard-response","149","191536","0.0-11.0-2.46","6361769fee0c219b0f1cc480","bdp_rwlrn","Sun Mar 12 2023 22:34:17 GMT-0500 (Central Daylight Time)","396633","Untrustworthy,Trustworthy","","null","","","","decisionFB","","<div class='trialDiv'><img src='Fruit/lemon.png'><br><font class='baseline'><strong>Lucky Lemons</strong><p>Choose number of points to bet.</font><div class='respPicDiv'><img src='img/responseButtonOffersNo0L1.png' class='respPic'></div></div>","null","16","Lucky Lemons","Fruit/lemon.png","Lost","0.8,0.35","12","0.8","225","47","",""
"html-keyboard-response","150","192538","0.0-11.0-3.46","6361769fee0c219b0f1cc480","bdp_rwlrn","Sun Mar 12 2023 22:34:17 GMT-0500 (Central Daylight Time)","396633","Untrustworthy,Trustworthy","","null","","","","feedback","","<div class='respPicDiv'><img src='img/responseButtonOffersNo0_wht.png' class='respPic'></div><div class='trialDiv'><img src='Fruit/lemon.png'><br><font class='baseline'><strong>Lucky Lemons</strong><p><strong><font class='negOutcome'>You LOST</font><p>You bet: 1</strong></font> &nbsp; &nbsp; &nbsp; &nbsp; &nbsp; &nbsp;<font class='negOutcome'>You receive: <strong>0</strong></font></div>","null","16","Lucky Lemons","Fruit/lemon.png","Lost","0.8,0.35","12","0.8","225","47","",""
"html-keyboard-response","151","193590","0.0-11.0-1.47","6361769fee0c219b0f1cc480","bdp_rwlrn","Sun Mar 12 2023 22:34:17 GMT-0500 (Central Daylight Time)","396633","Untrustworthy,Trustworthy","","1049","","","","decision","","<div class='trialDiv'><img src='Fruit/melon.png'><br><font class='baseline'><strong>Melon Millions</strong><p>Choose number of points to bet.</font><div class='respPicDiv'><img src='img/responseButtonOffersNo0L.png' class='respPic'></div></div>","2","16","Melon Millions","Fruit/melon.png","Lost","0.35,0.65","11","0.35","230","48","",""
"html-keyboard-response","152","193842","0.0-11.0-2.47","6361769fee0c219b0f1cc480","bdp_rwlrn","Sun Mar 12 2023 22:34:17 GMT-0500 (Central Daylight Time)","396633","Untrustworthy,Trustworthy","","null","","","","decisionFB","","<div class='trialDiv'><img src='Fruit/melon.png'><br><font class='baseline'><strong>Melon Millions</strong><p>Choose number of points to bet.</font><div class='respPicDiv'><img src='img/responseButtonOffersNo0L2.png' class='respPic'></div></div>","null","16","Melon Millions","Fruit/melon.png","Lost","0.35,0.65","11","0.35","228","48","",""
"html-keyboard-response","153","194844","0.0-11.0-3.47","6361769fee0c219b0f1cc480","bdp_rwlrn","Sun Mar 12 2023 22:34:17 GMT-0500 (Central Daylight Time)","396633","Untrustworthy,Trustworthy","","null","","","","feedback","","<div class='respPicDiv'><img src='img/responseButtonOffersNo0_wht.png' class='respPic'></div><div class='trialDiv'><img src='Fruit/melon.png'><br><font class='baseline'><strong>Melon Millions</strong><p><strong><font class='negOutcome'>You LOST</font><p>You bet: 2</strong></font> &nbsp; &nbsp; &nbsp; &nbsp; &nbsp; &nbsp;<font class='negOutcome'>You receive: <strong>0</strong></font></div>","null","16","Melon Millions","Fruit/melon.png","Lost","0.35,0.65","11","0.35","228","48","",""
"html-keyboard-response","154","195781","0.0-11.0-1.48","6361769fee0c219b0f1cc480","bdp_rwlrn","Sun Mar 12 2023 22:34:17 GMT-0500 (Central Daylight Time)","396633","Untrustworthy,Trustworthy","","935","","","","decision","","<div class='trialDiv'><img src='Fruit/lemon.png'><br><font class='baseline'><strong>Lucky Lemons</strong><p>Choose number of points to bet.</font><div class='respPicDiv'><img src='img/responseButtonOffersNo0L.png' class='respPic'></div></div>","2","17","Lucky Lemons","Fruit/lemon.png","Lost","0.8,0.35","12","0.8","233","49","",""
"html-keyboard-response","155","196032","0.0-11.0-2.48","6361769fee0c219b0f1cc480","bdp_rwlrn","Sun Mar 12 2023 22:34:17 GMT-0500 (Central Daylight Time)","396633","Untrustworthy,Trustworthy","","null","","","","decisionFB","","<div class='trialDiv'><img src='Fruit/lemon.png'><br><font class='baseline'><strong>Lucky Lemons</strong><p>Choose number of points to bet.</font><div class='respPicDiv'><img src='img/responseButtonOffersNo0L2.png' class='respPic'></div></div>","null","17","Lucky Lemons","Fruit/lemon.png","Lost","0.8,0.35","12","0.8","231","49","",""
"html-keyboard-response","156","197035","0.0-11.0-3.48","6361769fee0c219b0f1cc480","bdp_rwlrn","Sun Mar 12 2023 22:34:17 GMT-0500 (Central Daylight Time)","396633","Untrustworthy,Trustworthy","","null","","","","feedback","","<div class='respPicDiv'><img src='img/responseButtonOffersNo0_wht.png' class='respPic'></div><div class='trialDiv'><img src='Fruit/lemon.png'><br><font class='baseline'><strong>Lucky Lemons</strong><p><strong><font class='negOutcome'>You LOST</font><p>You bet: 2</strong></font> &nbsp; &nbsp; &nbsp; &nbsp; &nbsp; &nbsp;<font class='negOutcome'>You receive: <strong>0</strong></font></div>","null","17","Lucky Lemons","Fruit/lemon.png","Lost","0.8,0.35","12","0.8","231","49","",""
"html-keyboard-response","157","197377","0.0-11.0-1.49","6361769fee0c219b0f1cc480","bdp_rwlrn","Sun Mar 12 2023 22:34:17 GMT-0500 (Central Daylight Time)","396633","Untrustworthy,Trustworthy","","341","","","","decision","","<div class='trialDiv'><img src='Fruit/melon.png'><br><font class='baseline'><strong>Melon Millions</strong><p>Choose number of points to bet.</font><div class='respPicDiv'><img src='img/responseButtonOffersNo0L.png' class='respPic'></div></div>","1","17","Melon Millions","Fruit/melon.png","Lost","0.35,0.65","11","0.35","236","50","",""
"html-keyboard-response","158","197629","0.0-11.0-2.49","6361769fee0c219b0f1cc480","bdp_rwlrn","Sun Mar 12 2023 22:34:17 GMT-0500 (Central Daylight Time)","396633","Untrustworthy,Trustworthy","","null","","","","decisionFB","","<div class='trialDiv'><img src='Fruit/melon.png'><br><font class='baseline'><strong>Melon Millions</strong><p>Choose number of points to bet.</font><div class='respPicDiv'><img src='img/responseButtonOffersNo0L1.png' class='respPic'></div></div>","null","17","Melon Millions","Fruit/melon.png","Lost","0.35,0.65","11","0.35","235","50","",""
"html-keyboard-response","159","198632","0.0-11.0-3.49","6361769fee0c219b0f1cc480","bdp_rwlrn","Sun Mar 12 2023 22:34:17 GMT-0500 (Central Daylight Time)","396633","Untrustworthy,Trustworthy","","null","","","","feedback","","<div class='respPicDiv'><img src='img/responseButtonOffersNo0_wht.png' class='respPic'></div><div class='trialDiv'><img src='Fruit/melon.png'><br><font class='baseline'><strong>Melon Millions</strong><p><strong><font class='negOutcome'>You LOST</font><p>You bet: 1</strong></font> &nbsp; &nbsp; &nbsp; &nbsp; &nbsp; &nbsp;<font class='negOutcome'>You receive: <strong>0</strong></font></div>","null","17","Melon Millions","Fruit/melon.png","Lost","0.35,0.65","11","0.35","235","50","",""
"html-keyboard-response","160","201082","0.0-11.0-1.50","6361769fee0c219b0f1cc480","bdp_rwlrn","Sun Mar 12 2023 22:34:17 GMT-0500 (Central Daylight Time)","396633","Untrustworthy,Trustworthy","","2449","","","","decision","","<div class='trialDiv'><img src='Fruit/cherrie.png'><br><font class='baseline'><strong>Cherry Chances</strong><p>Choose number of points to bet.</font><div class='respPicDiv'><img src='img/responseButtonOffersNo0L.png' class='respPic'></div></div>","5","17","Cherry Chances","Fruit/cherrie.png","Won","0.2,0.65","12","0.2","240","51","",""
"html-keyboard-response","161","201336","0.0-11.0-2.50","6361769fee0c219b0f1cc480","bdp_rwlrn","Sun Mar 12 2023 22:34:17 GMT-0500 (Central Daylight Time)","396633","Untrustworthy,Trustworthy","","null","","","","decisionFB","","<div class='trialDiv'><img src='Fruit/cherrie.png'><br><font class='baseline'><strong>Cherry Chances</strong><p>Choose number of points to bet.</font><div class='respPicDiv'><img src='img/responseButtonOffersNo0L5.png' class='respPic'></div></div>","null","17","Cherry Chances","Fruit/cherrie.png","Won","0.2,0.65","12","0.2","235","51","",""
"html-keyboard-response","162","202339","0.0-11.0-3.50","6361769fee0c219b0f1cc480","bdp_rwlrn","Sun Mar 12 2023 22:34:17 GMT-0500 (Central Daylight Time)","396633","Untrustworthy,Trustworthy","","null","","","","feedback","","<div class='respPicDiv'><img src='img/responseButtonOffersNo0_wht.png' class='respPic'></div><div class='trialDiv'><img src='Fruit/cherrie.png'><br><font class='baseline'><strong>Cherry Chances</strong><p><strong><font class='posOutcome'>You WON</font><p>You bet: 5</strong></font> &nbsp; &nbsp; &nbsp; &nbsp; &nbsp; &nbsp;<font class='posOutcome'>you receive: <strong>10</strong></font></div>","null","17","Cherry Chances","Fruit/cherrie.png","Won","0.2,0.65","12","0.2","245","51","",""
"html-keyboard-response","163","203212","0.0-11.0-1.51","6361769fee0c219b0f1cc480","bdp_rwlrn","Sun Mar 12 2023 22:34:17 GMT-0500 (Central Daylight Time)","396633","Untrustworthy,Trustworthy","","871","","","","decision","","<div class='trialDiv'><img src='Fruit/lemon.png'><br><font class='baseline'><strong>Lucky Lemons</strong><p>Choose number of points to bet.</font><div class='respPicDiv'><img src='img/responseButtonOffersNo0L.png' class='respPic'></div></div>","1","18","Lucky Lemons","Fruit/lemon.png","Lost","0.8,0.35","12","0.8","250","52","",""
