"trial_type","trial_index","time_elapsed","internal_node_id","subject_id","task","startTime","totalTime","labels","event","trial","time","trialtype","view_history","rt","success","stimulus","key_press","ltround","name","fileID","outcome","lottotype","lottoswpt","lottocurrpshare","point_total","round","faceID","face"
"pavlovia","0","2","0.0-0.0","63d007388da4ef5b301762f9","bdp_rwlrn","Tue Mar 14 2023 18:03:06 GMT-0700 (Pacific Daylight Time)","469448","Trustworthy,Untrustworthy","","","","","","","","","","","","","","","","","","","",""
"","","","","63d007388da4ef5b301762f9","bdp_rwlrn","Tue Mar 14 2023 18:03:06 GMT-0700 (Pacific Daylight Time)","469448","Trustworthy,Untrustworthy","focus","1","3971","focusevent","","","","","","","","","","","","","","","",""
"instructions","1","6097","0.0-1.0","63d007388da4ef5b301762f9","bdp_rwlrn","Tue Mar 14 2023 18:03:06 GMT-0700 (Pacific Daylight Time)","469448","Trustworthy,Untrustworthy","","","","","[{""page_index"":0,""viewing_time"":6095}]","6095","","","","","","","","","","","","","",""
"","","","","63d007388da4ef5b301762f9","bdp_rwlrn","Tue Mar 14 2023 18:03:06 GMT-0700 (Pacific Daylight Time)","469448","Trustworthy,Untrustworthy","fullscreenenter","2","8356","fullscreenenter","","","","","","","","","","","","","","","",""
"fullscreen","2","9338","0.0-2.0","63d007388da4ef5b301762f9","bdp_rwlrn","Tue Mar 14 2023 18:03:06 GMT-0700 (Pacific Daylight Time)","469448","Trustworthy,Untrustworthy","","","","","","","true","","","","","","","","","","","","",""
"instructions","3","89454","0.0-4.0","63d007388da4ef5b301762f9","bdp_rwlrn","Tue Mar 14 2023 18:03:06 GMT-0700 (Pacific Daylight Time)","469448","Trustworthy,Untrustworthy","","","","","[{""page_index"":0,""viewing_time"":14206},{""page_index"":1,""viewing_time"":12043},{""page_index"":2,""viewing_time"":10189},{""page_index"":3,""viewing_time"":3479},{""page_index"":4,""viewing_time"":14477},{""page_index"":5,""viewing_time"":14807},{""page_index"":4,""viewing_time"":2800},{""page_index"":5,""viewing_time"":8115}]","80116","","","","","","","","","","","","","",""
"html-keyboard-response","4","94137","0.0-5.0","63d007388da4ef5b301762f9","bdp_rwlrn","Tue Mar 14 2023 18:03:06 GMT-0700 (Pacific Daylight Time)","469448","Trustworthy,Untrustworthy","","","","","","4682","","<div class='header' style='text-align:left; position: absolute; top: 5%; left: 5%;'><small>Task 1 of 5</small></div><div class='instruxDiv'><p><strong>1) What is the maximum number of points you can choose to bet on a lottery?</strong></p><p>a) 0</p><p>b) 1</p><p>c) 5</p>","C","","","","","","","","","","",""
"html-keyboard-response","5","96072","0.0-6.0","63d007388da4ef5b301762f9","bdp_rwlrn","Tue Mar 14 2023 18:03:06 GMT-0700 (Pacific Daylight Time)","469448","Trustworthy,Untrustworthy","","","","","","1832","","<div class='header' style='text-align:left; position: absolute; top: 5%; left: 5%;'><small>Task 1 of 5</small></div><div class='instruxDiv'><p><strong>1) What is the maximum number of points you can choose to bet on a lottery?</strong></p><p>a) 1</p><p>b) 1</p><p style='color:#00FF00'>c) 5</p><h3 style='color:#00FF00'>Correct!</h3><h3 class='center-content'>The correct response is c).</h3><h3 class='center-content'>The maximum number of points you can choose to bet on a lottery is 5 points.</h3><p><em>Press SPACEBAR to continue</em></p></div>"," ","","","","","","","","","","",""
"html-keyboard-response","6","103167","0.0-7.0","63d007388da4ef5b301762f9","bdp_rwlrn","Tue Mar 14 2023 18:03:06 GMT-0700 (Pacific Daylight Time)","469448","Trustworthy,Untrustworthy","","","","","","6978","","<div class='header' style='text-align:left; position: absolute; top: 5%; left: 5%;'><small>Task 1 of 5</small></div><div class='instruxDiv'><p><strong>2) How many points can you win each round?</strong></p><p>a) 10 points</p><p>b) Double what you bet</p><p>c) Quadruple what you bet</p>","B","","","","","","","","","","",""
"html-keyboard-response","7","104626","0.0-8.0","63d007388da4ef5b301762f9","bdp_rwlrn","Tue Mar 14 2023 18:03:06 GMT-0700 (Pacific Daylight Time)","469448","Trustworthy,Untrustworthy","","","","","","1355","","<div class='header' style='text-align:left; position: absolute; top: 5%; left: 5%;'><small>Task 1 of 5</small></div><div class='instruxDiv'><p><strong>2) How many points can you win each round?</strong></p><p>a) 10 points</p><p style='color:#00FF00'>b) Double what you bet</p><p>c) Quadruple what you bet</p><h3 style='color:#00FF00'>Correct!</h3><h3 class='center-content'>The correct response is b).</h3><h3 class='center-content'>You can win double the amount of points you bet.</h3><p><em>Press SPACEBAR to continue</em></p></div>"," ","","","","","","","","","","",""
"html-keyboard-response","8","109737","0.0-9.0","63d007388da4ef5b301762f9","bdp_rwlrn","Tue Mar 14 2023 18:03:06 GMT-0700 (Pacific Daylight Time)","469448","Trustworthy,Untrustworthy","","","","","","null","","<div class='header' style='text-align:left; position: absolute; top: 5%; left: 5%;'><small>Task 1 of 5</small></div><div class='instruxDiv'><p>Thank you for completing the quiz<p>These are the actual lotteries you will be playing in the next block:<p><div class='tc' align='center'><img class='introPic' src='Fruit/apple.png'><br><strong>Awesome Apples</strong></div><div class='bl' align='center'><img class='introPic' src='Fruit/lemon.png'><br><strong>Lucky Lemons</strong></div><div class='br' align='center'><img class='introPic' src='Fruit/cherrie.png'><br><strong>Cherry Chances</strong></div></div><p>Across <strong>66 rounds</strong> you will play each lottery <strong>22 times</strong> (in random order).<p style='align:center; color:white'><font <em>Press SPACEBAR to continue</em></p>","null","","","","","","","","","","",""
"instructions","9","120213","0.0-10.0","63d007388da4ef5b301762f9","bdp_rwlrn","Tue Mar 14 2023 18:03:06 GMT-0700 (Pacific Daylight Time)","469448","Trustworthy,Untrustworthy","","","","","[{""page_index"":0,""viewing_time"":3663},{""page_index"":1,""viewing_time"":6813}]","10476","","","","","","","","","","","","","",""
"html-keyboard-response","10","122783","0.0-11.0-1.0","63d007388da4ef5b301762f9","bdp_rwlrn","Tue Mar 14 2023 18:03:06 GMT-0700 (Pacific Daylight Time)","469448","Trustworthy,Untrustworthy","","","","decision","","2456","","<div class='trialDiv'><img src='Fruit/lemon.png'><br><font class='baseline'><strong>Lucky Lemons</strong><p>Choose number of points to bet.</font><div class='respPicDiv'><img src='img/responseButtonOffersNo0L.png' class='respPic'></div></div>","4","1","Lucky Lemons","Fruit/lemon.png","Won","0.35,0.8","11","0.35","5","1","",""
"html-keyboard-response","11","123038","0.0-11.0-2.0","63d007388da4ef5b301762f9","bdp_rwlrn","Tue Mar 14 2023 18:03:06 GMT-0700 (Pacific Daylight Time)","469448","Trustworthy,Untrustworthy","","","","decisionFB","","null","","<div class='trialDiv'><img src='Fruit/lemon.png'><br><font class='baseline'><strong>Lucky Lemons</strong><p>Choose number of points to bet.</font><div class='respPicDiv'><img src='img/responseButtonOffersNo0L4.png' class='respPic'></div></div>","null","1","Lucky Lemons","Fruit/lemon.png","Won","0.35,0.8","11","0.35","1","1","",""
"html-keyboard-response","12","124044","0.0-11.0-3.0","63d007388da4ef5b301762f9","bdp_rwlrn","Tue Mar 14 2023 18:03:06 GMT-0700 (Pacific Daylight Time)","469448","Trustworthy,Untrustworthy","","","","feedback","","null","","<div class='respPicDiv'><img src='img/responseButtonOffersNo0_wht.png' class='respPic'></div><div class='trialDiv'><img src='Fruit/lemon.png'><br><font class='baseline'><strong>Lucky Lemons</strong><p><strong><font class='posOutcome'>You WON</font><p>You bet: 4</strong></font> &nbsp; &nbsp; &nbsp; &nbsp; &nbsp; &nbsp;<font class='posOutcome'>you receive: <strong>8</strong></font></div>","null","1","Lucky Lemons","Fruit/lemon.png","Won","0.35,0.8","11","0.35","9","1","",""
"html-keyboard-response","13","128108","0.0-11.0-1.1","63d007388da4ef5b301762f9","bdp_rwlrn","Tue Mar 14 2023 18:03:06 GMT-0700 (Pacific Daylight Time)","469448","Trustworthy,Untrustworthy","","","","decision","","4064","","<div class='trialDiv'><img src='Fruit/cherrie.png'><br><font class='baseline'><strong>Cherry Chances</strong><p>Choose number of points to bet.</font><div class='respPicDiv'><img src='img/responseButtonOffersNo0L.png' class='respPic'></div></div>","3","1","Cherry Chances","Fruit/cherrie.png","Won","0.65,0.2","13","0.65","14","2","",""
"html-keyboard-response","14","128370","0.0-11.0-2.1","63d007388da4ef5b301762f9","bdp_rwlrn","Tue Mar 14 2023 18:03:06 GMT-0700 (Pacific Daylight Time)","469448","Trustworthy,Untrustworthy","","","","decisionFB","","null","","<div class='trialDiv'><img src='Fruit/cherrie.png'><br><font class='baseline'><strong>Cherry Chances</strong><p>Choose number of points to bet.</font><div class='respPicDiv'><img src='img/responseButtonOffersNo0L3.png' class='respPic'></div></div>","null","1","Cherry Chances","Fruit/cherrie.png","Won","0.65,0.2","13","0.65","11","2","",""
"html-keyboard-response","15","129380","0.0-11.0-3.1","63d007388da4ef5b301762f9","bdp_rwlrn","Tue Mar 14 2023 18:03:06 GMT-0700 (Pacific Daylight Time)","469448","Trustworthy,Untrustworthy","","","","feedback","","null","","<div class='respPicDiv'><img src='img/responseButtonOffersNo0_wht.png' class='respPic'></div><div class='trialDiv'><img src='Fruit/cherrie.png'><br><font class='baseline'><strong>Cherry Chances</strong><p><strong><font class='posOutcome'>You WON</font><p>You bet: 3</strong></font> &nbsp; &nbsp; &nbsp; &nbsp; &nbsp; &nbsp;<font class='posOutcome'>you receive: <strong>6</strong></font></div>","null","1","Cherry Chances","Fruit/cherrie.png","Won","0.65,0.2","13","0.65","17","2","",""
"html-keyboard-response","16","133258","0.0-11.0-1.2","63d007388da4ef5b301762f9","bdp_rwlrn","Tue Mar 14 2023 18:03:06 GMT-0700 (Pacific Daylight Time)","469448","Trustworthy,Untrustworthy","","","","decision","","3876","","<div class='trialDiv'><img src='Fruit/apple.png'><br><font class='baseline'><strong>Awesome Apples</strong><p>Choose number of points to bet.</font><div class='respPicDiv'><img src='img/responseButtonOffersNo0L.png' class='respPic'></div></div>","3","1","Awesome Apples","Fruit/apple.png","Won","0.65,0.35","8","0.65","22","3","",""
"html-keyboard-response","17","133512","0.0-11.0-2.2","63d007388da4ef5b301762f9","bdp_rwlrn","Tue Mar 14 2023 18:03:06 GMT-0700 (Pacific Daylight Time)","469448","Trustworthy,Untrustworthy","","","","decisionFB","","null","","<div class='trialDiv'><img src='Fruit/apple.png'><br><font class='baseline'><strong>Awesome Apples</strong><p>Choose number of points to bet.</font><div class='respPicDiv'><img src='img/responseButtonOffersNo0L3.png' class='respPic'></div></div>","null","1","Awesome Apples","Fruit/apple.png","Won","0.65,0.35","8","0.65","19","3","",""
"html-keyboard-response","18","134514","0.0-11.0-3.2","63d007388da4ef5b301762f9","bdp_rwlrn","Tue Mar 14 2023 18:03:06 GMT-0700 (Pacific Daylight Time)","469448","Trustworthy,Untrustworthy","","","","feedback","","null","","<div class='respPicDiv'><img src='img/responseButtonOffersNo0_wht.png' class='respPic'></div><div class='trialDiv'><img src='Fruit/apple.png'><br><font class='baseline'><strong>Awesome Apples</strong><p><strong><font class='posOutcome'>You WON</font><p>You bet: 3</strong></font> &nbsp; &nbsp; &nbsp; &nbsp; &nbsp; &nbsp;<font class='posOutcome'>you receive: <strong>6</strong></font></div>","null","1","Awesome Apples","Fruit/apple.png","Won","0.65,0.35","8","0.65","25","3","",""
"html-keyboard-response","19","137150","0.0-11.0-1.3","63d007388da4ef5b301762f9","bdp_rwlrn","Tue Mar 14 2023 18:03:06 GMT-0700 (Pacific Daylight Time)","469448","Trustworthy,Untrustworthy","","","","decision","","2635","","<div class='trialDiv'><img src='Fruit/lemon.png'><br><font class='baseline'><strong>Lucky Lemons</strong><p>Choose number of points to bet.</font><div class='respPicDiv'><img src='img/responseButtonOffersNo0L.png' class='respPic'></div></div>","5","2","Lucky Lemons","Fruit/lemon.png","Won","0.35,0.8","11","0.35","30","4","",""
"html-keyboard-response","20","137414","0.0-11.0-2.3","63d007388da4ef5b301762f9","bdp_rwlrn","Tue Mar 14 2023 18:03:06 GMT-0700 (Pacific Daylight Time)","469448","Trustworthy,Untrustworthy","","","","decisionFB","","null","","<div class='trialDiv'><img src='Fruit/lemon.png'><br><font class='baseline'><strong>Lucky Lemons</strong><p>Choose number of points to bet.</font><div class='respPicDiv'><img src='img/responseButtonOffersNo0L5.png' class='respPic'></div></div>","null","2","Lucky Lemons","Fruit/lemon.png","Won","0.35,0.8","11","0.35","25","4","",""
"html-keyboard-response","21","138418","0.0-11.0-3.3","63d007388da4ef5b301762f9","bdp_rwlrn","Tue Mar 14 2023 18:03:06 GMT-0700 (Pacific Daylight Time)","469448","Trustworthy,Untrustworthy","","","","feedback","","null","","<div class='respPicDiv'><img src='img/responseButtonOffersNo0_wht.png' class='respPic'></div><div class='trialDiv'><img src='Fruit/lemon.png'><br><font class='baseline'><strong>Lucky Lemons</strong><p><strong><font class='posOutcome'>You WON</font><p>You bet: 5</strong></font> &nbsp; &nbsp; &nbsp; &nbsp; &nbsp; &nbsp;<font class='posOutcome'>you receive: <strong>10</strong></font></div>","null","2","Lucky Lemons","Fruit/lemon.png","Won","0.35,0.8","11","0.35","35","4","",""
"html-keyboard-response","22","143148","0.0-11.0-1.4","63d007388da4ef5b301762f9","bdp_rwlrn","Tue Mar 14 2023 18:03:06 GMT-0700 (Pacific Daylight Time)","469448","Trustworthy,Untrustworthy","","","","decision","","4730","","<div class='trialDiv'><img src='Fruit/cherrie.png'><br><font class='baseline'><strong>Cherry Chances</strong><p>Choose number of points to bet.</font><div class='respPicDiv'><img src='img/responseButtonOffersNo0L.png' class='respPic'></div></div>","2","2","Cherry Chances","Fruit/cherrie.png","Won","0.65,0.2","13","0.65","40","5","",""
"html-keyboard-response","23","143415","0.0-11.0-2.4","63d007388da4ef5b301762f9","bdp_rwlrn","Tue Mar 14 2023 18:03:06 GMT-0700 (Pacific Daylight Time)","469448","Trustworthy,Untrustworthy","","","","decisionFB","","null","","<div class='trialDiv'><img src='Fruit/cherrie.png'><br><font class='baseline'><strong>Cherry Chances</strong><p>Choose number of points to bet.</font><div class='respPicDiv'><img src='img/responseButtonOffersNo0L2.png' class='respPic'></div></div>","null","2","Cherry Chances","Fruit/cherrie.png","Won","0.65,0.2","13","0.65","38","5","",""
"html-keyboard-response","24","144420","0.0-11.0-3.4","63d007388da4ef5b301762f9","bdp_rwlrn","Tue Mar 14 2023 18:03:06 GMT-0700 (Pacific Daylight Time)","469448","Trustworthy,Untrustworthy","","","","feedback","","null","","<div class='respPicDiv'><img src='img/responseButtonOffersNo0_wht.png' class='respPic'></div><div class='trialDiv'><img src='Fruit/cherrie.png'><br><font class='baseline'><strong>Cherry Chances</strong><p><strong><font class='posOutcome'>You WON</font><p>You bet: 2</strong></font> &nbsp; &nbsp; &nbsp; &nbsp; &nbsp; &nbsp;<font class='posOutcome'>you receive: <strong>4</strong></font></div>","null","2","Cherry Chances","Fruit/cherrie.png","Won","0.65,0.2","13","0.65","42","5","",""
"html-keyboard-response","25","147920","0.0-11.0-1.5","63d007388da4ef5b301762f9","bdp_rwlrn","Tue Mar 14 2023 18:03:06 GMT-0700 (Pacific Daylight Time)","469448","Trustworthy,Untrustworthy","","","","decision","","3499","","<div class='trialDiv'><img src='Fruit/apple.png'><br><font class='baseline'><strong>Awesome Apples</strong><p>Choose number of points to bet.</font><div class='respPicDiv'><img src='img/responseButtonOffersNo0L.png' class='respPic'></div></div>","5","2","Awesome Apples","Fruit/apple.png","Lost","0.65,0.35","8","0.65","47","6","",""
"html-keyboard-response","26","148174","0.0-11.0-2.5","63d007388da4ef5b301762f9","bdp_rwlrn","Tue Mar 14 2023 18:03:06 GMT-0700 (Pacific Daylight Time)","469448","Trustworthy,Untrustworthy","","","","decisionFB","","null","","<div class='trialDiv'><img src='Fruit/apple.png'><br><font class='baseline'><strong>Awesome Apples</strong><p>Choose number of points to bet.</font><div class='respPicDiv'><img src='img/responseButtonOffersNo0L5.png' class='respPic'></div></div>","null","2","Awesome Apples","Fruit/apple.png","Lost","0.65,0.35","8","0.65","42","6","",""
"html-keyboard-response","27","149180","0.0-11.0-3.5","63d007388da4ef5b301762f9","bdp_rwlrn","Tue Mar 14 2023 18:03:06 GMT-0700 (Pacific Daylight Time)","469448","Trustworthy,Untrustworthy","","","","feedback","","null","","<div class='respPicDiv'><img src='img/responseButtonOffersNo0_wht.png' class='respPic'></div><div class='trialDiv'><img src='Fruit/apple.png'><br><font class='baseline'><strong>Awesome Apples</strong><p><strong><font class='negOutcome'>You LOST</font><p>You bet: 5</strong></font> &nbsp; &nbsp; &nbsp; &nbsp; &nbsp; &nbsp;<font class='negOutcome'>You receive: <strong>0</strong></font></div>","null","2","Awesome Apples","Fruit/apple.png","Lost","0.65,0.35","8","0.65","42","6","",""
"html-keyboard-response","28","152431","0.0-11.0-1.6","63d007388da4ef5b301762f9","bdp_rwlrn","Tue Mar 14 2023 18:03:06 GMT-0700 (Pacific Daylight Time)","469448","Trustworthy,Untrustworthy","","","","decision","","3251","","<div class='trialDiv'><img src='Fruit/cherrie.png'><br><font class='baseline'><strong>Cherry Chances</strong><p>Choose number of points to bet.</font><div class='respPicDiv'><img src='img/responseButtonOffersNo0L.png' class='respPic'></div></div>","4","3","Cherry Chances","Fruit/cherrie.png","Won","0.65,0.2","13","0.65","47","7","",""
"html-keyboard-response","29","152689","0.0-11.0-2.6","63d007388da4ef5b301762f9","bdp_rwlrn","Tue Mar 14 2023 18:03:06 GMT-0700 (Pacific Daylight Time)","469448","Trustworthy,Untrustworthy","","","","decisionFB","","null","","<div class='trialDiv'><img src='Fruit/cherrie.png'><br><font class='baseline'><strong>Cherry Chances</strong><p>Choose number of points to bet.</font><div class='respPicDiv'><img src='img/responseButtonOffersNo0L4.png' class='respPic'></div></div>","null","3","Cherry Chances","Fruit/cherrie.png","Won","0.65,0.2","13","0.65","43","7","",""
"html-keyboard-response","30","153695","0.0-11.0-3.6","63d007388da4ef5b301762f9","bdp_rwlrn","Tue Mar 14 2023 18:03:06 GMT-0700 (Pacific Daylight Time)","469448","Trustworthy,Untrustworthy","","","","feedback","","null","","<div class='respPicDiv'><img src='img/responseButtonOffersNo0_wht.png' class='respPic'></div><div class='trialDiv'><img src='Fruit/cherrie.png'><br><font class='baseline'><strong>Cherry Chances</strong><p><strong><font class='posOutcome'>You WON</font><p>You bet: 4</strong></font> &nbsp; &nbsp; &nbsp; &nbsp; &nbsp; &nbsp;<font class='posOutcome'>you receive: <strong>8</strong></font></div>","null","3","Cherry Chances","Fruit/cherrie.png","Won","0.65,0.2","13","0.65","51","7","",""
"html-keyboard-response","31","157797","0.0-11.0-1.7","63d007388da4ef5b301762f9","bdp_rwlrn","Tue Mar 14 2023 18:03:06 GMT-0700 (Pacific Daylight Time)","469448","Trustworthy,Untrustworthy","","","","decision","","4102","","<div class='trialDiv'><img src='Fruit/lemon.png'><br><font class='baseline'><strong>Lucky Lemons</strong><p>Choose number of points to bet.</font><div class='respPicDiv'><img src='img/responseButtonOffersNo0L.png' class='respPic'></div></div>","3","3","Lucky Lemons","Fruit/lemon.png","Lost","0.35,0.8","11","0.35","56","8","",""
"html-keyboard-response","32","158051","0.0-11.0-2.7","63d007388da4ef5b301762f9","bdp_rwlrn","Tue Mar 14 2023 18:03:06 GMT-0700 (Pacific Daylight Time)","469448","Trustworthy,Untrustworthy","","","","decisionFB","","null","","<div class='trialDiv'><img src='Fruit/lemon.png'><br><font class='baseline'><strong>Lucky Lemons</strong><p>Choose number of points to bet.</font><div class='respPicDiv'><img src='img/responseButtonOffersNo0L3.png' class='respPic'></div></div>","null","3","Lucky Lemons","Fruit/lemon.png","Lost","0.35,0.8","11","0.35","53","8","",""
"html-keyboard-response","33","159053","0.0-11.0-3.7","63d007388da4ef5b301762f9","bdp_rwlrn","Tue Mar 14 2023 18:03:06 GMT-0700 (Pacific Daylight Time)","469448","Trustworthy,Untrustworthy","","","","feedback","","null","","<div class='respPicDiv'><img src='img/responseButtonOffersNo0_wht.png' class='respPic'></div><div class='trialDiv'><img src='Fruit/lemon.png'><br><font class='baseline'><strong>Lucky Lemons</strong><p><strong><font class='negOutcome'>You LOST</font><p>You bet: 3</strong></font> &nbsp; &nbsp; &nbsp; &nbsp; &nbsp; &nbsp;<font class='negOutcome'>You receive: <strong>0</strong></font></div>","null","3","Lucky Lemons","Fruit/lemon.png","Lost","0.35,0.8","11","0.35","53","8","",""
"html-keyboard-response","34","159655","0.0-11.0-1.8","63d007388da4ef5b301762f9","bdp_rwlrn","Tue Mar 14 2023 18:03:06 GMT-0700 (Pacific Daylight Time)","469448","Trustworthy,Untrustworthy","","","","decision","","601","","<div class='trialDiv'><img src='Fruit/apple.png'><br><font class='baseline'><strong>Awesome Apples</strong><p>Choose number of points to bet.</font><div class='respPicDiv'><img src='img/responseButtonOffersNo0L.png' class='respPic'></div></div>","4","3","Awesome Apples","Fruit/apple.png","Won","0.65,0.35","8","0.65","58","9","",""
"html-keyboard-response","35","159917","0.0-11.0-2.8","63d007388da4ef5b301762f9","bdp_rwlrn","Tue Mar 14 2023 18:03:06 GMT-0700 (Pacific Daylight Time)","469448","Trustworthy,Untrustworthy","","","","decisionFB","","null","","<div class='trialDiv'><img src='Fruit/apple.png'><br><font class='baseline'><strong>Awesome Apples</strong><p>Choose number of points to bet.</font><div class='respPicDiv'><img src='img/responseButtonOffersNo0L4.png' class='respPic'></div></div>","null","3","Awesome Apples","Fruit/apple.png","Won","0.65,0.35","8","0.65","54","9","",""
"html-keyboard-response","36","160924","0.0-11.0-3.8","63d007388da4ef5b301762f9","bdp_rwlrn","Tue Mar 14 2023 18:03:06 GMT-0700 (Pacific Daylight Time)","469448","Trustworthy,Untrustworthy","","","","feedback","","null","","<div class='respPicDiv'><img src='img/responseButtonOffersNo0_wht.png' class='respPic'></div><div class='trialDiv'><img src='Fruit/apple.png'><br><font class='baseline'><strong>Awesome Apples</strong><p><strong><font class='posOutcome'>You WON</font><p>You bet: 4</strong></font> &nbsp; &nbsp; &nbsp; &nbsp; &nbsp; &nbsp;<font class='posOutcome'>you receive: <strong>8</strong></font></div>","null","3","Awesome Apples","Fruit/apple.png","Won","0.65,0.35","8","0.65","62","9","",""
"html-keyboard-response","37","162941","0.0-11.0-1.9","63d007388da4ef5b301762f9","bdp_rwlrn","Tue Mar 14 2023 18:03:06 GMT-0700 (Pacific Daylight Time)","469448","Trustworthy,Untrustworthy","","","","decision","","2016","","<div class='trialDiv'><img src='Fruit/cherrie.png'><br><font class='baseline'><strong>Cherry Chances</strong><p>Choose number of points to bet.</font><div class='respPicDiv'><img src='img/responseButtonOffersNo0L.png' class='respPic'></div></div>","2","4","Cherry Chances","Fruit/cherrie.png","Won","0.65,0.2","13","0.65","67","10","",""
"html-keyboard-response","38","163205","0.0-11.0-2.9","63d007388da4ef5b301762f9","bdp_rwlrn","Tue Mar 14 2023 18:03:06 GMT-0700 (Pacific Daylight Time)","469448","Trustworthy,Untrustworthy","","","","decisionFB","","null","","<div class='trialDiv'><img src='Fruit/cherrie.png'><br><font class='baseline'><strong>Cherry Chances</strong><p>Choose number of points to bet.</font><div class='respPicDiv'><img src='img/responseButtonOffersNo0L2.png' class='respPic'></div></div>","null","4","Cherry Chances","Fruit/cherrie.png","Won","0.65,0.2","13","0.65","65","10","",""
"html-keyboard-response","39","164207","0.0-11.0-3.9","63d007388da4ef5b301762f9","bdp_rwlrn","Tue Mar 14 2023 18:03:06 GMT-0700 (Pacific Daylight Time)","469448","Trustworthy,Untrustworthy","","","","feedback","","null","","<div class='respPicDiv'><img src='img/responseButtonOffersNo0_wht.png' class='respPic'></div><div class='trialDiv'><img src='Fruit/cherrie.png'><br><font class='baseline'><strong>Cherry Chances</strong><p><strong><font class='posOutcome'>You WON</font><p>You bet: 2</strong></font> &nbsp; &nbsp; &nbsp; &nbsp; &nbsp; &nbsp;<font class='posOutcome'>you receive: <strong>4</strong></font></div>","null","4","Cherry Chances","Fruit/cherrie.png","Won","0.65,0.2","13","0.65","69","10","",""
"html-keyboard-response","40","165325","0.0-11.0-1.10","63d007388da4ef5b301762f9","bdp_rwlrn","Tue Mar 14 2023 18:03:06 GMT-0700 (Pacific Daylight Time)","469448","Trustworthy,Untrustworthy","","","","decision","","1118","","<div class='trialDiv'><img src='Fruit/lemon.png'><br><font class='baseline'><strong>Lucky Lemons</strong><p>Choose number of points to bet.</font><div class='respPicDiv'><img src='img/responseButtonOffersNo0L.png' class='respPic'></div></div>","5","4","Lucky Lemons","Fruit/lemon.png","Won","0.35,0.8","11","0.35","74","11","",""
"html-keyboard-response","41","165586","0.0-11.0-2.10","63d007388da4ef5b301762f9","bdp_rwlrn","Tue Mar 14 2023 18:03:06 GMT-0700 (Pacific Daylight Time)","469448","Trustworthy,Untrustworthy","","","","decisionFB","","null","","<div class='trialDiv'><img src='Fruit/lemon.png'><br><font class='baseline'><strong>Lucky Lemons</strong><p>Choose number of points to bet.</font><div class='respPicDiv'><img src='img/responseButtonOffersNo0L5.png' class='respPic'></div></div>","null","4","Lucky Lemons","Fruit/lemon.png","Won","0.35,0.8","11","0.35","69","11","",""
"html-keyboard-response","42","166601","0.0-11.0-3.10","63d007388da4ef5b301762f9","bdp_rwlrn","Tue Mar 14 2023 18:03:06 GMT-0700 (Pacific Daylight Time)","469448","Trustworthy,Untrustworthy","","","","feedback","","null","","<div class='respPicDiv'><img src='img/responseButtonOffersNo0_wht.png' class='respPic'></div><div class='trialDiv'><img src='Fruit/lemon.png'><br><font class='baseline'><strong>Lucky Lemons</strong><p><strong><font class='posOutcome'>You WON</font><p>You bet: 5</strong></font> &nbsp; &nbsp; &nbsp; &nbsp; &nbsp; &nbsp;<font class='posOutcome'>you receive: <strong>10</strong></font></div>","null","4","Lucky Lemons","Fruit/lemon.png","Won","0.35,0.8","11","0.35","79","11","",""
"html-keyboard-response","43","168527","0.0-11.0-1.11","63d007388da4ef5b301762f9","bdp_rwlrn","Tue Mar 14 2023 18:03:06 GMT-0700 (Pacific Daylight Time)","469448","Trustworthy,Untrustworthy","","","","decision","","1925","","<div class='trialDiv'><img src='Fruit/apple.png'><br><font class='baseline'><strong>Awesome Apples</strong><p>Choose number of points to bet.</font><div class='respPicDiv'><img src='img/responseButtonOffersNo0L.png' class='respPic'></div></div>","5","4","Awesome Apples","Fruit/apple.png","Won","0.65,0.35","8","0.65","84","12","",""
"html-keyboard-response","44","168787","0.0-11.0-2.11","63d007388da4ef5b301762f9","bdp_rwlrn","Tue Mar 14 2023 18:03:06 GMT-0700 (Pacific Daylight Time)","469448","Trustworthy,Untrustworthy","","","","decisionFB","","null","","<div class='trialDiv'><img src='Fruit/apple.png'><br><font class='baseline'><strong>Awesome Apples</strong><p>Choose number of points to bet.</font><div class='respPicDiv'><img src='img/responseButtonOffersNo0L5.png' class='respPic'></div></div>","null","4","Awesome Apples","Fruit/apple.png","Won","0.65,0.35","8","0.65","79","12","",""
"html-keyboard-response","45","169790","0.0-11.0-3.11","63d007388da4ef5b301762f9","bdp_rwlrn","Tue Mar 14 2023 18:03:06 GMT-0700 (Pacific Daylight Time)","469448","Trustworthy,Untrustworthy","","","","feedback","","null","","<div class='respPicDiv'><img src='img/responseButtonOffersNo0_wht.png' class='respPic'></div><div class='trialDiv'><img src='Fruit/apple.png'><br><font class='baseline'><strong>Awesome Apples</strong><p><strong><font class='posOutcome'>You WON</font><p>You bet: 5</strong></font> &nbsp; &nbsp; &nbsp; &nbsp; &nbsp; &nbsp;<font class='posOutcome'>you receive: <strong>10</strong></font></div>","null","4","Awesome Apples","Fruit/apple.png","Won","0.65,0.35","8","0.65","89","12","",""
"html-keyboard-response","46","174711","0.0-11.0-1.12","63d007388da4ef5b301762f9","bdp_rwlrn","Tue Mar 14 2023 18:03:06 GMT-0700 (Pacific Daylight Time)","469448","Trustworthy,Untrustworthy","","","","decision","","4920","","<div class='trialDiv'><img src='Fruit/cherrie.png'><br><font class='baseline'><strong>Cherry Chances</strong><p>Choose number of points to bet.</font><div class='respPicDiv'><img src='img/responseButtonOffersNo0L.png' class='respPic'></div></div>","4","5","Cherry Chances","Fruit/cherrie.png","Lost","0.65,0.2","13","0.65","94","13","",""
"html-keyboard-response","47","174963","0.0-11.0-2.12","63d007388da4ef5b301762f9","bdp_rwlrn","Tue Mar 14 2023 18:03:06 GMT-0700 (Pacific Daylight Time)","469448","Trustworthy,Untrustworthy","","","","decisionFB","","null","","<div class='trialDiv'><img src='Fruit/cherrie.png'><br><font class='baseline'><strong>Cherry Chances</strong><p>Choose number of points to bet.</font><div class='respPicDiv'><img src='img/responseButtonOffersNo0L4.png' class='respPic'></div></div>","null","5","Cherry Chances","Fruit/cherrie.png","Lost","0.65,0.2","13","0.65","90","13","",""
"html-keyboard-response","48","175965","0.0-11.0-3.12","63d007388da4ef5b301762f9","bdp_rwlrn","Tue Mar 14 2023 18:03:06 GMT-0700 (Pacific Daylight Time)","469448","Trustworthy,Untrustworthy","","","","feedback","","null","","<div class='respPicDiv'><img src='img/responseButtonOffersNo0_wht.png' class='respPic'></div><div class='trialDiv'><img src='Fruit/cherrie.png'><br><font class='baseline'><strong>Cherry Chances</strong><p><strong><font class='negOutcome'>You LOST</font><p>You bet: 4</strong></font> &nbsp; &nbsp; &nbsp; &nbsp; &nbsp; &nbsp;<font class='negOutcome'>You receive: <strong>0</strong></font></div>","null","5","Cherry Chances","Fruit/cherrie.png","Lost","0.65,0.2","13","0.65","90","13","",""
"html-keyboard-response","49","176814","0.0-11.0-1.13","63d007388da4ef5b301762f9","bdp_rwlrn","Tue Mar 14 2023 18:03:06 GMT-0700 (Pacific Daylight Time)","469448","Trustworthy,Untrustworthy","","","","decision","","848","","<div class='trialDiv'><img src='Fruit/lemon.png'><br><font class='baseline'><strong>Lucky Lemons</strong><p>Choose number of points to bet.</font><div class='respPicDiv'><img src='img/responseButtonOffersNo0L.png' class='respPic'></div></div>","3","5","Lucky Lemons","Fruit/lemon.png","Lost","0.35,0.8","11","0.35","95","14","",""
"html-keyboard-response","50","177070","0.0-11.0-2.13","63d007388da4ef5b301762f9","bdp_rwlrn","Tue Mar 14 2023 18:03:06 GMT-0700 (Pacific Daylight Time)","469448","Trustworthy,Untrustworthy","","","","decisionFB","","null","","<div class='trialDiv'><img src='Fruit/lemon.png'><br><font class='baseline'><strong>Lucky Lemons</strong><p>Choose number of points to bet.</font><div class='respPicDiv'><img src='img/responseButtonOffersNo0L3.png' class='respPic'></div></div>","null","5","Lucky Lemons","Fruit/lemon.png","Lost","0.35,0.8","11","0.35","92","14","",""
"html-keyboard-response","51","178078","0.0-11.0-3.13","63d007388da4ef5b301762f9","bdp_rwlrn","Tue Mar 14 2023 18:03:06 GMT-0700 (Pacific Daylight Time)","469448","Trustworthy,Untrustworthy","","","","feedback","","null","","<div class='respPicDiv'><img src='img/responseButtonOffersNo0_wht.png' class='respPic'></div><div class='trialDiv'><img src='Fruit/lemon.png'><br><font class='baseline'><strong>Lucky Lemons</strong><p><strong><font class='negOutcome'>You LOST</font><p>You bet: 3</strong></font> &nbsp; &nbsp; &nbsp; &nbsp; &nbsp; &nbsp;<font class='negOutcome'>You receive: <strong>0</strong></font></div>","null","5","Lucky Lemons","Fruit/lemon.png","Lost","0.35,0.8","11","0.35","92","14","",""
"html-keyboard-response","52","178412","0.0-11.0-1.14","63d007388da4ef5b301762f9","bdp_rwlrn","Tue Mar 14 2023 18:03:06 GMT-0700 (Pacific Daylight Time)","469448","Trustworthy,Untrustworthy","","","","decision","","333","","<div class='trialDiv'><img src='Fruit/apple.png'><br><font class='baseline'><strong>Awesome Apples</strong><p>Choose number of points to bet.</font><div class='respPicDiv'><img src='img/responseButtonOffersNo0L.png' class='respPic'></div></div>","5","5","Awesome Apples","Fruit/apple.png","Won","0.65,0.35","8","0.65","97","15","",""
"html-keyboard-response","53","178674","0.0-11.0-2.14","63d007388da4ef5b301762f9","bdp_rwlrn","Tue Mar 14 2023 18:03:06 GMT-0700 (Pacific Daylight Time)","469448","Trustworthy,Untrustworthy","","","","decisionFB","","null","","<div class='trialDiv'><img src='Fruit/apple.png'><br><font class='baseline'><strong>Awesome Apples</strong><p>Choose number of points to bet.</font><div class='respPicDiv'><img src='img/responseButtonOffersNo0L5.png' class='respPic'></div></div>","null","5","Awesome Apples","Fruit/apple.png","Won","0.65,0.35","8","0.65","92","15","",""
"html-keyboard-response","54","179678","0.0-11.0-3.14","63d007388da4ef5b301762f9","bdp_rwlrn","Tue Mar 14 2023 18:03:06 GMT-0700 (Pacific Daylight Time)","469448","Trustworthy,Untrustworthy","","","","feedback","","null","","<div class='respPicDiv'><img src='img/responseButtonOffersNo0_wht.png' class='respPic'></div><div class='trialDiv'><img src='Fruit/apple.png'><br><font class='baseline'><strong>Awesome Apples</strong><p><strong><font class='posOutcome'>You WON</font><p>You bet: 5</strong></font> &nbsp; &nbsp; &nbsp; &nbsp; &nbsp; &nbsp;<font class='posOutcome'>you receive: <strong>10</strong></font></div>","null","5","Awesome Apples","Fruit/apple.png","Won","0.65,0.35","8","0.65","102","15","",""
"html-keyboard-response","55","180627","0.0-11.0-1.15","63d007388da4ef5b301762f9","bdp_rwlrn","Tue Mar 14 2023 18:03:06 GMT-0700 (Pacific Daylight Time)","469448","Trustworthy,Untrustworthy","","","","decision","","947","","<div class='trialDiv'><img src='Fruit/lemon.png'><br><font class='baseline'><strong>Lucky Lemons</strong><p>Choose number of points to bet.</font><div class='respPicDiv'><img src='img/responseButtonOffersNo0L.png' class='respPic'></div></div>","5","6","Lucky Lemons","Fruit/lemon.png","Won","0.35,0.8","11","0.35","107","16","",""
"html-keyboard-response","56","180888","0.0-11.0-2.15","63d007388da4ef5b301762f9","bdp_rwlrn","Tue Mar 14 2023 18:03:06 GMT-0700 (Pacific Daylight Time)","469448","Trustworthy,Untrustworthy","","","","decisionFB","","null","","<div class='trialDiv'><img src='Fruit/lemon.png'><br><font class='baseline'><strong>Lucky Lemons</strong><p>Choose number of points to bet.</font><div class='respPicDiv'><img src='img/responseButtonOffersNo0L5.png' class='respPic'></div></div>","null","6","Lucky Lemons","Fruit/lemon.png","Won","0.35,0.8","11","0.35","102","16","",""
"html-keyboard-response","57","181896","0.0-11.0-3.15","63d007388da4ef5b301762f9","bdp_rwlrn","Tue Mar 14 2023 18:03:06 GMT-0700 (Pacific Daylight Time)","469448","Trustworthy,Untrustworthy","","","","feedback","","null","","<div class='respPicDiv'><img src='img/responseButtonOffersNo0_wht.png' class='respPic'></div><div class='trialDiv'><img src='Fruit/lemon.png'><br><font class='baseline'><strong>Lucky Lemons</strong><p><strong><font class='posOutcome'>You WON</font><p>You bet: 5</strong></font> &nbsp; &nbsp; &nbsp; &nbsp; &nbsp; &nbsp;<font class='posOutcome'>you receive: <strong>10</strong></font></div>","null","6","Lucky Lemons","Fruit/lemon.png","Won","0.35,0.8","11","0.35","112","16","",""
"html-keyboard-response","58","182892","0.0-11.0-1.16","63d007388da4ef5b301762f9","bdp_rwlrn","Tue Mar 14 2023 18:03:06 GMT-0700 (Pacific Daylight Time)","469448","Trustworthy,Untrustworthy","","","","decision","","995","","<div class='trialDiv'><img src='Fruit/apple.png'><br><font class='baseline'><strong>Awesome Apples</strong><p>Choose number of points to bet.</font><div class='respPicDiv'><img src='img/responseButtonOffersNo0L.png' class='respPic'></div></div>","2","6","Awesome Apples","Fruit/apple.png","Lost","0.65,0.35","8","0.65","117","17","",""
"html-keyboard-response","59","183152","0.0-11.0-2.16","63d007388da4ef5b301762f9","bdp_rwlrn","Tue Mar 14 2023 18:03:06 GMT-0700 (Pacific Daylight Time)","469448","Trustworthy,Untrustworthy","","","","decisionFB","","null","","<div class='trialDiv'><img src='Fruit/apple.png'><br><font class='baseline'><strong>Awesome Apples</strong><p>Choose number of points to bet.</font><div class='respPicDiv'><img src='img/responseButtonOffersNo0L2.png' class='respPic'></div></div>","null","6","Awesome Apples","Fruit/apple.png","Lost","0.65,0.35","8","0.65","115","17","",""
"html-keyboard-response","60","184158","0.0-11.0-3.16","63d007388da4ef5b301762f9","bdp_rwlrn","Tue Mar 14 2023 18:03:06 GMT-0700 (Pacific Daylight Time)","469448","Trustworthy,Untrustworthy","","","","feedback","","null","","<div class='respPicDiv'><img src='img/responseButtonOffersNo0_wht.png' class='respPic'></div><div class='trialDiv'><img src='Fruit/apple.png'><br><font class='baseline'><strong>Awesome Apples</strong><p><strong><font class='negOutcome'>You LOST</font><p>You bet: 2</strong></font> &nbsp; &nbsp; &nbsp; &nbsp; &nbsp; &nbsp;<font class='negOutcome'>You receive: <strong>0</strong></font></div>","null","6","Awesome Apples","Fruit/apple.png","Lost","0.65,0.35","8","0.65","115","17","",""
"html-keyboard-response","61","186411","0.0-11.0-1.17","63d007388da4ef5b301762f9","bdp_rwlrn","Tue Mar 14 2023 18:03:06 GMT-0700 (Pacific Daylight Time)","469448","Trustworthy,Untrustworthy","","","","decision","","2253","","<div class='trialDiv'><img src='Fruit/cherrie.png'><br><font class='baseline'><strong>Cherry Chances</strong><p>Choose number of points to bet.</font><div class='respPicDiv'><img src='img/responseButtonOffersNo0L.png' class='respPic'></div></div>","4","6","Cherry Chances","Fruit/cherrie.png","Won","0.65,0.2","13","0.65","120","18","",""
"html-keyboard-response","62","186678","0.0-11.0-2.17","63d007388da4ef5b301762f9","bdp_rwlrn","Tue Mar 14 2023 18:03:06 GMT-0700 (Pacific Daylight Time)","469448","Trustworthy,Untrustworthy","","","","decisionFB","","null","","<div class='trialDiv'><img src='Fruit/cherrie.png'><br><font class='baseline'><strong>Cherry Chances</strong><p>Choose number of points to bet.</font><div class='respPicDiv'><img src='img/responseButtonOffersNo0L4.png' class='respPic'></div></div>","null","6","Cherry Chances","Fruit/cherrie.png","Won","0.65,0.2","13","0.65","116","18","",""
"html-keyboard-response","63","187684","0.0-11.0-3.17","63d007388da4ef5b301762f9","bdp_rwlrn","Tue Mar 14 2023 18:03:06 GMT-0700 (Pacific Daylight Time)","469448","Trustworthy,Untrustworthy","","","","feedback","","null","","<div class='respPicDiv'><img src='img/responseButtonOffersNo0_wht.png' class='respPic'></div><div class='trialDiv'><img src='Fruit/cherrie.png'><br><font class='baseline'><strong>Cherry Chances</strong><p><strong><font class='posOutcome'>You WON</font><p>You bet: 4</strong></font> &nbsp; &nbsp; &nbsp; &nbsp; &nbsp; &nbsp;<font class='posOutcome'>you receive: <strong>8</strong></font></div>","null","6","Cherry Chances","Fruit/cherrie.png","Won","0.65,0.2","13","0.65","124","18","",""
"html-keyboard-response","64","189686","0.0-11.0-1.18","63d007388da4ef5b301762f9","bdp_rwlrn","Tue Mar 14 2023 18:03:06 GMT-0700 (Pacific Daylight Time)","469448","Trustworthy,Untrustworthy","","","","decision","","2002","","<div class='trialDiv'><img src='Fruit/lemon.png'><br><font class='baseline'><strong>Lucky Lemons</strong><p>Choose number of points to bet.</font><div class='respPicDiv'><img src='img/responseButtonOffersNo0L.png' class='respPic'></div></div>","3","7","Lucky Lemons","Fruit/lemon.png","Lost","0.35,0.8","11","0.35","129","19","",""
"html-keyboard-response","65","189949","0.0-11.0-2.18","63d007388da4ef5b301762f9","bdp_rwlrn","Tue Mar 14 2023 18:03:06 GMT-0700 (Pacific Daylight Time)","469448","Trustworthy,Untrustworthy","","","","decisionFB","","null","","<div class='trialDiv'><img src='Fruit/lemon.png'><br><font class='baseline'><strong>Lucky Lemons</strong><p>Choose number of points to bet.</font><div class='respPicDiv'><img src='img/responseButtonOffersNo0L3.png' class='respPic'></div></div>","null","7","Lucky Lemons","Fruit/lemon.png","Lost","0.35,0.8","11","0.35","126","19","",""
"html-keyboard-response","66","190951","0.0-11.0-3.18","63d007388da4ef5b301762f9","bdp_rwlrn","Tue Mar 14 2023 18:03:06 GMT-0700 (Pacific Daylight Time)","469448","Trustworthy,Untrustworthy","","","","feedback","","null","","<div class='respPicDiv'><img src='img/responseButtonOffersNo0_wht.png' class='respPic'></div><div class='trialDiv'><img src='Fruit/lemon.png'><br><font class='baseline'><strong>Lucky Lemons</strong><p><strong><font class='negOutcome'>You LOST</font><p>You bet: 3</strong></font> &nbsp; &nbsp; &nbsp; &nbsp; &nbsp; &nbsp;<font class='negOutcome'>You receive: <strong>0</strong></font></div>","null","7","Lucky Lemons","Fruit/lemon.png","Lost","0.35,0.8","11","0.35","126","19","",""
"html-keyboard-response","67","191735","0.0-11.0-1.19","63d007388da4ef5b301762f9","bdp_rwlrn","Tue Mar 14 2023 18:03:06 GMT-0700 (Pacific Daylight Time)","469448","Trustworthy,Untrustworthy","","","","decision","","783","","<div class='trialDiv'><img src='Fruit/apple.png'><br><font class='baseline'><strong>Awesome Apples</strong><p>Choose number of points to bet.</font><div class='respPicDiv'><img src='img/responseButtonOffersNo0L.png' class='respPic'></div></div>","5","7","Awesome Apples","Fruit/apple.png","Lost","0.65,0.35","8","0.65","131","20","",""
"html-keyboard-response","68","191993","0.0-11.0-2.19","63d007388da4ef5b301762f9","bdp_rwlrn","Tue Mar 14 2023 18:03:06 GMT-0700 (Pacific Daylight Time)","469448","Trustworthy,Untrustworthy","","","","decisionFB","","null","","<div class='trialDiv'><img src='Fruit/apple.png'><br><font class='baseline'><strong>Awesome Apples</strong><p>Choose number of points to bet.</font><div class='respPicDiv'><img src='img/responseButtonOffersNo0L5.png' class='respPic'></div></div>","null","7","Awesome Apples","Fruit/apple.png","Lost","0.65,0.35","8","0.65","126","20","",""
"html-keyboard-response","69","192996","0.0-11.0-3.19","63d007388da4ef5b301762f9","bdp_rwlrn","Tue Mar 14 2023 18:03:06 GMT-0700 (Pacific Daylight Time)","469448","Trustworthy,Untrustworthy","","","","feedback","","null","","<div class='respPicDiv'><img src='img/responseButtonOffersNo0_wht.png' class='respPic'></div><div class='trialDiv'><img src='Fruit/apple.png'><br><font class='baseline'><strong>Awesome Apples</strong><p><strong><font class='negOutcome'>You LOST</font><p>You bet: 5</strong></font> &nbsp; &nbsp; &nbsp; &nbsp; &nbsp; &nbsp;<font class='negOutcome'>You receive: <strong>0</strong></font></div>","null","7","Awesome Apples","Fruit/apple.png","Lost","0.65,0.35","8","0.65","126","20","",""
"html-keyboard-response","70","193948","0.0-11.0-1.20","63d007388da4ef5b301762f9","bdp_rwlrn","Tue Mar 14 2023 18:03:06 GMT-0700 (Pacific Daylight Time)","469448","Trustworthy,Untrustworthy","","","","decision","","952","","<div class='trialDiv'><img src='Fruit/cherrie.png'><br><font class='baseline'><strong>Cherry Chances</strong><p>Choose number of points to bet.</font><div class='respPicDiv'><img src='img/responseButtonOffersNo0L.png' class='respPic'></div></div>","5","7","Cherry Chances","Fruit/cherrie.png","Won","0.65,0.2","13","0.65","131","21","",""
"html-keyboard-response","71","194212","0.0-11.0-2.20","63d007388da4ef5b301762f9","bdp_rwlrn","Tue Mar 14 2023 18:03:06 GMT-0700 (Pacific Daylight Time)","469448","Trustworthy,Untrustworthy","","","","decisionFB","","null","","<div class='trialDiv'><img src='Fruit/cherrie.png'><br><font class='baseline'><strong>Cherry Chances</strong><p>Choose number of points to bet.</font><div class='respPicDiv'><img src='img/responseButtonOffersNo0L5.png' class='respPic'></div></div>","null","7","Cherry Chances","Fruit/cherrie.png","Won","0.65,0.2","13","0.65","126","21","",""
"html-keyboard-response","72","195216","0.0-11.0-3.20","63d007388da4ef5b301762f9","bdp_rwlrn","Tue Mar 14 2023 18:03:06 GMT-0700 (Pacific Daylight Time)","469448","Trustworthy,Untrustworthy","","","","feedback","","null","","<div class='respPicDiv'><img src='img/responseButtonOffersNo0_wht.png' class='respPic'></div><div class='trialDiv'><img src='Fruit/cherrie.png'><br><font class='baseline'><strong>Cherry Chances</strong><p><strong><font class='posOutcome'>You WON</font><p>You bet: 5</strong></font> &nbsp; &nbsp; &nbsp; &nbsp; &nbsp; &nbsp;<font class='posOutcome'>you receive: <strong>10</strong></font></div>","null","7","Cherry Chances","Fruit/cherrie.png","Won","0.65,0.2","13","0.65","136","21","",""
"html-keyboard-response","73","197171","0.0-11.0-1.21","63d007388da4ef5b301762f9","bdp_rwlrn","Tue Mar 14 2023 18:03:06 GMT-0700 (Pacific Daylight Time)","469448","Trustworthy,Untrustworthy","","","","decision","","1954","","<div class='trialDiv'><img src='Fruit/apple.png'><br><font class='baseline'><strong>Awesome Apples</strong><p>Choose number of points to bet.</font><div class='respPicDiv'><img src='img/responseButtonOffersNo0L.png' class='respPic'></div></div>","3","8","Awesome Apples","Fruit/apple.png","Lost","0.65,0.35","8","0.65","141","22","",""
"html-keyboard-response","74","197436","0.0-11.0-2.21","63d007388da4ef5b301762f9","bdp_rwlrn","Tue Mar 14 2023 18:03:06 GMT-0700 (Pacific Daylight Time)","469448","Trustworthy,Untrustworthy","","","","decisionFB","","null","","<div class='trialDiv'><img src='Fruit/apple.png'><br><font class='baseline'><strong>Awesome Apples</strong><p>Choose number of points to bet.</font><div class='respPicDiv'><img src='img/responseButtonOffersNo0L3.png' class='respPic'></div></div>","null","8","Awesome Apples","Fruit/apple.png","Lost","0.65,0.35","8","0.65","138","22","",""
"html-keyboard-response","75","198440","0.0-11.0-3.21","63d007388da4ef5b301762f9","bdp_rwlrn","Tue Mar 14 2023 18:03:06 GMT-0700 (Pacific Daylight Time)","469448","Trustworthy,Untrustworthy","","","","feedback","","null","","<div class='respPicDiv'><img src='img/responseButtonOffersNo0_wht.png' class='respPic'></div><div class='trialDiv'><img src='Fruit/apple.png'><br><font class='baseline'><strong>Awesome Apples</strong><p><strong><font class='negOutcome'>You LOST</font><p>You bet: 3</strong></font> &nbsp; &nbsp; &nbsp; &nbsp; &nbsp; &nbsp;<font class='negOutcome'>You receive: <strong>0</strong></font></div>","null","8","Awesome Apples","Fruit/apple.png","Lost","0.65,0.35","8","0.65","138","22","",""
"html-keyboard-response","76","199138","0.0-11.0-1.22","63d007388da4ef5b301762f9","bdp_rwlrn","Tue Mar 14 2023 18:03:06 GMT-0700 (Pacific Daylight Time)","469448","Trustworthy,Untrustworthy","","","","decision","","697","","<div class='trialDiv'><img src='Fruit/lemon.png'><br><font class='baseline'><strong>Lucky Lemons</strong><p>Choose number of points to bet.</font><div class='respPicDiv'><img src='img/responseButtonOffersNo0L.png' class='respPic'></div></div>","4","8","Lucky Lemons","Fruit/lemon.png","Lost","0.35,0.8","11","0.35","143","23","",""
"html-keyboard-response","77","199399","0.0-11.0-2.22","63d007388da4ef5b301762f9","bdp_rwlrn","Tue Mar 14 2023 18:03:06 GMT-0700 (Pacific Daylight Time)","469448","Trustworthy,Untrustworthy","","","","decisionFB","","null","","<div class='trialDiv'><img src='Fruit/lemon.png'><br><font class='baseline'><strong>Lucky Lemons</strong><p>Choose number of points to bet.</font><div class='respPicDiv'><img src='img/responseButtonOffersNo0L4.png' class='respPic'></div></div>","null","8","Lucky Lemons","Fruit/lemon.png","Lost","0.35,0.8","11","0.35","139","23","",""
"html-keyboard-response","78","200402","0.0-11.0-3.22","63d007388da4ef5b301762f9","bdp_rwlrn","Tue Mar 14 2023 18:03:06 GMT-0700 (Pacific Daylight Time)","469448","Trustworthy,Untrustworthy","","","","feedback","","null","","<div class='respPicDiv'><img src='img/responseButtonOffersNo0_wht.png' class='respPic'></div><div class='trialDiv'><img src='Fruit/lemon.png'><br><font class='baseline'><strong>Lucky Lemons</strong><p><strong><font class='negOutcome'>You LOST</font><p>You bet: 4</strong></font> &nbsp; &nbsp; &nbsp; &nbsp; &nbsp; &nbsp;<font class='negOutcome'>You receive: <strong>0</strong></font></div>","null","8","Lucky Lemons","Fruit/lemon.png","Lost","0.35,0.8","11","0.35","139","23","",""
"html-keyboard-response","79","201126","0.0-11.0-1.23","63d007388da4ef5b301762f9","bdp_rwlrn","Tue Mar 14 2023 18:03:06 GMT-0700 (Pacific Daylight Time)","469448","Trustworthy,Untrustworthy","","","","decision","","722","","<div class='trialDiv'><img src='Fruit/cherrie.png'><br><font class='baseline'><strong>Cherry Chances</strong><p>Choose number of points to bet.</font><div class='respPicDiv'><img src='img/responseButtonOffersNo0L.png' class='respPic'></div></div>","1","8","Cherry Chances","Fruit/cherrie.png","Won","0.65,0.2","13","0.65","144","24","",""
"html-keyboard-response","80","201378","0.0-11.0-2.23","63d007388da4ef5b301762f9","bdp_rwlrn","Tue Mar 14 2023 18:03:06 GMT-0700 (Pacific Daylight Time)","469448","Trustworthy,Untrustworthy","","","","decisionFB","","null","","<div class='trialDiv'><img src='Fruit/cherrie.png'><br><font class='baseline'><strong>Cherry Chances</strong><p>Choose number of points to bet.</font><div class='respPicDiv'><img src='img/responseButtonOffersNo0L1.png' class='respPic'></div></div>","null","8","Cherry Chances","Fruit/cherrie.png","Won","0.65,0.2","13","0.65","143","24","",""
"html-keyboard-response","81","202387","0.0-11.0-3.23","63d007388da4ef5b301762f9","bdp_rwlrn","Tue Mar 14 2023 18:03:06 GMT-0700 (Pacific Daylight Time)","469448","Trustworthy,Untrustworthy","","","","feedback","","null","","<div class='respPicDiv'><img src='img/responseButtonOffersNo0_wht.png' class='respPic'></div><div class='trialDiv'><img src='Fruit/cherrie.png'><br><font class='baseline'><strong>Cherry Chances</strong><p><strong><font class='posOutcome'>You WON</font><p>You bet: 1</strong></font> &nbsp; &nbsp; &nbsp; &nbsp; &nbsp; &nbsp;<font class='posOutcome'>you receive: <strong>2</strong></font></div>","null","8","Cherry Chances","Fruit/cherrie.png","Won","0.65,0.2","13","0.65","145","24","",""
"html-keyboard-response","82","204009","0.0-11.0-1.24","63d007388da4ef5b301762f9","bdp_rwlrn","Tue Mar 14 2023 18:03:06 GMT-0700 (Pacific Daylight Time)","469448","Trustworthy,Untrustworthy","","","","decision","","1622","","<div class='trialDiv'><img src='Fruit/lemon.png'><br><font class='baseline'><strong>Lucky Lemons</strong><p>Choose number of points to bet.</font><div class='respPicDiv'><img src='img/responseButtonOffersNo0L.png' class='respPic'></div></div>","5","9","Lucky Lemons","Fruit/lemon.png","Won","0.35,0.8","11","0.35","150","25","",""
"html-keyboard-response","83","204270","0.0-11.0-2.24","63d007388da4ef5b301762f9","bdp_rwlrn","Tue Mar 14 2023 18:03:06 GMT-0700 (Pacific Daylight Time)","469448","Trustworthy,Untrustworthy","","","","decisionFB","","null","","<div class='trialDiv'><img src='Fruit/lemon.png'><br><font class='baseline'><strong>Lucky Lemons</strong><p>Choose number of points to bet.</font><div class='respPicDiv'><img src='img/responseButtonOffersNo0L5.png' class='respPic'></div></div>","null","9","Lucky Lemons","Fruit/lemon.png","Won","0.35,0.8","11","0.35","145","25","",""
"html-keyboard-response","84","205271","0.0-11.0-3.24","63d007388da4ef5b301762f9","bdp_rwlrn","Tue Mar 14 2023 18:03:06 GMT-0700 (Pacific Daylight Time)","469448","Trustworthy,Untrustworthy","","","","feedback","","null","","<div class='respPicDiv'><img src='img/responseButtonOffersNo0_wht.png' class='respPic'></div><div class='trialDiv'><img src='Fruit/lemon.png'><br><font class='baseline'><strong>Lucky Lemons</strong><p><strong><font class='posOutcome'>You WON</font><p>You bet: 5</strong></font> &nbsp; &nbsp; &nbsp; &nbsp; &nbsp; &nbsp;<font class='posOutcome'>you receive: <strong>10</strong></font></div>","null","9","Lucky Lemons","Fruit/lemon.png","Won","0.35,0.8","11","0.35","155","25","",""
"html-keyboard-response","85","208546","0.0-11.0-1.25","63d007388da4ef5b301762f9","bdp_rwlrn","Tue Mar 14 2023 18:03:06 GMT-0700 (Pacific Daylight Time)","469448","Trustworthy,Untrustworthy","","","","decision","","3274","","<div class='trialDiv'><img src='Fruit/apple.png'><br><font class='baseline'><strong>Awesome Apples</strong><p>Choose number of points to bet.</font><div class='respPicDiv'><img src='img/responseButtonOffersNo0L.png' class='respPic'></div></div>","5","9","Awesome Apples","Fruit/apple.png","Lost","0.65,0.35","8","0.65","160","26","",""
"html-keyboard-response","86","208811","0.0-11.0-2.25","63d007388da4ef5b301762f9","bdp_rwlrn","Tue Mar 14 2023 18:03:06 GMT-0700 (Pacific Daylight Time)","469448","Trustworthy,Untrustworthy","","","","decisionFB","","null","","<div class='trialDiv'><img src='Fruit/apple.png'><br><font class='baseline'><strong>Awesome Apples</strong><p>Choose number of points to bet.</font><div class='respPicDiv'><img src='img/responseButtonOffersNo0L5.png' class='respPic'></div></div>","null","9","Awesome Apples","Fruit/apple.png","Lost","0.65,0.35","8","0.65","155","26","",""
"html-keyboard-response","87","209827","0.0-11.0-3.25","63d007388da4ef5b301762f9","bdp_rwlrn","Tue Mar 14 2023 18:03:06 GMT-0700 (Pacific Daylight Time)","469448","Trustworthy,Untrustworthy","","","","feedback","","null","","<div class='respPicDiv'><img src='img/responseButtonOffersNo0_wht.png' class='respPic'></div><div class='trialDiv'><img src='Fruit/apple.png'><br><font class='baseline'><strong>Awesome Apples</strong><p><strong><font class='negOutcome'>You LOST</font><p>You bet: 5</strong></font> &nbsp; &nbsp; &nbsp; &nbsp; &nbsp; &nbsp;<font class='negOutcome'>You receive: <strong>0</strong></font></div>","null","9","Awesome Apples","Fruit/apple.png","Lost","0.65,0.35","8","0.65","155","26","",""
"html-keyboard-response","88","210288","0.0-11.0-1.26","63d007388da4ef5b301762f9","bdp_rwlrn","Tue Mar 14 2023 18:03:06 GMT-0700 (Pacific Daylight Time)","469448","Trustworthy,Untrustworthy","","","","decision","","461","","<div class='trialDiv'><img src='Fruit/cherrie.png'><br><font class='baseline'><strong>Cherry Chances</strong><p>Choose number of points to bet.</font><div class='respPicDiv'><img src='img/responseButtonOffersNo0L.png' class='respPic'></div></div>","3","9","Cherry Chances","Fruit/cherrie.png","Won","0.65,0.2","13","0.65","160","27","",""
"html-keyboard-response","89","210539","0.0-11.0-2.26","63d007388da4ef5b301762f9","bdp_rwlrn","Tue Mar 14 2023 18:03:06 GMT-0700 (Pacific Daylight Time)","469448","Trustworthy,Untrustworthy","","","","decisionFB","","null","","<div class='trialDiv'><img src='Fruit/cherrie.png'><br><font class='baseline'><strong>Cherry Chances</strong><p>Choose number of points to bet.</font><div class='respPicDiv'><img src='img/responseButtonOffersNo0L3.png' class='respPic'></div></div>","null","9","Cherry Chances","Fruit/cherrie.png","Won","0.65,0.2","13","0.65","157","27","",""
"html-keyboard-response","90","211543","0.0-11.0-3.26","63d007388da4ef5b301762f9","bdp_rwlrn","Tue Mar 14 2023 18:03:06 GMT-0700 (Pacific Daylight Time)","469448","Trustworthy,Untrustworthy","","","","feedback","","null","","<div class='respPicDiv'><img src='img/responseButtonOffersNo0_wht.png' class='respPic'></div><div class='trialDiv'><img src='Fruit/cherrie.png'><br><font class='baseline'><strong>Cherry Chances</strong><p><strong><font class='posOutcome'>You WON</font><p>You bet: 3</strong></font> &nbsp; &nbsp; &nbsp; &nbsp; &nbsp; &nbsp;<font class='posOutcome'>you receive: <strong>6</strong></font></div>","null","9","Cherry Chances","Fruit/cherrie.png","Won","0.65,0.2","13","0.65","163","27","",""
"html-keyboard-response","91","212459","0.0-11.0-1.27","63d007388da4ef5b301762f9","bdp_rwlrn","Tue Mar 14 2023 18:03:06 GMT-0700 (Pacific Daylight Time)","469448","Trustworthy,Untrustworthy","","","","decision","","915","","<div class='trialDiv'><img src='Fruit/lemon.png'><br><font class='baseline'><strong>Lucky Lemons</strong><p>Choose number of points to bet.</font><div class='respPicDiv'><img src='img/responseButtonOffersNo0L.png' class='respPic'></div></div>","4","10","Lucky Lemons","Fruit/lemon.png","Lost","0.35,0.8","11","0.35","168","28","",""
"html-keyboard-response","92","212723","0.0-11.0-2.27","63d007388da4ef5b301762f9","bdp_rwlrn","Tue Mar 14 2023 18:03:06 GMT-0700 (Pacific Daylight Time)","469448","Trustworthy,Untrustworthy","","","","decisionFB","","null","","<div class='trialDiv'><img src='Fruit/lemon.png'><br><font class='baseline'><strong>Lucky Lemons</strong><p>Choose number of points to bet.</font><div class='respPicDiv'><img src='img/responseButtonOffersNo0L4.png' class='respPic'></div></div>","null","10","Lucky Lemons","Fruit/lemon.png","Lost","0.35,0.8","11","0.35","164","28","",""
"html-keyboard-response","93","213730","0.0-11.0-3.27","63d007388da4ef5b301762f9","bdp_rwlrn","Tue Mar 14 2023 18:03:06 GMT-0700 (Pacific Daylight Time)","469448","Trustworthy,Untrustworthy","","","","feedback","","null","","<div class='respPicDiv'><img src='img/responseButtonOffersNo0_wht.png' class='respPic'></div><div class='trialDiv'><img src='Fruit/lemon.png'><br><font class='baseline'><strong>Lucky Lemons</strong><p><strong><font class='negOutcome'>You LOST</font><p>You bet: 4</strong></font> &nbsp; &nbsp; &nbsp; &nbsp; &nbsp; &nbsp;<font class='negOutcome'>You receive: <strong>0</strong></font></div>","null","10","Lucky Lemons","Fruit/lemon.png","Lost","0.35,0.8","11","0.35","164","28","",""
"html-keyboard-response","94","214501","0.0-11.0-1.28","63d007388da4ef5b301762f9","bdp_rwlrn","Tue Mar 14 2023 18:03:06 GMT-0700 (Pacific Daylight Time)","469448","Trustworthy,Untrustworthy","","","","decision","","771","","<div class='trialDiv'><img src='Fruit/cherrie.png'><br><font class='baseline'><strong>Cherry Chances</strong><p>Choose number of points to bet.</font><div class='respPicDiv'><img src='img/responseButtonOffersNo0L.png' class='respPic'></div></div>","2","10","Cherry Chances","Fruit/cherrie.png","Lost","0.65,0.2","13","0.65","169","29","",""
"html-keyboard-response","95","214757","0.0-11.0-2.28","63d007388da4ef5b301762f9","bdp_rwlrn","Tue Mar 14 2023 18:03:06 GMT-0700 (Pacific Daylight Time)","469448","Trustworthy,Untrustworthy","","","","decisionFB","","null","","<div class='trialDiv'><img src='Fruit/cherrie.png'><br><font class='baseline'><strong>Cherry Chances</strong><p>Choose number of points to bet.</font><div class='respPicDiv'><img src='img/responseButtonOffersNo0L2.png' class='respPic'></div></div>","null","10","Cherry Chances","Fruit/cherrie.png","Lost","0.65,0.2","13","0.65","167","29","",""
"html-keyboard-response","96","215761","0.0-11.0-3.28","63d007388da4ef5b301762f9","bdp_rwlrn","Tue Mar 14 2023 18:03:06 GMT-0700 (Pacific Daylight Time)","469448","Trustworthy,Untrustworthy","","","","feedback","","null","","<div class='respPicDiv'><img src='img/responseButtonOffersNo0_wht.png' class='respPic'></div><div class='trialDiv'><img src='Fruit/cherrie.png'><br><font class='baseline'><strong>Cherry Chances</strong><p><strong><font class='negOutcome'>You LOST</font><p>You bet: 2</strong></font> &nbsp; &nbsp; &nbsp; &nbsp; &nbsp; &nbsp;<font class='negOutcome'>You receive: <strong>0</strong></font></div>","null","10","Cherry Chances","Fruit/cherrie.png","Lost","0.65,0.2","13","0.65","167","29","",""
"html-keyboard-response","97","217235","0.0-11.0-1.29","63d007388da4ef5b301762f9","bdp_rwlrn","Tue Mar 14 2023 18:03:06 GMT-0700 (Pacific Daylight Time)","469448","Trustworthy,Untrustworthy","","","","decision","","1474","","<div class='trialDiv'><img src='Fruit/apple.png'><br><font class='baseline'><strong>Awesome Apples</strong><p>Choose number of points to bet.</font><div class='respPicDiv'><img src='img/responseButtonOffersNo0L.png' class='respPic'></div></div>","4","10","Awesome Apples","Fruit/apple.png","Won","0.65,0.35","8","0.65","172","30","",""
"html-keyboard-response","98","217492","0.0-11.0-2.29","63d007388da4ef5b301762f9","bdp_rwlrn","Tue Mar 14 2023 18:03:06 GMT-0700 (Pacific Daylight Time)","469448","Trustworthy,Untrustworthy","","","","decisionFB","","null","","<div class='trialDiv'><img src='Fruit/apple.png'><br><font class='baseline'><strong>Awesome Apples</strong><p>Choose number of points to bet.</font><div class='respPicDiv'><img src='img/responseButtonOffersNo0L4.png' class='respPic'></div></div>","null","10","Awesome Apples","Fruit/apple.png","Won","0.65,0.35","8","0.65","168","30","",""
"html-keyboard-response","99","218500","0.0-11.0-3.29","63d007388da4ef5b301762f9","bdp_rwlrn","Tue Mar 14 2023 18:03:06 GMT-0700 (Pacific Daylight Time)","469448","Trustworthy,Untrustworthy","","","","feedback","","null","","<div class='respPicDiv'><img src='img/responseButtonOffersNo0_wht.png' class='respPic'></div><div class='trialDiv'><img src='Fruit/apple.png'><br><font class='baseline'><strong>Awesome Apples</strong><p><strong><font class='posOutcome'>You WON</font><p>You bet: 4</strong></font> &nbsp; &nbsp; &nbsp; &nbsp; &nbsp; &nbsp;<font class='posOutcome'>you receive: <strong>8</strong></font></div>","null","10","Awesome Apples","Fruit/apple.png","Won","0.65,0.35","8","0.65","176","30","",""
"html-keyboard-response","100","219941","0.0-11.0-1.30","63d007388da4ef5b301762f9","bdp_rwlrn","Tue Mar 14 2023 18:03:06 GMT-0700 (Pacific Daylight Time)","469448","Trustworthy,Untrustworthy","","","","decision","","1440","","<div class='trialDiv'><img src='Fruit/lemon.png'><br><font class='baseline'><strong>Lucky Lemons</strong><p>Choose number of points to bet.</font><div class='respPicDiv'><img src='img/responseButtonOffersNo0L.png' class='respPic'></div></div>","5","11","Lucky Lemons","Fruit/lemon.png","Lost","0.35,0.8","11","0.35","181","31","",""
"html-keyboard-response","101","220199","0.0-11.0-2.30","63d007388da4ef5b301762f9","bdp_rwlrn","Tue Mar 14 2023 18:03:06 GMT-0700 (Pacific Daylight Time)","469448","Trustworthy,Untrustworthy","","","","decisionFB","","null","","<div class='trialDiv'><img src='Fruit/lemon.png'><br><font class='baseline'><strong>Lucky Lemons</strong><p>Choose number of points to bet.</font><div class='respPicDiv'><img src='img/responseButtonOffersNo0L5.png' class='respPic'></div></div>","null","11","Lucky Lemons","Fruit/lemon.png","Lost","0.35,0.8","11","0.35","176","31","",""
"html-keyboard-response","102","221203","0.0-11.0-3.30","63d007388da4ef5b301762f9","bdp_rwlrn","Tue Mar 14 2023 18:03:06 GMT-0700 (Pacific Daylight Time)","469448","Trustworthy,Untrustworthy","","","","feedback","","null","","<div class='respPicDiv'><img src='img/responseButtonOffersNo0_wht.png' class='respPic'></div><div class='trialDiv'><img src='Fruit/lemon.png'><br><font class='baseline'><strong>Lucky Lemons</strong><p><strong><font class='negOutcome'>You LOST</font><p>You bet: 5</strong></font> &nbsp; &nbsp; &nbsp; &nbsp; &nbsp; &nbsp;<font class='negOutcome'>You receive: <strong>0</strong></font></div>","null","11","Lucky Lemons","Fruit/lemon.png","Lost","0.35,0.8","11","0.35","176","31","",""
"html-keyboard-response","103","222670","0.0-11.0-1.31","63d007388da4ef5b301762f9","bdp_rwlrn","Tue Mar 14 2023 18:03:06 GMT-0700 (Pacific Daylight Time)","469448","Trustworthy,Untrustworthy","","","","decision","","1467","","<div class='trialDiv'><img src='Fruit/apple.png'><br><font class='baseline'><strong>Awesome Apples</strong><p>Choose number of points to bet.</font><div class='respPicDiv'><img src='img/responseButtonOffersNo0L.png' class='respPic'></div></div>","3","11","Awesome Apples","Fruit/apple.png","Lost","0.65,0.35","8","0.65","181","32","",""
"html-keyboard-response","104","222932","0.0-11.0-2.31","63d007388da4ef5b301762f9","bdp_rwlrn","Tue Mar 14 2023 18:03:06 GMT-0700 (Pacific Daylight Time)","469448","Trustworthy,Untrustworthy","","","","decisionFB","","null","","<div class='trialDiv'><img src='Fruit/apple.png'><br><font class='baseline'><strong>Awesome Apples</strong><p>Choose number of points to bet.</font><div class='respPicDiv'><img src='img/responseButtonOffersNo0L3.png' class='respPic'></div></div>","null","11","Awesome Apples","Fruit/apple.png","Lost","0.65,0.35","8","0.65","178","32","",""
"html-keyboard-response","105","223941","0.0-11.0-3.31","63d007388da4ef5b301762f9","bdp_rwlrn","Tue Mar 14 2023 18:03:06 GMT-0700 (Pacific Daylight Time)","469448","Trustworthy,Untrustworthy","","","","feedback","","null","","<div class='respPicDiv'><img src='img/responseButtonOffersNo0_wht.png' class='respPic'></div><div class='trialDiv'><img src='Fruit/apple.png'><br><font class='baseline'><strong>Awesome Apples</strong><p><strong><font class='negOutcome'>You LOST</font><p>You bet: 3</strong></font> &nbsp; &nbsp; &nbsp; &nbsp; &nbsp; &nbsp;<font class='negOutcome'>You receive: <strong>0</strong></font></div>","null","11","Awesome Apples","Fruit/apple.png","Lost","0.65,0.35","8","0.65","178","32","",""
"html-keyboard-response","106","224327","0.0-11.0-1.32","63d007388da4ef5b301762f9","bdp_rwlrn","Tue Mar 14 2023 18:03:06 GMT-0700 (Pacific Daylight Time)","469448","Trustworthy,Untrustworthy","","","","decision","","385","","<div class='trialDiv'><img src='Fruit/cherrie.png'><br><font class='baseline'><strong>Cherry Chances</strong><p>Choose number of points to bet.</font><div class='respPicDiv'><img src='img/responseButtonOffersNo0L.png' class='respPic'></div></div>","4","11","Cherry Chances","Fruit/cherrie.png","Lost","0.65,0.2","13","0.65","183","33","",""
"html-keyboard-response","107","224585","0.0-11.0-2.32","63d007388da4ef5b301762f9","bdp_rwlrn","Tue Mar 14 2023 18:03:06 GMT-0700 (Pacific Daylight Time)","469448","Trustworthy,Untrustworthy","","","","decisionFB","","null","","<div class='trialDiv'><img src='Fruit/cherrie.png'><br><font class='baseline'><strong>Cherry Chances</strong><p>Choose number of points to bet.</font><div class='respPicDiv'><img src='img/responseButtonOffersNo0L4.png' class='respPic'></div></div>","null","11","Cherry Chances","Fruit/cherrie.png","Lost","0.65,0.2","13","0.65","179","33","",""
"html-keyboard-response","108","225594","0.0-11.0-3.32","63d007388da4ef5b301762f9","bdp_rwlrn","Tue Mar 14 2023 18:03:06 GMT-0700 (Pacific Daylight Time)","469448","Trustworthy,Untrustworthy","","","","feedback","","null","","<div class='respPicDiv'><img src='img/responseButtonOffersNo0_wht.png' class='respPic'></div><div class='trialDiv'><img src='Fruit/cherrie.png'><br><font class='baseline'><strong>Cherry Chances</strong><p><strong><font class='negOutcome'>You LOST</font><p>You bet: 4</strong></font> &nbsp; &nbsp; &nbsp; &nbsp; &nbsp; &nbsp;<font class='negOutcome'>You receive: <strong>0</strong></font></div>","null","11","Cherry Chances","Fruit/cherrie.png","Lost","0.65,0.2","13","0.65","179","33","",""
"html-keyboard-response","109","225627","0.0-11.0-1.33","63d007388da4ef5b301762f9","bdp_rwlrn","Tue Mar 14 2023 18:03:06 GMT-0700 (Pacific Daylight Time)","469448","Trustworthy,Untrustworthy","","","","decision","","33","","<div class='trialDiv'><img src='Fruit/lemon.png'><br><font class='baseline'><strong>Lucky Lemons</strong><p>Choose number of points to bet.</font><div class='respPicDiv'><img src='img/responseButtonOffersNo0L.png' class='respPic'></div></div>","2","12","Lucky Lemons","Fruit/lemon.png","Won","0.35,0.8","11","0.35","184","34","",""
"html-keyboard-response","110","225891","0.0-11.0-2.33","63d007388da4ef5b301762f9","bdp_rwlrn","Tue Mar 14 2023 18:03:06 GMT-0700 (Pacific Daylight Time)","469448","Trustworthy,Untrustworthy","","","","decisionFB","","null","","<div class='trialDiv'><img src='Fruit/lemon.png'><br><font class='baseline'><strong>Lucky Lemons</strong><p>Choose number of points to bet.</font><div class='respPicDiv'><img src='img/responseButtonOffersNo0L2.png' class='respPic'></div></div>","null","12","Lucky Lemons","Fruit/lemon.png","Won","0.35,0.8","11","0.35","182","34","",""
"html-keyboard-response","111","226899","0.0-11.0-3.33","63d007388da4ef5b301762f9","bdp_rwlrn","Tue Mar 14 2023 18:03:06 GMT-0700 (Pacific Daylight Time)","469448","Trustworthy,Untrustworthy","","","","feedback","","null","","<div class='respPicDiv'><img src='img/responseButtonOffersNo0_wht.png' class='respPic'></div><div class='trialDiv'><img src='Fruit/lemon.png'><br><font class='baseline'><strong>Lucky Lemons</strong><p><strong><font class='posOutcome'>You WON</font><p>You bet: 2</strong></font> &nbsp; &nbsp; &nbsp; &nbsp; &nbsp; &nbsp;<font class='posOutcome'>you receive: <strong>4</strong></font></div>","null","12","Lucky Lemons","Fruit/lemon.png","Won","0.35,0.8","11","0.35","186","34","",""
"html-keyboard-response","112","228107","0.0-11.0-1.34","63d007388da4ef5b301762f9","bdp_rwlrn","Tue Mar 14 2023 18:03:06 GMT-0700 (Pacific Daylight Time)","469448","Trustworthy,Untrustworthy","","","","decision","","1207","","<div class='trialDiv'><img src='Fruit/cherrie.png'><br><font class='baseline'><strong>Cherry Chances</strong><p>Choose number of points to bet.</font><div class='respPicDiv'><img src='img/responseButtonOffersNo0L.png' class='respPic'></div></div>","1","12","Cherry Chances","Fruit/cherrie.png","Won","0.65,0.2","13","0.65","191","35","",""
"html-keyboard-response","113","228369","0.0-11.0-2.34","63d007388da4ef5b301762f9","bdp_rwlrn","Tue Mar 14 2023 18:03:06 GMT-0700 (Pacific Daylight Time)","469448","Trustworthy,Untrustworthy","","","","decisionFB","","null","","<div class='trialDiv'><img src='Fruit/cherrie.png'><br><font class='baseline'><strong>Cherry Chances</strong><p>Choose number of points to bet.</font><div class='respPicDiv'><img src='img/responseButtonOffersNo0L1.png' class='respPic'></div></div>","null","12","Cherry Chances","Fruit/cherrie.png","Won","0.65,0.2","13","0.65","190","35","",""
"html-keyboard-response","114","229384","0.0-11.0-3.34","63d007388da4ef5b301762f9","bdp_rwlrn","Tue Mar 14 2023 18:03:06 GMT-0700 (Pacific Daylight Time)","469448","Trustworthy,Untrustworthy","","","","feedback","","null","","<div class='respPicDiv'><img src='img/responseButtonOffersNo0_wht.png' class='respPic'></div><div class='trialDiv'><img src='Fruit/cherrie.png'><br><font class='baseline'><strong>Cherry Chances</strong><p><strong><font class='posOutcome'>You WON</font><p>You bet: 1</strong></font> &nbsp; &nbsp; &nbsp; &nbsp; &nbsp; &nbsp;<font class='posOutcome'>you receive: <strong>2</strong></font></div>","null","12","Cherry Chances","Fruit/cherrie.png","Won","0.65,0.2","13","0.65","192","35","",""
"html-keyboard-response","115","230561","0.0-11.0-1.35","63d007388da4ef5b301762f9","bdp_rwlrn","Tue Mar 14 2023 18:03:06 GMT-0700 (Pacific Daylight Time)","469448","Trustworthy,Untrustworthy","","","","decision","","1177","","<div class='trialDiv'><img src='Fruit/apple.png'><br><font class='baseline'><strong>Awesome Apples</strong><p>Choose number of points to bet.</font><div class='respPicDiv'><img src='img/responseButtonOffersNo0L.png' class='respPic'></div></div>","5","12","Awesome Apples","Fruit/apple.png","Won","0.65,0.35","8","0.65","197","36","",""
"html-keyboard-response","116","230827","0.0-11.0-2.35","63d007388da4ef5b301762f9","bdp_rwlrn","Tue Mar 14 2023 18:03:06 GMT-0700 (Pacific Daylight Time)","469448","Trustworthy,Untrustworthy","","","","decisionFB","","null","","<div class='trialDiv'><img src='Fruit/apple.png'><br><font class='baseline'><strong>Awesome Apples</strong><p>Choose number of points to bet.</font><div class='respPicDiv'><img src='img/responseButtonOffersNo0L5.png' class='respPic'></div></div>","null","12","Awesome Apples","Fruit/apple.png","Won","0.65,0.35","8","0.65","192","36","",""
"html-keyboard-response","117","231837","0.0-11.0-3.35","63d007388da4ef5b301762f9","bdp_rwlrn","Tue Mar 14 2023 18:03:06 GMT-0700 (Pacific Daylight Time)","469448","Trustworthy,Untrustworthy","","","","feedback","","null","","<div class='respPicDiv'><img src='img/responseButtonOffersNo0_wht.png' class='respPic'></div><div class='trialDiv'><img src='Fruit/apple.png'><br><font class='baseline'><strong>Awesome Apples</strong><p><strong><font class='posOutcome'>You WON</font><p>You bet: 5</strong></font> &nbsp; &nbsp; &nbsp; &nbsp; &nbsp; &nbsp;<font class='posOutcome'>you receive: <strong>10</strong></font></div>","null","12","Awesome Apples","Fruit/apple.png","Won","0.65,0.35","8","0.65","202","36","",""
"html-keyboard-response","118","233491","0.0-11.0-1.36","63d007388da4ef5b301762f9","bdp_rwlrn","Tue Mar 14 2023 18:03:06 GMT-0700 (Pacific Daylight Time)","469448","Trustworthy,Untrustworthy","","","","decision","","1653","","<div class='trialDiv'><img src='Fruit/lemon.png'><br><font class='baseline'><strong>Lucky Lemons</strong><p>Choose number of points to bet.</font><div class='respPicDiv'><img src='img/responseButtonOffersNo0L.png' class='respPic'></div></div>","3","13","Lucky Lemons","Fruit/lemon.png","Won","0.35,0.8","11","0.35","207","37","",""
"html-keyboard-response","119","233752","0.0-11.0-2.36","63d007388da4ef5b301762f9","bdp_rwlrn","Tue Mar 14 2023 18:03:06 GMT-0700 (Pacific Daylight Time)","469448","Trustworthy,Untrustworthy","","","","decisionFB","","null","","<div class='trialDiv'><img src='Fruit/lemon.png'><br><font class='baseline'><strong>Lucky Lemons</strong><p>Choose number of points to bet.</font><div class='respPicDiv'><img src='img/responseButtonOffersNo0L3.png' class='respPic'></div></div>","null","13","Lucky Lemons","Fruit/lemon.png","Won","0.35,0.8","11","0.35","204","37","",""
"html-keyboard-response","120","234761","0.0-11.0-3.36","63d007388da4ef5b301762f9","bdp_rwlrn","Tue Mar 14 2023 18:03:06 GMT-0700 (Pacific Daylight Time)","469448","Trustworthy,Untrustworthy","","","","feedback","","null","","<div class='respPicDiv'><img src='img/responseButtonOffersNo0_wht.png' class='respPic'></div><div class='trialDiv'><img src='Fruit/lemon.png'><br><font class='baseline'><strong>Lucky Lemons</strong><p><strong><font class='posOutcome'>You WON</font><p>You bet: 3</strong></font> &nbsp; &nbsp; &nbsp; &nbsp; &nbsp; &nbsp;<font class='posOutcome'>you receive: <strong>6</strong></font></div>","null","13","Lucky Lemons","Fruit/lemon.png","Won","0.35,0.8","11","0.35","210","37","",""
"html-keyboard-response","121","235814","0.0-11.0-1.37","63d007388da4ef5b301762f9","bdp_rwlrn","Tue Mar 14 2023 18:03:06 GMT-0700 (Pacific Daylight Time)","469448","Trustworthy,Untrustworthy","","","","decision","","1052","","<div class='trialDiv'><img src='Fruit/cherrie.png'><br><font class='baseline'><strong>Cherry Chances</strong><p>Choose number of points to bet.</font><div class='respPicDiv'><img src='img/responseButtonOffersNo0L.png' class='respPic'></div></div>","3","13","Cherry Chances","Fruit/cherrie.png","Won","0.65,0.2","13","0.65","215","38","",""
"html-keyboard-response","122","236077","0.0-11.0-2.37","63d007388da4ef5b301762f9","bdp_rwlrn","Tue Mar 14 2023 18:03:06 GMT-0700 (Pacific Daylight Time)","469448","Trustworthy,Untrustworthy","","","","decisionFB","","null","","<div class='trialDiv'><img src='Fruit/cherrie.png'><br><font class='baseline'><strong>Cherry Chances</strong><p>Choose number of points to bet.</font><div class='respPicDiv'><img src='img/responseButtonOffersNo0L3.png' class='respPic'></div></div>","null","13","Cherry Chances","Fruit/cherrie.png","Won","0.65,0.2","13","0.65","212","38","",""
"html-keyboard-response","123","237084","0.0-11.0-3.37","63d007388da4ef5b301762f9","bdp_rwlrn","Tue Mar 14 2023 18:03:06 GMT-0700 (Pacific Daylight Time)","469448","Trustworthy,Untrustworthy","","","","feedback","","null","","<div class='respPicDiv'><img src='img/responseButtonOffersNo0_wht.png' class='respPic'></div><div class='trialDiv'><img src='Fruit/cherrie.png'><br><font class='baseline'><strong>Cherry Chances</strong><p><strong><font class='posOutcome'>You WON</font><p>You bet: 3</strong></font> &nbsp; &nbsp; &nbsp; &nbsp; &nbsp; &nbsp;<font class='posOutcome'>you receive: <strong>6</strong></font></div>","null","13","Cherry Chances","Fruit/cherrie.png","Won","0.65,0.2","13","0.65","218","38","",""
"html-keyboard-response","124","238123","0.0-11.0-1.38","63d007388da4ef5b301762f9","bdp_rwlrn","Tue Mar 14 2023 18:03:06 GMT-0700 (Pacific Daylight Time)","469448","Trustworthy,Untrustworthy","","","","decision","","1038","","<div class='trialDiv'><img src='Fruit/apple.png'><br><font class='baseline'><strong>Awesome Apples</strong><p>Choose number of points to bet.</font><div class='respPicDiv'><img src='img/responseButtonOffersNo0L.png' class='respPic'></div></div>","1","13","Awesome Apples","Fruit/apple.png","Lost","0.65,0.35","8","0.65","223","39","",""
"html-keyboard-response","125","238376","0.0-11.0-2.38","63d007388da4ef5b301762f9","bdp_rwlrn","Tue Mar 14 2023 18:03:06 GMT-0700 (Pacific Daylight Time)","469448","Trustworthy,Untrustworthy","","","","decisionFB","","null","","<div class='trialDiv'><img src='Fruit/apple.png'><br><font class='baseline'><strong>Awesome Apples</strong><p>Choose number of points to bet.</font><div class='respPicDiv'><img src='img/responseButtonOffersNo0L1.png' class='respPic'></div></div>","null","13","Awesome Apples","Fruit/apple.png","Lost","0.65,0.35","8","0.65","222","39","",""
"html-keyboard-response","126","239385","0.0-11.0-3.38","63d007388da4ef5b301762f9","bdp_rwlrn","Tue Mar 14 2023 18:03:06 GMT-0700 (Pacific Daylight Time)","469448","Trustworthy,Untrustworthy","","","","feedback","","null","","<div class='respPicDiv'><img src='img/responseButtonOffersNo0_wht.png' class='respPic'></div><div class='trialDiv'><img src='Fruit/apple.png'><br><font class='baseline'><strong>Awesome Apples</strong><p><strong><font class='negOutcome'>You LOST</font><p>You bet: 1</strong></font> &nbsp; &nbsp; &nbsp; &nbsp; &nbsp; &nbsp;<font class='negOutcome'>You receive: <strong>0</strong></font></div>","null","13","Awesome Apples","Fruit/apple.png","Lost","0.65,0.35","8","0.65","222","39","",""
"html-keyboard-response","127","239821","0.0-11.0-1.39","63d007388da4ef5b301762f9","bdp_rwlrn","Tue Mar 14 2023 18:03:06 GMT-0700 (Pacific Daylight Time)","469448","Trustworthy,Untrustworthy","","","","decision","","435","","<div class='trialDiv'><img src='Fruit/cherrie.png'><br><font class='baseline'><strong>Cherry Chances</strong><p>Choose number of points to bet.</font><div class='respPicDiv'><img src='img/responseButtonOffersNo0L.png' class='respPic'></div></div>","2","14","Cherry Chances","Fruit/cherrie.png","Lost","0.65,0.2","13","0.65","227","40","",""
"html-keyboard-response","128","240078","0.0-11.0-2.39","63d007388da4ef5b301762f9","bdp_rwlrn","Tue Mar 14 2023 18:03:06 GMT-0700 (Pacific Daylight Time)","469448","Trustworthy,Untrustworthy","","","","decisionFB","","null","","<div class='trialDiv'><img src='Fruit/cherrie.png'><br><font class='baseline'><strong>Cherry Chances</strong><p>Choose number of points to bet.</font><div class='respPicDiv'><img src='img/responseButtonOffersNo0L2.png' class='respPic'></div></div>","null","14","Cherry Chances","Fruit/cherrie.png","Lost","0.65,0.2","13","0.65","225","40","",""
"html-keyboard-response","129","241092","0.0-11.0-3.39","63d007388da4ef5b301762f9","bdp_rwlrn","Tue Mar 14 2023 18:03:06 GMT-0700 (Pacific Daylight Time)","469448","Trustworthy,Untrustworthy","","","","feedback","","null","","<div class='respPicDiv'><img src='img/responseButtonOffersNo0_wht.png' class='respPic'></div><div class='trialDiv'><img src='Fruit/cherrie.png'><br><font class='baseline'><strong>Cherry Chances</strong><p><strong><font class='negOutcome'>You LOST</font><p>You bet: 2</strong></font> &nbsp; &nbsp; &nbsp; &nbsp; &nbsp; &nbsp;<font class='negOutcome'>You receive: <strong>0</strong></font></div>","null","14","Cherry Chances","Fruit/cherrie.png","Lost","0.65,0.2","13","0.65","225","40","",""
"html-keyboard-response","130","242701","0.0-11.0-1.40","63d007388da4ef5b301762f9","bdp_rwlrn","Tue Mar 14 2023 18:03:06 GMT-0700 (Pacific Daylight Time)","469448","Trustworthy,Untrustworthy","","","","decision","","1608","","<div class='trialDiv'><img src='Fruit/lemon.png'><br><font class='baseline'><strong>Lucky Lemons</strong><p>Choose number of points to bet.</font><div class='respPicDiv'><img src='img/responseButtonOffersNo0L.png' class='respPic'></div></div>","4","14","Lucky Lemons","Fruit/lemon.png","Lost","0.35,0.8","11","0.35","230","41","",""
"html-keyboard-response","131","242955","0.0-11.0-2.40","63d007388da4ef5b301762f9","bdp_rwlrn","Tue Mar 14 2023 18:03:06 GMT-0700 (Pacific Daylight Time)","469448","Trustworthy,Untrustworthy","","","","decisionFB","","null","","<div class='trialDiv'><img src='Fruit/lemon.png'><br><font class='baseline'><strong>Lucky Lemons</strong><p>Choose number of points to bet.</font><div class='respPicDiv'><img src='img/responseButtonOffersNo0L4.png' class='respPic'></div></div>","null","14","Lucky Lemons","Fruit/lemon.png","Lost","0.35,0.8","11","0.35","226","41","",""
"html-keyboard-response","132","243963","0.0-11.0-3.40","63d007388da4ef5b301762f9","bdp_rwlrn","Tue Mar 14 2023 18:03:06 GMT-0700 (Pacific Daylight Time)","469448","Trustworthy,Untrustworthy","","","","feedback","","null","","<div class='respPicDiv'><img src='img/responseButtonOffersNo0_wht.png' class='respPic'></div><div class='trialDiv'><img src='Fruit/lemon.png'><br><font class='baseline'><strong>Lucky Lemons</strong><p><strong><font class='negOutcome'>You LOST</font><p>You bet: 4</strong></font> &nbsp; &nbsp; &nbsp; &nbsp; &nbsp; &nbsp;<font class='negOutcome'>You receive: <strong>0</strong></font></div>","null","14","Lucky Lemons","Fruit/lemon.png","Lost","0.35,0.8","11","0.35","226","41","",""
"html-keyboard-response","133","244531","0.0-11.0-1.41","63d007388da4ef5b301762f9","bdp_rwlrn","Tue Mar 14 2023 18:03:06 GMT-0700 (Pacific Daylight Time)","469448","Trustworthy,Untrustworthy","","","","decision","","567","","<div class='trialDiv'><img src='Fruit/apple.png'><br><font class='baseline'><strong>Awesome Apples</strong><p>Choose number of points to bet.</font><div class='respPicDiv'><img src='img/responseButtonOffersNo0L.png' class='respPic'></div></div>","3","14","Awesome Apples","Fruit/apple.png","Won","0.65,0.35","8","0.65","231","42","",""
"html-keyboard-response","134","244794","0.0-11.0-2.41","63d007388da4ef5b301762f9","bdp_rwlrn","Tue Mar 14 2023 18:03:06 GMT-0700 (Pacific Daylight Time)","469448","Trustworthy,Untrustworthy","","","","decisionFB","","null","","<div class='trialDiv'><img src='Fruit/apple.png'><br><font class='baseline'><strong>Awesome Apples</strong><p>Choose number of points to bet.</font><div class='respPicDiv'><img src='img/responseButtonOffersNo0L3.png' class='respPic'></div></div>","null","14","Awesome Apples","Fruit/apple.png","Won","0.65,0.35","8","0.65","228","42","",""
"html-keyboard-response","135","245799","0.0-11.0-3.41","63d007388da4ef5b301762f9","bdp_rwlrn","Tue Mar 14 2023 18:03:06 GMT-0700 (Pacific Daylight Time)","469448","Trustworthy,Untrustworthy","","","","feedback","","null","","<div class='respPicDiv'><img src='img/responseButtonOffersNo0_wht.png' class='respPic'></div><div class='trialDiv'><img src='Fruit/apple.png'><br><font class='baseline'><strong>Awesome Apples</strong><p><strong><font class='posOutcome'>You WON</font><p>You bet: 3</strong></font> &nbsp; &nbsp; &nbsp; &nbsp; &nbsp; &nbsp;<font class='posOutcome'>you receive: <strong>6</strong></font></div>","null","14","Awesome Apples","Fruit/apple.png","Won","0.65,0.35","8","0.65","234","42","",""
"html-keyboard-response","136","247075","0.0-11.0-1.42","63d007388da4ef5b301762f9","bdp_rwlrn","Tue Mar 14 2023 18:03:06 GMT-0700 (Pacific Daylight Time)","469448","Trustworthy,Untrustworthy","","","","decision","","1275","","<div class='trialDiv'><img src='Fruit/lemon.png'><br><font class='baseline'><strong>Lucky Lemons</strong><p>Choose number of points to bet.</font><div class='respPicDiv'><img src='img/responseButtonOffersNo0L.png' class='respPic'></div></div>","5","15","Lucky Lemons","Fruit/lemon.png","Won","0.35,0.8","11","0.35","239","43","",""
"html-keyboard-response","137","247337","0.0-11.0-2.42","63d007388da4ef5b301762f9","bdp_rwlrn","Tue Mar 14 2023 18:03:06 GMT-0700 (Pacific Daylight Time)","469448","Trustworthy,Untrustworthy","","","","decisionFB","","null","","<div class='trialDiv'><img src='Fruit/lemon.png'><br><font class='baseline'><strong>Lucky Lemons</strong><p>Choose number of points to bet.</font><div class='respPicDiv'><img src='img/responseButtonOffersNo0L5.png' class='respPic'></div></div>","null","15","Lucky Lemons","Fruit/lemon.png","Won","0.35,0.8","11","0.35","234","43","",""
"html-keyboard-response","138","248340","0.0-11.0-3.42","63d007388da4ef5b301762f9","bdp_rwlrn","Tue Mar 14 2023 18:03:06 GMT-0700 (Pacific Daylight Time)","469448","Trustworthy,Untrustworthy","","","","feedback","","null","","<div class='respPicDiv'><img src='img/responseButtonOffersNo0_wht.png' class='respPic'></div><div class='trialDiv'><img src='Fruit/lemon.png'><br><font class='baseline'><strong>Lucky Lemons</strong><p><strong><font class='posOutcome'>You WON</font><p>You bet: 5</strong></font> &nbsp; &nbsp; &nbsp; &nbsp; &nbsp; &nbsp;<font class='posOutcome'>you receive: <strong>10</strong></font></div>","null","15","Lucky Lemons","Fruit/lemon.png","Won","0.35,0.8","11","0.35","244","43","",""
"html-keyboard-response","139","251152","0.0-11.0-1.43","63d007388da4ef5b301762f9","bdp_rwlrn","Tue Mar 14 2023 18:03:06 GMT-0700 (Pacific Daylight Time)","469448","Trustworthy,Untrustworthy","","","","decision","","2810","","<div class='trialDiv'><img src='Fruit/apple.png'><br><font class='baseline'><strong>Awesome Apples</strong><p>Choose number of points to bet.</font><div class='respPicDiv'><img src='img/responseButtonOffersNo0L.png' class='respPic'></div></div>","3","15","Awesome Apples","Fruit/apple.png","Lost","0.65,0.35","8","0.65","249","44","",""
"html-keyboard-response","140","251417","0.0-11.0-2.43","63d007388da4ef5b301762f9","bdp_rwlrn","Tue Mar 14 2023 18:03:06 GMT-0700 (Pacific Daylight Time)","469448","Trustworthy,Untrustworthy","","","","decisionFB","","null","","<div class='trialDiv'><img src='Fruit/apple.png'><br><font class='baseline'><strong>Awesome Apples</strong><p>Choose number of points to bet.</font><div class='respPicDiv'><img src='img/responseButtonOffersNo0L3.png' class='respPic'></div></div>","null","15","Awesome Apples","Fruit/apple.png","Lost","0.65,0.35","8","0.65","246","44","",""
"html-keyboard-response","141","252420","0.0-11.0-3.43","63d007388da4ef5b301762f9","bdp_rwlrn","Tue Mar 14 2023 18:03:06 GMT-0700 (Pacific Daylight Time)","469448","Trustworthy,Untrustworthy","","","","feedback","","null","","<div class='respPicDiv'><img src='img/responseButtonOffersNo0_wht.png' class='respPic'></div><div class='trialDiv'><img src='Fruit/apple.png'><br><font class='baseline'><strong>Awesome Apples</strong><p><strong><font class='negOutcome'>You LOST</font><p>You bet: 3</strong></font> &nbsp; &nbsp; &nbsp; &nbsp; &nbsp; &nbsp;<font class='negOutcome'>You receive: <strong>0</strong></font></div>","null","15","Awesome Apples","Fruit/apple.png","Lost","0.65,0.35","8","0.65","246","44","",""
"html-keyboard-response","142","252967","0.0-11.0-1.44","63d007388da4ef5b301762f9","bdp_rwlrn","Tue Mar 14 2023 18:03:06 GMT-0700 (Pacific Daylight Time)","469448","Trustworthy,Untrustworthy","","","","decision","","545","","<div class='trialDiv'><img src='Fruit/cherrie.png'><br><font class='baseline'><strong>Cherry Chances</strong><p>Choose number of points to bet.</font><div class='respPicDiv'><img src='img/responseButtonOffersNo0L.png' class='respPic'></div></div>","4","15","Cherry Chances","Fruit/cherrie.png","Lost","0.65,0.2","13","0.65","251","45","",""
"html-keyboard-response","143","253219","0.0-11.0-2.44","63d007388da4ef5b301762f9","bdp_rwlrn","Tue Mar 14 2023 18:03:06 GMT-0700 (Pacific Daylight Time)","469448","Trustworthy,Untrustworthy","","","","decisionFB","","null","","<div class='trialDiv'><img src='Fruit/cherrie.png'><br><font class='baseline'><strong>Cherry Chances</strong><p>Choose number of points to bet.</font><div class='respPicDiv'><img src='img/responseButtonOffersNo0L4.png' class='respPic'></div></div>","null","15","Cherry Chances","Fruit/cherrie.png","Lost","0.65,0.2","13","0.65","247","45","",""
"html-keyboard-response","144","254234","0.0-11.0-3.44","63d007388da4ef5b301762f9","bdp_rwlrn","Tue Mar 14 2023 18:03:06 GMT-0700 (Pacific Daylight Time)","469448","Trustworthy,Untrustworthy","","","","feedback","","null","","<div class='respPicDiv'><img src='img/responseButtonOffersNo0_wht.png' class='respPic'></div><div class='trialDiv'><img src='Fruit/cherrie.png'><br><font class='baseline'><strong>Cherry Chances</strong><p><strong><font class='negOutcome'>You LOST</font><p>You bet: 4</strong></font> &nbsp; &nbsp; &nbsp; &nbsp; &nbsp; &nbsp;<font class='negOutcome'>You receive: <strong>0</strong></font></div>","null","15","Cherry Chances","Fruit/cherrie.png","Lost","0.65,0.2","13","0.65","247","45","",""
"html-keyboard-response","145","254362","0.0-11.0-1.45","63d007388da4ef5b301762f9","bdp_rwlrn","Tue Mar 14 2023 18:03:06 GMT-0700 (Pacific Daylight Time)","469448","Trustworthy,Untrustworthy","","","","decision","","128","","<div class='trialDiv'><img src='Fruit/lemon.png'><br><font class='baseline'><strong>Lucky Lemons</strong><p>Choose number of points to bet.</font><div class='respPicDiv'><img src='img/responseButtonOffersNo0L.png' class='respPic'></div></div>","2","16","Lucky Lemons","Fruit/lemon.png","Won","0.35,0.8","11","0.35","252","46","",""
"html-keyboard-response","146","254626","0.0-11.0-2.45","63d007388da4ef5b301762f9","bdp_rwlrn","Tue Mar 14 2023 18:03:06 GMT-0700 (Pacific Daylight Time)","469448","Trustworthy,Untrustworthy","","","","decisionFB","","null","","<div class='trialDiv'><img src='Fruit/lemon.png'><br><font class='baseline'><strong>Lucky Lemons</strong><p>Choose number of points to bet.</font><div class='respPicDiv'><img src='img/responseButtonOffersNo0L2.png' class='respPic'></div></div>","null","16","Lucky Lemons","Fruit/lemon.png","Won","0.35,0.8","11","0.35","250","46","",""
"html-keyboard-response","147","255640","0.0-11.0-3.45","63d007388da4ef5b301762f9","bdp_rwlrn","Tue Mar 14 2023 18:03:06 GMT-0700 (Pacific Daylight Time)","469448","Trustworthy,Untrustworthy","","","","feedback","","null","","<div class='respPicDiv'><img src='img/responseButtonOffersNo0_wht.png' class='respPic'></div><div class='trialDiv'><img src='Fruit/lemon.png'><br><font class='baseline'><strong>Lucky Lemons</strong><p><strong><font class='posOutcome'>You WON</font><p>You bet: 2</strong></font> &nbsp; &nbsp; &nbsp; &nbsp; &nbsp; &nbsp;<font class='posOutcome'>you receive: <strong>4</strong></font></div>","null","16","Lucky Lemons","Fruit/lemon.png","Won","0.35,0.8","11","0.35","254","46","",""
"html-keyboard-response","148","256925","0.0-11.0-1.46","63d007388da4ef5b301762f9","bdp_rwlrn","Tue Mar 14 2023 18:03:06 GMT-0700 (Pacific Daylight Time)","469448","Trustworthy,Untrustworthy","","","","decision","","1284","","<div class='trialDiv'><img src='Fruit/cherrie.png'><br><font class='baseline'><strong>Cherry Chances</strong><p>Choose number of points to bet.</font><div class='respPicDiv'><img src='img/responseButtonOffersNo0L.png' class='respPic'></div></div>","2","16","Cherry Chances","Fruit/cherrie.png","Lost","0.65,0.2","13","0.65","259","47","",""
"html-keyboard-response","149","257178","0.0-11.0-2.46","63d007388da4ef5b301762f9","bdp_rwlrn","Tue Mar 14 2023 18:03:06 GMT-0700 (Pacific Daylight Time)","469448","Trustworthy,Untrustworthy","","","","decisionFB","","null","","<div class='trialDiv'><img src='Fruit/cherrie.png'><br><font class='baseline'><strong>Cherry Chances</strong><p>Choose number of points to bet.</font><div class='respPicDiv'><img src='img/responseButtonOffersNo0L2.png' class='respPic'></div></div>","null","16","Cherry Chances","Fruit/cherrie.png","Lost","0.65,0.2","13","0.65","257","47","",""
"html-keyboard-response","150","258193","0.0-11.0-3.46","63d007388da4ef5b301762f9","bdp_rwlrn","Tue Mar 14 2023 18:03:06 GMT-0700 (Pacific Daylight Time)","469448","Trustworthy,Untrustworthy","","","","feedback","","null","","<div class='respPicDiv'><img src='img/responseButtonOffersNo0_wht.png' class='respPic'></div><div class='trialDiv'><img src='Fruit/cherrie.png'><br><font class='baseline'><strong>Cherry Chances</strong><p><strong><font class='negOutcome'>You LOST</font><p>You bet: 2</strong></font> &nbsp; &nbsp; &nbsp; &nbsp; &nbsp; &nbsp;<font class='negOutcome'>You receive: <strong>0</strong></font></div>","null","16","Cherry Chances","Fruit/cherrie.png","Lost","0.65,0.2","13","0.65","257","47","",""
"html-keyboard-response","151","259665","0.0-11.0-1.47","63d007388da4ef5b301762f9","bdp_rwlrn","Tue Mar 14 2023 18:03:06 GMT-0700 (Pacific Daylight Time)","469448","Trustworthy,Untrustworthy","","","","decision","","1472","","<div class='trialDiv'><img src='Fruit/apple.png'><br><font class='baseline'><strong>Awesome Apples</strong><p>Choose number of points to bet.</font><div class='respPicDiv'><img src='img/responseButtonOffersNo0L.png' class='respPic'></div></div>","5","16","Awesome Apples","Fruit/apple.png","Won","0.65,0.35","8","0.65","262","48","",""
"html-keyboard-response","152","259923","0.0-11.0-2.47","63d007388da4ef5b301762f9","bdp_rwlrn","Tue Mar 14 2023 18:03:06 GMT-0700 (Pacific Daylight Time)","469448","Trustworthy,Untrustworthy","","","","decisionFB","","null","","<div class='trialDiv'><img src='Fruit/apple.png'><br><font class='baseline'><strong>Awesome Apples</strong><p>Choose number of points to bet.</font><div class='respPicDiv'><img src='img/responseButtonOffersNo0L5.png' class='respPic'></div></div>","null","16","Awesome Apples","Fruit/apple.png","Won","0.65,0.35","8","0.65","257","48","",""
"html-keyboard-response","153","260929","0.0-11.0-3.47","63d007388da4ef5b301762f9","bdp_rwlrn","Tue Mar 14 2023 18:03:06 GMT-0700 (Pacific Daylight Time)","469448","Trustworthy,Untrustworthy","","","","feedback","","null","","<div class='respPicDiv'><img src='img/responseButtonOffersNo0_wht.png' class='respPic'></div><div class='trialDiv'><img src='Fruit/apple.png'><br><font class='baseline'><strong>Awesome Apples</strong><p><strong><font class='posOutcome'>You WON</font><p>You bet: 5</strong></font> &nbsp; &nbsp; &nbsp; &nbsp; &nbsp; &nbsp;<font class='posOutcome'>you receive: <strong>10</strong></font></div>","null","16","Awesome Apples","Fruit/apple.png","Won","0.65,0.35","8","0.65","267","48","",""
"html-keyboard-response","154","261712","0.0-11.0-1.48","63d007388da4ef5b301762f9","bdp_rwlrn","Tue Mar 14 2023 18:03:06 GMT-0700 (Pacific Daylight Time)","469448","Trustworthy,Untrustworthy","","","","decision","","783","","<div class='trialDiv'><img src='Fruit/cherrie.png'><br><font class='baseline'><strong>Cherry Chances</strong><p>Choose number of points to bet.</font><div class='respPicDiv'><img src='img/responseButtonOffersNo0L.png' class='respPic'></div></div>","5","17","Cherry Chances","Fruit/cherrie.png","Lost","0.65,0.2","13","0.65","272","49","",""
"html-keyboard-response","155","261978","0.0-11.0-2.48","63d007388da4ef5b301762f9","bdp_rwlrn","Tue Mar 14 2023 18:03:06 GMT-0700 (Pacific Daylight Time)","469448","Trustworthy,Untrustworthy","","","","decisionFB","","null","","<div class='trialDiv'><img src='Fruit/cherrie.png'><br><font class='baseline'><strong>Cherry Chances</strong><p>Choose number of points to bet.</font><div class='respPicDiv'><img src='img/responseButtonOffersNo0L5.png' class='respPic'></div></div>","null","17","Cherry Chances","Fruit/cherrie.png","Lost","0.65,0.2","13","0.65","267","49","",""
"html-keyboard-response","156","262986","0.0-11.0-3.48","63d007388da4ef5b301762f9","bdp_rwlrn","Tue Mar 14 2023 18:03:06 GMT-0700 (Pacific Daylight Time)","469448","Trustworthy,Untrustworthy","","","","feedback","","null","","<div class='respPicDiv'><img src='img/responseButtonOffersNo0_wht.png' class='respPic'></div><div class='trialDiv'><img src='Fruit/cherrie.png'><br><font class='baseline'><strong>Cherry Chances</strong><p><strong><font class='negOutcome'>You LOST</font><p>You bet: 5</strong></font> &nbsp; &nbsp; &nbsp; &nbsp; &nbsp; &nbsp;<font class='negOutcome'>You receive: <strong>0</strong></font></div>","null","17","Cherry Chances","Fruit/cherrie.png","Lost","0.65,0.2","13","0.65","267","49","",""
"html-keyboard-response","157","263248","0.0-11.0-1.49","63d007388da4ef5b301762f9","bdp_rwlrn","Tue Mar 14 2023 18:03:06 GMT-0700 (Pacific Daylight Time)","469448","Trustworthy,Untrustworthy","","","","decision","","262","","<div class='trialDiv'><img src='Fruit/apple.png'><br><font class='baseline'><strong>Awesome Apples</strong><p>Choose number of points to bet.</font><div class='respPicDiv'><img src='img/responseButtonOffersNo0L.png' class='respPic'></div></div>","4","17","Awesome Apples","Fruit/apple.png","Lost","0.65,0.35","8","0.65","272","50","",""
"html-keyboard-response","158","263506","0.0-11.0-2.49","63d007388da4ef5b301762f9","bdp_rwlrn","Tue Mar 14 2023 18:03:06 GMT-0700 (Pacific Daylight Time)","469448","Trustworthy,Untrustworthy","","","","decisionFB","","null","","<div class='trialDiv'><img src='Fruit/apple.png'><br><font class='baseline'><strong>Awesome Apples</strong><p>Choose number of points to bet.</font><div class='respPicDiv'><img src='img/responseButtonOffersNo0L4.png' class='respPic'></div></div>","null","17","Awesome Apples","Fruit/apple.png","Lost","0.65,0.35","8","0.65","268","50","",""
"html-keyboard-response","159","264511","0.0-11.0-3.49","63d007388da4ef5b301762f9","bdp_rwlrn","Tue Mar 14 2023 18:03:06 GMT-0700 (Pacific Daylight Time)","469448","Trustworthy,Untrustworthy","","","","feedback","","null","","<div class='respPicDiv'><img src='img/responseButtonOffersNo0_wht.png' class='respPic'></div><div class='trialDiv'><img src='Fruit/apple.png'><br><font class='baseline'><strong>Awesome Apples</strong><p><strong><font class='negOutcome'>You LOST</font><p>You bet: 4</strong></font> &nbsp; &nbsp; &nbsp; &nbsp; &nbsp; &nbsp;<font class='negOutcome'>You receive: <strong>0</strong></font></div>","null","17","Awesome Apples","Fruit/apple.png","Lost","0.65,0.35","8","0.65","268","50","",""
"html-keyboard-response","160","264902","0.0-11.0-1.50","63d007388da4ef5b301762f9","bdp_rwlrn","Tue Mar 14 2023 18:03:06 GMT-0700 (Pacific Daylight Time)","469448","Trustworthy,Untrustworthy","","","","decision","","391","","<div class='trialDiv'><img src='Fruit/lemon.png'><br><font class='baseline'><strong>Lucky Lemons</strong><p>Choose number of points to bet.</font><div class='respPicDiv'><img src='img/responseButtonOffersNo0L.png' class='respPic'></div></div>","3","17","Lucky Lemons","Fruit/lemon.png","Won","0.35,0.8","11","0.35","273","51","",""
"html-keyboard-response","161","265161","0.0-11.0-2.50","63d007388da4ef5b301762f9","bdp_rwlrn","Tue Mar 14 2023 18:03:06 GMT-0700 (Pacific Daylight Time)","469448","Trustworthy,Untrustworthy","","","","decisionFB","","null","","<div class='trialDiv'><img src='Fruit/lemon.png'><br><font class='baseline'><strong>Lucky Lemons</strong><p>Choose number of points to bet.</font><div class='respPicDiv'><img src='img/responseButtonOffersNo0L3.png' class='respPic'></div></div>","null","17","Lucky Lemons","Fruit/lemon.png","Won","0.35,0.8","11","0.35","270","51","",""
"html-keyboard-response","162","266167","0.0-11.0-3.50","63d007388da4ef5b301762f9","bdp_rwlrn","Tue Mar 14 2023 18:03:06 GMT-0700 (Pacific Daylight Time)","469448","Trustworthy,Untrustworthy","","","","feedback","","null","","<div class='respPicDiv'><img src='img/responseButtonOffersNo0_wht.png' class='respPic'></div><div class='trialDiv'><img src='Fruit/lemon.png'><br><font class='baseline'><strong>Lucky Lemons</strong><p><strong><font class='posOutcome'>You WON</font><p>You bet: 3</strong></font> &nbsp; &nbsp; &nbsp; &nbsp; &nbsp; &nbsp;<font class='posOutcome'>you receive: <strong>6</strong></font></div>","null","17","Lucky Lemons","Fruit/lemon.png","Won","0.35,0.8","11","0.35","276","51","",""
