"trial_type","trial_index","time_elapsed","internal_node_id","subject_id","task","startTime","totalTime","labels","view_history","rt","event","trial","time","trialtype","success","stimulus","key_press","ltround","name","fileID","outcome","lottotype","lottoswpt","lottocurrpshare","point_total","round","faceID","face"
"pavlovia","0","2","0.0-0.0","63fac97f0d4e8f6bfd753d90","bdp_rwlrn","Wed Mar 15 2023 20:55:29 GMT-0700 (Pacific Daylight Time)","304111","Untrustworthy,Trustworthy","","","","","","","","","","","","","","","","","","","",""
"instructions","1","9327","0.0-1.0","63fac97f0d4e8f6bfd753d90","bdp_rwlrn","Wed Mar 15 2023 20:55:29 GMT-0700 (Pacific Daylight Time)","304111","Untrustworthy,Trustworthy","[{""page_index"":0,""viewing_time"":9324}]","9324","","","","","","","","","","","","","","","","","",""
"","","","","63fac97f0d4e8f6bfd753d90","bdp_rwlrn","Wed Mar 15 2023 20:55:29 GMT-0700 (Pacific Daylight Time)","304111","Untrustworthy,Trustworthy","","","fullscreenenter","2","12228","fullscreenenter","","","","","","","","","","","","","",""
"fullscreen","2","13217","0.0-2.0","63fac97f0d4e8f6bfd753d90","bdp_rwlrn","Wed Mar 15 2023 20:55:29 GMT-0700 (Pacific Daylight Time)","304111","Untrustworthy,Trustworthy","","","","","","","true","","","","","","","","","","","","",""
"instructions","3","42632","0.0-4.0","63fac97f0d4e8f6bfd753d90","bdp_rwlrn","Wed Mar 15 2023 20:55:29 GMT-0700 (Pacific Daylight Time)","304111","Untrustworthy,Trustworthy","[{""page_index"":0,""viewing_time"":8097},{""page_index"":1,""viewing_time"":9728},{""page_index"":2,""viewing_time"":4571},{""page_index"":3,""viewing_time"":3889},{""page_index"":4,""viewing_time"":1620},{""page_index"":5,""viewing_time"":1509}]","29414","","","","","","","","","","","","","","","","","",""
"html-keyboard-response","4","47462","0.0-5.0","63fac97f0d4e8f6bfd753d90","bdp_rwlrn","Wed Mar 15 2023 20:55:29 GMT-0700 (Pacific Daylight Time)","304111","Untrustworthy,Trustworthy","","4830","","","","","","<div class='header' style='text-align:left; position: absolute; top: 5%; left: 5%;'><small>Task 3 of 5</small></div><div class='instruxDiv'><p><strong>1) What is the maximum number of points you can choose to bet on a lottery?</strong></p><p>a) 0</p><p>b) 1</p><p>c) 5</p>","C","","","","","","","","","","",""
"html-keyboard-response","5","48591","0.0-6.0","63fac97f0d4e8f6bfd753d90","bdp_rwlrn","Wed Mar 15 2023 20:55:29 GMT-0700 (Pacific Daylight Time)","304111","Untrustworthy,Trustworthy","","1027","","","","","","<div class='header' style='text-align:left; position: absolute; top: 5%; left: 5%;'><small>Task 3 of 5</small></div><div class='instruxDiv'><p><strong>1) What is the maximum number of points you can choose to bet on a lottery?</strong></p><p>a) 1</p><p>b) 1</p><p style='color:#00FF00'>c) 5</p><h3 style='color:#00FF00'>Correct!</h3><h3 class='center-content'>The correct response is c).</h3><h3 class='center-content'>The maximum number of points you can choose to bet on a lottery is 5 points.</h3><p><em>Press SPACEBAR to continue</em></p></div>"," ","","","","","","","","","","",""
"html-keyboard-response","6","51981","0.0-7.0","63fac97f0d4e8f6bfd753d90","bdp_rwlrn","Wed Mar 15 2023 20:55:29 GMT-0700 (Pacific Daylight Time)","304111","Untrustworthy,Trustworthy","","3289","","","","","","<div class='header' style='text-align:left; position: absolute; top: 5%; left: 5%;'><small>Task 3 of 5</small></div><div class='instruxDiv'><p><strong>2) How many points can you win each round?</strong></p><p>a) 10 points</p><p>b) Double what you bet</p><p>c) Quadruple what you bet</p>","B","","","","","","","","","","",""
"html-keyboard-response","7","52782","0.0-8.0","63fac97f0d4e8f6bfd753d90","bdp_rwlrn","Wed Mar 15 2023 20:55:29 GMT-0700 (Pacific Daylight Time)","304111","Untrustworthy,Trustworthy","","698","","","","","","<div class='header' style='text-align:left; position: absolute; top: 5%; left: 5%;'><small>Task 3 of 5</small></div><div class='instruxDiv'><p><strong>2) How many points can you win each round?</strong></p><p>a) 10 points</p><p style='color:#00FF00'>b) Double what you bet</p><p>c) Quadruple what you bet</p><h3 style='color:#00FF00'>Correct!</h3><h3 class='center-content'>The correct response is b).</h3><h3 class='center-content'>You can win double the amount of points you bet.</h3><p><em>Press SPACEBAR to continue</em></p></div>"," ","","","","","","","","","","",""
"html-keyboard-response","8","57884","0.0-9.0","63fac97f0d4e8f6bfd753d90","bdp_rwlrn","Wed Mar 15 2023 20:55:29 GMT-0700 (Pacific Daylight Time)","304111","Untrustworthy,Trustworthy","","null","","","","","","<div class='header' style='text-align:left; position: absolute; top: 5%; left: 5%;'><small>Task 3 of 5</small></div><div class='instruxDiv'><p>Thank you for completing the quiz<p>These are the actual lotteries you will be playing in the next block:<p><div class='tc' align='center'><img class='introPic' src='Fruit/lemon.png'><br><strong>Lucky Lemons</strong></div><div class='bl' align='center'><img class='introPic' src='Fruit/plums1.png'><br><strong>Plum Powerball</strong></div><div class='br' align='center'><img class='introPic' src='Fruit/lime.png'><br><strong>Limin' Large</strong></div></div><p>Across <strong>66 rounds</strong> you will play each lottery <strong>22 times</strong> (in random order).<p style='align:center; color:white'><font <em>Press SPACEBAR to continue</em></p>","null","","","","","","","","","","",""
"instructions","9","60900","0.0-10.0","63fac97f0d4e8f6bfd753d90","bdp_rwlrn","Wed Mar 15 2023 20:55:29 GMT-0700 (Pacific Daylight Time)","304111","Untrustworthy,Trustworthy","[{""page_index"":0,""viewing_time"":717},{""page_index"":1,""viewing_time"":2299}]","3016","","","","","","","","","","","","","","","","","",""
"html-keyboard-response","10","61900","0.0-11.0-1.0","63fac97f0d4e8f6bfd753d90","bdp_rwlrn","Wed Mar 15 2023 20:55:29 GMT-0700 (Pacific Daylight Time)","304111","Untrustworthy,Trustworthy","","899","","","","decision","","<div class='trialDiv'><img src='Fruit/lime.png'><br><font class='baseline'><strong>Limin' Large</strong><p>Choose number of points to bet.</font><div class='respPicDiv'><img src='img/responseButtonOffersNo0L.png' class='respPic'></div></div>","1","1","Limin' Large","Fruit/lime.png","Lost","0.35,0.8","14","0.35","5","1","",""
"html-keyboard-response","11","62150","0.0-11.0-2.0","63fac97f0d4e8f6bfd753d90","bdp_rwlrn","Wed Mar 15 2023 20:55:29 GMT-0700 (Pacific Daylight Time)","304111","Untrustworthy,Trustworthy","","null","","","","decisionFB","","<div class='trialDiv'><img src='Fruit/lime.png'><br><font class='baseline'><strong>Limin' Large</strong><p>Choose number of points to bet.</font><div class='respPicDiv'><img src='img/responseButtonOffersNo0L1.png' class='respPic'></div></div>","null","1","Limin' Large","Fruit/lime.png","Lost","0.35,0.8","14","0.35","4","1","",""
"html-keyboard-response","12","63152","0.0-11.0-3.0","63fac97f0d4e8f6bfd753d90","bdp_rwlrn","Wed Mar 15 2023 20:55:29 GMT-0700 (Pacific Daylight Time)","304111","Untrustworthy,Trustworthy","","null","","","","feedback","","<div class='respPicDiv'><img src='img/responseButtonOffersNo0_wht.png' class='respPic'></div><div class='trialDiv'><img src='Fruit/lime.png'><br><font class='baseline'><strong>Limin' Large</strong><p><strong><font class='negOutcome'>You LOST</font><p>You bet: 1</strong></font> &nbsp; &nbsp; &nbsp; &nbsp; &nbsp; &nbsp;<font class='negOutcome'>You receive: <strong>0</strong></font></div>","null","1","Limin' Large","Fruit/lime.png","Lost","0.35,0.8","14","0.35","4","1","",""
"html-keyboard-response","13","63600","0.0-11.0-1.1","63fac97f0d4e8f6bfd753d90","bdp_rwlrn","Wed Mar 15 2023 20:55:29 GMT-0700 (Pacific Daylight Time)","304111","Untrustworthy,Trustworthy","","448","","","","decision","","<div class='trialDiv'><img src='Fruit/plums1.png'><br><font class='baseline'><strong>Plum Powerball</strong><p>Choose number of points to bet.</font><div class='respPicDiv'><img src='img/responseButtonOffersNo0L.png' class='respPic'></div></div>","1","1","Plum Powerball","Fruit/plums1.png","Won","0.8,0.35","13","0.8","9","2","",""
"html-keyboard-response","14","63851","0.0-11.0-2.1","63fac97f0d4e8f6bfd753d90","bdp_rwlrn","Wed Mar 15 2023 20:55:29 GMT-0700 (Pacific Daylight Time)","304111","Untrustworthy,Trustworthy","","null","","","","decisionFB","","<div class='trialDiv'><img src='Fruit/plums1.png'><br><font class='baseline'><strong>Plum Powerball</strong><p>Choose number of points to bet.</font><div class='respPicDiv'><img src='img/responseButtonOffersNo0L1.png' class='respPic'></div></div>","null","1","Plum Powerball","Fruit/plums1.png","Won","0.8,0.35","13","0.8","8","2","",""
"html-keyboard-response","15","64853","0.0-11.0-3.1","63fac97f0d4e8f6bfd753d90","bdp_rwlrn","Wed Mar 15 2023 20:55:29 GMT-0700 (Pacific Daylight Time)","304111","Untrustworthy,Trustworthy","","null","","","","feedback","","<div class='respPicDiv'><img src='img/responseButtonOffersNo0_wht.png' class='respPic'></div><div class='trialDiv'><img src='Fruit/plums1.png'><br><font class='baseline'><strong>Plum Powerball</strong><p><strong><font class='posOutcome'>You WON</font><p>You bet: 1</strong></font> &nbsp; &nbsp; &nbsp; &nbsp; &nbsp; &nbsp;<font class='posOutcome'>you receive: <strong>2</strong></font></div>","null","1","Plum Powerball","Fruit/plums1.png","Won","0.8,0.35","13","0.8","10","2","",""
"html-keyboard-response","16","65250","0.0-11.0-1.2","63fac97f0d4e8f6bfd753d90","bdp_rwlrn","Wed Mar 15 2023 20:55:29 GMT-0700 (Pacific Daylight Time)","304111","Untrustworthy,Trustworthy","","397","","","","decision","","<div class='trialDiv'><img src='Fruit/lemon.png'><br><font class='baseline'><strong>Lucky Lemons</strong><p>Choose number of points to bet.</font><div class='respPicDiv'><img src='img/responseButtonOffersNo0L.png' class='respPic'></div></div>","1","1","Lucky Lemons","Fruit/lemon.png","Lost","0.2,0.8","8","0.2","15","3","",""
"html-keyboard-response","17","65501","0.0-11.0-2.2","63fac97f0d4e8f6bfd753d90","bdp_rwlrn","Wed Mar 15 2023 20:55:29 GMT-0700 (Pacific Daylight Time)","304111","Untrustworthy,Trustworthy","","null","","","","decisionFB","","<div class='trialDiv'><img src='Fruit/lemon.png'><br><font class='baseline'><strong>Lucky Lemons</strong><p>Choose number of points to bet.</font><div class='respPicDiv'><img src='img/responseButtonOffersNo0L1.png' class='respPic'></div></div>","null","1","Lucky Lemons","Fruit/lemon.png","Lost","0.2,0.8","8","0.2","14","3","",""
"html-keyboard-response","18","66502","0.0-11.0-3.2","63fac97f0d4e8f6bfd753d90","bdp_rwlrn","Wed Mar 15 2023 20:55:29 GMT-0700 (Pacific Daylight Time)","304111","Untrustworthy,Trustworthy","","null","","","","feedback","","<div class='respPicDiv'><img src='img/responseButtonOffersNo0_wht.png' class='respPic'></div><div class='trialDiv'><img src='Fruit/lemon.png'><br><font class='baseline'><strong>Lucky Lemons</strong><p><strong><font class='negOutcome'>You LOST</font><p>You bet: 1</strong></font> &nbsp; &nbsp; &nbsp; &nbsp; &nbsp; &nbsp;<font class='negOutcome'>You receive: <strong>0</strong></font></div>","null","1","Lucky Lemons","Fruit/lemon.png","Lost","0.2,0.8","8","0.2","14","3","",""
"html-keyboard-response","19","66729","0.0-11.0-1.3","63fac97f0d4e8f6bfd753d90","bdp_rwlrn","Wed Mar 15 2023 20:55:29 GMT-0700 (Pacific Daylight Time)","304111","Untrustworthy,Trustworthy","","226","","","","decision","","<div class='trialDiv'><img src='Fruit/plums1.png'><br><font class='baseline'><strong>Plum Powerball</strong><p>Choose number of points to bet.</font><div class='respPicDiv'><img src='img/responseButtonOffersNo0L.png' class='respPic'></div></div>","1","2","Plum Powerball","Fruit/plums1.png","Won","0.8,0.35","13","0.8","19","4","",""
"html-keyboard-response","20","66980","0.0-11.0-2.3","63fac97f0d4e8f6bfd753d90","bdp_rwlrn","Wed Mar 15 2023 20:55:29 GMT-0700 (Pacific Daylight Time)","304111","Untrustworthy,Trustworthy","","null","","","","decisionFB","","<div class='trialDiv'><img src='Fruit/plums1.png'><br><font class='baseline'><strong>Plum Powerball</strong><p>Choose number of points to bet.</font><div class='respPicDiv'><img src='img/responseButtonOffersNo0L1.png' class='respPic'></div></div>","null","2","Plum Powerball","Fruit/plums1.png","Won","0.8,0.35","13","0.8","18","4","",""
"html-keyboard-response","21","67981","0.0-11.0-3.3","63fac97f0d4e8f6bfd753d90","bdp_rwlrn","Wed Mar 15 2023 20:55:29 GMT-0700 (Pacific Daylight Time)","304111","Untrustworthy,Trustworthy","","null","","","","feedback","","<div class='respPicDiv'><img src='img/responseButtonOffersNo0_wht.png' class='respPic'></div><div class='trialDiv'><img src='Fruit/plums1.png'><br><font class='baseline'><strong>Plum Powerball</strong><p><strong><font class='posOutcome'>You WON</font><p>You bet: 1</strong></font> &nbsp; &nbsp; &nbsp; &nbsp; &nbsp; &nbsp;<font class='posOutcome'>you receive: <strong>2</strong></font></div>","null","2","Plum Powerball","Fruit/plums1.png","Won","0.8,0.35","13","0.8","20","4","",""
"html-keyboard-response","22","68239","0.0-11.0-1.4","63fac97f0d4e8f6bfd753d90","bdp_rwlrn","Wed Mar 15 2023 20:55:29 GMT-0700 (Pacific Daylight Time)","304111","Untrustworthy,Trustworthy","","258","","","","decision","","<div class='trialDiv'><img src='Fruit/lemon.png'><br><font class='baseline'><strong>Lucky Lemons</strong><p>Choose number of points to bet.</font><div class='respPicDiv'><img src='img/responseButtonOffersNo0L.png' class='respPic'></div></div>","1","2","Lucky Lemons","Fruit/lemon.png","Lost","0.2,0.8","8","0.2","25","5","",""
"html-keyboard-response","23","68490","0.0-11.0-2.4","63fac97f0d4e8f6bfd753d90","bdp_rwlrn","Wed Mar 15 2023 20:55:29 GMT-0700 (Pacific Daylight Time)","304111","Untrustworthy,Trustworthy","","null","","","","decisionFB","","<div class='trialDiv'><img src='Fruit/lemon.png'><br><font class='baseline'><strong>Lucky Lemons</strong><p>Choose number of points to bet.</font><div class='respPicDiv'><img src='img/responseButtonOffersNo0L1.png' class='respPic'></div></div>","null","2","Lucky Lemons","Fruit/lemon.png","Lost","0.2,0.8","8","0.2","24","5","",""
"html-keyboard-response","24","69492","0.0-11.0-3.4","63fac97f0d4e8f6bfd753d90","bdp_rwlrn","Wed Mar 15 2023 20:55:29 GMT-0700 (Pacific Daylight Time)","304111","Untrustworthy,Trustworthy","","null","","","","feedback","","<div class='respPicDiv'><img src='img/responseButtonOffersNo0_wht.png' class='respPic'></div><div class='trialDiv'><img src='Fruit/lemon.png'><br><font class='baseline'><strong>Lucky Lemons</strong><p><strong><font class='negOutcome'>You LOST</font><p>You bet: 1</strong></font> &nbsp; &nbsp; &nbsp; &nbsp; &nbsp; &nbsp;<font class='negOutcome'>You receive: <strong>0</strong></font></div>","null","2","Lucky Lemons","Fruit/lemon.png","Lost","0.2,0.8","8","0.2","24","5","",""
"html-keyboard-response","25","70239","0.0-11.0-1.5","63fac97f0d4e8f6bfd753d90","bdp_rwlrn","Wed Mar 15 2023 20:55:29 GMT-0700 (Pacific Daylight Time)","304111","Untrustworthy,Trustworthy","","747","","","","decision","","<div class='trialDiv'><img src='Fruit/lime.png'><br><font class='baseline'><strong>Limin' Large</strong><p>Choose number of points to bet.</font><div class='respPicDiv'><img src='img/responseButtonOffersNo0L.png' class='respPic'></div></div>","1","2","Limin' Large","Fruit/lime.png","Lost","0.35,0.8","14","0.35","29","6","",""
"html-keyboard-response","26","70490","0.0-11.0-2.5","63fac97f0d4e8f6bfd753d90","bdp_rwlrn","Wed Mar 15 2023 20:55:29 GMT-0700 (Pacific Daylight Time)","304111","Untrustworthy,Trustworthy","","null","","","","decisionFB","","<div class='trialDiv'><img src='Fruit/lime.png'><br><font class='baseline'><strong>Limin' Large</strong><p>Choose number of points to bet.</font><div class='respPicDiv'><img src='img/responseButtonOffersNo0L1.png' class='respPic'></div></div>","null","2","Limin' Large","Fruit/lime.png","Lost","0.35,0.8","14","0.35","28","6","",""
"html-keyboard-response","27","71501","0.0-11.0-3.5","63fac97f0d4e8f6bfd753d90","bdp_rwlrn","Wed Mar 15 2023 20:55:29 GMT-0700 (Pacific Daylight Time)","304111","Untrustworthy,Trustworthy","","null","","","","feedback","","<div class='respPicDiv'><img src='img/responseButtonOffersNo0_wht.png' class='respPic'></div><div class='trialDiv'><img src='Fruit/lime.png'><br><font class='baseline'><strong>Limin' Large</strong><p><strong><font class='negOutcome'>You LOST</font><p>You bet: 1</strong></font> &nbsp; &nbsp; &nbsp; &nbsp; &nbsp; &nbsp;<font class='negOutcome'>You receive: <strong>0</strong></font></div>","null","2","Limin' Large","Fruit/lime.png","Lost","0.35,0.8","14","0.35","28","6","",""
"html-keyboard-response","28","71959","0.0-11.0-1.6","63fac97f0d4e8f6bfd753d90","bdp_rwlrn","Wed Mar 15 2023 20:55:29 GMT-0700 (Pacific Daylight Time)","304111","Untrustworthy,Trustworthy","","457","","","","decision","","<div class='trialDiv'><img src='Fruit/plums1.png'><br><font class='baseline'><strong>Plum Powerball</strong><p>Choose number of points to bet.</font><div class='respPicDiv'><img src='img/responseButtonOffersNo0L.png' class='respPic'></div></div>","2","3","Plum Powerball","Fruit/plums1.png","Won","0.8,0.35","13","0.8","33","7","",""
"html-keyboard-response","29","72211","0.0-11.0-2.6","63fac97f0d4e8f6bfd753d90","bdp_rwlrn","Wed Mar 15 2023 20:55:29 GMT-0700 (Pacific Daylight Time)","304111","Untrustworthy,Trustworthy","","null","","","","decisionFB","","<div class='trialDiv'><img src='Fruit/plums1.png'><br><font class='baseline'><strong>Plum Powerball</strong><p>Choose number of points to bet.</font><div class='respPicDiv'><img src='img/responseButtonOffersNo0L2.png' class='respPic'></div></div>","null","3","Plum Powerball","Fruit/plums1.png","Won","0.8,0.35","13","0.8","31","7","",""
"html-keyboard-response","30","73212","0.0-11.0-3.6","63fac97f0d4e8f6bfd753d90","bdp_rwlrn","Wed Mar 15 2023 20:55:29 GMT-0700 (Pacific Daylight Time)","304111","Untrustworthy,Trustworthy","","null","","","","feedback","","<div class='respPicDiv'><img src='img/responseButtonOffersNo0_wht.png' class='respPic'></div><div class='trialDiv'><img src='Fruit/plums1.png'><br><font class='baseline'><strong>Plum Powerball</strong><p><strong><font class='posOutcome'>You WON</font><p>You bet: 2</strong></font> &nbsp; &nbsp; &nbsp; &nbsp; &nbsp; &nbsp;<font class='posOutcome'>you receive: <strong>4</strong></font></div>","null","3","Plum Powerball","Fruit/plums1.png","Won","0.8,0.35","13","0.8","35","7","",""
"html-keyboard-response","31","73558","0.0-11.0-1.7","63fac97f0d4e8f6bfd753d90","bdp_rwlrn","Wed Mar 15 2023 20:55:29 GMT-0700 (Pacific Daylight Time)","304111","Untrustworthy,Trustworthy","","346","","","","decision","","<div class='trialDiv'><img src='Fruit/lime.png'><br><font class='baseline'><strong>Limin' Large</strong><p>Choose number of points to bet.</font><div class='respPicDiv'><img src='img/responseButtonOffersNo0L.png' class='respPic'></div></div>","1","3","Limin' Large","Fruit/lime.png","Lost","0.35,0.8","14","0.35","40","8","",""
"html-keyboard-response","32","73809","0.0-11.0-2.7","63fac97f0d4e8f6bfd753d90","bdp_rwlrn","Wed Mar 15 2023 20:55:29 GMT-0700 (Pacific Daylight Time)","304111","Untrustworthy,Trustworthy","","null","","","","decisionFB","","<div class='trialDiv'><img src='Fruit/lime.png'><br><font class='baseline'><strong>Limin' Large</strong><p>Choose number of points to bet.</font><div class='respPicDiv'><img src='img/responseButtonOffersNo0L1.png' class='respPic'></div></div>","null","3","Limin' Large","Fruit/lime.png","Lost","0.35,0.8","14","0.35","39","8","",""
"html-keyboard-response","33","74811","0.0-11.0-3.7","63fac97f0d4e8f6bfd753d90","bdp_rwlrn","Wed Mar 15 2023 20:55:29 GMT-0700 (Pacific Daylight Time)","304111","Untrustworthy,Trustworthy","","null","","","","feedback","","<div class='respPicDiv'><img src='img/responseButtonOffersNo0_wht.png' class='respPic'></div><div class='trialDiv'><img src='Fruit/lime.png'><br><font class='baseline'><strong>Limin' Large</strong><p><strong><font class='negOutcome'>You LOST</font><p>You bet: 1</strong></font> &nbsp; &nbsp; &nbsp; &nbsp; &nbsp; &nbsp;<font class='negOutcome'>You receive: <strong>0</strong></font></div>","null","3","Limin' Large","Fruit/lime.png","Lost","0.35,0.8","14","0.35","39","8","",""
"html-keyboard-response","34","75228","0.0-11.0-1.8","63fac97f0d4e8f6bfd753d90","bdp_rwlrn","Wed Mar 15 2023 20:55:29 GMT-0700 (Pacific Daylight Time)","304111","Untrustworthy,Trustworthy","","417","","","","decision","","<div class='trialDiv'><img src='Fruit/lemon.png'><br><font class='baseline'><strong>Lucky Lemons</strong><p>Choose number of points to bet.</font><div class='respPicDiv'><img src='img/responseButtonOffersNo0L.png' class='respPic'></div></div>","1","3","Lucky Lemons","Fruit/lemon.png","Lost","0.2,0.8","8","0.2","44","9","",""
"html-keyboard-response","35","75480","0.0-11.0-2.8","63fac97f0d4e8f6bfd753d90","bdp_rwlrn","Wed Mar 15 2023 20:55:29 GMT-0700 (Pacific Daylight Time)","304111","Untrustworthy,Trustworthy","","null","","","","decisionFB","","<div class='trialDiv'><img src='Fruit/lemon.png'><br><font class='baseline'><strong>Lucky Lemons</strong><p>Choose number of points to bet.</font><div class='respPicDiv'><img src='img/responseButtonOffersNo0L1.png' class='respPic'></div></div>","null","3","Lucky Lemons","Fruit/lemon.png","Lost","0.2,0.8","8","0.2","43","9","",""
"html-keyboard-response","36","76481","0.0-11.0-3.8","63fac97f0d4e8f6bfd753d90","bdp_rwlrn","Wed Mar 15 2023 20:55:29 GMT-0700 (Pacific Daylight Time)","304111","Untrustworthy,Trustworthy","","null","","","","feedback","","<div class='respPicDiv'><img src='img/responseButtonOffersNo0_wht.png' class='respPic'></div><div class='trialDiv'><img src='Fruit/lemon.png'><br><font class='baseline'><strong>Lucky Lemons</strong><p><strong><font class='negOutcome'>You LOST</font><p>You bet: 1</strong></font> &nbsp; &nbsp; &nbsp; &nbsp; &nbsp; &nbsp;<font class='negOutcome'>You receive: <strong>0</strong></font></div>","null","3","Lucky Lemons","Fruit/lemon.png","Lost","0.2,0.8","8","0.2","43","9","",""
"html-keyboard-response","37","77188","0.0-11.0-1.9","63fac97f0d4e8f6bfd753d90","bdp_rwlrn","Wed Mar 15 2023 20:55:29 GMT-0700 (Pacific Daylight Time)","304111","Untrustworthy,Trustworthy","","707","","","","decision","","<div class='trialDiv'><img src='Fruit/lime.png'><br><font class='baseline'><strong>Limin' Large</strong><p>Choose number of points to bet.</font><div class='respPicDiv'><img src='img/responseButtonOffersNo0L.png' class='respPic'></div></div>","1","4","Limin' Large","Fruit/lime.png","Lost","0.35,0.8","14","0.35","48","10","",""
"html-keyboard-response","38","77439","0.0-11.0-2.9","63fac97f0d4e8f6bfd753d90","bdp_rwlrn","Wed Mar 15 2023 20:55:29 GMT-0700 (Pacific Daylight Time)","304111","Untrustworthy,Trustworthy","","null","","","","decisionFB","","<div class='trialDiv'><img src='Fruit/lime.png'><br><font class='baseline'><strong>Limin' Large</strong><p>Choose number of points to bet.</font><div class='respPicDiv'><img src='img/responseButtonOffersNo0L1.png' class='respPic'></div></div>","null","4","Limin' Large","Fruit/lime.png","Lost","0.35,0.8","14","0.35","47","10","",""
"html-keyboard-response","39","78440","0.0-11.0-3.9","63fac97f0d4e8f6bfd753d90","bdp_rwlrn","Wed Mar 15 2023 20:55:29 GMT-0700 (Pacific Daylight Time)","304111","Untrustworthy,Trustworthy","","null","","","","feedback","","<div class='respPicDiv'><img src='img/responseButtonOffersNo0_wht.png' class='respPic'></div><div class='trialDiv'><img src='Fruit/lime.png'><br><font class='baseline'><strong>Limin' Large</strong><p><strong><font class='negOutcome'>You LOST</font><p>You bet: 1</strong></font> &nbsp; &nbsp; &nbsp; &nbsp; &nbsp; &nbsp;<font class='negOutcome'>You receive: <strong>0</strong></font></div>","null","4","Limin' Large","Fruit/lime.png","Lost","0.35,0.8","14","0.35","47","10","",""
"html-keyboard-response","40","78978","0.0-11.0-1.10","63fac97f0d4e8f6bfd753d90","bdp_rwlrn","Wed Mar 15 2023 20:55:29 GMT-0700 (Pacific Daylight Time)","304111","Untrustworthy,Trustworthy","","537","","","","decision","","<div class='trialDiv'><img src='Fruit/lemon.png'><br><font class='baseline'><strong>Lucky Lemons</strong><p>Choose number of points to bet.</font><div class='respPicDiv'><img src='img/responseButtonOffersNo0L.png' class='respPic'></div></div>","1","4","Lucky Lemons","Fruit/lemon.png","Lost","0.2,0.8","8","0.2","52","11","",""
"html-keyboard-response","41","79229","0.0-11.0-2.10","63fac97f0d4e8f6bfd753d90","bdp_rwlrn","Wed Mar 15 2023 20:55:29 GMT-0700 (Pacific Daylight Time)","304111","Untrustworthy,Trustworthy","","null","","","","decisionFB","","<div class='trialDiv'><img src='Fruit/lemon.png'><br><font class='baseline'><strong>Lucky Lemons</strong><p>Choose number of points to bet.</font><div class='respPicDiv'><img src='img/responseButtonOffersNo0L1.png' class='respPic'></div></div>","null","4","Lucky Lemons","Fruit/lemon.png","Lost","0.2,0.8","8","0.2","51","11","",""
"html-keyboard-response","42","80230","0.0-11.0-3.10","63fac97f0d4e8f6bfd753d90","bdp_rwlrn","Wed Mar 15 2023 20:55:29 GMT-0700 (Pacific Daylight Time)","304111","Untrustworthy,Trustworthy","","null","","","","feedback","","<div class='respPicDiv'><img src='img/responseButtonOffersNo0_wht.png' class='respPic'></div><div class='trialDiv'><img src='Fruit/lemon.png'><br><font class='baseline'><strong>Lucky Lemons</strong><p><strong><font class='negOutcome'>You LOST</font><p>You bet: 1</strong></font> &nbsp; &nbsp; &nbsp; &nbsp; &nbsp; &nbsp;<font class='negOutcome'>You receive: <strong>0</strong></font></div>","null","4","Lucky Lemons","Fruit/lemon.png","Lost","0.2,0.8","8","0.2","51","11","",""
"html-keyboard-response","43","84187","0.0-11.0-1.11","63fac97f0d4e8f6bfd753d90","bdp_rwlrn","Wed Mar 15 2023 20:55:29 GMT-0700 (Pacific Daylight Time)","304111","Untrustworthy,Trustworthy","","3956","","","","decision","","<div class='trialDiv'><img src='Fruit/plums1.png'><br><font class='baseline'><strong>Plum Powerball</strong><p>Choose number of points to bet.</font><div class='respPicDiv'><img src='img/responseButtonOffersNo0L.png' class='respPic'></div></div>","4","4","Plum Powerball","Fruit/plums1.png","Won","0.8,0.35","13","0.8","56","12","",""
"html-keyboard-response","44","84439","0.0-11.0-2.11","63fac97f0d4e8f6bfd753d90","bdp_rwlrn","Wed Mar 15 2023 20:55:29 GMT-0700 (Pacific Daylight Time)","304111","Untrustworthy,Trustworthy","","null","","","","decisionFB","","<div class='trialDiv'><img src='Fruit/plums1.png'><br><font class='baseline'><strong>Plum Powerball</strong><p>Choose number of points to bet.</font><div class='respPicDiv'><img src='img/responseButtonOffersNo0L4.png' class='respPic'></div></div>","null","4","Plum Powerball","Fruit/plums1.png","Won","0.8,0.35","13","0.8","52","12","",""
"html-keyboard-response","45","85440","0.0-11.0-3.11","63fac97f0d4e8f6bfd753d90","bdp_rwlrn","Wed Mar 15 2023 20:55:29 GMT-0700 (Pacific Daylight Time)","304111","Untrustworthy,Trustworthy","","null","","","","feedback","","<div class='respPicDiv'><img src='img/responseButtonOffersNo0_wht.png' class='respPic'></div><div class='trialDiv'><img src='Fruit/plums1.png'><br><font class='baseline'><strong>Plum Powerball</strong><p><strong><font class='posOutcome'>You WON</font><p>You bet: 4</strong></font> &nbsp; &nbsp; &nbsp; &nbsp; &nbsp; &nbsp;<font class='posOutcome'>you receive: <strong>8</strong></font></div>","null","4","Plum Powerball","Fruit/plums1.png","Won","0.8,0.35","13","0.8","60","12","",""
"html-keyboard-response","46","85956","0.0-11.0-1.12","63fac97f0d4e8f6bfd753d90","bdp_rwlrn","Wed Mar 15 2023 20:55:29 GMT-0700 (Pacific Daylight Time)","304111","Untrustworthy,Trustworthy","","516","","","","decision","","<div class='trialDiv'><img src='Fruit/lime.png'><br><font class='baseline'><strong>Limin' Large</strong><p>Choose number of points to bet.</font><div class='respPicDiv'><img src='img/responseButtonOffersNo0L.png' class='respPic'></div></div>","1","5","Limin' Large","Fruit/lime.png","Lost","0.35,0.8","14","0.35","65","13","",""
"html-keyboard-response","47","86209","0.0-11.0-2.12","63fac97f0d4e8f6bfd753d90","bdp_rwlrn","Wed Mar 15 2023 20:55:29 GMT-0700 (Pacific Daylight Time)","304111","Untrustworthy,Trustworthy","","null","","","","decisionFB","","<div class='trialDiv'><img src='Fruit/lime.png'><br><font class='baseline'><strong>Limin' Large</strong><p>Choose number of points to bet.</font><div class='respPicDiv'><img src='img/responseButtonOffersNo0L1.png' class='respPic'></div></div>","null","5","Limin' Large","Fruit/lime.png","Lost","0.35,0.8","14","0.35","64","13","",""
"html-keyboard-response","48","87210","0.0-11.0-3.12","63fac97f0d4e8f6bfd753d90","bdp_rwlrn","Wed Mar 15 2023 20:55:29 GMT-0700 (Pacific Daylight Time)","304111","Untrustworthy,Trustworthy","","null","","","","feedback","","<div class='respPicDiv'><img src='img/responseButtonOffersNo0_wht.png' class='respPic'></div><div class='trialDiv'><img src='Fruit/lime.png'><br><font class='baseline'><strong>Limin' Large</strong><p><strong><font class='negOutcome'>You LOST</font><p>You bet: 1</strong></font> &nbsp; &nbsp; &nbsp; &nbsp; &nbsp; &nbsp;<font class='negOutcome'>You receive: <strong>0</strong></font></div>","null","5","Limin' Large","Fruit/lime.png","Lost","0.35,0.8","14","0.35","64","13","",""
"html-keyboard-response","49","87586","0.0-11.0-1.13","63fac97f0d4e8f6bfd753d90","bdp_rwlrn","Wed Mar 15 2023 20:55:29 GMT-0700 (Pacific Daylight Time)","304111","Untrustworthy,Trustworthy","","376","","","","decision","","<div class='trialDiv'><img src='Fruit/lemon.png'><br><font class='baseline'><strong>Lucky Lemons</strong><p>Choose number of points to bet.</font><div class='respPicDiv'><img src='img/responseButtonOffersNo0L.png' class='respPic'></div></div>","1","5","Lucky Lemons","Fruit/lemon.png","Lost","0.2,0.8","8","0.2","69","14","",""
"html-keyboard-response","50","87838","0.0-11.0-2.13","63fac97f0d4e8f6bfd753d90","bdp_rwlrn","Wed Mar 15 2023 20:55:29 GMT-0700 (Pacific Daylight Time)","304111","Untrustworthy,Trustworthy","","null","","","","decisionFB","","<div class='trialDiv'><img src='Fruit/lemon.png'><br><font class='baseline'><strong>Lucky Lemons</strong><p>Choose number of points to bet.</font><div class='respPicDiv'><img src='img/responseButtonOffersNo0L1.png' class='respPic'></div></div>","null","5","Lucky Lemons","Fruit/lemon.png","Lost","0.2,0.8","8","0.2","68","14","",""
"html-keyboard-response","51","88839","0.0-11.0-3.13","63fac97f0d4e8f6bfd753d90","bdp_rwlrn","Wed Mar 15 2023 20:55:29 GMT-0700 (Pacific Daylight Time)","304111","Untrustworthy,Trustworthy","","null","","","","feedback","","<div class='respPicDiv'><img src='img/responseButtonOffersNo0_wht.png' class='respPic'></div><div class='trialDiv'><img src='Fruit/lemon.png'><br><font class='baseline'><strong>Lucky Lemons</strong><p><strong><font class='negOutcome'>You LOST</font><p>You bet: 1</strong></font> &nbsp; &nbsp; &nbsp; &nbsp; &nbsp; &nbsp;<font class='negOutcome'>You receive: <strong>0</strong></font></div>","null","5","Lucky Lemons","Fruit/lemon.png","Lost","0.2,0.8","8","0.2","68","14","",""
"html-keyboard-response","52","89266","0.0-11.0-1.14","63fac97f0d4e8f6bfd753d90","bdp_rwlrn","Wed Mar 15 2023 20:55:29 GMT-0700 (Pacific Daylight Time)","304111","Untrustworthy,Trustworthy","","427","","","","decision","","<div class='trialDiv'><img src='Fruit/plums1.png'><br><font class='baseline'><strong>Plum Powerball</strong><p>Choose number of points to bet.</font><div class='respPicDiv'><img src='img/responseButtonOffersNo0L.png' class='respPic'></div></div>","5","5","Plum Powerball","Fruit/plums1.png","Lost","0.8,0.35","13","0.8","73","15","",""
"html-keyboard-response","53","89518","0.0-11.0-2.14","63fac97f0d4e8f6bfd753d90","bdp_rwlrn","Wed Mar 15 2023 20:55:29 GMT-0700 (Pacific Daylight Time)","304111","Untrustworthy,Trustworthy","","null","","","","decisionFB","","<div class='trialDiv'><img src='Fruit/plums1.png'><br><font class='baseline'><strong>Plum Powerball</strong><p>Choose number of points to bet.</font><div class='respPicDiv'><img src='img/responseButtonOffersNo0L5.png' class='respPic'></div></div>","null","5","Plum Powerball","Fruit/plums1.png","Lost","0.8,0.35","13","0.8","68","15","",""
"html-keyboard-response","54","90519","0.0-11.0-3.14","63fac97f0d4e8f6bfd753d90","bdp_rwlrn","Wed Mar 15 2023 20:55:29 GMT-0700 (Pacific Daylight Time)","304111","Untrustworthy,Trustworthy","","null","","","","feedback","","<div class='respPicDiv'><img src='img/responseButtonOffersNo0_wht.png' class='respPic'></div><div class='trialDiv'><img src='Fruit/plums1.png'><br><font class='baseline'><strong>Plum Powerball</strong><p><strong><font class='negOutcome'>You LOST</font><p>You bet: 5</strong></font> &nbsp; &nbsp; &nbsp; &nbsp; &nbsp; &nbsp;<font class='negOutcome'>You receive: <strong>0</strong></font></div>","null","5","Plum Powerball","Fruit/plums1.png","Lost","0.8,0.35","13","0.8","68","15","",""
"html-keyboard-response","55","91026","0.0-11.0-1.15","63fac97f0d4e8f6bfd753d90","bdp_rwlrn","Wed Mar 15 2023 20:55:29 GMT-0700 (Pacific Daylight Time)","304111","Untrustworthy,Trustworthy","","507","","","","decision","","<div class='trialDiv'><img src='Fruit/lemon.png'><br><font class='baseline'><strong>Lucky Lemons</strong><p>Choose number of points to bet.</font><div class='respPicDiv'><img src='img/responseButtonOffersNo0L.png' class='respPic'></div></div>","1","6","Lucky Lemons","Fruit/lemon.png","Lost","0.2,0.8","8","0.2","73","16","",""
"html-keyboard-response","56","91278","0.0-11.0-2.15","63fac97f0d4e8f6bfd753d90","bdp_rwlrn","Wed Mar 15 2023 20:55:29 GMT-0700 (Pacific Daylight Time)","304111","Untrustworthy,Trustworthy","","null","","","","decisionFB","","<div class='trialDiv'><img src='Fruit/lemon.png'><br><font class='baseline'><strong>Lucky Lemons</strong><p>Choose number of points to bet.</font><div class='respPicDiv'><img src='img/responseButtonOffersNo0L1.png' class='respPic'></div></div>","null","6","Lucky Lemons","Fruit/lemon.png","Lost","0.2,0.8","8","0.2","72","16","",""
"html-keyboard-response","57","92278","0.0-11.0-3.15","63fac97f0d4e8f6bfd753d90","bdp_rwlrn","Wed Mar 15 2023 20:55:29 GMT-0700 (Pacific Daylight Time)","304111","Untrustworthy,Trustworthy","","null","","","","feedback","","<div class='respPicDiv'><img src='img/responseButtonOffersNo0_wht.png' class='respPic'></div><div class='trialDiv'><img src='Fruit/lemon.png'><br><font class='baseline'><strong>Lucky Lemons</strong><p><strong><font class='negOutcome'>You LOST</font><p>You bet: 1</strong></font> &nbsp; &nbsp; &nbsp; &nbsp; &nbsp; &nbsp;<font class='negOutcome'>You receive: <strong>0</strong></font></div>","null","6","Lucky Lemons","Fruit/lemon.png","Lost","0.2,0.8","8","0.2","72","16","",""
"html-keyboard-response","58","92946","0.0-11.0-1.16","63fac97f0d4e8f6bfd753d90","bdp_rwlrn","Wed Mar 15 2023 20:55:29 GMT-0700 (Pacific Daylight Time)","304111","Untrustworthy,Trustworthy","","667","","","","decision","","<div class='trialDiv'><img src='Fruit/lime.png'><br><font class='baseline'><strong>Limin' Large</strong><p>Choose number of points to bet.</font><div class='respPicDiv'><img src='img/responseButtonOffersNo0L.png' class='respPic'></div></div>","1","6","Limin' Large","Fruit/lime.png","Lost","0.35,0.8","14","0.35","77","17","",""
"html-keyboard-response","59","93197","0.0-11.0-2.16","63fac97f0d4e8f6bfd753d90","bdp_rwlrn","Wed Mar 15 2023 20:55:29 GMT-0700 (Pacific Daylight Time)","304111","Untrustworthy,Trustworthy","","null","","","","decisionFB","","<div class='trialDiv'><img src='Fruit/lime.png'><br><font class='baseline'><strong>Limin' Large</strong><p>Choose number of points to bet.</font><div class='respPicDiv'><img src='img/responseButtonOffersNo0L1.png' class='respPic'></div></div>","null","6","Limin' Large","Fruit/lime.png","Lost","0.35,0.8","14","0.35","76","17","",""
"html-keyboard-response","60","94198","0.0-11.0-3.16","63fac97f0d4e8f6bfd753d90","bdp_rwlrn","Wed Mar 15 2023 20:55:29 GMT-0700 (Pacific Daylight Time)","304111","Untrustworthy,Trustworthy","","null","","","","feedback","","<div class='respPicDiv'><img src='img/responseButtonOffersNo0_wht.png' class='respPic'></div><div class='trialDiv'><img src='Fruit/lime.png'><br><font class='baseline'><strong>Limin' Large</strong><p><strong><font class='negOutcome'>You LOST</font><p>You bet: 1</strong></font> &nbsp; &nbsp; &nbsp; &nbsp; &nbsp; &nbsp;<font class='negOutcome'>You receive: <strong>0</strong></font></div>","null","6","Limin' Large","Fruit/lime.png","Lost","0.35,0.8","14","0.35","76","17","",""
"html-keyboard-response","61","94746","0.0-11.0-1.17","63fac97f0d4e8f6bfd753d90","bdp_rwlrn","Wed Mar 15 2023 20:55:29 GMT-0700 (Pacific Daylight Time)","304111","Untrustworthy,Trustworthy","","547","","","","decision","","<div class='trialDiv'><img src='Fruit/plums1.png'><br><font class='baseline'><strong>Plum Powerball</strong><p>Choose number of points to bet.</font><div class='respPicDiv'><img src='img/responseButtonOffersNo0L.png' class='respPic'></div></div>","5","6","Plum Powerball","Fruit/plums1.png","Lost","0.8,0.35","13","0.8","81","18","",""
"html-keyboard-response","62","95004","0.0-11.0-2.17","63fac97f0d4e8f6bfd753d90","bdp_rwlrn","Wed Mar 15 2023 20:55:29 GMT-0700 (Pacific Daylight Time)","304111","Untrustworthy,Trustworthy","","null","","","","decisionFB","","<div class='trialDiv'><img src='Fruit/plums1.png'><br><font class='baseline'><strong>Plum Powerball</strong><p>Choose number of points to bet.</font><div class='respPicDiv'><img src='img/responseButtonOffersNo0L5.png' class='respPic'></div></div>","null","6","Plum Powerball","Fruit/plums1.png","Lost","0.8,0.35","13","0.8","76","18","",""
"html-keyboard-response","63","96005","0.0-11.0-3.17","63fac97f0d4e8f6bfd753d90","bdp_rwlrn","Wed Mar 15 2023 20:55:29 GMT-0700 (Pacific Daylight Time)","304111","Untrustworthy,Trustworthy","","null","","","","feedback","","<div class='respPicDiv'><img src='img/responseButtonOffersNo0_wht.png' class='respPic'></div><div class='trialDiv'><img src='Fruit/plums1.png'><br><font class='baseline'><strong>Plum Powerball</strong><p><strong><font class='negOutcome'>You LOST</font><p>You bet: 5</strong></font> &nbsp; &nbsp; &nbsp; &nbsp; &nbsp; &nbsp;<font class='negOutcome'>You receive: <strong>0</strong></font></div>","null","6","Plum Powerball","Fruit/plums1.png","Lost","0.8,0.35","13","0.8","76","18","",""
"html-keyboard-response","64","96276","0.0-11.0-1.18","63fac97f0d4e8f6bfd753d90","bdp_rwlrn","Wed Mar 15 2023 20:55:29 GMT-0700 (Pacific Daylight Time)","304111","Untrustworthy,Trustworthy","","270","","","","decision","","<div class='trialDiv'><img src='Fruit/lemon.png'><br><font class='baseline'><strong>Lucky Lemons</strong><p>Choose number of points to bet.</font><div class='respPicDiv'><img src='img/responseButtonOffersNo0L.png' class='respPic'></div></div>","1","7","Lucky Lemons","Fruit/lemon.png","Lost","0.2,0.8","8","0.2","81","19","",""
"html-keyboard-response","65","96527","0.0-11.0-2.18","63fac97f0d4e8f6bfd753d90","bdp_rwlrn","Wed Mar 15 2023 20:55:29 GMT-0700 (Pacific Daylight Time)","304111","Untrustworthy,Trustworthy","","null","","","","decisionFB","","<div class='trialDiv'><img src='Fruit/lemon.png'><br><font class='baseline'><strong>Lucky Lemons</strong><p>Choose number of points to bet.</font><div class='respPicDiv'><img src='img/responseButtonOffersNo0L1.png' class='respPic'></div></div>","null","7","Lucky Lemons","Fruit/lemon.png","Lost","0.2,0.8","8","0.2","80","19","",""
"html-keyboard-response","66","97529","0.0-11.0-3.18","63fac97f0d4e8f6bfd753d90","bdp_rwlrn","Wed Mar 15 2023 20:55:29 GMT-0700 (Pacific Daylight Time)","304111","Untrustworthy,Trustworthy","","null","","","","feedback","","<div class='respPicDiv'><img src='img/responseButtonOffersNo0_wht.png' class='respPic'></div><div class='trialDiv'><img src='Fruit/lemon.png'><br><font class='baseline'><strong>Lucky Lemons</strong><p><strong><font class='negOutcome'>You LOST</font><p>You bet: 1</strong></font> &nbsp; &nbsp; &nbsp; &nbsp; &nbsp; &nbsp;<font class='negOutcome'>You receive: <strong>0</strong></font></div>","null","7","Lucky Lemons","Fruit/lemon.png","Lost","0.2,0.8","8","0.2","80","19","",""
"html-keyboard-response","67","98145","0.0-11.0-1.19","63fac97f0d4e8f6bfd753d90","bdp_rwlrn","Wed Mar 15 2023 20:55:29 GMT-0700 (Pacific Daylight Time)","304111","Untrustworthy,Trustworthy","","615","","","","decision","","<div class='trialDiv'><img src='Fruit/lime.png'><br><font class='baseline'><strong>Limin' Large</strong><p>Choose number of points to bet.</font><div class='respPicDiv'><img src='img/responseButtonOffersNo0L.png' class='respPic'></div></div>","1","7","Limin' Large","Fruit/lime.png","Lost","0.35,0.8","14","0.35","85","20","",""
"html-keyboard-response","68","98396","0.0-11.0-2.19","63fac97f0d4e8f6bfd753d90","bdp_rwlrn","Wed Mar 15 2023 20:55:29 GMT-0700 (Pacific Daylight Time)","304111","Untrustworthy,Trustworthy","","null","","","","decisionFB","","<div class='trialDiv'><img src='Fruit/lime.png'><br><font class='baseline'><strong>Limin' Large</strong><p>Choose number of points to bet.</font><div class='respPicDiv'><img src='img/responseButtonOffersNo0L1.png' class='respPic'></div></div>","null","7","Limin' Large","Fruit/lime.png","Lost","0.35,0.8","14","0.35","84","20","",""
"html-keyboard-response","69","99398","0.0-11.0-3.19","63fac97f0d4e8f6bfd753d90","bdp_rwlrn","Wed Mar 15 2023 20:55:29 GMT-0700 (Pacific Daylight Time)","304111","Untrustworthy,Trustworthy","","null","","","","feedback","","<div class='respPicDiv'><img src='img/responseButtonOffersNo0_wht.png' class='respPic'></div><div class='trialDiv'><img src='Fruit/lime.png'><br><font class='baseline'><strong>Limin' Large</strong><p><strong><font class='negOutcome'>You LOST</font><p>You bet: 1</strong></font> &nbsp; &nbsp; &nbsp; &nbsp; &nbsp; &nbsp;<font class='negOutcome'>You receive: <strong>0</strong></font></div>","null","7","Limin' Large","Fruit/lime.png","Lost","0.35,0.8","14","0.35","84","20","",""
"html-keyboard-response","70","99805","0.0-11.0-1.20","63fac97f0d4e8f6bfd753d90","bdp_rwlrn","Wed Mar 15 2023 20:55:29 GMT-0700 (Pacific Daylight Time)","304111","Untrustworthy,Trustworthy","","407","","","","decision","","<div class='trialDiv'><img src='Fruit/plums1.png'><br><font class='baseline'><strong>Plum Powerball</strong><p>Choose number of points to bet.</font><div class='respPicDiv'><img src='img/responseButtonOffersNo0L.png' class='respPic'></div></div>","4","7","Plum Powerball","Fruit/plums1.png","Won","0.8,0.35","13","0.8","89","21","",""
"html-keyboard-response","71","100067","0.0-11.0-2.20","63fac97f0d4e8f6bfd753d90","bdp_rwlrn","Wed Mar 15 2023 20:55:29 GMT-0700 (Pacific Daylight Time)","304111","Untrustworthy,Trustworthy","","null","","","","decisionFB","","<div class='trialDiv'><img src='Fruit/plums1.png'><br><font class='baseline'><strong>Plum Powerball</strong><p>Choose number of points to bet.</font><div class='respPicDiv'><img src='img/responseButtonOffersNo0L4.png' class='respPic'></div></div>","null","7","Plum Powerball","Fruit/plums1.png","Won","0.8,0.35","13","0.8","85","21","",""
"html-keyboard-response","72","101069","0.0-11.0-3.20","63fac97f0d4e8f6bfd753d90","bdp_rwlrn","Wed Mar 15 2023 20:55:29 GMT-0700 (Pacific Daylight Time)","304111","Untrustworthy,Trustworthy","","null","","","","feedback","","<div class='respPicDiv'><img src='img/responseButtonOffersNo0_wht.png' class='respPic'></div><div class='trialDiv'><img src='Fruit/plums1.png'><br><font class='baseline'><strong>Plum Powerball</strong><p><strong><font class='posOutcome'>You WON</font><p>You bet: 4</strong></font> &nbsp; &nbsp; &nbsp; &nbsp; &nbsp; &nbsp;<font class='posOutcome'>you receive: <strong>8</strong></font></div>","null","7","Plum Powerball","Fruit/plums1.png","Won","0.8,0.35","13","0.8","93","21","",""
"html-keyboard-response","73","101565","0.0-11.0-1.21","63fac97f0d4e8f6bfd753d90","bdp_rwlrn","Wed Mar 15 2023 20:55:29 GMT-0700 (Pacific Daylight Time)","304111","Untrustworthy,Trustworthy","","496","","","","decision","","<div class='trialDiv'><img src='Fruit/lemon.png'><br><font class='baseline'><strong>Lucky Lemons</strong><p>Choose number of points to bet.</font><div class='respPicDiv'><img src='img/responseButtonOffersNo0L.png' class='respPic'></div></div>","1","8","Lucky Lemons","Fruit/lemon.png","Won","0.2,0.8","8","0.2","98","22","",""
"html-keyboard-response","74","101815","0.0-11.0-2.21","63fac97f0d4e8f6bfd753d90","bdp_rwlrn","Wed Mar 15 2023 20:55:29 GMT-0700 (Pacific Daylight Time)","304111","Untrustworthy,Trustworthy","","null","","","","decisionFB","","<div class='trialDiv'><img src='Fruit/lemon.png'><br><font class='baseline'><strong>Lucky Lemons</strong><p>Choose number of points to bet.</font><div class='respPicDiv'><img src='img/responseButtonOffersNo0L1.png' class='respPic'></div></div>","null","8","Lucky Lemons","Fruit/lemon.png","Won","0.2,0.8","8","0.2","97","22","",""
"html-keyboard-response","75","102825","0.0-11.0-3.21","63fac97f0d4e8f6bfd753d90","bdp_rwlrn","Wed Mar 15 2023 20:55:29 GMT-0700 (Pacific Daylight Time)","304111","Untrustworthy,Trustworthy","","null","","","","feedback","","<div class='respPicDiv'><img src='img/responseButtonOffersNo0_wht.png' class='respPic'></div><div class='trialDiv'><img src='Fruit/lemon.png'><br><font class='baseline'><strong>Lucky Lemons</strong><p><strong><font class='posOutcome'>You WON</font><p>You bet: 1</strong></font> &nbsp; &nbsp; &nbsp; &nbsp; &nbsp; &nbsp;<font class='posOutcome'>you receive: <strong>2</strong></font></div>","null","8","Lucky Lemons","Fruit/lemon.png","Won","0.2,0.8","8","0.2","99","22","",""
"html-keyboard-response","76","103415","0.0-11.0-1.22","63fac97f0d4e8f6bfd753d90","bdp_rwlrn","Wed Mar 15 2023 20:55:29 GMT-0700 (Pacific Daylight Time)","304111","Untrustworthy,Trustworthy","","590","","","","decision","","<div class='trialDiv'><img src='Fruit/plums1.png'><br><font class='baseline'><strong>Plum Powerball</strong><p>Choose number of points to bet.</font><div class='respPicDiv'><img src='img/responseButtonOffersNo0L.png' class='respPic'></div></div>","4","8","Plum Powerball","Fruit/plums1.png","Won","0.8,0.35","13","0.8","104","23","",""
"html-keyboard-response","77","103666","0.0-11.0-2.22","63fac97f0d4e8f6bfd753d90","bdp_rwlrn","Wed Mar 15 2023 20:55:29 GMT-0700 (Pacific Daylight Time)","304111","Untrustworthy,Trustworthy","","null","","","","decisionFB","","<div class='trialDiv'><img src='Fruit/plums1.png'><br><font class='baseline'><strong>Plum Powerball</strong><p>Choose number of points to bet.</font><div class='respPicDiv'><img src='img/responseButtonOffersNo0L4.png' class='respPic'></div></div>","null","8","Plum Powerball","Fruit/plums1.png","Won","0.8,0.35","13","0.8","100","23","",""
"html-keyboard-response","78","104667","0.0-11.0-3.22","63fac97f0d4e8f6bfd753d90","bdp_rwlrn","Wed Mar 15 2023 20:55:29 GMT-0700 (Pacific Daylight Time)","304111","Untrustworthy,Trustworthy","","null","","","","feedback","","<div class='respPicDiv'><img src='img/responseButtonOffersNo0_wht.png' class='respPic'></div><div class='trialDiv'><img src='Fruit/plums1.png'><br><font class='baseline'><strong>Plum Powerball</strong><p><strong><font class='posOutcome'>You WON</font><p>You bet: 4</strong></font> &nbsp; &nbsp; &nbsp; &nbsp; &nbsp; &nbsp;<font class='posOutcome'>you receive: <strong>8</strong></font></div>","null","8","Plum Powerball","Fruit/plums1.png","Won","0.8,0.35","13","0.8","108","23","",""
"html-keyboard-response","79","105124","0.0-11.0-1.23","63fac97f0d4e8f6bfd753d90","bdp_rwlrn","Wed Mar 15 2023 20:55:29 GMT-0700 (Pacific Daylight Time)","304111","Untrustworthy,Trustworthy","","457","","","","decision","","<div class='trialDiv'><img src='Fruit/lime.png'><br><font class='baseline'><strong>Limin' Large</strong><p>Choose number of points to bet.</font><div class='respPicDiv'><img src='img/responseButtonOffersNo0L.png' class='respPic'></div></div>","1","8","Limin' Large","Fruit/lime.png","Won","0.35,0.8","14","0.35","113","24","",""
"html-keyboard-response","80","105375","0.0-11.0-2.23","63fac97f0d4e8f6bfd753d90","bdp_rwlrn","Wed Mar 15 2023 20:55:29 GMT-0700 (Pacific Daylight Time)","304111","Untrustworthy,Trustworthy","","null","","","","decisionFB","","<div class='trialDiv'><img src='Fruit/lime.png'><br><font class='baseline'><strong>Limin' Large</strong><p>Choose number of points to bet.</font><div class='respPicDiv'><img src='img/responseButtonOffersNo0L1.png' class='respPic'></div></div>","null","8","Limin' Large","Fruit/lime.png","Won","0.35,0.8","14","0.35","112","24","",""
"html-keyboard-response","81","106376","0.0-11.0-3.23","63fac97f0d4e8f6bfd753d90","bdp_rwlrn","Wed Mar 15 2023 20:55:29 GMT-0700 (Pacific Daylight Time)","304111","Untrustworthy,Trustworthy","","null","","","","feedback","","<div class='respPicDiv'><img src='img/responseButtonOffersNo0_wht.png' class='respPic'></div><div class='trialDiv'><img src='Fruit/lime.png'><br><font class='baseline'><strong>Limin' Large</strong><p><strong><font class='posOutcome'>You WON</font><p>You bet: 1</strong></font> &nbsp; &nbsp; &nbsp; &nbsp; &nbsp; &nbsp;<font class='posOutcome'>you receive: <strong>2</strong></font></div>","null","8","Limin' Large","Fruit/lime.png","Won","0.35,0.8","14","0.35","114","24","",""
"html-keyboard-response","82","107114","0.0-11.0-1.24","63fac97f0d4e8f6bfd753d90","bdp_rwlrn","Wed Mar 15 2023 20:55:29 GMT-0700 (Pacific Daylight Time)","304111","Untrustworthy,Trustworthy","","738","","","","decision","","<div class='trialDiv'><img src='Fruit/lemon.png'><br><font class='baseline'><strong>Lucky Lemons</strong><p>Choose number of points to bet.</font><div class='respPicDiv'><img src='img/responseButtonOffersNo0L.png' class='respPic'></div></div>","1","9","Lucky Lemons","Fruit/lemon.png","Won","0.2,0.8","8","0.2","119","25","",""
"html-keyboard-response","83","107365","0.0-11.0-2.24","63fac97f0d4e8f6bfd753d90","bdp_rwlrn","Wed Mar 15 2023 20:55:29 GMT-0700 (Pacific Daylight Time)","304111","Untrustworthy,Trustworthy","","null","","","","decisionFB","","<div class='trialDiv'><img src='Fruit/lemon.png'><br><font class='baseline'><strong>Lucky Lemons</strong><p>Choose number of points to bet.</font><div class='respPicDiv'><img src='img/responseButtonOffersNo0L1.png' class='respPic'></div></div>","null","9","Lucky Lemons","Fruit/lemon.png","Won","0.2,0.8","8","0.2","118","25","",""
"html-keyboard-response","84","108366","0.0-11.0-3.24","63fac97f0d4e8f6bfd753d90","bdp_rwlrn","Wed Mar 15 2023 20:55:29 GMT-0700 (Pacific Daylight Time)","304111","Untrustworthy,Trustworthy","","null","","","","feedback","","<div class='respPicDiv'><img src='img/responseButtonOffersNo0_wht.png' class='respPic'></div><div class='trialDiv'><img src='Fruit/lemon.png'><br><font class='baseline'><strong>Lucky Lemons</strong><p><strong><font class='posOutcome'>You WON</font><p>You bet: 1</strong></font> &nbsp; &nbsp; &nbsp; &nbsp; &nbsp; &nbsp;<font class='posOutcome'>you receive: <strong>2</strong></font></div>","null","9","Lucky Lemons","Fruit/lemon.png","Won","0.2,0.8","8","0.2","120","25","",""
"html-keyboard-response","85","108934","0.0-11.0-1.25","63fac97f0d4e8f6bfd753d90","bdp_rwlrn","Wed Mar 15 2023 20:55:29 GMT-0700 (Pacific Daylight Time)","304111","Untrustworthy,Trustworthy","","567","","","","decision","","<div class='trialDiv'><img src='Fruit/lime.png'><br><font class='baseline'><strong>Limin' Large</strong><p>Choose number of points to bet.</font><div class='respPicDiv'><img src='img/responseButtonOffersNo0L.png' class='respPic'></div></div>","1","9","Limin' Large","Fruit/lime.png","Lost","0.35,0.8","14","0.35","125","26","",""
"html-keyboard-response","86","109186","0.0-11.0-2.25","63fac97f0d4e8f6bfd753d90","bdp_rwlrn","Wed Mar 15 2023 20:55:29 GMT-0700 (Pacific Daylight Time)","304111","Untrustworthy,Trustworthy","","null","","","","decisionFB","","<div class='trialDiv'><img src='Fruit/lime.png'><br><font class='baseline'><strong>Limin' Large</strong><p>Choose number of points to bet.</font><div class='respPicDiv'><img src='img/responseButtonOffersNo0L1.png' class='respPic'></div></div>","null","9","Limin' Large","Fruit/lime.png","Lost","0.35,0.8","14","0.35","124","26","",""
"html-keyboard-response","87","110187","0.0-11.0-3.25","63fac97f0d4e8f6bfd753d90","bdp_rwlrn","Wed Mar 15 2023 20:55:29 GMT-0700 (Pacific Daylight Time)","304111","Untrustworthy,Trustworthy","","null","","","","feedback","","<div class='respPicDiv'><img src='img/responseButtonOffersNo0_wht.png' class='respPic'></div><div class='trialDiv'><img src='Fruit/lime.png'><br><font class='baseline'><strong>Limin' Large</strong><p><strong><font class='negOutcome'>You LOST</font><p>You bet: 1</strong></font> &nbsp; &nbsp; &nbsp; &nbsp; &nbsp; &nbsp;<font class='negOutcome'>You receive: <strong>0</strong></font></div>","null","9","Limin' Large","Fruit/lime.png","Lost","0.35,0.8","14","0.35","124","26","",""
"html-keyboard-response","88","110593","0.0-11.0-1.26","63fac97f0d4e8f6bfd753d90","bdp_rwlrn","Wed Mar 15 2023 20:55:29 GMT-0700 (Pacific Daylight Time)","304111","Untrustworthy,Trustworthy","","406","","","","decision","","<div class='trialDiv'><img src='Fruit/plums1.png'><br><font class='baseline'><strong>Plum Powerball</strong><p>Choose number of points to bet.</font><div class='respPicDiv'><img src='img/responseButtonOffersNo0L.png' class='respPic'></div></div>","4","9","Plum Powerball","Fruit/plums1.png","Lost","0.8,0.35","13","0.8","129","27","",""
"html-keyboard-response","89","110844","0.0-11.0-2.26","63fac97f0d4e8f6bfd753d90","bdp_rwlrn","Wed Mar 15 2023 20:55:29 GMT-0700 (Pacific Daylight Time)","304111","Untrustworthy,Trustworthy","","null","","","","decisionFB","","<div class='trialDiv'><img src='Fruit/plums1.png'><br><font class='baseline'><strong>Plum Powerball</strong><p>Choose number of points to bet.</font><div class='respPicDiv'><img src='img/responseButtonOffersNo0L4.png' class='respPic'></div></div>","null","9","Plum Powerball","Fruit/plums1.png","Lost","0.8,0.35","13","0.8","125","27","",""
"html-keyboard-response","90","111845","0.0-11.0-3.26","63fac97f0d4e8f6bfd753d90","bdp_rwlrn","Wed Mar 15 2023 20:55:29 GMT-0700 (Pacific Daylight Time)","304111","Untrustworthy,Trustworthy","","null","","","","feedback","","<div class='respPicDiv'><img src='img/responseButtonOffersNo0_wht.png' class='respPic'></div><div class='trialDiv'><img src='Fruit/plums1.png'><br><font class='baseline'><strong>Plum Powerball</strong><p><strong><font class='negOutcome'>You LOST</font><p>You bet: 4</strong></font> &nbsp; &nbsp; &nbsp; &nbsp; &nbsp; &nbsp;<font class='negOutcome'>You receive: <strong>0</strong></font></div>","null","9","Plum Powerball","Fruit/plums1.png","Lost","0.8,0.35","13","0.8","125","27","",""
"html-keyboard-response","91","112143","0.0-11.0-1.27","63fac97f0d4e8f6bfd753d90","bdp_rwlrn","Wed Mar 15 2023 20:55:29 GMT-0700 (Pacific Daylight Time)","304111","Untrustworthy,Trustworthy","","297","","","","decision","","<div class='trialDiv'><img src='Fruit/lime.png'><br><font class='baseline'><strong>Limin' Large</strong><p>Choose number of points to bet.</font><div class='respPicDiv'><img src='img/responseButtonOffersNo0L.png' class='respPic'></div></div>","1","10","Limin' Large","Fruit/lime.png","Lost","0.35,0.8","14","0.35","130","28","",""
"html-keyboard-response","92","112394","0.0-11.0-2.27","63fac97f0d4e8f6bfd753d90","bdp_rwlrn","Wed Mar 15 2023 20:55:29 GMT-0700 (Pacific Daylight Time)","304111","Untrustworthy,Trustworthy","","null","","","","decisionFB","","<div class='trialDiv'><img src='Fruit/lime.png'><br><font class='baseline'><strong>Limin' Large</strong><p>Choose number of points to bet.</font><div class='respPicDiv'><img src='img/responseButtonOffersNo0L1.png' class='respPic'></div></div>","null","10","Limin' Large","Fruit/lime.png","Lost","0.35,0.8","14","0.35","129","28","",""
"html-keyboard-response","93","113395","0.0-11.0-3.27","63fac97f0d4e8f6bfd753d90","bdp_rwlrn","Wed Mar 15 2023 20:55:29 GMT-0700 (Pacific Daylight Time)","304111","Untrustworthy,Trustworthy","","null","","","","feedback","","<div class='respPicDiv'><img src='img/responseButtonOffersNo0_wht.png' class='respPic'></div><div class='trialDiv'><img src='Fruit/lime.png'><br><font class='baseline'><strong>Limin' Large</strong><p><strong><font class='negOutcome'>You LOST</font><p>You bet: 1</strong></font> &nbsp; &nbsp; &nbsp; &nbsp; &nbsp; &nbsp;<font class='negOutcome'>You receive: <strong>0</strong></font></div>","null","10","Limin' Large","Fruit/lime.png","Lost","0.35,0.8","14","0.35","129","28","",""
"html-keyboard-response","94","113604","0.0-11.0-1.28","63fac97f0d4e8f6bfd753d90","bdp_rwlrn","Wed Mar 15 2023 20:55:29 GMT-0700 (Pacific Daylight Time)","304111","Untrustworthy,Trustworthy","","207","","","","decision","","<div class='trialDiv'><img src='Fruit/plums1.png'><br><font class='baseline'><strong>Plum Powerball</strong><p>Choose number of points to bet.</font><div class='respPicDiv'><img src='img/responseButtonOffersNo0L.png' class='respPic'></div></div>","1","10","Plum Powerball","Fruit/plums1.png","Won","0.8,0.35","13","0.8","134","29","",""
"html-keyboard-response","95","113855","0.0-11.0-2.28","63fac97f0d4e8f6bfd753d90","bdp_rwlrn","Wed Mar 15 2023 20:55:29 GMT-0700 (Pacific Daylight Time)","304111","Untrustworthy,Trustworthy","","null","","","","decisionFB","","<div class='trialDiv'><img src='Fruit/plums1.png'><br><font class='baseline'><strong>Plum Powerball</strong><p>Choose number of points to bet.</font><div class='respPicDiv'><img src='img/responseButtonOffersNo0L1.png' class='respPic'></div></div>","null","10","Plum Powerball","Fruit/plums1.png","Won","0.8,0.35","13","0.8","133","29","",""
"html-keyboard-response","96","114856","0.0-11.0-3.28","63fac97f0d4e8f6bfd753d90","bdp_rwlrn","Wed Mar 15 2023 20:55:29 GMT-0700 (Pacific Daylight Time)","304111","Untrustworthy,Trustworthy","","null","","","","feedback","","<div class='respPicDiv'><img src='img/responseButtonOffersNo0_wht.png' class='respPic'></div><div class='trialDiv'><img src='Fruit/plums1.png'><br><font class='baseline'><strong>Plum Powerball</strong><p><strong><font class='posOutcome'>You WON</font><p>You bet: 1</strong></font> &nbsp; &nbsp; &nbsp; &nbsp; &nbsp; &nbsp;<font class='posOutcome'>you receive: <strong>2</strong></font></div>","null","10","Plum Powerball","Fruit/plums1.png","Won","0.8,0.35","13","0.8","135","29","",""
"html-keyboard-response","97","115243","0.0-11.0-1.29","63fac97f0d4e8f6bfd753d90","bdp_rwlrn","Wed Mar 15 2023 20:55:29 GMT-0700 (Pacific Daylight Time)","304111","Untrustworthy,Trustworthy","","386","","","","decision","","<div class='trialDiv'><img src='Fruit/lemon.png'><br><font class='baseline'><strong>Lucky Lemons</strong><p>Choose number of points to bet.</font><div class='respPicDiv'><img src='img/responseButtonOffersNo0L.png' class='respPic'></div></div>","1","10","Lucky Lemons","Fruit/lemon.png","Won","0.2,0.8","8","0.2","140","30","",""
"html-keyboard-response","98","115495","0.0-11.0-2.29","63fac97f0d4e8f6bfd753d90","bdp_rwlrn","Wed Mar 15 2023 20:55:29 GMT-0700 (Pacific Daylight Time)","304111","Untrustworthy,Trustworthy","","null","","","","decisionFB","","<div class='trialDiv'><img src='Fruit/lemon.png'><br><font class='baseline'><strong>Lucky Lemons</strong><p>Choose number of points to bet.</font><div class='respPicDiv'><img src='img/responseButtonOffersNo0L1.png' class='respPic'></div></div>","null","10","Lucky Lemons","Fruit/lemon.png","Won","0.2,0.8","8","0.2","139","30","",""
"html-keyboard-response","99","116496","0.0-11.0-3.29","63fac97f0d4e8f6bfd753d90","bdp_rwlrn","Wed Mar 15 2023 20:55:29 GMT-0700 (Pacific Daylight Time)","304111","Untrustworthy,Trustworthy","","null","","","","feedback","","<div class='respPicDiv'><img src='img/responseButtonOffersNo0_wht.png' class='respPic'></div><div class='trialDiv'><img src='Fruit/lemon.png'><br><font class='baseline'><strong>Lucky Lemons</strong><p><strong><font class='posOutcome'>You WON</font><p>You bet: 1</strong></font> &nbsp; &nbsp; &nbsp; &nbsp; &nbsp; &nbsp;<font class='posOutcome'>you receive: <strong>2</strong></font></div>","null","10","Lucky Lemons","Fruit/lemon.png","Won","0.2,0.8","8","0.2","141","30","",""
"html-keyboard-response","100","117022","0.0-11.0-1.30","63fac97f0d4e8f6bfd753d90","bdp_rwlrn","Wed Mar 15 2023 20:55:29 GMT-0700 (Pacific Daylight Time)","304111","Untrustworthy,Trustworthy","","526","","","","decision","","<div class='trialDiv'><img src='Fruit/lime.png'><br><font class='baseline'><strong>Limin' Large</strong><p>Choose number of points to bet.</font><div class='respPicDiv'><img src='img/responseButtonOffersNo0L.png' class='respPic'></div></div>","1","11","Limin' Large","Fruit/lime.png","Lost","0.35,0.8","14","0.35","146","31","",""
"html-keyboard-response","101","117273","0.0-11.0-2.30","63fac97f0d4e8f6bfd753d90","bdp_rwlrn","Wed Mar 15 2023 20:55:29 GMT-0700 (Pacific Daylight Time)","304111","Untrustworthy,Trustworthy","","null","","","","decisionFB","","<div class='trialDiv'><img src='Fruit/lime.png'><br><font class='baseline'><strong>Limin' Large</strong><p>Choose number of points to bet.</font><div class='respPicDiv'><img src='img/responseButtonOffersNo0L1.png' class='respPic'></div></div>","null","11","Limin' Large","Fruit/lime.png","Lost","0.35,0.8","14","0.35","145","31","",""
"html-keyboard-response","102","118275","0.0-11.0-3.30","63fac97f0d4e8f6bfd753d90","bdp_rwlrn","Wed Mar 15 2023 20:55:29 GMT-0700 (Pacific Daylight Time)","304111","Untrustworthy,Trustworthy","","null","","","","feedback","","<div class='respPicDiv'><img src='img/responseButtonOffersNo0_wht.png' class='respPic'></div><div class='trialDiv'><img src='Fruit/lime.png'><br><font class='baseline'><strong>Limin' Large</strong><p><strong><font class='negOutcome'>You LOST</font><p>You bet: 1</strong></font> &nbsp; &nbsp; &nbsp; &nbsp; &nbsp; &nbsp;<font class='negOutcome'>You receive: <strong>0</strong></font></div>","null","11","Limin' Large","Fruit/lime.png","Lost","0.35,0.8","14","0.35","145","31","",""
"html-keyboard-response","103","119062","0.0-11.0-1.31","63fac97f0d4e8f6bfd753d90","bdp_rwlrn","Wed Mar 15 2023 20:55:29 GMT-0700 (Pacific Daylight Time)","304111","Untrustworthy,Trustworthy","","787","","","","decision","","<div class='trialDiv'><img src='Fruit/plums1.png'><br><font class='baseline'><strong>Plum Powerball</strong><p>Choose number of points to bet.</font><div class='respPicDiv'><img src='img/responseButtonOffersNo0L.png' class='respPic'></div></div>","3","11","Plum Powerball","Fruit/plums1.png","Won","0.8,0.35","13","0.8","150","32","",""
"html-keyboard-response","104","119313","0.0-11.0-2.31","63fac97f0d4e8f6bfd753d90","bdp_rwlrn","Wed Mar 15 2023 20:55:29 GMT-0700 (Pacific Daylight Time)","304111","Untrustworthy,Trustworthy","","null","","","","decisionFB","","<div class='trialDiv'><img src='Fruit/plums1.png'><br><font class='baseline'><strong>Plum Powerball</strong><p>Choose number of points to bet.</font><div class='respPicDiv'><img src='img/responseButtonOffersNo0L3.png' class='respPic'></div></div>","null","11","Plum Powerball","Fruit/plums1.png","Won","0.8,0.35","13","0.8","147","32","",""
"html-keyboard-response","105","120314","0.0-11.0-3.31","63fac97f0d4e8f6bfd753d90","bdp_rwlrn","Wed Mar 15 2023 20:55:29 GMT-0700 (Pacific Daylight Time)","304111","Untrustworthy,Trustworthy","","null","","","","feedback","","<div class='respPicDiv'><img src='img/responseButtonOffersNo0_wht.png' class='respPic'></div><div class='trialDiv'><img src='Fruit/plums1.png'><br><font class='baseline'><strong>Plum Powerball</strong><p><strong><font class='posOutcome'>You WON</font><p>You bet: 3</strong></font> &nbsp; &nbsp; &nbsp; &nbsp; &nbsp; &nbsp;<font class='posOutcome'>you receive: <strong>6</strong></font></div>","null","11","Plum Powerball","Fruit/plums1.png","Won","0.8,0.35","13","0.8","153","32","",""
"html-keyboard-response","106","120752","0.0-11.0-1.32","63fac97f0d4e8f6bfd753d90","bdp_rwlrn","Wed Mar 15 2023 20:55:29 GMT-0700 (Pacific Daylight Time)","304111","Untrustworthy,Trustworthy","","437","","","","decision","","<div class='trialDiv'><img src='Fruit/lemon.png'><br><font class='baseline'><strong>Lucky Lemons</strong><p>Choose number of points to bet.</font><div class='respPicDiv'><img src='img/responseButtonOffersNo0L.png' class='respPic'></div></div>","1","11","Lucky Lemons","Fruit/lemon.png","Lost","0.2,0.8","8","0.2","158","33","",""
"html-keyboard-response","107","121004","0.0-11.0-2.32","63fac97f0d4e8f6bfd753d90","bdp_rwlrn","Wed Mar 15 2023 20:55:29 GMT-0700 (Pacific Daylight Time)","304111","Untrustworthy,Trustworthy","","null","","","","decisionFB","","<div class='trialDiv'><img src='Fruit/lemon.png'><br><font class='baseline'><strong>Lucky Lemons</strong><p>Choose number of points to bet.</font><div class='respPicDiv'><img src='img/responseButtonOffersNo0L1.png' class='respPic'></div></div>","null","11","Lucky Lemons","Fruit/lemon.png","Lost","0.2,0.8","8","0.2","157","33","",""
"html-keyboard-response","108","122005","0.0-11.0-3.32","63fac97f0d4e8f6bfd753d90","bdp_rwlrn","Wed Mar 15 2023 20:55:29 GMT-0700 (Pacific Daylight Time)","304111","Untrustworthy,Trustworthy","","null","","","","feedback","","<div class='respPicDiv'><img src='img/responseButtonOffersNo0_wht.png' class='respPic'></div><div class='trialDiv'><img src='Fruit/lemon.png'><br><font class='baseline'><strong>Lucky Lemons</strong><p><strong><font class='negOutcome'>You LOST</font><p>You bet: 1</strong></font> &nbsp; &nbsp; &nbsp; &nbsp; &nbsp; &nbsp;<font class='negOutcome'>You receive: <strong>0</strong></font></div>","null","11","Lucky Lemons","Fruit/lemon.png","Lost","0.2,0.8","8","0.2","157","33","",""
"html-keyboard-response","109","122422","0.0-11.0-1.33","63fac97f0d4e8f6bfd753d90","bdp_rwlrn","Wed Mar 15 2023 20:55:29 GMT-0700 (Pacific Daylight Time)","304111","Untrustworthy,Trustworthy","","417","","","","decision","","<div class='trialDiv'><img src='Fruit/plums1.png'><br><font class='baseline'><strong>Plum Powerball</strong><p>Choose number of points to bet.</font><div class='respPicDiv'><img src='img/responseButtonOffersNo0L.png' class='respPic'></div></div>","1","12","Plum Powerball","Fruit/plums1.png","Lost","0.8,0.35","13","0.8","162","34","",""
"html-keyboard-response","110","122673","0.0-11.0-2.33","63fac97f0d4e8f6bfd753d90","bdp_rwlrn","Wed Mar 15 2023 20:55:29 GMT-0700 (Pacific Daylight Time)","304111","Untrustworthy,Trustworthy","","null","","","","decisionFB","","<div class='trialDiv'><img src='Fruit/plums1.png'><br><font class='baseline'><strong>Plum Powerball</strong><p>Choose number of points to bet.</font><div class='respPicDiv'><img src='img/responseButtonOffersNo0L1.png' class='respPic'></div></div>","null","12","Plum Powerball","Fruit/plums1.png","Lost","0.8,0.35","13","0.8","161","34","",""
"html-keyboard-response","111","123675","0.0-11.0-3.33","63fac97f0d4e8f6bfd753d90","bdp_rwlrn","Wed Mar 15 2023 20:55:29 GMT-0700 (Pacific Daylight Time)","304111","Untrustworthy,Trustworthy","","null","","","","feedback","","<div class='respPicDiv'><img src='img/responseButtonOffersNo0_wht.png' class='respPic'></div><div class='trialDiv'><img src='Fruit/plums1.png'><br><font class='baseline'><strong>Plum Powerball</strong><p><strong><font class='negOutcome'>You LOST</font><p>You bet: 1</strong></font> &nbsp; &nbsp; &nbsp; &nbsp; &nbsp; &nbsp;<font class='negOutcome'>You receive: <strong>0</strong></font></div>","null","12","Plum Powerball","Fruit/plums1.png","Lost","0.8,0.35","13","0.8","161","34","",""
"html-keyboard-response","112","124072","0.0-11.0-1.34","63fac97f0d4e8f6bfd753d90","bdp_rwlrn","Wed Mar 15 2023 20:55:29 GMT-0700 (Pacific Daylight Time)","304111","Untrustworthy,Trustworthy","","396","","","","decision","","<div class='trialDiv'><img src='Fruit/lemon.png'><br><font class='baseline'><strong>Lucky Lemons</strong><p>Choose number of points to bet.</font><div class='respPicDiv'><img src='img/responseButtonOffersNo0L.png' class='respPic'></div></div>","1","12","Lucky Lemons","Fruit/lemon.png","Won","0.2,0.8","8","0.2","166","35","",""
"html-keyboard-response","113","124323","0.0-11.0-2.34","63fac97f0d4e8f6bfd753d90","bdp_rwlrn","Wed Mar 15 2023 20:55:29 GMT-0700 (Pacific Daylight Time)","304111","Untrustworthy,Trustworthy","","null","","","","decisionFB","","<div class='trialDiv'><img src='Fruit/lemon.png'><br><font class='baseline'><strong>Lucky Lemons</strong><p>Choose number of points to bet.</font><div class='respPicDiv'><img src='img/responseButtonOffersNo0L1.png' class='respPic'></div></div>","null","12","Lucky Lemons","Fruit/lemon.png","Won","0.2,0.8","8","0.2","165","35","",""
"html-keyboard-response","114","125325","0.0-11.0-3.34","63fac97f0d4e8f6bfd753d90","bdp_rwlrn","Wed Mar 15 2023 20:55:29 GMT-0700 (Pacific Daylight Time)","304111","Untrustworthy,Trustworthy","","null","","","","feedback","","<div class='respPicDiv'><img src='img/responseButtonOffersNo0_wht.png' class='respPic'></div><div class='trialDiv'><img src='Fruit/lemon.png'><br><font class='baseline'><strong>Lucky Lemons</strong><p><strong><font class='posOutcome'>You WON</font><p>You bet: 1</strong></font> &nbsp; &nbsp; &nbsp; &nbsp; &nbsp; &nbsp;<font class='posOutcome'>you receive: <strong>2</strong></font></div>","null","12","Lucky Lemons","Fruit/lemon.png","Won","0.2,0.8","8","0.2","167","35","",""
"html-keyboard-response","115","125701","0.0-11.0-1.35","63fac97f0d4e8f6bfd753d90","bdp_rwlrn","Wed Mar 15 2023 20:55:29 GMT-0700 (Pacific Daylight Time)","304111","Untrustworthy,Trustworthy","","376","","","","decision","","<div class='trialDiv'><img src='Fruit/lime.png'><br><font class='baseline'><strong>Limin' Large</strong><p>Choose number of points to bet.</font><div class='respPicDiv'><img src='img/responseButtonOffersNo0L.png' class='respPic'></div></div>","1","12","Limin' Large","Fruit/lime.png","Won","0.35,0.8","14","0.35","172","36","",""
"html-keyboard-response","116","125952","0.0-11.0-2.35","63fac97f0d4e8f6bfd753d90","bdp_rwlrn","Wed Mar 15 2023 20:55:29 GMT-0700 (Pacific Daylight Time)","304111","Untrustworthy,Trustworthy","","null","","","","decisionFB","","<div class='trialDiv'><img src='Fruit/lime.png'><br><font class='baseline'><strong>Limin' Large</strong><p>Choose number of points to bet.</font><div class='respPicDiv'><img src='img/responseButtonOffersNo0L1.png' class='respPic'></div></div>","null","12","Limin' Large","Fruit/lime.png","Won","0.35,0.8","14","0.35","171","36","",""
"html-keyboard-response","117","126953","0.0-11.0-3.35","63fac97f0d4e8f6bfd753d90","bdp_rwlrn","Wed Mar 15 2023 20:55:29 GMT-0700 (Pacific Daylight Time)","304111","Untrustworthy,Trustworthy","","null","","","","feedback","","<div class='respPicDiv'><img src='img/responseButtonOffersNo0_wht.png' class='respPic'></div><div class='trialDiv'><img src='Fruit/lime.png'><br><font class='baseline'><strong>Limin' Large</strong><p><strong><font class='posOutcome'>You WON</font><p>You bet: 1</strong></font> &nbsp; &nbsp; &nbsp; &nbsp; &nbsp; &nbsp;<font class='posOutcome'>you receive: <strong>2</strong></font></div>","null","12","Limin' Large","Fruit/lime.png","Won","0.35,0.8","14","0.35","173","36","",""
"html-keyboard-response","118","127702","0.0-11.0-1.36","63fac97f0d4e8f6bfd753d90","bdp_rwlrn","Wed Mar 15 2023 20:55:29 GMT-0700 (Pacific Daylight Time)","304111","Untrustworthy,Trustworthy","","748","","","","decision","","<div class='trialDiv'><img src='Fruit/lemon.png'><br><font class='baseline'><strong>Lucky Lemons</strong><p>Choose number of points to bet.</font><div class='respPicDiv'><img src='img/responseButtonOffersNo0L.png' class='respPic'></div></div>","1","13","Lucky Lemons","Fruit/lemon.png","Won","0.2,0.8","8","0.2","178","37","",""
"html-keyboard-response","119","127953","0.0-11.0-2.36","63fac97f0d4e8f6bfd753d90","bdp_rwlrn","Wed Mar 15 2023 20:55:29 GMT-0700 (Pacific Daylight Time)","304111","Untrustworthy,Trustworthy","","null","","","","decisionFB","","<div class='trialDiv'><img src='Fruit/lemon.png'><br><font class='baseline'><strong>Lucky Lemons</strong><p>Choose number of points to bet.</font><div class='respPicDiv'><img src='img/responseButtonOffersNo0L1.png' class='respPic'></div></div>","null","13","Lucky Lemons","Fruit/lemon.png","Won","0.2,0.8","8","0.2","177","37","",""
"html-keyboard-response","120","128955","0.0-11.0-3.36","63fac97f0d4e8f6bfd753d90","bdp_rwlrn","Wed Mar 15 2023 20:55:29 GMT-0700 (Pacific Daylight Time)","304111","Untrustworthy,Trustworthy","","null","","","","feedback","","<div class='respPicDiv'><img src='img/responseButtonOffersNo0_wht.png' class='respPic'></div><div class='trialDiv'><img src='Fruit/lemon.png'><br><font class='baseline'><strong>Lucky Lemons</strong><p><strong><font class='posOutcome'>You WON</font><p>You bet: 1</strong></font> &nbsp; &nbsp; &nbsp; &nbsp; &nbsp; &nbsp;<font class='posOutcome'>you receive: <strong>2</strong></font></div>","null","13","Lucky Lemons","Fruit/lemon.png","Won","0.2,0.8","8","0.2","179","37","",""
"html-keyboard-response","121","129491","0.0-11.0-1.37","63fac97f0d4e8f6bfd753d90","bdp_rwlrn","Wed Mar 15 2023 20:55:29 GMT-0700 (Pacific Daylight Time)","304111","Untrustworthy,Trustworthy","","535","","","","decision","","<div class='trialDiv'><img src='Fruit/lime.png'><br><font class='baseline'><strong>Limin' Large</strong><p>Choose number of points to bet.</font><div class='respPicDiv'><img src='img/responseButtonOffersNo0L.png' class='respPic'></div></div>","1","13","Limin' Large","Fruit/lime.png","Lost","0.35,0.8","14","0.35","184","38","",""
"html-keyboard-response","122","129741","0.0-11.0-2.37","63fac97f0d4e8f6bfd753d90","bdp_rwlrn","Wed Mar 15 2023 20:55:29 GMT-0700 (Pacific Daylight Time)","304111","Untrustworthy,Trustworthy","","null","","","","decisionFB","","<div class='trialDiv'><img src='Fruit/lime.png'><br><font class='baseline'><strong>Limin' Large</strong><p>Choose number of points to bet.</font><div class='respPicDiv'><img src='img/responseButtonOffersNo0L1.png' class='respPic'></div></div>","null","13","Limin' Large","Fruit/lime.png","Lost","0.35,0.8","14","0.35","183","38","",""
"html-keyboard-response","123","130742","0.0-11.0-3.37","63fac97f0d4e8f6bfd753d90","bdp_rwlrn","Wed Mar 15 2023 20:55:29 GMT-0700 (Pacific Daylight Time)","304111","Untrustworthy,Trustworthy","","null","","","","feedback","","<div class='respPicDiv'><img src='img/responseButtonOffersNo0_wht.png' class='respPic'></div><div class='trialDiv'><img src='Fruit/lime.png'><br><font class='baseline'><strong>Limin' Large</strong><p><strong><font class='negOutcome'>You LOST</font><p>You bet: 1</strong></font> &nbsp; &nbsp; &nbsp; &nbsp; &nbsp; &nbsp;<font class='negOutcome'>You receive: <strong>0</strong></font></div>","null","13","Limin' Large","Fruit/lime.png","Lost","0.35,0.8","14","0.35","183","38","",""
"html-keyboard-response","124","131171","0.0-11.0-1.38","63fac97f0d4e8f6bfd753d90","bdp_rwlrn","Wed Mar 15 2023 20:55:29 GMT-0700 (Pacific Daylight Time)","304111","Untrustworthy,Trustworthy","","427","","","","decision","","<div class='trialDiv'><img src='Fruit/plums1.png'><br><font class='baseline'><strong>Plum Powerball</strong><p>Choose number of points to bet.</font><div class='respPicDiv'><img src='img/responseButtonOffersNo0L.png' class='respPic'></div></div>","4","13","Plum Powerball","Fruit/plums1.png","Won","0.8,0.35","13","0.8","188","39","",""
"html-keyboard-response","125","131423","0.0-11.0-2.38","63fac97f0d4e8f6bfd753d90","bdp_rwlrn","Wed Mar 15 2023 20:55:29 GMT-0700 (Pacific Daylight Time)","304111","Untrustworthy,Trustworthy","","null","","","","decisionFB","","<div class='trialDiv'><img src='Fruit/plums1.png'><br><font class='baseline'><strong>Plum Powerball</strong><p>Choose number of points to bet.</font><div class='respPicDiv'><img src='img/responseButtonOffersNo0L4.png' class='respPic'></div></div>","null","13","Plum Powerball","Fruit/plums1.png","Won","0.8,0.35","13","0.8","184","39","",""
"html-keyboard-response","126","132424","0.0-11.0-3.38","63fac97f0d4e8f6bfd753d90","bdp_rwlrn","Wed Mar 15 2023 20:55:29 GMT-0700 (Pacific Daylight Time)","304111","Untrustworthy,Trustworthy","","null","","","","feedback","","<div class='respPicDiv'><img src='img/responseButtonOffersNo0_wht.png' class='respPic'></div><div class='trialDiv'><img src='Fruit/plums1.png'><br><font class='baseline'><strong>Plum Powerball</strong><p><strong><font class='posOutcome'>You WON</font><p>You bet: 4</strong></font> &nbsp; &nbsp; &nbsp; &nbsp; &nbsp; &nbsp;<font class='posOutcome'>you receive: <strong>8</strong></font></div>","null","13","Plum Powerball","Fruit/plums1.png","Won","0.8,0.35","13","0.8","192","39","",""
"html-keyboard-response","127","132751","0.0-11.0-1.39","63fac97f0d4e8f6bfd753d90","bdp_rwlrn","Wed Mar 15 2023 20:55:29 GMT-0700 (Pacific Daylight Time)","304111","Untrustworthy,Trustworthy","","326","","","","decision","","<div class='trialDiv'><img src='Fruit/lemon.png'><br><font class='baseline'><strong>Lucky Lemons</strong><p>Choose number of points to bet.</font><div class='respPicDiv'><img src='img/responseButtonOffersNo0L.png' class='respPic'></div></div>","1","14","Lucky Lemons","Fruit/lemon.png","Won","0.2,0.8","8","0.2","197","40","",""
"html-keyboard-response","128","133002","0.0-11.0-2.39","63fac97f0d4e8f6bfd753d90","bdp_rwlrn","Wed Mar 15 2023 20:55:29 GMT-0700 (Pacific Daylight Time)","304111","Untrustworthy,Trustworthy","","null","","","","decisionFB","","<div class='trialDiv'><img src='Fruit/lemon.png'><br><font class='baseline'><strong>Lucky Lemons</strong><p>Choose number of points to bet.</font><div class='respPicDiv'><img src='img/responseButtonOffersNo0L1.png' class='respPic'></div></div>","null","14","Lucky Lemons","Fruit/lemon.png","Won","0.2,0.8","8","0.2","196","40","",""
"html-keyboard-response","129","134004","0.0-11.0-3.39","63fac97f0d4e8f6bfd753d90","bdp_rwlrn","Wed Mar 15 2023 20:55:29 GMT-0700 (Pacific Daylight Time)","304111","Untrustworthy,Trustworthy","","null","","","","feedback","","<div class='respPicDiv'><img src='img/responseButtonOffersNo0_wht.png' class='respPic'></div><div class='trialDiv'><img src='Fruit/lemon.png'><br><font class='baseline'><strong>Lucky Lemons</strong><p><strong><font class='posOutcome'>You WON</font><p>You bet: 1</strong></font> &nbsp; &nbsp; &nbsp; &nbsp; &nbsp; &nbsp;<font class='posOutcome'>you receive: <strong>2</strong></font></div>","null","14","Lucky Lemons","Fruit/lemon.png","Won","0.2,0.8","8","0.2","198","40","",""
"html-keyboard-response","130","134281","0.0-11.0-1.40","63fac97f0d4e8f6bfd753d90","bdp_rwlrn","Wed Mar 15 2023 20:55:29 GMT-0700 (Pacific Daylight Time)","304111","Untrustworthy,Trustworthy","","277","","","","decision","","<div class='trialDiv'><img src='Fruit/plums1.png'><br><font class='baseline'><strong>Plum Powerball</strong><p>Choose number of points to bet.</font><div class='respPicDiv'><img src='img/responseButtonOffersNo0L.png' class='respPic'></div></div>","1","14","Plum Powerball","Fruit/plums1.png","Lost","0.8,0.35","13","0.8","203","41","",""
"html-keyboard-response","131","134532","0.0-11.0-2.40","63fac97f0d4e8f6bfd753d90","bdp_rwlrn","Wed Mar 15 2023 20:55:29 GMT-0700 (Pacific Daylight Time)","304111","Untrustworthy,Trustworthy","","null","","","","decisionFB","","<div class='trialDiv'><img src='Fruit/plums1.png'><br><font class='baseline'><strong>Plum Powerball</strong><p>Choose number of points to bet.</font><div class='respPicDiv'><img src='img/responseButtonOffersNo0L1.png' class='respPic'></div></div>","null","14","Plum Powerball","Fruit/plums1.png","Lost","0.8,0.35","13","0.8","202","41","",""
"html-keyboard-response","132","135533","0.0-11.0-3.40","63fac97f0d4e8f6bfd753d90","bdp_rwlrn","Wed Mar 15 2023 20:55:29 GMT-0700 (Pacific Daylight Time)","304111","Untrustworthy,Trustworthy","","null","","","","feedback","","<div class='respPicDiv'><img src='img/responseButtonOffersNo0_wht.png' class='respPic'></div><div class='trialDiv'><img src='Fruit/plums1.png'><br><font class='baseline'><strong>Plum Powerball</strong><p><strong><font class='negOutcome'>You LOST</font><p>You bet: 1</strong></font> &nbsp; &nbsp; &nbsp; &nbsp; &nbsp; &nbsp;<font class='negOutcome'>You receive: <strong>0</strong></font></div>","null","14","Plum Powerball","Fruit/plums1.png","Lost","0.8,0.35","13","0.8","202","41","",""
"html-keyboard-response","133","137100","0.0-11.0-1.41","63fac97f0d4e8f6bfd753d90","bdp_rwlrn","Wed Mar 15 2023 20:55:29 GMT-0700 (Pacific Daylight Time)","304111","Untrustworthy,Trustworthy","","1567","","","","decision","","<div class='trialDiv'><img src='Fruit/lime.png'><br><font class='baseline'><strong>Limin' Large</strong><p>Choose number of points to bet.</font><div class='respPicDiv'><img src='img/responseButtonOffersNo0L.png' class='respPic'></div></div>","1","14","Limin' Large","Fruit/lime.png","Won","0.35,0.8","14","0.35","207","42","",""
"html-keyboard-response","134","137351","0.0-11.0-2.41","63fac97f0d4e8f6bfd753d90","bdp_rwlrn","Wed Mar 15 2023 20:55:29 GMT-0700 (Pacific Daylight Time)","304111","Untrustworthy,Trustworthy","","null","","","","decisionFB","","<div class='trialDiv'><img src='Fruit/lime.png'><br><font class='baseline'><strong>Limin' Large</strong><p>Choose number of points to bet.</font><div class='respPicDiv'><img src='img/responseButtonOffersNo0L1.png' class='respPic'></div></div>","null","14","Limin' Large","Fruit/lime.png","Won","0.35,0.8","14","0.35","206","42","",""
"html-keyboard-response","135","138352","0.0-11.0-3.41","63fac97f0d4e8f6bfd753d90","bdp_rwlrn","Wed Mar 15 2023 20:55:29 GMT-0700 (Pacific Daylight Time)","304111","Untrustworthy,Trustworthy","","null","","","","feedback","","<div class='respPicDiv'><img src='img/responseButtonOffersNo0_wht.png' class='respPic'></div><div class='trialDiv'><img src='Fruit/lime.png'><br><font class='baseline'><strong>Limin' Large</strong><p><strong><font class='posOutcome'>You WON</font><p>You bet: 1</strong></font> &nbsp; &nbsp; &nbsp; &nbsp; &nbsp; &nbsp;<font class='posOutcome'>you receive: <strong>2</strong></font></div>","null","14","Limin' Large","Fruit/lime.png","Won","0.35,0.8","14","0.35","208","42","",""
"html-keyboard-response","136","138740","0.0-11.0-1.42","63fac97f0d4e8f6bfd753d90","bdp_rwlrn","Wed Mar 15 2023 20:55:29 GMT-0700 (Pacific Daylight Time)","304111","Untrustworthy,Trustworthy","","388","","","","decision","","<div class='trialDiv'><img src='Fruit/lemon.png'><br><font class='baseline'><strong>Lucky Lemons</strong><p>Choose number of points to bet.</font><div class='respPicDiv'><img src='img/responseButtonOffersNo0L.png' class='respPic'></div></div>","2","15","Lucky Lemons","Fruit/lemon.png","Won","0.2,0.8","8","0.2","213","43","",""
"html-keyboard-response","137","138990","0.0-11.0-2.42","63fac97f0d4e8f6bfd753d90","bdp_rwlrn","Wed Mar 15 2023 20:55:29 GMT-0700 (Pacific Daylight Time)","304111","Untrustworthy,Trustworthy","","null","","","","decisionFB","","<div class='trialDiv'><img src='Fruit/lemon.png'><br><font class='baseline'><strong>Lucky Lemons</strong><p>Choose number of points to bet.</font><div class='respPicDiv'><img src='img/responseButtonOffersNo0L2.png' class='respPic'></div></div>","null","15","Lucky Lemons","Fruit/lemon.png","Won","0.2,0.8","8","0.2","211","43","",""
"html-keyboard-response","138","139992","0.0-11.0-3.42","63fac97f0d4e8f6bfd753d90","bdp_rwlrn","Wed Mar 15 2023 20:55:29 GMT-0700 (Pacific Daylight Time)","304111","Untrustworthy,Trustworthy","","null","","","","feedback","","<div class='respPicDiv'><img src='img/responseButtonOffersNo0_wht.png' class='respPic'></div><div class='trialDiv'><img src='Fruit/lemon.png'><br><font class='baseline'><strong>Lucky Lemons</strong><p><strong><font class='posOutcome'>You WON</font><p>You bet: 2</strong></font> &nbsp; &nbsp; &nbsp; &nbsp; &nbsp; &nbsp;<font class='posOutcome'>you receive: <strong>4</strong></font></div>","null","15","Lucky Lemons","Fruit/lemon.png","Won","0.2,0.8","8","0.2","215","43","",""
"html-keyboard-response","139","140280","0.0-11.0-1.43","63fac97f0d4e8f6bfd753d90","bdp_rwlrn","Wed Mar 15 2023 20:55:29 GMT-0700 (Pacific Daylight Time)","304111","Untrustworthy,Trustworthy","","287","","","","decision","","<div class='trialDiv'><img src='Fruit/lime.png'><br><font class='baseline'><strong>Limin' Large</strong><p>Choose number of points to bet.</font><div class='respPicDiv'><img src='img/responseButtonOffersNo0L.png' class='respPic'></div></div>","3","15","Limin' Large","Fruit/lime.png","Won","0.35,0.8","14","0.35","220","44","",""
"html-keyboard-response","140","140531","0.0-11.0-2.43","63fac97f0d4e8f6bfd753d90","bdp_rwlrn","Wed Mar 15 2023 20:55:29 GMT-0700 (Pacific Daylight Time)","304111","Untrustworthy,Trustworthy","","null","","","","decisionFB","","<div class='trialDiv'><img src='Fruit/lime.png'><br><font class='baseline'><strong>Limin' Large</strong><p>Choose number of points to bet.</font><div class='respPicDiv'><img src='img/responseButtonOffersNo0L3.png' class='respPic'></div></div>","null","15","Limin' Large","Fruit/lime.png","Won","0.35,0.8","14","0.35","217","44","",""
"html-keyboard-response","141","141533","0.0-11.0-3.43","63fac97f0d4e8f6bfd753d90","bdp_rwlrn","Wed Mar 15 2023 20:55:29 GMT-0700 (Pacific Daylight Time)","304111","Untrustworthy,Trustworthy","","null","","","","feedback","","<div class='respPicDiv'><img src='img/responseButtonOffersNo0_wht.png' class='respPic'></div><div class='trialDiv'><img src='Fruit/lime.png'><br><font class='baseline'><strong>Limin' Large</strong><p><strong><font class='posOutcome'>You WON</font><p>You bet: 3</strong></font> &nbsp; &nbsp; &nbsp; &nbsp; &nbsp; &nbsp;<font class='posOutcome'>you receive: <strong>6</strong></font></div>","null","15","Limin' Large","Fruit/lime.png","Won","0.35,0.8","14","0.35","223","44","",""
"html-keyboard-response","142","141779","0.0-11.0-1.44","63fac97f0d4e8f6bfd753d90","bdp_rwlrn","Wed Mar 15 2023 20:55:29 GMT-0700 (Pacific Daylight Time)","304111","Untrustworthy,Trustworthy","","246","","","","decision","","<div class='trialDiv'><img src='Fruit/plums1.png'><br><font class='baseline'><strong>Plum Powerball</strong><p>Choose number of points to bet.</font><div class='respPicDiv'><img src='img/responseButtonOffersNo0L.png' class='respPic'></div></div>","4","15","Plum Powerball","Fruit/plums1.png","Lost","0.8,0.35","13","0.8","228","45","",""
"html-keyboard-response","143","142031","0.0-11.0-2.44","63fac97f0d4e8f6bfd753d90","bdp_rwlrn","Wed Mar 15 2023 20:55:29 GMT-0700 (Pacific Daylight Time)","304111","Untrustworthy,Trustworthy","","null","","","","decisionFB","","<div class='trialDiv'><img src='Fruit/plums1.png'><br><font class='baseline'><strong>Plum Powerball</strong><p>Choose number of points to bet.</font><div class='respPicDiv'><img src='img/responseButtonOffersNo0L4.png' class='respPic'></div></div>","null","15","Plum Powerball","Fruit/plums1.png","Lost","0.8,0.35","13","0.8","224","45","",""
"html-keyboard-response","144","143032","0.0-11.0-3.44","63fac97f0d4e8f6bfd753d90","bdp_rwlrn","Wed Mar 15 2023 20:55:29 GMT-0700 (Pacific Daylight Time)","304111","Untrustworthy,Trustworthy","","null","","","","feedback","","<div class='respPicDiv'><img src='img/responseButtonOffersNo0_wht.png' class='respPic'></div><div class='trialDiv'><img src='Fruit/plums1.png'><br><font class='baseline'><strong>Plum Powerball</strong><p><strong><font class='negOutcome'>You LOST</font><p>You bet: 4</strong></font> &nbsp; &nbsp; &nbsp; &nbsp; &nbsp; &nbsp;<font class='negOutcome'>You receive: <strong>0</strong></font></div>","null","15","Plum Powerball","Fruit/plums1.png","Lost","0.8,0.35","13","0.8","224","45","",""
"html-keyboard-response","145","143139","0.0-11.0-1.45","63fac97f0d4e8f6bfd753d90","bdp_rwlrn","Wed Mar 15 2023 20:55:29 GMT-0700 (Pacific Daylight Time)","304111","Untrustworthy,Trustworthy","","106","","","","decision","","<div class='trialDiv'><img src='Fruit/lemon.png'><br><font class='baseline'><strong>Lucky Lemons</strong><p>Choose number of points to bet.</font><div class='respPicDiv'><img src='img/responseButtonOffersNo0L.png' class='respPic'></div></div>","1","16","Lucky Lemons","Fruit/lemon.png","Won","0.2,0.8","8","0.2","229","46","",""
"html-keyboard-response","146","143390","0.0-11.0-2.45","63fac97f0d4e8f6bfd753d90","bdp_rwlrn","Wed Mar 15 2023 20:55:29 GMT-0700 (Pacific Daylight Time)","304111","Untrustworthy,Trustworthy","","null","","","","decisionFB","","<div class='trialDiv'><img src='Fruit/lemon.png'><br><font class='baseline'><strong>Lucky Lemons</strong><p>Choose number of points to bet.</font><div class='respPicDiv'><img src='img/responseButtonOffersNo0L1.png' class='respPic'></div></div>","null","16","Lucky Lemons","Fruit/lemon.png","Won","0.2,0.8","8","0.2","228","46","",""
"html-keyboard-response","147","144392","0.0-11.0-3.45","63fac97f0d4e8f6bfd753d90","bdp_rwlrn","Wed Mar 15 2023 20:55:29 GMT-0700 (Pacific Daylight Time)","304111","Untrustworthy,Trustworthy","","null","","","","feedback","","<div class='respPicDiv'><img src='img/responseButtonOffersNo0_wht.png' class='respPic'></div><div class='trialDiv'><img src='Fruit/lemon.png'><br><font class='baseline'><strong>Lucky Lemons</strong><p><strong><font class='posOutcome'>You WON</font><p>You bet: 1</strong></font> &nbsp; &nbsp; &nbsp; &nbsp; &nbsp; &nbsp;<font class='posOutcome'>you receive: <strong>2</strong></font></div>","null","16","Lucky Lemons","Fruit/lemon.png","Won","0.2,0.8","8","0.2","230","46","",""
"html-keyboard-response","148","144689","0.0-11.0-1.46","63fac97f0d4e8f6bfd753d90","bdp_rwlrn","Wed Mar 15 2023 20:55:29 GMT-0700 (Pacific Daylight Time)","304111","Untrustworthy,Trustworthy","","296","","","","decision","","<div class='trialDiv'><img src='Fruit/lime.png'><br><font class='baseline'><strong>Limin' Large</strong><p>Choose number of points to bet.</font><div class='respPicDiv'><img src='img/responseButtonOffersNo0L.png' class='respPic'></div></div>","2","16","Limin' Large","Fruit/lime.png","Won","0.35,0.8","14","0.35","235","47","",""
"html-keyboard-response","149","144940","0.0-11.0-2.46","63fac97f0d4e8f6bfd753d90","bdp_rwlrn","Wed Mar 15 2023 20:55:29 GMT-0700 (Pacific Daylight Time)","304111","Untrustworthy,Trustworthy","","null","","","","decisionFB","","<div class='trialDiv'><img src='Fruit/lime.png'><br><font class='baseline'><strong>Limin' Large</strong><p>Choose number of points to bet.</font><div class='respPicDiv'><img src='img/responseButtonOffersNo0L2.png' class='respPic'></div></div>","null","16","Limin' Large","Fruit/lime.png","Won","0.35,0.8","14","0.35","233","47","",""
"html-keyboard-response","150","145941","0.0-11.0-3.46","63fac97f0d4e8f6bfd753d90","bdp_rwlrn","Wed Mar 15 2023 20:55:29 GMT-0700 (Pacific Daylight Time)","304111","Untrustworthy,Trustworthy","","null","","","","feedback","","<div class='respPicDiv'><img src='img/responseButtonOffersNo0_wht.png' class='respPic'></div><div class='trialDiv'><img src='Fruit/lime.png'><br><font class='baseline'><strong>Limin' Large</strong><p><strong><font class='posOutcome'>You WON</font><p>You bet: 2</strong></font> &nbsp; &nbsp; &nbsp; &nbsp; &nbsp; &nbsp;<font class='posOutcome'>you receive: <strong>4</strong></font></div>","null","16","Limin' Large","Fruit/lime.png","Won","0.35,0.8","14","0.35","237","47","",""
"html-keyboard-response","151","146149","0.0-11.0-1.47","63fac97f0d4e8f6bfd753d90","bdp_rwlrn","Wed Mar 15 2023 20:55:29 GMT-0700 (Pacific Daylight Time)","304111","Untrustworthy,Trustworthy","","207","","","","decision","","<div class='trialDiv'><img src='Fruit/plums1.png'><br><font class='baseline'><strong>Plum Powerball</strong><p>Choose number of points to bet.</font><div class='respPicDiv'><img src='img/responseButtonOffersNo0L.png' class='respPic'></div></div>","3","16","Plum Powerball","Fruit/plums1.png","Lost","0.8,0.35","13","0.8","242","48","",""
"html-keyboard-response","152","146400","0.0-11.0-2.47","63fac97f0d4e8f6bfd753d90","bdp_rwlrn","Wed Mar 15 2023 20:55:29 GMT-0700 (Pacific Daylight Time)","304111","Untrustworthy,Trustworthy","","null","","","","decisionFB","","<div class='trialDiv'><img src='Fruit/plums1.png'><br><font class='baseline'><strong>Plum Powerball</strong><p>Choose number of points to bet.</font><div class='respPicDiv'><img src='img/responseButtonOffersNo0L3.png' class='respPic'></div></div>","null","16","Plum Powerball","Fruit/plums1.png","Lost","0.8,0.35","13","0.8","239","48","",""
"html-keyboard-response","153","147401","0.0-11.0-3.47","63fac97f0d4e8f6bfd753d90","bdp_rwlrn","Wed Mar 15 2023 20:55:29 GMT-0700 (Pacific Daylight Time)","304111","Untrustworthy,Trustworthy","","null","","","","feedback","","<div class='respPicDiv'><img src='img/responseButtonOffersNo0_wht.png' class='respPic'></div><div class='trialDiv'><img src='Fruit/plums1.png'><br><font class='baseline'><strong>Plum Powerball</strong><p><strong><font class='negOutcome'>You LOST</font><p>You bet: 3</strong></font> &nbsp; &nbsp; &nbsp; &nbsp; &nbsp; &nbsp;<font class='negOutcome'>You receive: <strong>0</strong></font></div>","null","16","Plum Powerball","Fruit/plums1.png","Lost","0.8,0.35","13","0.8","239","48","",""
"html-keyboard-response","154","147558","0.0-11.0-1.48","63fac97f0d4e8f6bfd753d90","bdp_rwlrn","Wed Mar 15 2023 20:55:29 GMT-0700 (Pacific Daylight Time)","304111","Untrustworthy,Trustworthy","","156","","","","decision","","<div class='trialDiv'><img src='Fruit/lime.png'><br><font class='baseline'><strong>Limin' Large</strong><p>Choose number of points to bet.</font><div class='respPicDiv'><img src='img/responseButtonOffersNo0L.png' class='respPic'></div></div>","1","17","Limin' Large","Fruit/lime.png","Won","0.35,0.8","14","0.35","244","49","",""
"html-keyboard-response","155","147809","0.0-11.0-2.48","63fac97f0d4e8f6bfd753d90","bdp_rwlrn","Wed Mar 15 2023 20:55:29 GMT-0700 (Pacific Daylight Time)","304111","Untrustworthy,Trustworthy","","null","","","","decisionFB","","<div class='trialDiv'><img src='Fruit/lime.png'><br><font class='baseline'><strong>Limin' Large</strong><p>Choose number of points to bet.</font><div class='respPicDiv'><img src='img/responseButtonOffersNo0L1.png' class='respPic'></div></div>","null","17","Limin' Large","Fruit/lime.png","Won","0.35,0.8","14","0.35","243","49","",""
"html-keyboard-response","156","148811","0.0-11.0-3.48","63fac97f0d4e8f6bfd753d90","bdp_rwlrn","Wed Mar 15 2023 20:55:29 GMT-0700 (Pacific Daylight Time)","304111","Untrustworthy,Trustworthy","","null","","","","feedback","","<div class='respPicDiv'><img src='img/responseButtonOffersNo0_wht.png' class='respPic'></div><div class='trialDiv'><img src='Fruit/lime.png'><br><font class='baseline'><strong>Limin' Large</strong><p><strong><font class='posOutcome'>You WON</font><p>You bet: 1</strong></font> &nbsp; &nbsp; &nbsp; &nbsp; &nbsp; &nbsp;<font class='posOutcome'>you receive: <strong>2</strong></font></div>","null","17","Limin' Large","Fruit/lime.png","Won","0.35,0.8","14","0.35","245","49","",""
"html-keyboard-response","157","149098","0.0-11.0-1.49","63fac97f0d4e8f6bfd753d90","bdp_rwlrn","Wed Mar 15 2023 20:55:29 GMT-0700 (Pacific Daylight Time)","304111","Untrustworthy,Trustworthy","","287","","","","decision","","<div class='trialDiv'><img src='Fruit/plums1.png'><br><font class='baseline'><strong>Plum Powerball</strong><p>Choose number of points to bet.</font><div class='respPicDiv'><img src='img/responseButtonOffersNo0L.png' class='respPic'></div></div>","2","17","Plum Powerball","Fruit/plums1.png","Won","0.8,0.35","13","0.8","250","50","",""
"html-keyboard-response","158","149350","0.0-11.0-2.49","63fac97f0d4e8f6bfd753d90","bdp_rwlrn","Wed Mar 15 2023 20:55:29 GMT-0700 (Pacific Daylight Time)","304111","Untrustworthy,Trustworthy","","null","","","","decisionFB","","<div class='trialDiv'><img src='Fruit/plums1.png'><br><font class='baseline'><strong>Plum Powerball</strong><p>Choose number of points to bet.</font><div class='respPicDiv'><img src='img/responseButtonOffersNo0L2.png' class='respPic'></div></div>","null","17","Plum Powerball","Fruit/plums1.png","Won","0.8,0.35","13","0.8","248","50","",""
"html-keyboard-response","159","150351","0.0-11.0-3.49","63fac97f0d4e8f6bfd753d90","bdp_rwlrn","Wed Mar 15 2023 20:55:29 GMT-0700 (Pacific Daylight Time)","304111","Untrustworthy,Trustworthy","","null","","","","feedback","","<div class='respPicDiv'><img src='img/responseButtonOffersNo0_wht.png' class='respPic'></div><div class='trialDiv'><img src='Fruit/plums1.png'><br><font class='baseline'><strong>Plum Powerball</strong><p><strong><font class='posOutcome'>You WON</font><p>You bet: 2</strong></font> &nbsp; &nbsp; &nbsp; &nbsp; &nbsp; &nbsp;<font class='posOutcome'>you receive: <strong>4</strong></font></div>","null","17","Plum Powerball","Fruit/plums1.png","Won","0.8,0.35","13","0.8","252","50","",""
"html-keyboard-response","160","150448","0.0-11.0-1.50","63fac97f0d4e8f6bfd753d90","bdp_rwlrn","Wed Mar 15 2023 20:55:29 GMT-0700 (Pacific Daylight Time)","304111","Untrustworthy,Trustworthy","","96","","","","decision","","<div class='trialDiv'><img src='Fruit/lemon.png'><br><font class='baseline'><strong>Lucky Lemons</strong><p>Choose number of points to bet.</font><div class='respPicDiv'><img src='img/responseButtonOffersNo0L.png' class='respPic'></div></div>","1","17","Lucky Lemons","Fruit/lemon.png","Won","0.2,0.8","8","0.2","257","51","",""
"html-keyboard-response","161","150699","0.0-11.0-2.50","63fac97f0d4e8f6bfd753d90","bdp_rwlrn","Wed Mar 15 2023 20:55:29 GMT-0700 (Pacific Daylight Time)","304111","Untrustworthy,Trustworthy","","null","","","","decisionFB","","<div class='trialDiv'><img src='Fruit/lemon.png'><br><font class='baseline'><strong>Lucky Lemons</strong><p>Choose number of points to bet.</font><div class='respPicDiv'><img src='img/responseButtonOffersNo0L1.png' class='respPic'></div></div>","null","17","Lucky Lemons","Fruit/lemon.png","Won","0.2,0.8","8","0.2","256","51","",""
"html-keyboard-response","162","151699","0.0-11.0-3.50","63fac97f0d4e8f6bfd753d90","bdp_rwlrn","Wed Mar 15 2023 20:55:29 GMT-0700 (Pacific Daylight Time)","304111","Untrustworthy,Trustworthy","","null","","","","feedback","","<div class='respPicDiv'><img src='img/responseButtonOffersNo0_wht.png' class='respPic'></div><div class='trialDiv'><img src='Fruit/lemon.png'><br><font class='baseline'><strong>Lucky Lemons</strong><p><strong><font class='posOutcome'>You WON</font><p>You bet: 1</strong></font> &nbsp; &nbsp; &nbsp; &nbsp; &nbsp; &nbsp;<font class='posOutcome'>you receive: <strong>2</strong></font></div>","null","17","Lucky Lemons","Fruit/lemon.png","Won","0.2,0.8","8","0.2","258","51","",""
"html-keyboard-response","163","151768","0.0-11.0-1.51","63fac97f0d4e8f6bfd753d90","bdp_rwlrn","Wed Mar 15 2023 20:55:29 GMT-0700 (Pacific Daylight Time)","304111","Untrustworthy,Trustworthy","","68","","","","decision","","<div class='trialDiv'><img src='Fruit/lime.png'><br><font class='baseline'><strong>Limin' Large</strong><p>Choose number of points to bet.</font><div class='respPicDiv'><img src='img/responseButtonOffersNo0L.png' class='respPic'></div></div>","2","18","Limin' Large","Fruit/lime.png","Won","0.35,0.8","14","0.35","263","52","",""
"html-keyboard-response","164","152019","0.0-11.0-2.51","63fac97f0d4e8f6bfd753d90","bdp_rwlrn","Wed Mar 15 2023 20:55:29 GMT-0700 (Pacific Daylight Time)","304111","Untrustworthy,Trustworthy","","null","","","","decisionFB","","<div class='trialDiv'><img src='Fruit/lime.png'><br><font class='baseline'><strong>Limin' Large</strong><p>Choose number of points to bet.</font><div class='respPicDiv'><img src='img/responseButtonOffersNo0L2.png' class='respPic'></div></div>","null","18","Limin' Large","Fruit/lime.png","Won","0.35,0.8","14","0.35","261","52","",""
