"trial_type","trial_index","time_elapsed","internal_node_id","subject_id","task","startTime","totalTime","labels","view_history","rt","event","trial","time","trialtype","success","stimulus","key_press","ltround","name","fileID","outcome","lottotype","lottoswpt","lottocurrpshare","point_total","round","faceID","face"
"pavlovia","0","5","0.0-0.0","631e8c52a408a788b7e62e11","bdp_rwlrn","Sat Apr 08 2023 10:57:07 GMT-0500 (Central Daylight Time)","379022","Untrustworthy,Trustworthy","","","","","","","","","","","","","","","","","","","",""
"instructions","1","3244","0.0-1.0","631e8c52a408a788b7e62e11","bdp_rwlrn","Sat Apr 08 2023 10:57:07 GMT-0500 (Central Daylight Time)","379022","Untrustworthy,Trustworthy","[{""page_index"":0,""viewing_time"":3238}]","3238","","","","","","","","","","","","","","","","","",""
"","","","","631e8c52a408a788b7e62e11","bdp_rwlrn","Sat Apr 08 2023 10:57:07 GMT-0500 (Central Daylight Time)","379022","Untrustworthy,Trustworthy","","","fullscreenenter","2","7040","fullscreenenter","","","","","","","","","","","","","",""
"fullscreen","2","8036","0.0-2.0","631e8c52a408a788b7e62e11","bdp_rwlrn","Sat Apr 08 2023 10:57:07 GMT-0500 (Central Daylight Time)","379022","Untrustworthy,Trustworthy","","","","","","","true","","","","","","","","","","","","",""
"instructions","3","52841","0.0-4.0","631e8c52a408a788b7e62e11","bdp_rwlrn","Sat Apr 08 2023 10:57:07 GMT-0500 (Central Daylight Time)","379022","Untrustworthy,Trustworthy","[{""page_index"":0,""viewing_time"":8228},{""page_index"":1,""viewing_time"":10687},{""page_index"":2,""viewing_time"":3209},{""page_index"":3,""viewing_time"":3485},{""page_index"":4,""viewing_time"":16790},{""page_index"":5,""viewing_time"":2402}]","44801","","","","","","","","","","","","","","","","","",""
"html-keyboard-response","4","58646","0.0-5.0","631e8c52a408a788b7e62e11","bdp_rwlrn","Sat Apr 08 2023 10:57:07 GMT-0500 (Central Daylight Time)","379022","Untrustworthy,Trustworthy","","5802","","","","","","<div class='header' style='text-align:left; position: absolute; top: 5%; left: 5%;'><small>Task 3 of 5</small></div><div class='instruxDiv'><p><strong>1) What is the maximum number of points you can choose to bet on a lottery?</strong></p><p>a) 0</p><p>b) 1</p><p>c) 5</p>","C","","","","","","","","","","",""
"html-keyboard-response","5","59863","0.0-6.0","631e8c52a408a788b7e62e11","bdp_rwlrn","Sat Apr 08 2023 10:57:07 GMT-0500 (Central Daylight Time)","379022","Untrustworthy,Trustworthy","","1087","","","","","","<div class='header' style='text-align:left; position: absolute; top: 5%; left: 5%;'><small>Task 3 of 5</small></div><div class='instruxDiv'><p><strong>1) What is the maximum number of points you can choose to bet on a lottery?</strong></p><p>a) 1</p><p>b) 1</p><p style='color:#00FF00'>c) 5</p><h3 style='color:#00FF00'>Correct!</h3><h3 class='center-content'>The correct response is c).</h3><h3 class='center-content'>The maximum number of points you can choose to bet on a lottery is 5 points.</h3><p><em>Press SPACEBAR to continue</em></p></div>"," ","","","","","","","","","","",""
"html-keyboard-response","6","63001","0.0-7.0","631e8c52a408a788b7e62e11","bdp_rwlrn","Sat Apr 08 2023 10:57:07 GMT-0500 (Central Daylight Time)","379022","Untrustworthy,Trustworthy","","3036","","","","","","<div class='header' style='text-align:left; position: absolute; top: 5%; left: 5%;'><small>Task 3 of 5</small></div><div class='instruxDiv'><p><strong>2) How many points can you win each round?</strong></p><p>a) 10 points</p><p>b) Double what you bet</p><p>c) Quadruple what you bet</p>","B","","","","","","","","","","",""
"html-keyboard-response","7","63895","0.0-8.0","631e8c52a408a788b7e62e11","bdp_rwlrn","Sat Apr 08 2023 10:57:07 GMT-0500 (Central Daylight Time)","379022","Untrustworthy,Trustworthy","","791","","","","","","<div class='header' style='text-align:left; position: absolute; top: 5%; left: 5%;'><small>Task 3 of 5</small></div><div class='instruxDiv'><p><strong>2) How many points can you win each round?</strong></p><p>a) 10 points</p><p style='color:#00FF00'>b) Double what you bet</p><p>c) Quadruple what you bet</p><h3 style='color:#00FF00'>Correct!</h3><h3 class='center-content'>The correct response is b).</h3><h3 class='center-content'>You can win double the amount of points you bet.</h3><p><em>Press SPACEBAR to continue</em></p></div>"," ","","","","","","","","","","",""
"html-keyboard-response","8","68998","0.0-9.0","631e8c52a408a788b7e62e11","bdp_rwlrn","Sat Apr 08 2023 10:57:07 GMT-0500 (Central Daylight Time)","379022","Untrustworthy,Trustworthy","","null","","","","","","<div class='header' style='text-align:left; position: absolute; top: 5%; left: 5%;'><small>Task 3 of 5</small></div><div class='instruxDiv'><p>Thank you for completing the quiz<p>These are the actual lotteries you will be playing in the next block:<p><div class='tc' align='center'><img class='introPic' src='Fruit/apple.png'><br><strong>Awesome Apples</strong></div><div class='bl' align='center'><img class='introPic' src='Fruit/pears.png'><br><strong>Pears Aplenty</strong></div><div class='br' align='center'><img class='introPic' src='Fruit/mixed-berries2.png'><br><strong>Berry Bla$t</strong></div></div><p>Across <strong>66 rounds</strong> you will play each lottery <strong>22 times</strong> (in random order).<p style='align:center; color:white'><font <em>Press SPACEBAR to continue</em></p>","null","","","","","","","","","","",""
"instructions","9","71942","0.0-10.0","631e8c52a408a788b7e62e11","bdp_rwlrn","Sat Apr 08 2023 10:57:07 GMT-0500 (Central Daylight Time)","379022","Untrustworthy,Trustworthy","[{""page_index"":0,""viewing_time"":1878},{""page_index"":1,""viewing_time"":1064}]","2942","","","","","","","","","","","","","","","","","",""
"html-keyboard-response","10","75713","0.0-11.0-1.0","631e8c52a408a788b7e62e11","bdp_rwlrn","Sat Apr 08 2023 10:57:07 GMT-0500 (Central Daylight Time)","379022","Untrustworthy,Trustworthy","","3668","","","","decision","","<div class='trialDiv'><img src='Fruit/apple.png'><br><font class='baseline'><strong>Awesome Apples</strong><p>Choose number of points to bet.</font><div class='respPicDiv'><img src='img/responseButtonOffersNo0L.png' class='respPic'></div></div>","5","1","Awesome Apples","Fruit/apple.png","Lost","0.8,0.35","13","0.8","5","1","",""
"html-keyboard-response","11","75966","0.0-11.0-2.0","631e8c52a408a788b7e62e11","bdp_rwlrn","Sat Apr 08 2023 10:57:07 GMT-0500 (Central Daylight Time)","379022","Untrustworthy,Trustworthy","","null","","","","decisionFB","","<div class='trialDiv'><img src='Fruit/apple.png'><br><font class='baseline'><strong>Awesome Apples</strong><p>Choose number of points to bet.</font><div class='respPicDiv'><img src='img/responseButtonOffersNo0L5.png' class='respPic'></div></div>","null","1","Awesome Apples","Fruit/apple.png","Lost","0.8,0.35","13","0.8","0","1","",""
"html-keyboard-response","12","76975","0.0-11.0-3.0","631e8c52a408a788b7e62e11","bdp_rwlrn","Sat Apr 08 2023 10:57:07 GMT-0500 (Central Daylight Time)","379022","Untrustworthy,Trustworthy","","null","","","","feedback","","<div class='respPicDiv'><img src='img/responseButtonOffersNo0_wht.png' class='respPic'></div><div class='trialDiv'><img src='Fruit/apple.png'><br><font class='baseline'><strong>Awesome Apples</strong><p><strong><font class='negOutcome'>You LOST</font><p>You bet: 5</strong></font> &nbsp; &nbsp; &nbsp; &nbsp; &nbsp; &nbsp;<font class='negOutcome'>You receive: <strong>0</strong></font></div>","null","1","Awesome Apples","Fruit/apple.png","Lost","0.8,0.35","13","0.8","0","1","",""
"html-keyboard-response","13","78437","0.0-11.0-1.1","631e8c52a408a788b7e62e11","bdp_rwlrn","Sat Apr 08 2023 10:57:07 GMT-0500 (Central Daylight Time)","379022","Untrustworthy,Trustworthy","","1461","","","","decision","","<div class='trialDiv'><img src='Fruit/pears.png'><br><font class='baseline'><strong>Pears Aplenty</strong><p>Choose number of points to bet.</font><div class='respPicDiv'><img src='img/responseButtonOffersNo0L.png' class='respPic'></div></div>","5","1","Pears Aplenty","Fruit/pears.png","Won","0.65,0.35","12","0.65","5","2","",""
"html-keyboard-response","14","78689","0.0-11.0-2.1","631e8c52a408a788b7e62e11","bdp_rwlrn","Sat Apr 08 2023 10:57:07 GMT-0500 (Central Daylight Time)","379022","Untrustworthy,Trustworthy","","null","","","","decisionFB","","<div class='trialDiv'><img src='Fruit/pears.png'><br><font class='baseline'><strong>Pears Aplenty</strong><p>Choose number of points to bet.</font><div class='respPicDiv'><img src='img/responseButtonOffersNo0L5.png' class='respPic'></div></div>","null","1","Pears Aplenty","Fruit/pears.png","Won","0.65,0.35","12","0.65","0","2","",""
"html-keyboard-response","15","79692","0.0-11.0-3.1","631e8c52a408a788b7e62e11","bdp_rwlrn","Sat Apr 08 2023 10:57:07 GMT-0500 (Central Daylight Time)","379022","Untrustworthy,Trustworthy","","null","","","","feedback","","<div class='respPicDiv'><img src='img/responseButtonOffersNo0_wht.png' class='respPic'></div><div class='trialDiv'><img src='Fruit/pears.png'><br><font class='baseline'><strong>Pears Aplenty</strong><p><strong><font class='posOutcome'>You WON</font><p>You bet: 5</strong></font> &nbsp; &nbsp; &nbsp; &nbsp; &nbsp; &nbsp;<font class='posOutcome'>you receive: <strong>10</strong></font></div>","null","1","Pears Aplenty","Fruit/pears.png","Won","0.65,0.35","12","0.65","10","2","",""
"html-keyboard-response","16","80474","0.0-11.0-1.2","631e8c52a408a788b7e62e11","bdp_rwlrn","Sat Apr 08 2023 10:57:07 GMT-0500 (Central Daylight Time)","379022","Untrustworthy,Trustworthy","","781","","","","decision","","<div class='trialDiv'><img src='Fruit/mixed-berries2.png'><br><font class='baseline'><strong>Berry Bla$t</strong><p>Choose number of points to bet.</font><div class='respPicDiv'><img src='img/responseButtonOffersNo0L.png' class='respPic'></div></div>","5","1","Berry Bla$t","Fruit/mixed-berries2.png","Lost","0.2,0.65","9","0.2","15","3","",""
"html-keyboard-response","17","80726","0.0-11.0-2.2","631e8c52a408a788b7e62e11","bdp_rwlrn","Sat Apr 08 2023 10:57:07 GMT-0500 (Central Daylight Time)","379022","Untrustworthy,Trustworthy","","null","","","","decisionFB","","<div class='trialDiv'><img src='Fruit/mixed-berries2.png'><br><font class='baseline'><strong>Berry Bla$t</strong><p>Choose number of points to bet.</font><div class='respPicDiv'><img src='img/responseButtonOffersNo0L5.png' class='respPic'></div></div>","null","1","Berry Bla$t","Fruit/mixed-berries2.png","Lost","0.2,0.65","9","0.2","10","3","",""
"html-keyboard-response","18","81728","0.0-11.0-3.2","631e8c52a408a788b7e62e11","bdp_rwlrn","Sat Apr 08 2023 10:57:07 GMT-0500 (Central Daylight Time)","379022","Untrustworthy,Trustworthy","","null","","","","feedback","","<div class='respPicDiv'><img src='img/responseButtonOffersNo0_wht.png' class='respPic'></div><div class='trialDiv'><img src='Fruit/mixed-berries2.png'><br><font class='baseline'><strong>Berry Bla$t</strong><p><strong><font class='negOutcome'>You LOST</font><p>You bet: 5</strong></font> &nbsp; &nbsp; &nbsp; &nbsp; &nbsp; &nbsp;<font class='negOutcome'>You receive: <strong>0</strong></font></div>","null","1","Berry Bla$t","Fruit/mixed-berries2.png","Lost","0.2,0.65","9","0.2","10","3","",""
"html-keyboard-response","19","82318","0.0-11.0-1.3","631e8c52a408a788b7e62e11","bdp_rwlrn","Sat Apr 08 2023 10:57:07 GMT-0500 (Central Daylight Time)","379022","Untrustworthy,Trustworthy","","589","","","","decision","","<div class='trialDiv'><img src='Fruit/pears.png'><br><font class='baseline'><strong>Pears Aplenty</strong><p>Choose number of points to bet.</font><div class='respPicDiv'><img src='img/responseButtonOffersNo0L.png' class='respPic'></div></div>","5","2","Pears Aplenty","Fruit/pears.png","Won","0.65,0.35","12","0.65","15","4","",""
"html-keyboard-response","20","82570","0.0-11.0-2.3","631e8c52a408a788b7e62e11","bdp_rwlrn","Sat Apr 08 2023 10:57:07 GMT-0500 (Central Daylight Time)","379022","Untrustworthy,Trustworthy","","null","","","","decisionFB","","<div class='trialDiv'><img src='Fruit/pears.png'><br><font class='baseline'><strong>Pears Aplenty</strong><p>Choose number of points to bet.</font><div class='respPicDiv'><img src='img/responseButtonOffersNo0L5.png' class='respPic'></div></div>","null","2","Pears Aplenty","Fruit/pears.png","Won","0.65,0.35","12","0.65","10","4","",""
"html-keyboard-response","21","83573","0.0-11.0-3.3","631e8c52a408a788b7e62e11","bdp_rwlrn","Sat Apr 08 2023 10:57:07 GMT-0500 (Central Daylight Time)","379022","Untrustworthy,Trustworthy","","null","","","","feedback","","<div class='respPicDiv'><img src='img/responseButtonOffersNo0_wht.png' class='respPic'></div><div class='trialDiv'><img src='Fruit/pears.png'><br><font class='baseline'><strong>Pears Aplenty</strong><p><strong><font class='posOutcome'>You WON</font><p>You bet: 5</strong></font> &nbsp; &nbsp; &nbsp; &nbsp; &nbsp; &nbsp;<font class='posOutcome'>you receive: <strong>10</strong></font></div>","null","2","Pears Aplenty","Fruit/pears.png","Won","0.65,0.35","12","0.65","20","4","",""
"html-keyboard-response","22","84153","0.0-11.0-1.4","631e8c52a408a788b7e62e11","bdp_rwlrn","Sat Apr 08 2023 10:57:07 GMT-0500 (Central Daylight Time)","379022","Untrustworthy,Trustworthy","","579","","","","decision","","<div class='trialDiv'><img src='Fruit/mixed-berries2.png'><br><font class='baseline'><strong>Berry Bla$t</strong><p>Choose number of points to bet.</font><div class='respPicDiv'><img src='img/responseButtonOffersNo0L.png' class='respPic'></div></div>","2","2","Berry Bla$t","Fruit/mixed-berries2.png","Won","0.2,0.65","9","0.2","25","5","",""
"html-keyboard-response","23","84405","0.0-11.0-2.4","631e8c52a408a788b7e62e11","bdp_rwlrn","Sat Apr 08 2023 10:57:07 GMT-0500 (Central Daylight Time)","379022","Untrustworthy,Trustworthy","","null","","","","decisionFB","","<div class='trialDiv'><img src='Fruit/mixed-berries2.png'><br><font class='baseline'><strong>Berry Bla$t</strong><p>Choose number of points to bet.</font><div class='respPicDiv'><img src='img/responseButtonOffersNo0L2.png' class='respPic'></div></div>","null","2","Berry Bla$t","Fruit/mixed-berries2.png","Won","0.2,0.65","9","0.2","23","5","",""
"html-keyboard-response","24","85408","0.0-11.0-3.4","631e8c52a408a788b7e62e11","bdp_rwlrn","Sat Apr 08 2023 10:57:07 GMT-0500 (Central Daylight Time)","379022","Untrustworthy,Trustworthy","","null","","","","feedback","","<div class='respPicDiv'><img src='img/responseButtonOffersNo0_wht.png' class='respPic'></div><div class='trialDiv'><img src='Fruit/mixed-berries2.png'><br><font class='baseline'><strong>Berry Bla$t</strong><p><strong><font class='posOutcome'>You WON</font><p>You bet: 2</strong></font> &nbsp; &nbsp; &nbsp; &nbsp; &nbsp; &nbsp;<font class='posOutcome'>you receive: <strong>4</strong></font></div>","null","2","Berry Bla$t","Fruit/mixed-berries2.png","Won","0.2,0.65","9","0.2","27","5","",""
"html-keyboard-response","25","87274","0.0-11.0-1.5","631e8c52a408a788b7e62e11","bdp_rwlrn","Sat Apr 08 2023 10:57:07 GMT-0500 (Central Daylight Time)","379022","Untrustworthy,Trustworthy","","1864","","","","decision","","<div class='trialDiv'><img src='Fruit/apple.png'><br><font class='baseline'><strong>Awesome Apples</strong><p>Choose number of points to bet.</font><div class='respPicDiv'><img src='img/responseButtonOffersNo0L.png' class='respPic'></div></div>","5","2","Awesome Apples","Fruit/apple.png","Won","0.8,0.35","13","0.8","32","6","",""
"html-keyboard-response","26","87525","0.0-11.0-2.5","631e8c52a408a788b7e62e11","bdp_rwlrn","Sat Apr 08 2023 10:57:07 GMT-0500 (Central Daylight Time)","379022","Untrustworthy,Trustworthy","","null","","","","decisionFB","","<div class='trialDiv'><img src='Fruit/apple.png'><br><font class='baseline'><strong>Awesome Apples</strong><p>Choose number of points to bet.</font><div class='respPicDiv'><img src='img/responseButtonOffersNo0L5.png' class='respPic'></div></div>","null","2","Awesome Apples","Fruit/apple.png","Won","0.8,0.35","13","0.8","27","6","",""
"html-keyboard-response","27","88527","0.0-11.0-3.5","631e8c52a408a788b7e62e11","bdp_rwlrn","Sat Apr 08 2023 10:57:07 GMT-0500 (Central Daylight Time)","379022","Untrustworthy,Trustworthy","","null","","","","feedback","","<div class='respPicDiv'><img src='img/responseButtonOffersNo0_wht.png' class='respPic'></div><div class='trialDiv'><img src='Fruit/apple.png'><br><font class='baseline'><strong>Awesome Apples</strong><p><strong><font class='posOutcome'>You WON</font><p>You bet: 5</strong></font> &nbsp; &nbsp; &nbsp; &nbsp; &nbsp; &nbsp;<font class='posOutcome'>you receive: <strong>10</strong></font></div>","null","2","Awesome Apples","Fruit/apple.png","Won","0.8,0.35","13","0.8","37","6","",""
"html-keyboard-response","28","89577","0.0-11.0-1.6","631e8c52a408a788b7e62e11","bdp_rwlrn","Sat Apr 08 2023 10:57:07 GMT-0500 (Central Daylight Time)","379022","Untrustworthy,Trustworthy","","1049","","","","decision","","<div class='trialDiv'><img src='Fruit/pears.png'><br><font class='baseline'><strong>Pears Aplenty</strong><p>Choose number of points to bet.</font><div class='respPicDiv'><img src='img/responseButtonOffersNo0L.png' class='respPic'></div></div>","5","3","Pears Aplenty","Fruit/pears.png","Won","0.65,0.35","12","0.65","42","7","",""
"html-keyboard-response","29","89829","0.0-11.0-2.6","631e8c52a408a788b7e62e11","bdp_rwlrn","Sat Apr 08 2023 10:57:07 GMT-0500 (Central Daylight Time)","379022","Untrustworthy,Trustworthy","","null","","","","decisionFB","","<div class='trialDiv'><img src='Fruit/pears.png'><br><font class='baseline'><strong>Pears Aplenty</strong><p>Choose number of points to bet.</font><div class='respPicDiv'><img src='img/responseButtonOffersNo0L5.png' class='respPic'></div></div>","null","3","Pears Aplenty","Fruit/pears.png","Won","0.65,0.35","12","0.65","37","7","",""
"html-keyboard-response","30","90830","0.0-11.0-3.6","631e8c52a408a788b7e62e11","bdp_rwlrn","Sat Apr 08 2023 10:57:07 GMT-0500 (Central Daylight Time)","379022","Untrustworthy,Trustworthy","","null","","","","feedback","","<div class='respPicDiv'><img src='img/responseButtonOffersNo0_wht.png' class='respPic'></div><div class='trialDiv'><img src='Fruit/pears.png'><br><font class='baseline'><strong>Pears Aplenty</strong><p><strong><font class='posOutcome'>You WON</font><p>You bet: 5</strong></font> &nbsp; &nbsp; &nbsp; &nbsp; &nbsp; &nbsp;<font class='posOutcome'>you receive: <strong>10</strong></font></div>","null","3","Pears Aplenty","Fruit/pears.png","Won","0.65,0.35","12","0.65","47","7","",""
"html-keyboard-response","31","91511","0.0-11.0-1.7","631e8c52a408a788b7e62e11","bdp_rwlrn","Sat Apr 08 2023 10:57:07 GMT-0500 (Central Daylight Time)","379022","Untrustworthy,Trustworthy","","680","","","","decision","","<div class='trialDiv'><img src='Fruit/mixed-berries2.png'><br><font class='baseline'><strong>Berry Bla$t</strong><p>Choose number of points to bet.</font><div class='respPicDiv'><img src='img/responseButtonOffersNo0L.png' class='respPic'></div></div>","3","3","Berry Bla$t","Fruit/mixed-berries2.png","Lost","0.2,0.65","9","0.2","52","8","",""
"html-keyboard-response","32","91763","0.0-11.0-2.7","631e8c52a408a788b7e62e11","bdp_rwlrn","Sat Apr 08 2023 10:57:07 GMT-0500 (Central Daylight Time)","379022","Untrustworthy,Trustworthy","","null","","","","decisionFB","","<div class='trialDiv'><img src='Fruit/mixed-berries2.png'><br><font class='baseline'><strong>Berry Bla$t</strong><p>Choose number of points to bet.</font><div class='respPicDiv'><img src='img/responseButtonOffersNo0L3.png' class='respPic'></div></div>","null","3","Berry Bla$t","Fruit/mixed-berries2.png","Lost","0.2,0.65","9","0.2","49","8","",""
"html-keyboard-response","33","92774","0.0-11.0-3.7","631e8c52a408a788b7e62e11","bdp_rwlrn","Sat Apr 08 2023 10:57:07 GMT-0500 (Central Daylight Time)","379022","Untrustworthy,Trustworthy","","null","","","","feedback","","<div class='respPicDiv'><img src='img/responseButtonOffersNo0_wht.png' class='respPic'></div><div class='trialDiv'><img src='Fruit/mixed-berries2.png'><br><font class='baseline'><strong>Berry Bla$t</strong><p><strong><font class='negOutcome'>You LOST</font><p>You bet: 3</strong></font> &nbsp; &nbsp; &nbsp; &nbsp; &nbsp; &nbsp;<font class='negOutcome'>You receive: <strong>0</strong></font></div>","null","3","Berry Bla$t","Fruit/mixed-berries2.png","Lost","0.2,0.65","9","0.2","49","8","",""
"html-keyboard-response","34","93733","0.0-11.0-1.8","631e8c52a408a788b7e62e11","bdp_rwlrn","Sat Apr 08 2023 10:57:07 GMT-0500 (Central Daylight Time)","379022","Untrustworthy,Trustworthy","","954","","","","decision","","<div class='trialDiv'><img src='Fruit/apple.png'><br><font class='baseline'><strong>Awesome Apples</strong><p>Choose number of points to bet.</font><div class='respPicDiv'><img src='img/responseButtonOffersNo0L.png' class='respPic'></div></div>","5","3","Awesome Apples","Fruit/apple.png","Won","0.8,0.35","13","0.8","54","9","",""
"html-keyboard-response","35","93985","0.0-11.0-2.8","631e8c52a408a788b7e62e11","bdp_rwlrn","Sat Apr 08 2023 10:57:07 GMT-0500 (Central Daylight Time)","379022","Untrustworthy,Trustworthy","","null","","","","decisionFB","","<div class='trialDiv'><img src='Fruit/apple.png'><br><font class='baseline'><strong>Awesome Apples</strong><p>Choose number of points to bet.</font><div class='respPicDiv'><img src='img/responseButtonOffersNo0L5.png' class='respPic'></div></div>","null","3","Awesome Apples","Fruit/apple.png","Won","0.8,0.35","13","0.8","49","9","",""
"html-keyboard-response","36","95060","0.0-11.0-3.8","631e8c52a408a788b7e62e11","bdp_rwlrn","Sat Apr 08 2023 10:57:07 GMT-0500 (Central Daylight Time)","379022","Untrustworthy,Trustworthy","","null","","","","feedback","","<div class='respPicDiv'><img src='img/responseButtonOffersNo0_wht.png' class='respPic'></div><div class='trialDiv'><img src='Fruit/apple.png'><br><font class='baseline'><strong>Awesome Apples</strong><p><strong><font class='posOutcome'>You WON</font><p>You bet: 5</strong></font> &nbsp; &nbsp; &nbsp; &nbsp; &nbsp; &nbsp;<font class='posOutcome'>you receive: <strong>10</strong></font></div>","null","3","Awesome Apples","Fruit/apple.png","Won","0.8,0.35","13","0.8","59","9","",""
"html-keyboard-response","37","95606","0.0-11.0-1.9","631e8c52a408a788b7e62e11","bdp_rwlrn","Sat Apr 08 2023 10:57:07 GMT-0500 (Central Daylight Time)","379022","Untrustworthy,Trustworthy","","543","","","","decision","","<div class='trialDiv'><img src='Fruit/mixed-berries2.png'><br><font class='baseline'><strong>Berry Bla$t</strong><p>Choose number of points to bet.</font><div class='respPicDiv'><img src='img/responseButtonOffersNo0L.png' class='respPic'></div></div>","5","4","Berry Bla$t","Fruit/mixed-berries2.png","Lost","0.2,0.65","9","0.2","64","10","",""
"html-keyboard-response","38","95858","0.0-11.0-2.9","631e8c52a408a788b7e62e11","bdp_rwlrn","Sat Apr 08 2023 10:57:07 GMT-0500 (Central Daylight Time)","379022","Untrustworthy,Trustworthy","","null","","","","decisionFB","","<div class='trialDiv'><img src='Fruit/mixed-berries2.png'><br><font class='baseline'><strong>Berry Bla$t</strong><p>Choose number of points to bet.</font><div class='respPicDiv'><img src='img/responseButtonOffersNo0L5.png' class='respPic'></div></div>","null","4","Berry Bla$t","Fruit/mixed-berries2.png","Lost","0.2,0.65","9","0.2","59","10","",""
"html-keyboard-response","39","96860","0.0-11.0-3.9","631e8c52a408a788b7e62e11","bdp_rwlrn","Sat Apr 08 2023 10:57:07 GMT-0500 (Central Daylight Time)","379022","Untrustworthy,Trustworthy","","null","","","","feedback","","<div class='respPicDiv'><img src='img/responseButtonOffersNo0_wht.png' class='respPic'></div><div class='trialDiv'><img src='Fruit/mixed-berries2.png'><br><font class='baseline'><strong>Berry Bla$t</strong><p><strong><font class='negOutcome'>You LOST</font><p>You bet: 5</strong></font> &nbsp; &nbsp; &nbsp; &nbsp; &nbsp; &nbsp;<font class='negOutcome'>You receive: <strong>0</strong></font></div>","null","4","Berry Bla$t","Fruit/mixed-berries2.png","Lost","0.2,0.65","9","0.2","59","10","",""
"html-keyboard-response","40","97942","0.0-11.0-1.10","631e8c52a408a788b7e62e11","bdp_rwlrn","Sat Apr 08 2023 10:57:07 GMT-0500 (Central Daylight Time)","379022","Untrustworthy,Trustworthy","","1080","","","","decision","","<div class='trialDiv'><img src='Fruit/apple.png'><br><font class='baseline'><strong>Awesome Apples</strong><p>Choose number of points to bet.</font><div class='respPicDiv'><img src='img/responseButtonOffersNo0L.png' class='respPic'></div></div>","5","4","Awesome Apples","Fruit/apple.png","Won","0.8,0.35","13","0.8","64","11","",""
"html-keyboard-response","41","98194","0.0-11.0-2.10","631e8c52a408a788b7e62e11","bdp_rwlrn","Sat Apr 08 2023 10:57:07 GMT-0500 (Central Daylight Time)","379022","Untrustworthy,Trustworthy","","null","","","","decisionFB","","<div class='trialDiv'><img src='Fruit/apple.png'><br><font class='baseline'><strong>Awesome Apples</strong><p>Choose number of points to bet.</font><div class='respPicDiv'><img src='img/responseButtonOffersNo0L5.png' class='respPic'></div></div>","null","4","Awesome Apples","Fruit/apple.png","Won","0.8,0.35","13","0.8","59","11","",""
"html-keyboard-response","42","99197","0.0-11.0-3.10","631e8c52a408a788b7e62e11","bdp_rwlrn","Sat Apr 08 2023 10:57:07 GMT-0500 (Central Daylight Time)","379022","Untrustworthy,Trustworthy","","null","","","","feedback","","<div class='respPicDiv'><img src='img/responseButtonOffersNo0_wht.png' class='respPic'></div><div class='trialDiv'><img src='Fruit/apple.png'><br><font class='baseline'><strong>Awesome Apples</strong><p><strong><font class='posOutcome'>You WON</font><p>You bet: 5</strong></font> &nbsp; &nbsp; &nbsp; &nbsp; &nbsp; &nbsp;<font class='posOutcome'>you receive: <strong>10</strong></font></div>","null","4","Awesome Apples","Fruit/apple.png","Won","0.8,0.35","13","0.8","69","11","",""
"html-keyboard-response","43","99752","0.0-11.0-1.11","631e8c52a408a788b7e62e11","bdp_rwlrn","Sat Apr 08 2023 10:57:07 GMT-0500 (Central Daylight Time)","379022","Untrustworthy,Trustworthy","","554","","","","decision","","<div class='trialDiv'><img src='Fruit/pears.png'><br><font class='baseline'><strong>Pears Aplenty</strong><p>Choose number of points to bet.</font><div class='respPicDiv'><img src='img/responseButtonOffersNo0L.png' class='respPic'></div></div>","5","4","Pears Aplenty","Fruit/pears.png","Won","0.65,0.35","12","0.65","74","12","",""
"html-keyboard-response","44","100004","0.0-11.0-2.11","631e8c52a408a788b7e62e11","bdp_rwlrn","Sat Apr 08 2023 10:57:07 GMT-0500 (Central Daylight Time)","379022","Untrustworthy,Trustworthy","","null","","","","decisionFB","","<div class='trialDiv'><img src='Fruit/pears.png'><br><font class='baseline'><strong>Pears Aplenty</strong><p>Choose number of points to bet.</font><div class='respPicDiv'><img src='img/responseButtonOffersNo0L5.png' class='respPic'></div></div>","null","4","Pears Aplenty","Fruit/pears.png","Won","0.65,0.35","12","0.65","69","12","",""
"html-keyboard-response","45","101006","0.0-11.0-3.11","631e8c52a408a788b7e62e11","bdp_rwlrn","Sat Apr 08 2023 10:57:07 GMT-0500 (Central Daylight Time)","379022","Untrustworthy,Trustworthy","","null","","","","feedback","","<div class='respPicDiv'><img src='img/responseButtonOffersNo0_wht.png' class='respPic'></div><div class='trialDiv'><img src='Fruit/pears.png'><br><font class='baseline'><strong>Pears Aplenty</strong><p><strong><font class='posOutcome'>You WON</font><p>You bet: 5</strong></font> &nbsp; &nbsp; &nbsp; &nbsp; &nbsp; &nbsp;<font class='posOutcome'>you receive: <strong>10</strong></font></div>","null","4","Pears Aplenty","Fruit/pears.png","Won","0.65,0.35","12","0.65","79","12","",""
"html-keyboard-response","46","101765","0.0-11.0-1.12","631e8c52a408a788b7e62e11","bdp_rwlrn","Sat Apr 08 2023 10:57:07 GMT-0500 (Central Daylight Time)","379022","Untrustworthy,Trustworthy","","758","","","","decision","","<div class='trialDiv'><img src='Fruit/apple.png'><br><font class='baseline'><strong>Awesome Apples</strong><p>Choose number of points to bet.</font><div class='respPicDiv'><img src='img/responseButtonOffersNo0L.png' class='respPic'></div></div>","5","5","Awesome Apples","Fruit/apple.png","Won","0.8,0.35","13","0.8","84","13","",""
"html-keyboard-response","47","102017","0.0-11.0-2.12","631e8c52a408a788b7e62e11","bdp_rwlrn","Sat Apr 08 2023 10:57:07 GMT-0500 (Central Daylight Time)","379022","Untrustworthy,Trustworthy","","null","","","","decisionFB","","<div class='trialDiv'><img src='Fruit/apple.png'><br><font class='baseline'><strong>Awesome Apples</strong><p>Choose number of points to bet.</font><div class='respPicDiv'><img src='img/responseButtonOffersNo0L5.png' class='respPic'></div></div>","null","5","Awesome Apples","Fruit/apple.png","Won","0.8,0.35","13","0.8","79","13","",""
"html-keyboard-response","48","103020","0.0-11.0-3.12","631e8c52a408a788b7e62e11","bdp_rwlrn","Sat Apr 08 2023 10:57:07 GMT-0500 (Central Daylight Time)","379022","Untrustworthy,Trustworthy","","null","","","","feedback","","<div class='respPicDiv'><img src='img/responseButtonOffersNo0_wht.png' class='respPic'></div><div class='trialDiv'><img src='Fruit/apple.png'><br><font class='baseline'><strong>Awesome Apples</strong><p><strong><font class='posOutcome'>You WON</font><p>You bet: 5</strong></font> &nbsp; &nbsp; &nbsp; &nbsp; &nbsp; &nbsp;<font class='posOutcome'>you receive: <strong>10</strong></font></div>","null","5","Awesome Apples","Fruit/apple.png","Won","0.8,0.35","13","0.8","89","13","",""
"html-keyboard-response","49","103479","0.0-11.0-1.13","631e8c52a408a788b7e62e11","bdp_rwlrn","Sat Apr 08 2023 10:57:07 GMT-0500 (Central Daylight Time)","379022","Untrustworthy,Trustworthy","","457","","","","decision","","<div class='trialDiv'><img src='Fruit/mixed-berries2.png'><br><font class='baseline'><strong>Berry Bla$t</strong><p>Choose number of points to bet.</font><div class='respPicDiv'><img src='img/responseButtonOffersNo0L.png' class='respPic'></div></div>","2","5","Berry Bla$t","Fruit/mixed-berries2.png","Lost","0.2,0.65","9","0.2","94","14","",""
"html-keyboard-response","50","103731","0.0-11.0-2.13","631e8c52a408a788b7e62e11","bdp_rwlrn","Sat Apr 08 2023 10:57:07 GMT-0500 (Central Daylight Time)","379022","Untrustworthy,Trustworthy","","null","","","","decisionFB","","<div class='trialDiv'><img src='Fruit/mixed-berries2.png'><br><font class='baseline'><strong>Berry Bla$t</strong><p>Choose number of points to bet.</font><div class='respPicDiv'><img src='img/responseButtonOffersNo0L2.png' class='respPic'></div></div>","null","5","Berry Bla$t","Fruit/mixed-berries2.png","Lost","0.2,0.65","9","0.2","92","14","",""
"html-keyboard-response","51","104733","0.0-11.0-3.13","631e8c52a408a788b7e62e11","bdp_rwlrn","Sat Apr 08 2023 10:57:07 GMT-0500 (Central Daylight Time)","379022","Untrustworthy,Trustworthy","","null","","","","feedback","","<div class='respPicDiv'><img src='img/responseButtonOffersNo0_wht.png' class='respPic'></div><div class='trialDiv'><img src='Fruit/mixed-berries2.png'><br><font class='baseline'><strong>Berry Bla$t</strong><p><strong><font class='negOutcome'>You LOST</font><p>You bet: 2</strong></font> &nbsp; &nbsp; &nbsp; &nbsp; &nbsp; &nbsp;<font class='negOutcome'>You receive: <strong>0</strong></font></div>","null","5","Berry Bla$t","Fruit/mixed-berries2.png","Lost","0.2,0.65","9","0.2","92","14","",""
"html-keyboard-response","52","105300","0.0-11.0-1.14","631e8c52a408a788b7e62e11","bdp_rwlrn","Sat Apr 08 2023 10:57:07 GMT-0500 (Central Daylight Time)","379022","Untrustworthy,Trustworthy","","566","","","","decision","","<div class='trialDiv'><img src='Fruit/pears.png'><br><font class='baseline'><strong>Pears Aplenty</strong><p>Choose number of points to bet.</font><div class='respPicDiv'><img src='img/responseButtonOffersNo0L.png' class='respPic'></div></div>","5","5","Pears Aplenty","Fruit/pears.png","Lost","0.65,0.35","12","0.65","97","15","",""
"html-keyboard-response","53","105552","0.0-11.0-2.14","631e8c52a408a788b7e62e11","bdp_rwlrn","Sat Apr 08 2023 10:57:07 GMT-0500 (Central Daylight Time)","379022","Untrustworthy,Trustworthy","","null","","","","decisionFB","","<div class='trialDiv'><img src='Fruit/pears.png'><br><font class='baseline'><strong>Pears Aplenty</strong><p>Choose number of points to bet.</font><div class='respPicDiv'><img src='img/responseButtonOffersNo0L5.png' class='respPic'></div></div>","null","5","Pears Aplenty","Fruit/pears.png","Lost","0.65,0.35","12","0.65","92","15","",""
"html-keyboard-response","54","106555","0.0-11.0-3.14","631e8c52a408a788b7e62e11","bdp_rwlrn","Sat Apr 08 2023 10:57:07 GMT-0500 (Central Daylight Time)","379022","Untrustworthy,Trustworthy","","null","","","","feedback","","<div class='respPicDiv'><img src='img/responseButtonOffersNo0_wht.png' class='respPic'></div><div class='trialDiv'><img src='Fruit/pears.png'><br><font class='baseline'><strong>Pears Aplenty</strong><p><strong><font class='negOutcome'>You LOST</font><p>You bet: 5</strong></font> &nbsp; &nbsp; &nbsp; &nbsp; &nbsp; &nbsp;<font class='negOutcome'>You receive: <strong>0</strong></font></div>","null","5","Pears Aplenty","Fruit/pears.png","Lost","0.65,0.35","12","0.65","92","15","",""
"html-keyboard-response","55","107524","0.0-11.0-1.15","631e8c52a408a788b7e62e11","bdp_rwlrn","Sat Apr 08 2023 10:57:07 GMT-0500 (Central Daylight Time)","379022","Untrustworthy,Trustworthy","","968","","","","decision","","<div class='trialDiv'><img src='Fruit/apple.png'><br><font class='baseline'><strong>Awesome Apples</strong><p>Choose number of points to bet.</font><div class='respPicDiv'><img src='img/responseButtonOffersNo0L.png' class='respPic'></div></div>","5","6","Awesome Apples","Fruit/apple.png","Won","0.8,0.35","13","0.8","97","16","",""
"html-keyboard-response","56","107776","0.0-11.0-2.15","631e8c52a408a788b7e62e11","bdp_rwlrn","Sat Apr 08 2023 10:57:07 GMT-0500 (Central Daylight Time)","379022","Untrustworthy,Trustworthy","","null","","","","decisionFB","","<div class='trialDiv'><img src='Fruit/apple.png'><br><font class='baseline'><strong>Awesome Apples</strong><p>Choose number of points to bet.</font><div class='respPicDiv'><img src='img/responseButtonOffersNo0L5.png' class='respPic'></div></div>","null","6","Awesome Apples","Fruit/apple.png","Won","0.8,0.35","13","0.8","92","16","",""
"html-keyboard-response","57","108778","0.0-11.0-3.15","631e8c52a408a788b7e62e11","bdp_rwlrn","Sat Apr 08 2023 10:57:07 GMT-0500 (Central Daylight Time)","379022","Untrustworthy,Trustworthy","","null","","","","feedback","","<div class='respPicDiv'><img src='img/responseButtonOffersNo0_wht.png' class='respPic'></div><div class='trialDiv'><img src='Fruit/apple.png'><br><font class='baseline'><strong>Awesome Apples</strong><p><strong><font class='posOutcome'>You WON</font><p>You bet: 5</strong></font> &nbsp; &nbsp; &nbsp; &nbsp; &nbsp; &nbsp;<font class='posOutcome'>you receive: <strong>10</strong></font></div>","null","6","Awesome Apples","Fruit/apple.png","Won","0.8,0.35","13","0.8","102","16","",""
"html-keyboard-response","58","124101","0.0-11.0-1.16","631e8c52a408a788b7e62e11","bdp_rwlrn","Sat Apr 08 2023 10:57:07 GMT-0500 (Central Daylight Time)","379022","Untrustworthy,Trustworthy","","15321","","","","decision","","<div class='trialDiv'><img src='Fruit/pears.png'><br><font class='baseline'><strong>Pears Aplenty</strong><p>Choose number of points to bet.</font><div class='respPicDiv'><img src='img/responseButtonOffersNo0L.png' class='respPic'></div></div>","5","6","Pears Aplenty","Fruit/pears.png","Won","0.65,0.35","12","0.65","107","17","",""
"html-keyboard-response","59","124354","0.0-11.0-2.16","631e8c52a408a788b7e62e11","bdp_rwlrn","Sat Apr 08 2023 10:57:07 GMT-0500 (Central Daylight Time)","379022","Untrustworthy,Trustworthy","","null","","","","decisionFB","","<div class='trialDiv'><img src='Fruit/pears.png'><br><font class='baseline'><strong>Pears Aplenty</strong><p>Choose number of points to bet.</font><div class='respPicDiv'><img src='img/responseButtonOffersNo0L5.png' class='respPic'></div></div>","null","6","Pears Aplenty","Fruit/pears.png","Won","0.65,0.35","12","0.65","102","17","",""
"html-keyboard-response","60","125356","0.0-11.0-3.16","631e8c52a408a788b7e62e11","bdp_rwlrn","Sat Apr 08 2023 10:57:07 GMT-0500 (Central Daylight Time)","379022","Untrustworthy,Trustworthy","","null","","","","feedback","","<div class='respPicDiv'><img src='img/responseButtonOffersNo0_wht.png' class='respPic'></div><div class='trialDiv'><img src='Fruit/pears.png'><br><font class='baseline'><strong>Pears Aplenty</strong><p><strong><font class='posOutcome'>You WON</font><p>You bet: 5</strong></font> &nbsp; &nbsp; &nbsp; &nbsp; &nbsp; &nbsp;<font class='posOutcome'>you receive: <strong>10</strong></font></div>","null","6","Pears Aplenty","Fruit/pears.png","Won","0.65,0.35","12","0.65","112","17","",""
"html-keyboard-response","61","127643","0.0-11.0-1.17","631e8c52a408a788b7e62e11","bdp_rwlrn","Sat Apr 08 2023 10:57:07 GMT-0500 (Central Daylight Time)","379022","Untrustworthy,Trustworthy","","2285","","","","decision","","<div class='trialDiv'><img src='Fruit/mixed-berries2.png'><br><font class='baseline'><strong>Berry Bla$t</strong><p>Choose number of points to bet.</font><div class='respPicDiv'><img src='img/responseButtonOffersNo0L.png' class='respPic'></div></div>","3","6","Berry Bla$t","Fruit/mixed-berries2.png","Won","0.2,0.65","9","0.2","117","18","",""
"html-keyboard-response","62","127914","0.0-11.0-2.17","631e8c52a408a788b7e62e11","bdp_rwlrn","Sat Apr 08 2023 10:57:07 GMT-0500 (Central Daylight Time)","379022","Untrustworthy,Trustworthy","","null","","","","decisionFB","","<div class='trialDiv'><img src='Fruit/mixed-berries2.png'><br><font class='baseline'><strong>Berry Bla$t</strong><p>Choose number of points to bet.</font><div class='respPicDiv'><img src='img/responseButtonOffersNo0L3.png' class='respPic'></div></div>","null","6","Berry Bla$t","Fruit/mixed-berries2.png","Won","0.2,0.65","9","0.2","114","18","",""
"html-keyboard-response","63","128917","0.0-11.0-3.17","631e8c52a408a788b7e62e11","bdp_rwlrn","Sat Apr 08 2023 10:57:07 GMT-0500 (Central Daylight Time)","379022","Untrustworthy,Trustworthy","","null","","","","feedback","","<div class='respPicDiv'><img src='img/responseButtonOffersNo0_wht.png' class='respPic'></div><div class='trialDiv'><img src='Fruit/mixed-berries2.png'><br><font class='baseline'><strong>Berry Bla$t</strong><p><strong><font class='posOutcome'>You WON</font><p>You bet: 3</strong></font> &nbsp; &nbsp; &nbsp; &nbsp; &nbsp; &nbsp;<font class='posOutcome'>you receive: <strong>6</strong></font></div>","null","6","Berry Bla$t","Fruit/mixed-berries2.png","Won","0.2,0.65","9","0.2","120","18","",""
"html-keyboard-response","64","129468","0.0-11.0-1.18","631e8c52a408a788b7e62e11","bdp_rwlrn","Sat Apr 08 2023 10:57:07 GMT-0500 (Central Daylight Time)","379022","Untrustworthy,Trustworthy","","550","","","","decision","","<div class='trialDiv'><img src='Fruit/apple.png'><br><font class='baseline'><strong>Awesome Apples</strong><p>Choose number of points to bet.</font><div class='respPicDiv'><img src='img/responseButtonOffersNo0L.png' class='respPic'></div></div>","5","7","Awesome Apples","Fruit/apple.png","Lost","0.8,0.35","13","0.8","125","19","",""
"html-keyboard-response","65","129720","0.0-11.0-2.18","631e8c52a408a788b7e62e11","bdp_rwlrn","Sat Apr 08 2023 10:57:07 GMT-0500 (Central Daylight Time)","379022","Untrustworthy,Trustworthy","","null","","","","decisionFB","","<div class='trialDiv'><img src='Fruit/apple.png'><br><font class='baseline'><strong>Awesome Apples</strong><p>Choose number of points to bet.</font><div class='respPicDiv'><img src='img/responseButtonOffersNo0L5.png' class='respPic'></div></div>","null","7","Awesome Apples","Fruit/apple.png","Lost","0.8,0.35","13","0.8","120","19","",""
"html-keyboard-response","66","130722","0.0-11.0-3.18","631e8c52a408a788b7e62e11","bdp_rwlrn","Sat Apr 08 2023 10:57:07 GMT-0500 (Central Daylight Time)","379022","Untrustworthy,Trustworthy","","null","","","","feedback","","<div class='respPicDiv'><img src='img/responseButtonOffersNo0_wht.png' class='respPic'></div><div class='trialDiv'><img src='Fruit/apple.png'><br><font class='baseline'><strong>Awesome Apples</strong><p><strong><font class='negOutcome'>You LOST</font><p>You bet: 5</strong></font> &nbsp; &nbsp; &nbsp; &nbsp; &nbsp; &nbsp;<font class='negOutcome'>You receive: <strong>0</strong></font></div>","null","7","Awesome Apples","Fruit/apple.png","Lost","0.8,0.35","13","0.8","120","19","",""
"html-keyboard-response","67","132861","0.0-11.0-1.19","631e8c52a408a788b7e62e11","bdp_rwlrn","Sat Apr 08 2023 10:57:07 GMT-0500 (Central Daylight Time)","379022","Untrustworthy,Trustworthy","","2137","","","","decision","","<div class='trialDiv'><img src='Fruit/pears.png'><br><font class='baseline'><strong>Pears Aplenty</strong><p>Choose number of points to bet.</font><div class='respPicDiv'><img src='img/responseButtonOffersNo0L.png' class='respPic'></div></div>","5","7","Pears Aplenty","Fruit/pears.png","Lost","0.65,0.35","12","0.65","125","20","",""
"html-keyboard-response","68","133114","0.0-11.0-2.19","631e8c52a408a788b7e62e11","bdp_rwlrn","Sat Apr 08 2023 10:57:07 GMT-0500 (Central Daylight Time)","379022","Untrustworthy,Trustworthy","","null","","","","decisionFB","","<div class='trialDiv'><img src='Fruit/pears.png'><br><font class='baseline'><strong>Pears Aplenty</strong><p>Choose number of points to bet.</font><div class='respPicDiv'><img src='img/responseButtonOffersNo0L5.png' class='respPic'></div></div>","null","7","Pears Aplenty","Fruit/pears.png","Lost","0.65,0.35","12","0.65","120","20","",""
"html-keyboard-response","69","134117","0.0-11.0-3.19","631e8c52a408a788b7e62e11","bdp_rwlrn","Sat Apr 08 2023 10:57:07 GMT-0500 (Central Daylight Time)","379022","Untrustworthy,Trustworthy","","null","","","","feedback","","<div class='respPicDiv'><img src='img/responseButtonOffersNo0_wht.png' class='respPic'></div><div class='trialDiv'><img src='Fruit/pears.png'><br><font class='baseline'><strong>Pears Aplenty</strong><p><strong><font class='negOutcome'>You LOST</font><p>You bet: 5</strong></font> &nbsp; &nbsp; &nbsp; &nbsp; &nbsp; &nbsp;<font class='negOutcome'>You receive: <strong>0</strong></font></div>","null","7","Pears Aplenty","Fruit/pears.png","Lost","0.65,0.35","12","0.65","120","20","",""
"html-keyboard-response","70","134736","0.0-11.0-1.20","631e8c52a408a788b7e62e11","bdp_rwlrn","Sat Apr 08 2023 10:57:07 GMT-0500 (Central Daylight Time)","379022","Untrustworthy,Trustworthy","","617","","","","decision","","<div class='trialDiv'><img src='Fruit/mixed-berries2.png'><br><font class='baseline'><strong>Berry Bla$t</strong><p>Choose number of points to bet.</font><div class='respPicDiv'><img src='img/responseButtonOffersNo0L.png' class='respPic'></div></div>","3","7","Berry Bla$t","Fruit/mixed-berries2.png","Lost","0.2,0.65","9","0.2","125","21","",""
"html-keyboard-response","71","134988","0.0-11.0-2.20","631e8c52a408a788b7e62e11","bdp_rwlrn","Sat Apr 08 2023 10:57:07 GMT-0500 (Central Daylight Time)","379022","Untrustworthy,Trustworthy","","null","","","","decisionFB","","<div class='trialDiv'><img src='Fruit/mixed-berries2.png'><br><font class='baseline'><strong>Berry Bla$t</strong><p>Choose number of points to bet.</font><div class='respPicDiv'><img src='img/responseButtonOffersNo0L3.png' class='respPic'></div></div>","null","7","Berry Bla$t","Fruit/mixed-berries2.png","Lost","0.2,0.65","9","0.2","122","21","",""
"html-keyboard-response","72","135990","0.0-11.0-3.20","631e8c52a408a788b7e62e11","bdp_rwlrn","Sat Apr 08 2023 10:57:07 GMT-0500 (Central Daylight Time)","379022","Untrustworthy,Trustworthy","","null","","","","feedback","","<div class='respPicDiv'><img src='img/responseButtonOffersNo0_wht.png' class='respPic'></div><div class='trialDiv'><img src='Fruit/mixed-berries2.png'><br><font class='baseline'><strong>Berry Bla$t</strong><p><strong><font class='negOutcome'>You LOST</font><p>You bet: 3</strong></font> &nbsp; &nbsp; &nbsp; &nbsp; &nbsp; &nbsp;<font class='negOutcome'>You receive: <strong>0</strong></font></div>","null","7","Berry Bla$t","Fruit/mixed-berries2.png","Lost","0.2,0.65","9","0.2","122","21","",""
"html-keyboard-response","73","136418","0.0-11.0-1.21","631e8c52a408a788b7e62e11","bdp_rwlrn","Sat Apr 08 2023 10:57:07 GMT-0500 (Central Daylight Time)","379022","Untrustworthy,Trustworthy","","426","","","","decision","","<div class='trialDiv'><img src='Fruit/apple.png'><br><font class='baseline'><strong>Awesome Apples</strong><p>Choose number of points to bet.</font><div class='respPicDiv'><img src='img/responseButtonOffersNo0L.png' class='respPic'></div></div>","5","8","Awesome Apples","Fruit/apple.png","Won","0.8,0.35","13","0.8","127","22","",""
"html-keyboard-response","74","136671","0.0-11.0-2.21","631e8c52a408a788b7e62e11","bdp_rwlrn","Sat Apr 08 2023 10:57:07 GMT-0500 (Central Daylight Time)","379022","Untrustworthy,Trustworthy","","null","","","","decisionFB","","<div class='trialDiv'><img src='Fruit/apple.png'><br><font class='baseline'><strong>Awesome Apples</strong><p>Choose number of points to bet.</font><div class='respPicDiv'><img src='img/responseButtonOffersNo0L5.png' class='respPic'></div></div>","null","8","Awesome Apples","Fruit/apple.png","Won","0.8,0.35","13","0.8","122","22","",""
"html-keyboard-response","75","137674","0.0-11.0-3.21","631e8c52a408a788b7e62e11","bdp_rwlrn","Sat Apr 08 2023 10:57:07 GMT-0500 (Central Daylight Time)","379022","Untrustworthy,Trustworthy","","null","","","","feedback","","<div class='respPicDiv'><img src='img/responseButtonOffersNo0_wht.png' class='respPic'></div><div class='trialDiv'><img src='Fruit/apple.png'><br><font class='baseline'><strong>Awesome Apples</strong><p><strong><font class='posOutcome'>You WON</font><p>You bet: 5</strong></font> &nbsp; &nbsp; &nbsp; &nbsp; &nbsp; &nbsp;<font class='posOutcome'>you receive: <strong>10</strong></font></div>","null","8","Awesome Apples","Fruit/apple.png","Won","0.8,0.35","13","0.8","132","22","",""
"html-keyboard-response","76","138113","0.0-11.0-1.22","631e8c52a408a788b7e62e11","bdp_rwlrn","Sat Apr 08 2023 10:57:07 GMT-0500 (Central Daylight Time)","379022","Untrustworthy,Trustworthy","","438","","","","decision","","<div class='trialDiv'><img src='Fruit/pears.png'><br><font class='baseline'><strong>Pears Aplenty</strong><p>Choose number of points to bet.</font><div class='respPicDiv'><img src='img/responseButtonOffersNo0L.png' class='respPic'></div></div>","5","8","Pears Aplenty","Fruit/pears.png","Won","0.65,0.35","12","0.65","137","23","",""
"html-keyboard-response","77","138365","0.0-11.0-2.22","631e8c52a408a788b7e62e11","bdp_rwlrn","Sat Apr 08 2023 10:57:07 GMT-0500 (Central Daylight Time)","379022","Untrustworthy,Trustworthy","","null","","","","decisionFB","","<div class='trialDiv'><img src='Fruit/pears.png'><br><font class='baseline'><strong>Pears Aplenty</strong><p>Choose number of points to bet.</font><div class='respPicDiv'><img src='img/responseButtonOffersNo0L5.png' class='respPic'></div></div>","null","8","Pears Aplenty","Fruit/pears.png","Won","0.65,0.35","12","0.65","132","23","",""
"html-keyboard-response","78","139368","0.0-11.0-3.22","631e8c52a408a788b7e62e11","bdp_rwlrn","Sat Apr 08 2023 10:57:07 GMT-0500 (Central Daylight Time)","379022","Untrustworthy,Trustworthy","","null","","","","feedback","","<div class='respPicDiv'><img src='img/responseButtonOffersNo0_wht.png' class='respPic'></div><div class='trialDiv'><img src='Fruit/pears.png'><br><font class='baseline'><strong>Pears Aplenty</strong><p><strong><font class='posOutcome'>You WON</font><p>You bet: 5</strong></font> &nbsp; &nbsp; &nbsp; &nbsp; &nbsp; &nbsp;<font class='posOutcome'>you receive: <strong>10</strong></font></div>","null","8","Pears Aplenty","Fruit/pears.png","Won","0.65,0.35","12","0.65","142","23","",""
"html-keyboard-response","79","140057","0.0-11.0-1.23","631e8c52a408a788b7e62e11","bdp_rwlrn","Sat Apr 08 2023 10:57:07 GMT-0500 (Central Daylight Time)","379022","Untrustworthy,Trustworthy","","687","","","","decision","","<div class='trialDiv'><img src='Fruit/mixed-berries2.png'><br><font class='baseline'><strong>Berry Bla$t</strong><p>Choose number of points to bet.</font><div class='respPicDiv'><img src='img/responseButtonOffersNo0L.png' class='respPic'></div></div>","1","8","Berry Bla$t","Fruit/mixed-berries2.png","Lost","0.2,0.65","9","0.2","147","24","",""
"html-keyboard-response","80","140372","0.0-11.0-2.23","631e8c52a408a788b7e62e11","bdp_rwlrn","Sat Apr 08 2023 10:57:07 GMT-0500 (Central Daylight Time)","379022","Untrustworthy,Trustworthy","","null","","","","decisionFB","","<div class='trialDiv'><img src='Fruit/mixed-berries2.png'><br><font class='baseline'><strong>Berry Bla$t</strong><p>Choose number of points to bet.</font><div class='respPicDiv'><img src='img/responseButtonOffersNo0L1.png' class='respPic'></div></div>","null","8","Berry Bla$t","Fruit/mixed-berries2.png","Lost","0.2,0.65","9","0.2","146","24","",""
"html-keyboard-response","81","141375","0.0-11.0-3.23","631e8c52a408a788b7e62e11","bdp_rwlrn","Sat Apr 08 2023 10:57:07 GMT-0500 (Central Daylight Time)","379022","Untrustworthy,Trustworthy","","null","","","","feedback","","<div class='respPicDiv'><img src='img/responseButtonOffersNo0_wht.png' class='respPic'></div><div class='trialDiv'><img src='Fruit/mixed-berries2.png'><br><font class='baseline'><strong>Berry Bla$t</strong><p><strong><font class='negOutcome'>You LOST</font><p>You bet: 1</strong></font> &nbsp; &nbsp; &nbsp; &nbsp; &nbsp; &nbsp;<font class='negOutcome'>You receive: <strong>0</strong></font></div>","null","8","Berry Bla$t","Fruit/mixed-berries2.png","Lost","0.2,0.65","9","0.2","146","24","",""
"html-keyboard-response","82","141807","0.0-11.0-1.24","631e8c52a408a788b7e62e11","bdp_rwlrn","Sat Apr 08 2023 10:57:07 GMT-0500 (Central Daylight Time)","379022","Untrustworthy,Trustworthy","","431","","","","decision","","<div class='trialDiv'><img src='Fruit/apple.png'><br><font class='baseline'><strong>Awesome Apples</strong><p>Choose number of points to bet.</font><div class='respPicDiv'><img src='img/responseButtonOffersNo0L.png' class='respPic'></div></div>","5","9","Awesome Apples","Fruit/apple.png","Won","0.8,0.35","13","0.8","151","25","",""
"html-keyboard-response","83","142060","0.0-11.0-2.24","631e8c52a408a788b7e62e11","bdp_rwlrn","Sat Apr 08 2023 10:57:07 GMT-0500 (Central Daylight Time)","379022","Untrustworthy,Trustworthy","","null","","","","decisionFB","","<div class='trialDiv'><img src='Fruit/apple.png'><br><font class='baseline'><strong>Awesome Apples</strong><p>Choose number of points to bet.</font><div class='respPicDiv'><img src='img/responseButtonOffersNo0L5.png' class='respPic'></div></div>","null","9","Awesome Apples","Fruit/apple.png","Won","0.8,0.35","13","0.8","146","25","",""
"html-keyboard-response","84","143062","0.0-11.0-3.24","631e8c52a408a788b7e62e11","bdp_rwlrn","Sat Apr 08 2023 10:57:07 GMT-0500 (Central Daylight Time)","379022","Untrustworthy,Trustworthy","","null","","","","feedback","","<div class='respPicDiv'><img src='img/responseButtonOffersNo0_wht.png' class='respPic'></div><div class='trialDiv'><img src='Fruit/apple.png'><br><font class='baseline'><strong>Awesome Apples</strong><p><strong><font class='posOutcome'>You WON</font><p>You bet: 5</strong></font> &nbsp; &nbsp; &nbsp; &nbsp; &nbsp; &nbsp;<font class='posOutcome'>you receive: <strong>10</strong></font></div>","null","9","Awesome Apples","Fruit/apple.png","Won","0.8,0.35","13","0.8","156","25","",""
"html-keyboard-response","85","143321","0.0-11.0-1.25","631e8c52a408a788b7e62e11","bdp_rwlrn","Sat Apr 08 2023 10:57:07 GMT-0500 (Central Daylight Time)","379022","Untrustworthy,Trustworthy","","257","","","","decision","","<div class='trialDiv'><img src='Fruit/pears.png'><br><font class='baseline'><strong>Pears Aplenty</strong><p>Choose number of points to bet.</font><div class='respPicDiv'><img src='img/responseButtonOffersNo0L.png' class='respPic'></div></div>","5","9","Pears Aplenty","Fruit/pears.png","Won","0.65,0.35","12","0.65","161","26","",""
"html-keyboard-response","86","143574","0.0-11.0-2.25","631e8c52a408a788b7e62e11","bdp_rwlrn","Sat Apr 08 2023 10:57:07 GMT-0500 (Central Daylight Time)","379022","Untrustworthy,Trustworthy","","null","","","","decisionFB","","<div class='trialDiv'><img src='Fruit/pears.png'><br><font class='baseline'><strong>Pears Aplenty</strong><p>Choose number of points to bet.</font><div class='respPicDiv'><img src='img/responseButtonOffersNo0L5.png' class='respPic'></div></div>","null","9","Pears Aplenty","Fruit/pears.png","Won","0.65,0.35","12","0.65","156","26","",""
"html-keyboard-response","87","144576","0.0-11.0-3.25","631e8c52a408a788b7e62e11","bdp_rwlrn","Sat Apr 08 2023 10:57:07 GMT-0500 (Central Daylight Time)","379022","Untrustworthy,Trustworthy","","null","","","","feedback","","<div class='respPicDiv'><img src='img/responseButtonOffersNo0_wht.png' class='respPic'></div><div class='trialDiv'><img src='Fruit/pears.png'><br><font class='baseline'><strong>Pears Aplenty</strong><p><strong><font class='posOutcome'>You WON</font><p>You bet: 5</strong></font> &nbsp; &nbsp; &nbsp; &nbsp; &nbsp; &nbsp;<font class='posOutcome'>you receive: <strong>10</strong></font></div>","null","9","Pears Aplenty","Fruit/pears.png","Won","0.65,0.35","12","0.65","166","26","",""
"html-keyboard-response","88","144924","0.0-11.0-1.26","631e8c52a408a788b7e62e11","bdp_rwlrn","Sat Apr 08 2023 10:57:07 GMT-0500 (Central Daylight Time)","379022","Untrustworthy,Trustworthy","","346","","","","decision","","<div class='trialDiv'><img src='Fruit/mixed-berries2.png'><br><font class='baseline'><strong>Berry Bla$t</strong><p>Choose number of points to bet.</font><div class='respPicDiv'><img src='img/responseButtonOffersNo0L.png' class='respPic'></div></div>","1","9","Berry Bla$t","Fruit/mixed-berries2.png","Won","0.2,0.65","9","0.2","171","27","",""
"html-keyboard-response","89","145176","0.0-11.0-2.26","631e8c52a408a788b7e62e11","bdp_rwlrn","Sat Apr 08 2023 10:57:07 GMT-0500 (Central Daylight Time)","379022","Untrustworthy,Trustworthy","","null","","","","decisionFB","","<div class='trialDiv'><img src='Fruit/mixed-berries2.png'><br><font class='baseline'><strong>Berry Bla$t</strong><p>Choose number of points to bet.</font><div class='respPicDiv'><img src='img/responseButtonOffersNo0L1.png' class='respPic'></div></div>","null","9","Berry Bla$t","Fruit/mixed-berries2.png","Won","0.2,0.65","9","0.2","170","27","",""
"html-keyboard-response","90","146179","0.0-11.0-3.26","631e8c52a408a788b7e62e11","bdp_rwlrn","Sat Apr 08 2023 10:57:07 GMT-0500 (Central Daylight Time)","379022","Untrustworthy,Trustworthy","","null","","","","feedback","","<div class='respPicDiv'><img src='img/responseButtonOffersNo0_wht.png' class='respPic'></div><div class='trialDiv'><img src='Fruit/mixed-berries2.png'><br><font class='baseline'><strong>Berry Bla$t</strong><p><strong><font class='posOutcome'>You WON</font><p>You bet: 1</strong></font> &nbsp; &nbsp; &nbsp; &nbsp; &nbsp; &nbsp;<font class='posOutcome'>you receive: <strong>2</strong></font></div>","null","9","Berry Bla$t","Fruit/mixed-berries2.png","Won","0.2,0.65","9","0.2","172","27","",""
"html-keyboard-response","91","146771","0.0-11.0-1.27","631e8c52a408a788b7e62e11","bdp_rwlrn","Sat Apr 08 2023 10:57:07 GMT-0500 (Central Daylight Time)","379022","Untrustworthy,Trustworthy","","590","","","","decision","","<div class='trialDiv'><img src='Fruit/pears.png'><br><font class='baseline'><strong>Pears Aplenty</strong><p>Choose number of points to bet.</font><div class='respPicDiv'><img src='img/responseButtonOffersNo0L.png' class='respPic'></div></div>","5","10","Pears Aplenty","Fruit/pears.png","Won","0.65,0.35","12","0.65","177","28","",""
"html-keyboard-response","92","147024","0.0-11.0-2.27","631e8c52a408a788b7e62e11","bdp_rwlrn","Sat Apr 08 2023 10:57:07 GMT-0500 (Central Daylight Time)","379022","Untrustworthy,Trustworthy","","null","","","","decisionFB","","<div class='trialDiv'><img src='Fruit/pears.png'><br><font class='baseline'><strong>Pears Aplenty</strong><p>Choose number of points to bet.</font><div class='respPicDiv'><img src='img/responseButtonOffersNo0L5.png' class='respPic'></div></div>","null","10","Pears Aplenty","Fruit/pears.png","Won","0.65,0.35","12","0.65","172","28","",""
"html-keyboard-response","93","148026","0.0-11.0-3.27","631e8c52a408a788b7e62e11","bdp_rwlrn","Sat Apr 08 2023 10:57:07 GMT-0500 (Central Daylight Time)","379022","Untrustworthy,Trustworthy","","null","","","","feedback","","<div class='respPicDiv'><img src='img/responseButtonOffersNo0_wht.png' class='respPic'></div><div class='trialDiv'><img src='Fruit/pears.png'><br><font class='baseline'><strong>Pears Aplenty</strong><p><strong><font class='posOutcome'>You WON</font><p>You bet: 5</strong></font> &nbsp; &nbsp; &nbsp; &nbsp; &nbsp; &nbsp;<font class='posOutcome'>you receive: <strong>10</strong></font></div>","null","10","Pears Aplenty","Fruit/pears.png","Won","0.65,0.35","12","0.65","182","28","",""
"html-keyboard-response","94","148396","0.0-11.0-1.28","631e8c52a408a788b7e62e11","bdp_rwlrn","Sat Apr 08 2023 10:57:07 GMT-0500 (Central Daylight Time)","379022","Untrustworthy,Trustworthy","","369","","","","decision","","<div class='trialDiv'><img src='Fruit/apple.png'><br><font class='baseline'><strong>Awesome Apples</strong><p>Choose number of points to bet.</font><div class='respPicDiv'><img src='img/responseButtonOffersNo0L.png' class='respPic'></div></div>","5","10","Awesome Apples","Fruit/apple.png","Won","0.8,0.35","13","0.8","187","29","",""
"html-keyboard-response","95","148649","0.0-11.0-2.28","631e8c52a408a788b7e62e11","bdp_rwlrn","Sat Apr 08 2023 10:57:07 GMT-0500 (Central Daylight Time)","379022","Untrustworthy,Trustworthy","","null","","","","decisionFB","","<div class='trialDiv'><img src='Fruit/apple.png'><br><font class='baseline'><strong>Awesome Apples</strong><p>Choose number of points to bet.</font><div class='respPicDiv'><img src='img/responseButtonOffersNo0L5.png' class='respPic'></div></div>","null","10","Awesome Apples","Fruit/apple.png","Won","0.8,0.35","13","0.8","182","29","",""
"html-keyboard-response","96","149650","0.0-11.0-3.28","631e8c52a408a788b7e62e11","bdp_rwlrn","Sat Apr 08 2023 10:57:07 GMT-0500 (Central Daylight Time)","379022","Untrustworthy,Trustworthy","","null","","","","feedback","","<div class='respPicDiv'><img src='img/responseButtonOffersNo0_wht.png' class='respPic'></div><div class='trialDiv'><img src='Fruit/apple.png'><br><font class='baseline'><strong>Awesome Apples</strong><p><strong><font class='posOutcome'>You WON</font><p>You bet: 5</strong></font> &nbsp; &nbsp; &nbsp; &nbsp; &nbsp; &nbsp;<font class='posOutcome'>you receive: <strong>10</strong></font></div>","null","10","Awesome Apples","Fruit/apple.png","Won","0.8,0.35","13","0.8","192","29","",""
"html-keyboard-response","97","149981","0.0-11.0-1.29","631e8c52a408a788b7e62e11","bdp_rwlrn","Sat Apr 08 2023 10:57:07 GMT-0500 (Central Daylight Time)","379022","Untrustworthy,Trustworthy","","330","","","","decision","","<div class='trialDiv'><img src='Fruit/mixed-berries2.png'><br><font class='baseline'><strong>Berry Bla$t</strong><p>Choose number of points to bet.</font><div class='respPicDiv'><img src='img/responseButtonOffersNo0L.png' class='respPic'></div></div>","1","10","Berry Bla$t","Fruit/mixed-berries2.png","Lost","0.2,0.65","9","0.2","197","30","",""
"html-keyboard-response","98","150234","0.0-11.0-2.29","631e8c52a408a788b7e62e11","bdp_rwlrn","Sat Apr 08 2023 10:57:07 GMT-0500 (Central Daylight Time)","379022","Untrustworthy,Trustworthy","","null","","","","decisionFB","","<div class='trialDiv'><img src='Fruit/mixed-berries2.png'><br><font class='baseline'><strong>Berry Bla$t</strong><p>Choose number of points to bet.</font><div class='respPicDiv'><img src='img/responseButtonOffersNo0L1.png' class='respPic'></div></div>","null","10","Berry Bla$t","Fruit/mixed-berries2.png","Lost","0.2,0.65","9","0.2","196","30","",""
"html-keyboard-response","99","151237","0.0-11.0-3.29","631e8c52a408a788b7e62e11","bdp_rwlrn","Sat Apr 08 2023 10:57:07 GMT-0500 (Central Daylight Time)","379022","Untrustworthy,Trustworthy","","null","","","","feedback","","<div class='respPicDiv'><img src='img/responseButtonOffersNo0_wht.png' class='respPic'></div><div class='trialDiv'><img src='Fruit/mixed-berries2.png'><br><font class='baseline'><strong>Berry Bla$t</strong><p><strong><font class='negOutcome'>You LOST</font><p>You bet: 1</strong></font> &nbsp; &nbsp; &nbsp; &nbsp; &nbsp; &nbsp;<font class='negOutcome'>You receive: <strong>0</strong></font></div>","null","10","Berry Bla$t","Fruit/mixed-berries2.png","Lost","0.2,0.65","9","0.2","196","30","",""
"html-keyboard-response","100","151499","0.0-11.0-1.30","631e8c52a408a788b7e62e11","bdp_rwlrn","Sat Apr 08 2023 10:57:07 GMT-0500 (Central Daylight Time)","379022","Untrustworthy,Trustworthy","","260","","","","decision","","<div class='trialDiv'><img src='Fruit/pears.png'><br><font class='baseline'><strong>Pears Aplenty</strong><p>Choose number of points to bet.</font><div class='respPicDiv'><img src='img/responseButtonOffersNo0L.png' class='respPic'></div></div>","5","11","Pears Aplenty","Fruit/pears.png","Won","0.65,0.35","12","0.65","201","31","",""
"html-keyboard-response","101","151751","0.0-11.0-2.30","631e8c52a408a788b7e62e11","bdp_rwlrn","Sat Apr 08 2023 10:57:07 GMT-0500 (Central Daylight Time)","379022","Untrustworthy,Trustworthy","","null","","","","decisionFB","","<div class='trialDiv'><img src='Fruit/pears.png'><br><font class='baseline'><strong>Pears Aplenty</strong><p>Choose number of points to bet.</font><div class='respPicDiv'><img src='img/responseButtonOffersNo0L5.png' class='respPic'></div></div>","null","11","Pears Aplenty","Fruit/pears.png","Won","0.65,0.35","12","0.65","196","31","",""
"html-keyboard-response","102","152773","0.0-11.0-3.30","631e8c52a408a788b7e62e11","bdp_rwlrn","Sat Apr 08 2023 10:57:07 GMT-0500 (Central Daylight Time)","379022","Untrustworthy,Trustworthy","","null","","","","feedback","","<div class='respPicDiv'><img src='img/responseButtonOffersNo0_wht.png' class='respPic'></div><div class='trialDiv'><img src='Fruit/pears.png'><br><font class='baseline'><strong>Pears Aplenty</strong><p><strong><font class='posOutcome'>You WON</font><p>You bet: 5</strong></font> &nbsp; &nbsp; &nbsp; &nbsp; &nbsp; &nbsp;<font class='posOutcome'>you receive: <strong>10</strong></font></div>","null","11","Pears Aplenty","Fruit/pears.png","Won","0.65,0.35","12","0.65","206","31","",""
"html-keyboard-response","103","153003","0.0-11.0-1.31","631e8c52a408a788b7e62e11","bdp_rwlrn","Sat Apr 08 2023 10:57:07 GMT-0500 (Central Daylight Time)","379022","Untrustworthy,Trustworthy","","229","","","","decision","","<div class='trialDiv'><img src='Fruit/apple.png'><br><font class='baseline'><strong>Awesome Apples</strong><p>Choose number of points to bet.</font><div class='respPicDiv'><img src='img/responseButtonOffersNo0L.png' class='respPic'></div></div>","5","11","Awesome Apples","Fruit/apple.png","Won","0.8,0.35","13","0.8","211","32","",""
"html-keyboard-response","104","153256","0.0-11.0-2.31","631e8c52a408a788b7e62e11","bdp_rwlrn","Sat Apr 08 2023 10:57:07 GMT-0500 (Central Daylight Time)","379022","Untrustworthy,Trustworthy","","null","","","","decisionFB","","<div class='trialDiv'><img src='Fruit/apple.png'><br><font class='baseline'><strong>Awesome Apples</strong><p>Choose number of points to bet.</font><div class='respPicDiv'><img src='img/responseButtonOffersNo0L5.png' class='respPic'></div></div>","null","11","Awesome Apples","Fruit/apple.png","Won","0.8,0.35","13","0.8","206","32","",""
"html-keyboard-response","105","154257","0.0-11.0-3.31","631e8c52a408a788b7e62e11","bdp_rwlrn","Sat Apr 08 2023 10:57:07 GMT-0500 (Central Daylight Time)","379022","Untrustworthy,Trustworthy","","null","","","","feedback","","<div class='respPicDiv'><img src='img/responseButtonOffersNo0_wht.png' class='respPic'></div><div class='trialDiv'><img src='Fruit/apple.png'><br><font class='baseline'><strong>Awesome Apples</strong><p><strong><font class='posOutcome'>You WON</font><p>You bet: 5</strong></font> &nbsp; &nbsp; &nbsp; &nbsp; &nbsp; &nbsp;<font class='posOutcome'>you receive: <strong>10</strong></font></div>","null","11","Awesome Apples","Fruit/apple.png","Won","0.8,0.35","13","0.8","216","32","",""
"html-keyboard-response","106","154878","0.0-11.0-1.32","631e8c52a408a788b7e62e11","bdp_rwlrn","Sat Apr 08 2023 10:57:07 GMT-0500 (Central Daylight Time)","379022","Untrustworthy,Trustworthy","","618","","","","decision","","<div class='trialDiv'><img src='Fruit/mixed-berries2.png'><br><font class='baseline'><strong>Berry Bla$t</strong><p>Choose number of points to bet.</font><div class='respPicDiv'><img src='img/responseButtonOffersNo0L.png' class='respPic'></div></div>","1","11","Berry Bla$t","Fruit/mixed-berries2.png","Lost","0.2,0.65","9","0.2","221","33","",""
"html-keyboard-response","107","155130","0.0-11.0-2.32","631e8c52a408a788b7e62e11","bdp_rwlrn","Sat Apr 08 2023 10:57:07 GMT-0500 (Central Daylight Time)","379022","Untrustworthy,Trustworthy","","null","","","","decisionFB","","<div class='trialDiv'><img src='Fruit/mixed-berries2.png'><br><font class='baseline'><strong>Berry Bla$t</strong><p>Choose number of points to bet.</font><div class='respPicDiv'><img src='img/responseButtonOffersNo0L1.png' class='respPic'></div></div>","null","11","Berry Bla$t","Fruit/mixed-berries2.png","Lost","0.2,0.65","9","0.2","220","33","",""
"html-keyboard-response","108","156173","0.0-11.0-3.32","631e8c52a408a788b7e62e11","bdp_rwlrn","Sat Apr 08 2023 10:57:07 GMT-0500 (Central Daylight Time)","379022","Untrustworthy,Trustworthy","","null","","","","feedback","","<div class='respPicDiv'><img src='img/responseButtonOffersNo0_wht.png' class='respPic'></div><div class='trialDiv'><img src='Fruit/mixed-berries2.png'><br><font class='baseline'><strong>Berry Bla$t</strong><p><strong><font class='negOutcome'>You LOST</font><p>You bet: 1</strong></font> &nbsp; &nbsp; &nbsp; &nbsp; &nbsp; &nbsp;<font class='negOutcome'>You receive: <strong>0</strong></font></div>","null","11","Berry Bla$t","Fruit/mixed-berries2.png","Lost","0.2,0.65","9","0.2","220","33","",""
"html-keyboard-response","109","156359","0.0-11.0-1.33","631e8c52a408a788b7e62e11","bdp_rwlrn","Sat Apr 08 2023 10:57:07 GMT-0500 (Central Daylight Time)","379022","Untrustworthy,Trustworthy","","184","","","","decision","","<div class='trialDiv'><img src='Fruit/apple.png'><br><font class='baseline'><strong>Awesome Apples</strong><p>Choose number of points to bet.</font><div class='respPicDiv'><img src='img/responseButtonOffersNo0L.png' class='respPic'></div></div>","5","12","Awesome Apples","Fruit/apple.png","Won","0.8,0.35","13","0.8","225","34","",""
"html-keyboard-response","110","156611","0.0-11.0-2.33","631e8c52a408a788b7e62e11","bdp_rwlrn","Sat Apr 08 2023 10:57:07 GMT-0500 (Central Daylight Time)","379022","Untrustworthy,Trustworthy","","null","","","","decisionFB","","<div class='trialDiv'><img src='Fruit/apple.png'><br><font class='baseline'><strong>Awesome Apples</strong><p>Choose number of points to bet.</font><div class='respPicDiv'><img src='img/responseButtonOffersNo0L5.png' class='respPic'></div></div>","null","12","Awesome Apples","Fruit/apple.png","Won","0.8,0.35","13","0.8","220","34","",""
"html-keyboard-response","111","157613","0.0-11.0-3.33","631e8c52a408a788b7e62e11","bdp_rwlrn","Sat Apr 08 2023 10:57:07 GMT-0500 (Central Daylight Time)","379022","Untrustworthy,Trustworthy","","null","","","","feedback","","<div class='respPicDiv'><img src='img/responseButtonOffersNo0_wht.png' class='respPic'></div><div class='trialDiv'><img src='Fruit/apple.png'><br><font class='baseline'><strong>Awesome Apples</strong><p><strong><font class='posOutcome'>You WON</font><p>You bet: 5</strong></font> &nbsp; &nbsp; &nbsp; &nbsp; &nbsp; &nbsp;<font class='posOutcome'>you receive: <strong>10</strong></font></div>","null","12","Awesome Apples","Fruit/apple.png","Won","0.8,0.35","13","0.8","230","34","",""
"html-keyboard-response","112","157905","0.0-11.0-1.34","631e8c52a408a788b7e62e11","bdp_rwlrn","Sat Apr 08 2023 10:57:07 GMT-0500 (Central Daylight Time)","379022","Untrustworthy,Trustworthy","","290","","","","decision","","<div class='trialDiv'><img src='Fruit/mixed-berries2.png'><br><font class='baseline'><strong>Berry Bla$t</strong><p>Choose number of points to bet.</font><div class='respPicDiv'><img src='img/responseButtonOffersNo0L.png' class='respPic'></div></div>","5","12","Berry Bla$t","Fruit/mixed-berries2.png","Lost","0.2,0.65","9","0.2","235","35","",""
"html-keyboard-response","113","158157","0.0-11.0-2.34","631e8c52a408a788b7e62e11","bdp_rwlrn","Sat Apr 08 2023 10:57:07 GMT-0500 (Central Daylight Time)","379022","Untrustworthy,Trustworthy","","null","","","","decisionFB","","<div class='trialDiv'><img src='Fruit/mixed-berries2.png'><br><font class='baseline'><strong>Berry Bla$t</strong><p>Choose number of points to bet.</font><div class='respPicDiv'><img src='img/responseButtonOffersNo0L5.png' class='respPic'></div></div>","null","12","Berry Bla$t","Fruit/mixed-berries2.png","Lost","0.2,0.65","9","0.2","230","35","",""
"html-keyboard-response","114","159159","0.0-11.0-3.34","631e8c52a408a788b7e62e11","bdp_rwlrn","Sat Apr 08 2023 10:57:07 GMT-0500 (Central Daylight Time)","379022","Untrustworthy,Trustworthy","","null","","","","feedback","","<div class='respPicDiv'><img src='img/responseButtonOffersNo0_wht.png' class='respPic'></div><div class='trialDiv'><img src='Fruit/mixed-berries2.png'><br><font class='baseline'><strong>Berry Bla$t</strong><p><strong><font class='negOutcome'>You LOST</font><p>You bet: 5</strong></font> &nbsp; &nbsp; &nbsp; &nbsp; &nbsp; &nbsp;<font class='negOutcome'>You receive: <strong>0</strong></font></div>","null","12","Berry Bla$t","Fruit/mixed-berries2.png","Lost","0.2,0.65","9","0.2","230","35","",""
"html-keyboard-response","115","159704","0.0-11.0-1.35","631e8c52a408a788b7e62e11","bdp_rwlrn","Sat Apr 08 2023 10:57:07 GMT-0500 (Central Daylight Time)","379022","Untrustworthy,Trustworthy","","543","","","","decision","","<div class='trialDiv'><img src='Fruit/pears.png'><br><font class='baseline'><strong>Pears Aplenty</strong><p>Choose number of points to bet.</font><div class='respPicDiv'><img src='img/responseButtonOffersNo0L.png' class='respPic'></div></div>","5","12","Pears Aplenty","Fruit/pears.png","Won","0.65,0.35","12","0.65","235","36","",""
"html-keyboard-response","116","159956","0.0-11.0-2.35","631e8c52a408a788b7e62e11","bdp_rwlrn","Sat Apr 08 2023 10:57:07 GMT-0500 (Central Daylight Time)","379022","Untrustworthy,Trustworthy","","null","","","","decisionFB","","<div class='trialDiv'><img src='Fruit/pears.png'><br><font class='baseline'><strong>Pears Aplenty</strong><p>Choose number of points to bet.</font><div class='respPicDiv'><img src='img/responseButtonOffersNo0L5.png' class='respPic'></div></div>","null","12","Pears Aplenty","Fruit/pears.png","Won","0.65,0.35","12","0.65","230","36","",""
"html-keyboard-response","117","160966","0.0-11.0-3.35","631e8c52a408a788b7e62e11","bdp_rwlrn","Sat Apr 08 2023 10:57:07 GMT-0500 (Central Daylight Time)","379022","Untrustworthy,Trustworthy","","null","","","","feedback","","<div class='respPicDiv'><img src='img/responseButtonOffersNo0_wht.png' class='respPic'></div><div class='trialDiv'><img src='Fruit/pears.png'><br><font class='baseline'><strong>Pears Aplenty</strong><p><strong><font class='posOutcome'>You WON</font><p>You bet: 5</strong></font> &nbsp; &nbsp; &nbsp; &nbsp; &nbsp; &nbsp;<font class='posOutcome'>you receive: <strong>10</strong></font></div>","null","12","Pears Aplenty","Fruit/pears.png","Won","0.65,0.35","12","0.65","240","36","",""
"html-keyboard-response","118","161506","0.0-11.0-1.36","631e8c52a408a788b7e62e11","bdp_rwlrn","Sat Apr 08 2023 10:57:07 GMT-0500 (Central Daylight Time)","379022","Untrustworthy,Trustworthy","","538","","","","decision","","<div class='trialDiv'><img src='Fruit/mixed-berries2.png'><br><font class='baseline'><strong>Berry Bla$t</strong><p>Choose number of points to bet.</font><div class='respPicDiv'><img src='img/responseButtonOffersNo0L.png' class='respPic'></div></div>","1","13","Berry Bla$t","Fruit/mixed-berries2.png","Won","0.2,0.65","9","0.2","245","37","",""
"html-keyboard-response","119","161759","0.0-11.0-2.36","631e8c52a408a788b7e62e11","bdp_rwlrn","Sat Apr 08 2023 10:57:07 GMT-0500 (Central Daylight Time)","379022","Untrustworthy,Trustworthy","","null","","","","decisionFB","","<div class='trialDiv'><img src='Fruit/mixed-berries2.png'><br><font class='baseline'><strong>Berry Bla$t</strong><p>Choose number of points to bet.</font><div class='respPicDiv'><img src='img/responseButtonOffersNo0L1.png' class='respPic'></div></div>","null","13","Berry Bla$t","Fruit/mixed-berries2.png","Won","0.2,0.65","9","0.2","244","37","",""
"html-keyboard-response","120","162761","0.0-11.0-3.36","631e8c52a408a788b7e62e11","bdp_rwlrn","Sat Apr 08 2023 10:57:07 GMT-0500 (Central Daylight Time)","379022","Untrustworthy,Trustworthy","","null","","","","feedback","","<div class='respPicDiv'><img src='img/responseButtonOffersNo0_wht.png' class='respPic'></div><div class='trialDiv'><img src='Fruit/mixed-berries2.png'><br><font class='baseline'><strong>Berry Bla$t</strong><p><strong><font class='posOutcome'>You WON</font><p>You bet: 1</strong></font> &nbsp; &nbsp; &nbsp; &nbsp; &nbsp; &nbsp;<font class='posOutcome'>you receive: <strong>2</strong></font></div>","null","13","Berry Bla$t","Fruit/mixed-berries2.png","Won","0.2,0.65","9","0.2","246","37","",""
"html-keyboard-response","121","163169","0.0-11.0-1.37","631e8c52a408a788b7e62e11","bdp_rwlrn","Sat Apr 08 2023 10:57:07 GMT-0500 (Central Daylight Time)","379022","Untrustworthy,Trustworthy","","406","","","","decision","","<div class='trialDiv'><img src='Fruit/pears.png'><br><font class='baseline'><strong>Pears Aplenty</strong><p>Choose number of points to bet.</font><div class='respPicDiv'><img src='img/responseButtonOffersNo0L.png' class='respPic'></div></div>","5","13","Pears Aplenty","Fruit/pears.png","Won","0.65,0.35","12","0.65","251","38","",""
"html-keyboard-response","122","163421","0.0-11.0-2.37","631e8c52a408a788b7e62e11","bdp_rwlrn","Sat Apr 08 2023 10:57:07 GMT-0500 (Central Daylight Time)","379022","Untrustworthy,Trustworthy","","null","","","","decisionFB","","<div class='trialDiv'><img src='Fruit/pears.png'><br><font class='baseline'><strong>Pears Aplenty</strong><p>Choose number of points to bet.</font><div class='respPicDiv'><img src='img/responseButtonOffersNo0L5.png' class='respPic'></div></div>","null","13","Pears Aplenty","Fruit/pears.png","Won","0.65,0.35","12","0.65","246","38","",""
"html-keyboard-response","123","164422","0.0-11.0-3.37","631e8c52a408a788b7e62e11","bdp_rwlrn","Sat Apr 08 2023 10:57:07 GMT-0500 (Central Daylight Time)","379022","Untrustworthy,Trustworthy","","null","","","","feedback","","<div class='respPicDiv'><img src='img/responseButtonOffersNo0_wht.png' class='respPic'></div><div class='trialDiv'><img src='Fruit/pears.png'><br><font class='baseline'><strong>Pears Aplenty</strong><p><strong><font class='posOutcome'>You WON</font><p>You bet: 5</strong></font> &nbsp; &nbsp; &nbsp; &nbsp; &nbsp; &nbsp;<font class='posOutcome'>you receive: <strong>10</strong></font></div>","null","13","Pears Aplenty","Fruit/pears.png","Won","0.65,0.35","12","0.65","256","38","",""
"html-keyboard-response","124","164697","0.0-11.0-1.38","631e8c52a408a788b7e62e11","bdp_rwlrn","Sat Apr 08 2023 10:57:07 GMT-0500 (Central Daylight Time)","379022","Untrustworthy,Trustworthy","","273","","","","decision","","<div class='trialDiv'><img src='Fruit/apple.png'><br><font class='baseline'><strong>Awesome Apples</strong><p>Choose number of points to bet.</font><div class='respPicDiv'><img src='img/responseButtonOffersNo0L.png' class='respPic'></div></div>","5","13","Awesome Apples","Fruit/apple.png","Won","0.8,0.35","13","0.8","261","39","",""
"html-keyboard-response","125","164949","0.0-11.0-2.38","631e8c52a408a788b7e62e11","bdp_rwlrn","Sat Apr 08 2023 10:57:07 GMT-0500 (Central Daylight Time)","379022","Untrustworthy,Trustworthy","","null","","","","decisionFB","","<div class='trialDiv'><img src='Fruit/apple.png'><br><font class='baseline'><strong>Awesome Apples</strong><p>Choose number of points to bet.</font><div class='respPicDiv'><img src='img/responseButtonOffersNo0L5.png' class='respPic'></div></div>","null","13","Awesome Apples","Fruit/apple.png","Won","0.8,0.35","13","0.8","256","39","",""
"html-keyboard-response","126","165950","0.0-11.0-3.38","631e8c52a408a788b7e62e11","bdp_rwlrn","Sat Apr 08 2023 10:57:07 GMT-0500 (Central Daylight Time)","379022","Untrustworthy,Trustworthy","","null","","","","feedback","","<div class='respPicDiv'><img src='img/responseButtonOffersNo0_wht.png' class='respPic'></div><div class='trialDiv'><img src='Fruit/apple.png'><br><font class='baseline'><strong>Awesome Apples</strong><p><strong><font class='posOutcome'>You WON</font><p>You bet: 5</strong></font> &nbsp; &nbsp; &nbsp; &nbsp; &nbsp; &nbsp;<font class='posOutcome'>you receive: <strong>10</strong></font></div>","null","13","Awesome Apples","Fruit/apple.png","Won","0.8,0.35","13","0.8","266","39","",""
"html-keyboard-response","127","166597","0.0-11.0-1.39","631e8c52a408a788b7e62e11","bdp_rwlrn","Sat Apr 08 2023 10:57:07 GMT-0500 (Central Daylight Time)","379022","Untrustworthy,Trustworthy","","646","","","","decision","","<div class='trialDiv'><img src='Fruit/pears.png'><br><font class='baseline'><strong>Pears Aplenty</strong><p>Choose number of points to bet.</font><div class='respPicDiv'><img src='img/responseButtonOffersNo0L.png' class='respPic'></div></div>","5","14","Pears Aplenty","Fruit/pears.png","Lost","0.65,0.35","12","0.65","271","40","",""
"html-keyboard-response","128","166848","0.0-11.0-2.39","631e8c52a408a788b7e62e11","bdp_rwlrn","Sat Apr 08 2023 10:57:07 GMT-0500 (Central Daylight Time)","379022","Untrustworthy,Trustworthy","","null","","","","decisionFB","","<div class='trialDiv'><img src='Fruit/pears.png'><br><font class='baseline'><strong>Pears Aplenty</strong><p>Choose number of points to bet.</font><div class='respPicDiv'><img src='img/responseButtonOffersNo0L5.png' class='respPic'></div></div>","null","14","Pears Aplenty","Fruit/pears.png","Lost","0.65,0.35","12","0.65","266","40","",""
"html-keyboard-response","129","167851","0.0-11.0-3.39","631e8c52a408a788b7e62e11","bdp_rwlrn","Sat Apr 08 2023 10:57:07 GMT-0500 (Central Daylight Time)","379022","Untrustworthy,Trustworthy","","null","","","","feedback","","<div class='respPicDiv'><img src='img/responseButtonOffersNo0_wht.png' class='respPic'></div><div class='trialDiv'><img src='Fruit/pears.png'><br><font class='baseline'><strong>Pears Aplenty</strong><p><strong><font class='negOutcome'>You LOST</font><p>You bet: 5</strong></font> &nbsp; &nbsp; &nbsp; &nbsp; &nbsp; &nbsp;<font class='negOutcome'>You receive: <strong>0</strong></font></div>","null","14","Pears Aplenty","Fruit/pears.png","Lost","0.65,0.35","12","0.65","266","40","",""
"html-keyboard-response","130","168264","0.0-11.0-1.40","631e8c52a408a788b7e62e11","bdp_rwlrn","Sat Apr 08 2023 10:57:07 GMT-0500 (Central Daylight Time)","379022","Untrustworthy,Trustworthy","","412","","","","decision","","<div class='trialDiv'><img src='Fruit/apple.png'><br><font class='baseline'><strong>Awesome Apples</strong><p>Choose number of points to bet.</font><div class='respPicDiv'><img src='img/responseButtonOffersNo0L.png' class='respPic'></div></div>","5","14","Awesome Apples","Fruit/apple.png","Lost","0.8,0.35","13","0.8","271","41","",""
"html-keyboard-response","131","168516","0.0-11.0-2.40","631e8c52a408a788b7e62e11","bdp_rwlrn","Sat Apr 08 2023 10:57:07 GMT-0500 (Central Daylight Time)","379022","Untrustworthy,Trustworthy","","null","","","","decisionFB","","<div class='trialDiv'><img src='Fruit/apple.png'><br><font class='baseline'><strong>Awesome Apples</strong><p>Choose number of points to bet.</font><div class='respPicDiv'><img src='img/responseButtonOffersNo0L5.png' class='respPic'></div></div>","null","14","Awesome Apples","Fruit/apple.png","Lost","0.8,0.35","13","0.8","266","41","",""
"html-keyboard-response","132","169519","0.0-11.0-3.40","631e8c52a408a788b7e62e11","bdp_rwlrn","Sat Apr 08 2023 10:57:07 GMT-0500 (Central Daylight Time)","379022","Untrustworthy,Trustworthy","","null","","","","feedback","","<div class='respPicDiv'><img src='img/responseButtonOffersNo0_wht.png' class='respPic'></div><div class='trialDiv'><img src='Fruit/apple.png'><br><font class='baseline'><strong>Awesome Apples</strong><p><strong><font class='negOutcome'>You LOST</font><p>You bet: 5</strong></font> &nbsp; &nbsp; &nbsp; &nbsp; &nbsp; &nbsp;<font class='negOutcome'>You receive: <strong>0</strong></font></div>","null","14","Awesome Apples","Fruit/apple.png","Lost","0.8,0.35","13","0.8","266","41","",""
"html-keyboard-response","133","169995","0.0-11.0-1.41","631e8c52a408a788b7e62e11","bdp_rwlrn","Sat Apr 08 2023 10:57:07 GMT-0500 (Central Daylight Time)","379022","Untrustworthy,Trustworthy","","475","","","","decision","","<div class='trialDiv'><img src='Fruit/mixed-berries2.png'><br><font class='baseline'><strong>Berry Bla$t</strong><p>Choose number of points to bet.</font><div class='respPicDiv'><img src='img/responseButtonOffersNo0L.png' class='respPic'></div></div>","1","14","Berry Bla$t","Fruit/mixed-berries2.png","Won","0.2,0.65","9","0.2","271","42","",""
"html-keyboard-response","134","170247","0.0-11.0-2.41","631e8c52a408a788b7e62e11","bdp_rwlrn","Sat Apr 08 2023 10:57:07 GMT-0500 (Central Daylight Time)","379022","Untrustworthy,Trustworthy","","null","","","","decisionFB","","<div class='trialDiv'><img src='Fruit/mixed-berries2.png'><br><font class='baseline'><strong>Berry Bla$t</strong><p>Choose number of points to bet.</font><div class='respPicDiv'><img src='img/responseButtonOffersNo0L1.png' class='respPic'></div></div>","null","14","Berry Bla$t","Fruit/mixed-berries2.png","Won","0.2,0.65","9","0.2","270","42","",""
"html-keyboard-response","135","171250","0.0-11.0-3.41","631e8c52a408a788b7e62e11","bdp_rwlrn","Sat Apr 08 2023 10:57:07 GMT-0500 (Central Daylight Time)","379022","Untrustworthy,Trustworthy","","null","","","","feedback","","<div class='respPicDiv'><img src='img/responseButtonOffersNo0_wht.png' class='respPic'></div><div class='trialDiv'><img src='Fruit/mixed-berries2.png'><br><font class='baseline'><strong>Berry Bla$t</strong><p><strong><font class='posOutcome'>You WON</font><p>You bet: 1</strong></font> &nbsp; &nbsp; &nbsp; &nbsp; &nbsp; &nbsp;<font class='posOutcome'>you receive: <strong>2</strong></font></div>","null","14","Berry Bla$t","Fruit/mixed-berries2.png","Won","0.2,0.65","9","0.2","272","42","",""
"html-keyboard-response","136","171620","0.0-11.0-1.42","631e8c52a408a788b7e62e11","bdp_rwlrn","Sat Apr 08 2023 10:57:07 GMT-0500 (Central Daylight Time)","379022","Untrustworthy,Trustworthy","","369","","","","decision","","<div class='trialDiv'><img src='Fruit/apple.png'><br><font class='baseline'><strong>Awesome Apples</strong><p>Choose number of points to bet.</font><div class='respPicDiv'><img src='img/responseButtonOffersNo0L.png' class='respPic'></div></div>","5","15","Awesome Apples","Fruit/apple.png","Won","0.8,0.35","13","0.8","277","43","",""
"html-keyboard-response","137","171874","0.0-11.0-2.42","631e8c52a408a788b7e62e11","bdp_rwlrn","Sat Apr 08 2023 10:57:07 GMT-0500 (Central Daylight Time)","379022","Untrustworthy,Trustworthy","","null","","","","decisionFB","","<div class='trialDiv'><img src='Fruit/apple.png'><br><font class='baseline'><strong>Awesome Apples</strong><p>Choose number of points to bet.</font><div class='respPicDiv'><img src='img/responseButtonOffersNo0L5.png' class='respPic'></div></div>","null","15","Awesome Apples","Fruit/apple.png","Won","0.8,0.35","13","0.8","272","43","",""
"html-keyboard-response","138","172876","0.0-11.0-3.42","631e8c52a408a788b7e62e11","bdp_rwlrn","Sat Apr 08 2023 10:57:07 GMT-0500 (Central Daylight Time)","379022","Untrustworthy,Trustworthy","","null","","","","feedback","","<div class='respPicDiv'><img src='img/responseButtonOffersNo0_wht.png' class='respPic'></div><div class='trialDiv'><img src='Fruit/apple.png'><br><font class='baseline'><strong>Awesome Apples</strong><p><strong><font class='posOutcome'>You WON</font><p>You bet: 5</strong></font> &nbsp; &nbsp; &nbsp; &nbsp; &nbsp; &nbsp;<font class='posOutcome'>you receive: <strong>10</strong></font></div>","null","15","Awesome Apples","Fruit/apple.png","Won","0.8,0.35","13","0.8","282","43","",""
"html-keyboard-response","139","173253","0.0-11.0-1.43","631e8c52a408a788b7e62e11","bdp_rwlrn","Sat Apr 08 2023 10:57:07 GMT-0500 (Central Daylight Time)","379022","Untrustworthy,Trustworthy","","375","","","","decision","","<div class='trialDiv'><img src='Fruit/pears.png'><br><font class='baseline'><strong>Pears Aplenty</strong><p>Choose number of points to bet.</font><div class='respPicDiv'><img src='img/responseButtonOffersNo0L.png' class='respPic'></div></div>","5","15","Pears Aplenty","Fruit/pears.png","Won","0.65,0.35","12","0.65","287","44","",""
"html-keyboard-response","140","173504","0.0-11.0-2.43","631e8c52a408a788b7e62e11","bdp_rwlrn","Sat Apr 08 2023 10:57:07 GMT-0500 (Central Daylight Time)","379022","Untrustworthy,Trustworthy","","null","","","","decisionFB","","<div class='trialDiv'><img src='Fruit/pears.png'><br><font class='baseline'><strong>Pears Aplenty</strong><p>Choose number of points to bet.</font><div class='respPicDiv'><img src='img/responseButtonOffersNo0L5.png' class='respPic'></div></div>","null","15","Pears Aplenty","Fruit/pears.png","Won","0.65,0.35","12","0.65","282","44","",""
"html-keyboard-response","141","174506","0.0-11.0-3.43","631e8c52a408a788b7e62e11","bdp_rwlrn","Sat Apr 08 2023 10:57:07 GMT-0500 (Central Daylight Time)","379022","Untrustworthy,Trustworthy","","null","","","","feedback","","<div class='respPicDiv'><img src='img/responseButtonOffersNo0_wht.png' class='respPic'></div><div class='trialDiv'><img src='Fruit/pears.png'><br><font class='baseline'><strong>Pears Aplenty</strong><p><strong><font class='posOutcome'>You WON</font><p>You bet: 5</strong></font> &nbsp; &nbsp; &nbsp; &nbsp; &nbsp; &nbsp;<font class='posOutcome'>you receive: <strong>10</strong></font></div>","null","15","Pears Aplenty","Fruit/pears.png","Won","0.65,0.35","12","0.65","292","44","",""
"html-keyboard-response","142","175166","0.0-11.0-1.44","631e8c52a408a788b7e62e11","bdp_rwlrn","Sat Apr 08 2023 10:57:07 GMT-0500 (Central Daylight Time)","379022","Untrustworthy,Trustworthy","","659","","","","decision","","<div class='trialDiv'><img src='Fruit/mixed-berries2.png'><br><font class='baseline'><strong>Berry Bla$t</strong><p>Choose number of points to bet.</font><div class='respPicDiv'><img src='img/responseButtonOffersNo0L.png' class='respPic'></div></div>","1","15","Berry Bla$t","Fruit/mixed-berries2.png","Won","0.2,0.65","9","0.2","297","45","",""
"html-keyboard-response","143","175419","0.0-11.0-2.44","631e8c52a408a788b7e62e11","bdp_rwlrn","Sat Apr 08 2023 10:57:07 GMT-0500 (Central Daylight Time)","379022","Untrustworthy,Trustworthy","","null","","","","decisionFB","","<div class='trialDiv'><img src='Fruit/mixed-berries2.png'><br><font class='baseline'><strong>Berry Bla$t</strong><p>Choose number of points to bet.</font><div class='respPicDiv'><img src='img/responseButtonOffersNo0L1.png' class='respPic'></div></div>","null","15","Berry Bla$t","Fruit/mixed-berries2.png","Won","0.2,0.65","9","0.2","296","45","",""
"html-keyboard-response","144","176421","0.0-11.0-3.44","631e8c52a408a788b7e62e11","bdp_rwlrn","Sat Apr 08 2023 10:57:07 GMT-0500 (Central Daylight Time)","379022","Untrustworthy,Trustworthy","","null","","","","feedback","","<div class='respPicDiv'><img src='img/responseButtonOffersNo0_wht.png' class='respPic'></div><div class='trialDiv'><img src='Fruit/mixed-berries2.png'><br><font class='baseline'><strong>Berry Bla$t</strong><p><strong><font class='posOutcome'>You WON</font><p>You bet: 1</strong></font> &nbsp; &nbsp; &nbsp; &nbsp; &nbsp; &nbsp;<font class='posOutcome'>you receive: <strong>2</strong></font></div>","null","15","Berry Bla$t","Fruit/mixed-berries2.png","Won","0.2,0.65","9","0.2","298","45","",""
"html-keyboard-response","145","176929","0.0-11.0-1.45","631e8c52a408a788b7e62e11","bdp_rwlrn","Sat Apr 08 2023 10:57:07 GMT-0500 (Central Daylight Time)","379022","Untrustworthy,Trustworthy","","507","","","","decision","","<div class='trialDiv'><img src='Fruit/pears.png'><br><font class='baseline'><strong>Pears Aplenty</strong><p>Choose number of points to bet.</font><div class='respPicDiv'><img src='img/responseButtonOffersNo0L.png' class='respPic'></div></div>","5","16","Pears Aplenty","Fruit/pears.png","Lost","0.65,0.35","12","0.65","303","46","",""
"html-keyboard-response","146","177181","0.0-11.0-2.45","631e8c52a408a788b7e62e11","bdp_rwlrn","Sat Apr 08 2023 10:57:07 GMT-0500 (Central Daylight Time)","379022","Untrustworthy,Trustworthy","","null","","","","decisionFB","","<div class='trialDiv'><img src='Fruit/pears.png'><br><font class='baseline'><strong>Pears Aplenty</strong><p>Choose number of points to bet.</font><div class='respPicDiv'><img src='img/responseButtonOffersNo0L5.png' class='respPic'></div></div>","null","16","Pears Aplenty","Fruit/pears.png","Lost","0.65,0.35","12","0.65","298","46","",""
"html-keyboard-response","147","178183","0.0-11.0-3.45","631e8c52a408a788b7e62e11","bdp_rwlrn","Sat Apr 08 2023 10:57:07 GMT-0500 (Central Daylight Time)","379022","Untrustworthy,Trustworthy","","null","","","","feedback","","<div class='respPicDiv'><img src='img/responseButtonOffersNo0_wht.png' class='respPic'></div><div class='trialDiv'><img src='Fruit/pears.png'><br><font class='baseline'><strong>Pears Aplenty</strong><p><strong><font class='negOutcome'>You LOST</font><p>You bet: 5</strong></font> &nbsp; &nbsp; &nbsp; &nbsp; &nbsp; &nbsp;<font class='negOutcome'>You receive: <strong>0</strong></font></div>","null","16","Pears Aplenty","Fruit/pears.png","Lost","0.65,0.35","12","0.65","298","46","",""
"html-keyboard-response","148","178591","0.0-11.0-1.46","631e8c52a408a788b7e62e11","bdp_rwlrn","Sat Apr 08 2023 10:57:07 GMT-0500 (Central Daylight Time)","379022","Untrustworthy,Trustworthy","","407","","","","decision","","<div class='trialDiv'><img src='Fruit/mixed-berries2.png'><br><font class='baseline'><strong>Berry Bla$t</strong><p>Choose number of points to bet.</font><div class='respPicDiv'><img src='img/responseButtonOffersNo0L.png' class='respPic'></div></div>","5","16","Berry Bla$t","Fruit/mixed-berries2.png","Won","0.2,0.65","9","0.2","303","47","",""
"html-keyboard-response","149","178843","0.0-11.0-2.46","631e8c52a408a788b7e62e11","bdp_rwlrn","Sat Apr 08 2023 10:57:07 GMT-0500 (Central Daylight Time)","379022","Untrustworthy,Trustworthy","","null","","","","decisionFB","","<div class='trialDiv'><img src='Fruit/mixed-berries2.png'><br><font class='baseline'><strong>Berry Bla$t</strong><p>Choose number of points to bet.</font><div class='respPicDiv'><img src='img/responseButtonOffersNo0L5.png' class='respPic'></div></div>","null","16","Berry Bla$t","Fruit/mixed-berries2.png","Won","0.2,0.65","9","0.2","298","47","",""
"html-keyboard-response","150","179847","0.0-11.0-3.46","631e8c52a408a788b7e62e11","bdp_rwlrn","Sat Apr 08 2023 10:57:07 GMT-0500 (Central Daylight Time)","379022","Untrustworthy,Trustworthy","","null","","","","feedback","","<div class='respPicDiv'><img src='img/responseButtonOffersNo0_wht.png' class='respPic'></div><div class='trialDiv'><img src='Fruit/mixed-berries2.png'><br><font class='baseline'><strong>Berry Bla$t</strong><p><strong><font class='posOutcome'>You WON</font><p>You bet: 5</strong></font> &nbsp; &nbsp; &nbsp; &nbsp; &nbsp; &nbsp;<font class='posOutcome'>you receive: <strong>10</strong></font></div>","null","16","Berry Bla$t","Fruit/mixed-berries2.png","Won","0.2,0.65","9","0.2","308","47","",""
"html-keyboard-response","151","180580","0.0-11.0-1.47","631e8c52a408a788b7e62e11","bdp_rwlrn","Sat Apr 08 2023 10:57:07 GMT-0500 (Central Daylight Time)","379022","Untrustworthy,Trustworthy","","731","","","","decision","","<div class='trialDiv'><img src='Fruit/apple.png'><br><font class='baseline'><strong>Awesome Apples</strong><p>Choose number of points to bet.</font><div class='respPicDiv'><img src='img/responseButtonOffersNo0L.png' class='respPic'></div></div>","5","16","Awesome Apples","Fruit/apple.png","Won","0.8,0.35","13","0.8","313","48","",""
"html-keyboard-response","152","180832","0.0-11.0-2.47","631e8c52a408a788b7e62e11","bdp_rwlrn","Sat Apr 08 2023 10:57:07 GMT-0500 (Central Daylight Time)","379022","Untrustworthy,Trustworthy","","null","","","","decisionFB","","<div class='trialDiv'><img src='Fruit/apple.png'><br><font class='baseline'><strong>Awesome Apples</strong><p>Choose number of points to bet.</font><div class='respPicDiv'><img src='img/responseButtonOffersNo0L5.png' class='respPic'></div></div>","null","16","Awesome Apples","Fruit/apple.png","Won","0.8,0.35","13","0.8","308","48","",""
"html-keyboard-response","153","181835","0.0-11.0-3.47","631e8c52a408a788b7e62e11","bdp_rwlrn","Sat Apr 08 2023 10:57:07 GMT-0500 (Central Daylight Time)","379022","Untrustworthy,Trustworthy","","null","","","","feedback","","<div class='respPicDiv'><img src='img/responseButtonOffersNo0_wht.png' class='respPic'></div><div class='trialDiv'><img src='Fruit/apple.png'><br><font class='baseline'><strong>Awesome Apples</strong><p><strong><font class='posOutcome'>You WON</font><p>You bet: 5</strong></font> &nbsp; &nbsp; &nbsp; &nbsp; &nbsp; &nbsp;<font class='posOutcome'>you receive: <strong>10</strong></font></div>","null","16","Awesome Apples","Fruit/apple.png","Won","0.8,0.35","13","0.8","318","48","",""
"html-keyboard-response","154","182375","0.0-11.0-1.48","631e8c52a408a788b7e62e11","bdp_rwlrn","Sat Apr 08 2023 10:57:07 GMT-0500 (Central Daylight Time)","379022","Untrustworthy,Trustworthy","","539","","","","decision","","<div class='trialDiv'><img src='Fruit/mixed-berries2.png'><br><font class='baseline'><strong>Berry Bla$t</strong><p>Choose number of points to bet.</font><div class='respPicDiv'><img src='img/responseButtonOffersNo0L.png' class='respPic'></div></div>","1","17","Berry Bla$t","Fruit/mixed-berries2.png","Won","0.2,0.65","9","0.2","323","49","",""
"html-keyboard-response","155","182629","0.0-11.0-2.48","631e8c52a408a788b7e62e11","bdp_rwlrn","Sat Apr 08 2023 10:57:07 GMT-0500 (Central Daylight Time)","379022","Untrustworthy,Trustworthy","","null","","","","decisionFB","","<div class='trialDiv'><img src='Fruit/mixed-berries2.png'><br><font class='baseline'><strong>Berry Bla$t</strong><p>Choose number of points to bet.</font><div class='respPicDiv'><img src='img/responseButtonOffersNo0L1.png' class='respPic'></div></div>","null","17","Berry Bla$t","Fruit/mixed-berries2.png","Won","0.2,0.65","9","0.2","322","49","",""
"html-keyboard-response","156","183630","0.0-11.0-3.48","631e8c52a408a788b7e62e11","bdp_rwlrn","Sat Apr 08 2023 10:57:07 GMT-0500 (Central Daylight Time)","379022","Untrustworthy,Trustworthy","","null","","","","feedback","","<div class='respPicDiv'><img src='img/responseButtonOffersNo0_wht.png' class='respPic'></div><div class='trialDiv'><img src='Fruit/mixed-berries2.png'><br><font class='baseline'><strong>Berry Bla$t</strong><p><strong><font class='posOutcome'>You WON</font><p>You bet: 1</strong></font> &nbsp; &nbsp; &nbsp; &nbsp; &nbsp; &nbsp;<font class='posOutcome'>you receive: <strong>2</strong></font></div>","null","17","Berry Bla$t","Fruit/mixed-berries2.png","Won","0.2,0.65","9","0.2","324","49","",""
"html-keyboard-response","157","184050","0.0-11.0-1.49","631e8c52a408a788b7e62e11","bdp_rwlrn","Sat Apr 08 2023 10:57:07 GMT-0500 (Central Daylight Time)","379022","Untrustworthy,Trustworthy","","418","","","","decision","","<div class='trialDiv'><img src='Fruit/pears.png'><br><font class='baseline'><strong>Pears Aplenty</strong><p>Choose number of points to bet.</font><div class='respPicDiv'><img src='img/responseButtonOffersNo0L.png' class='respPic'></div></div>","5","17","Pears Aplenty","Fruit/pears.png","Lost","0.65,0.35","12","0.65","329","50","",""
"html-keyboard-response","158","184302","0.0-11.0-2.49","631e8c52a408a788b7e62e11","bdp_rwlrn","Sat Apr 08 2023 10:57:07 GMT-0500 (Central Daylight Time)","379022","Untrustworthy,Trustworthy","","null","","","","decisionFB","","<div class='trialDiv'><img src='Fruit/pears.png'><br><font class='baseline'><strong>Pears Aplenty</strong><p>Choose number of points to bet.</font><div class='respPicDiv'><img src='img/responseButtonOffersNo0L5.png' class='respPic'></div></div>","null","17","Pears Aplenty","Fruit/pears.png","Lost","0.65,0.35","12","0.65","324","50","",""
"html-keyboard-response","159","185304","0.0-11.0-3.49","631e8c52a408a788b7e62e11","bdp_rwlrn","Sat Apr 08 2023 10:57:07 GMT-0500 (Central Daylight Time)","379022","Untrustworthy,Trustworthy","","null","","","","feedback","","<div class='respPicDiv'><img src='img/responseButtonOffersNo0_wht.png' class='respPic'></div><div class='trialDiv'><img src='Fruit/pears.png'><br><font class='baseline'><strong>Pears Aplenty</strong><p><strong><font class='negOutcome'>You LOST</font><p>You bet: 5</strong></font> &nbsp; &nbsp; &nbsp; &nbsp; &nbsp; &nbsp;<font class='negOutcome'>You receive: <strong>0</strong></font></div>","null","17","Pears Aplenty","Fruit/pears.png","Lost","0.65,0.35","12","0.65","324","50","",""
"html-keyboard-response","160","185893","0.0-11.0-1.50","631e8c52a408a788b7e62e11","bdp_rwlrn","Sat Apr 08 2023 10:57:07 GMT-0500 (Central Daylight Time)","379022","Untrustworthy,Trustworthy","","588","","","","decision","","<div class='trialDiv'><img src='Fruit/apple.png'><br><font class='baseline'><strong>Awesome Apples</strong><p>Choose number of points to bet.</font><div class='respPicDiv'><img src='img/responseButtonOffersNo0L.png' class='respPic'></div></div>","5","17","Awesome Apples","Fruit/apple.png","Won","0.8,0.35","13","0.8","329","51","",""
"html-keyboard-response","161","186145","0.0-11.0-2.50","631e8c52a408a788b7e62e11","bdp_rwlrn","Sat Apr 08 2023 10:57:07 GMT-0500 (Central Daylight Time)","379022","Untrustworthy,Trustworthy","","null","","","","decisionFB","","<div class='trialDiv'><img src='Fruit/apple.png'><br><font class='baseline'><strong>Awesome Apples</strong><p>Choose number of points to bet.</font><div class='respPicDiv'><img src='img/responseButtonOffersNo0L5.png' class='respPic'></div></div>","null","17","Awesome Apples","Fruit/apple.png","Won","0.8,0.35","13","0.8","324","51","",""
"html-keyboard-response","162","187146","0.0-11.0-3.50","631e8c52a408a788b7e62e11","bdp_rwlrn","Sat Apr 08 2023 10:57:07 GMT-0500 (Central Daylight Time)","379022","Untrustworthy,Trustworthy","","null","","","","feedback","","<div class='respPicDiv'><img src='img/responseButtonOffersNo0_wht.png' class='respPic'></div><div class='trialDiv'><img src='Fruit/apple.png'><br><font class='baseline'><strong>Awesome Apples</strong><p><strong><font class='posOutcome'>You WON</font><p>You bet: 5</strong></font> &nbsp; &nbsp; &nbsp; &nbsp; &nbsp; &nbsp;<font class='posOutcome'>you receive: <strong>10</strong></font></div>","null","17","Awesome Apples","Fruit/apple.png","Won","0.8,0.35","13","0.8","334","51","",""
