"event","trial","time","trialtype","numBlurs","subject_id","task","startTime","totalTime","labels","trial_type","trial_index","time_elapsed","internal_node_id","view_history","rt","success","stimulus","key_press","ltround","name","fileID","outcome","lottotype","lottoswpt","lottocurrpshare","point_total","round","faceID","face"
"blur","0","0","blurevent","1","6108114eaacc3458294b244c","bdp_rwlrn","Tue Mar 14 2023 13:33:03 GMT-0400 (Eastern Daylight Time)","416859","Untrustworthy,Trustworthy","","","","","","","","","","","","","","","","","","","",""
"","","","","","6108114eaacc3458294b244c","bdp_rwlrn","Tue Mar 14 2023 13:33:03 GMT-0400 (Eastern Daylight Time)","416859","Untrustworthy,Trustworthy","pavlovia","0","4","0.0-0.0","","","","","","","","","","","","","","","",""
"focus","1","2334","focusevent","","6108114eaacc3458294b244c","bdp_rwlrn","Tue Mar 14 2023 13:33:03 GMT-0400 (Eastern Daylight Time)","416859","Untrustworthy,Trustworthy","","","","","","","","","","","","","","","","","","","",""
"blur","1","3793","blurevent","2","6108114eaacc3458294b244c","bdp_rwlrn","Tue Mar 14 2023 13:33:03 GMT-0400 (Eastern Daylight Time)","416859","Untrustworthy,Trustworthy","","","","","","","","","","","","","","","","","","","",""
"focus","1","9065","focusevent","","6108114eaacc3458294b244c","bdp_rwlrn","Tue Mar 14 2023 13:33:03 GMT-0400 (Eastern Daylight Time)","416859","Untrustworthy,Trustworthy","","","","","","","","","","","","","","","","","","","",""
"","","","","","6108114eaacc3458294b244c","bdp_rwlrn","Tue Mar 14 2023 13:33:03 GMT-0400 (Eastern Daylight Time)","416859","Untrustworthy,Trustworthy","instructions","1","45796","0.0-1.0","[{""page_index"":0,""viewing_time"":45791}]","45791","","","","","","","","","","","","","",""
"fullscreenenter","2","47408","fullscreenenter","","6108114eaacc3458294b244c","bdp_rwlrn","Tue Mar 14 2023 13:33:03 GMT-0400 (Eastern Daylight Time)","416859","Untrustworthy,Trustworthy","","","","","","","","","","","","","","","","","","","",""
"","","","","","6108114eaacc3458294b244c","bdp_rwlrn","Tue Mar 14 2023 13:33:03 GMT-0400 (Eastern Daylight Time)","416859","Untrustworthy,Trustworthy","fullscreen","2","48406","0.0-2.0","","","true","","","","","","","","","","","","",""
"","","","","","6108114eaacc3458294b244c","bdp_rwlrn","Tue Mar 14 2023 13:33:03 GMT-0400 (Eastern Daylight Time)","416859","Untrustworthy,Trustworthy","instructions","3","107461","0.0-4.0","[{""page_index"":0,""viewing_time"":17534},{""page_index"":1,""viewing_time"":7009},{""page_index"":2,""viewing_time"":3579},{""page_index"":3,""viewing_time"":10767},{""page_index"":4,""viewing_time"":16283},{""page_index"":5,""viewing_time"":3882}]","59054","","","","","","","","","","","","","",""
"","","","","","6108114eaacc3458294b244c","bdp_rwlrn","Tue Mar 14 2023 13:33:03 GMT-0400 (Eastern Daylight Time)","416859","Untrustworthy,Trustworthy","html-keyboard-response","4","110874","0.0-5.0","","3412","","<div class='header' style='text-align:left; position: absolute; top: 5%; left: 5%;'><small>Task 3 of 5</small></div><div class='instruxDiv'><p><strong>1) What is the maximum number of points you can choose to bet on a lottery?</strong></p><p>a) 0</p><p>b) 1</p><p>c) 5</p>","C","","","","","","","","","","",""
"","","","","","6108114eaacc3458294b244c","bdp_rwlrn","Tue Mar 14 2023 13:33:03 GMT-0400 (Eastern Daylight Time)","416859","Untrustworthy,Trustworthy","html-keyboard-response","5","112561","0.0-6.0","","1573","","<div class='header' style='text-align:left; position: absolute; top: 5%; left: 5%;'><small>Task 3 of 5</small></div><div class='instruxDiv'><p><strong>1) What is the maximum number of points you can choose to bet on a lottery?</strong></p><p>a) 1</p><p>b) 1</p><p style='color:#00FF00'>c) 5</p><h3 style='color:#00FF00'>Correct!</h3><h3 class='center-content'>The correct response is c).</h3><h3 class='center-content'>The maximum number of points you can choose to bet on a lottery is 5 points.</h3><p><em>Press SPACEBAR to continue</em></p></div>"," ","","","","","","","","","","",""
"","","","","","6108114eaacc3458294b244c","bdp_rwlrn","Tue Mar 14 2023 13:33:03 GMT-0400 (Eastern Daylight Time)","416859","Untrustworthy,Trustworthy","html-keyboard-response","6","117156","0.0-7.0","","4491","","<div class='header' style='text-align:left; position: absolute; top: 5%; left: 5%;'><small>Task 3 of 5</small></div><div class='instruxDiv'><p><strong>2) How many points can you win each round?</strong></p><p>a) 10 points</p><p>b) Double what you bet</p><p>c) Quadruple what you bet</p>","B","","","","","","","","","","",""
"","","","","","6108114eaacc3458294b244c","bdp_rwlrn","Tue Mar 14 2023 13:33:03 GMT-0400 (Eastern Daylight Time)","416859","Untrustworthy,Trustworthy","html-keyboard-response","7","119201","0.0-8.0","","1939","","<div class='header' style='text-align:left; position: absolute; top: 5%; left: 5%;'><small>Task 3 of 5</small></div><div class='instruxDiv'><p><strong>2) How many points can you win each round?</strong></p><p>a) 10 points</p><p style='color:#00FF00'>b) Double what you bet</p><p>c) Quadruple what you bet</p><h3 style='color:#00FF00'>Correct!</h3><h3 class='center-content'>The correct response is b).</h3><h3 class='center-content'>You can win double the amount of points you bet.</h3><p><em>Press SPACEBAR to continue</em></p></div>"," ","","","","","","","","","","",""
"","","","","","6108114eaacc3458294b244c","bdp_rwlrn","Tue Mar 14 2023 13:33:03 GMT-0400 (Eastern Daylight Time)","416859","Untrustworthy,Trustworthy","html-keyboard-response","8","124314","0.0-9.0","","null","","<div class='header' style='text-align:left; position: absolute; top: 5%; left: 5%;'><small>Task 3 of 5</small></div><div class='instruxDiv'><p>Thank you for completing the quiz<p>These are the actual lotteries you will be playing in the next block:<p><div class='tc' align='center'><img class='introPic' src='Fruit/plums1.png'><br><strong>Plum Powerball</strong></div><div class='bl' align='center'><img class='introPic' src='Fruit/watermelon.png'><br><strong>Watermelon Win$</strong></div><div class='br' align='center'><img class='introPic' src='Fruit/bananas.png'><br><strong>Banana Bonanza</strong></div></div><p>Across <strong>66 rounds</strong> you will play each lottery <strong>22 times</strong> (in random order).<p style='align:center; color:white'><font <em>Press SPACEBAR to continue</em></p>","null","","","","","","","","","","",""
"","","","","","6108114eaacc3458294b244c","bdp_rwlrn","Tue Mar 14 2023 13:33:03 GMT-0400 (Eastern Daylight Time)","416859","Untrustworthy,Trustworthy","instructions","9","131903","0.0-10.0","[{""page_index"":0,""viewing_time"":6533},{""page_index"":1,""viewing_time"":1055}]","7589","","","","","","","","","","","","","",""
"","","","decision","","6108114eaacc3458294b244c","bdp_rwlrn","Tue Mar 14 2023 13:33:03 GMT-0400 (Eastern Daylight Time)","416859","Untrustworthy,Trustworthy","html-keyboard-response","10","136853","0.0-11.0-1.0","","4844","","<div class='trialDiv'><img src='Fruit/bananas.png'><br><font class='baseline'><strong>Banana Bonanza</strong><p>Choose number of points to bet.</font><div class='respPicDiv'><img src='img/responseButtonOffersNo0L.png' class='respPic'></div></div>","3","1","Banana Bonanza","Fruit/bananas.png","Won","0.8,0.35","9","0.8","5","1","",""
"","","","decisionFB","","6108114eaacc3458294b244c","bdp_rwlrn","Tue Mar 14 2023 13:33:03 GMT-0400 (Eastern Daylight Time)","416859","Untrustworthy,Trustworthy","html-keyboard-response","11","137115","0.0-11.0-2.0","","null","","<div class='trialDiv'><img src='Fruit/bananas.png'><br><font class='baseline'><strong>Banana Bonanza</strong><p>Choose number of points to bet.</font><div class='respPicDiv'><img src='img/responseButtonOffersNo0L3.png' class='respPic'></div></div>","null","1","Banana Bonanza","Fruit/bananas.png","Won","0.8,0.35","9","0.8","2","1","",""
"","","","feedback","","6108114eaacc3458294b244c","bdp_rwlrn","Tue Mar 14 2023 13:33:03 GMT-0400 (Eastern Daylight Time)","416859","Untrustworthy,Trustworthy","html-keyboard-response","12","138119","0.0-11.0-3.0","","null","","<div class='respPicDiv'><img src='img/responseButtonOffersNo0_wht.png' class='respPic'></div><div class='trialDiv'><img src='Fruit/bananas.png'><br><font class='baseline'><strong>Banana Bonanza</strong><p><strong><font class='posOutcome'>You WON</font><p>You bet: 3</strong></font> &nbsp; &nbsp; &nbsp; &nbsp; &nbsp; &nbsp;<font class='posOutcome'>you receive: <strong>6</strong></font></div>","null","1","Banana Bonanza","Fruit/bananas.png","Won","0.8,0.35","9","0.8","8","1","",""
"","","","decision","","6108114eaacc3458294b244c","bdp_rwlrn","Tue Mar 14 2023 13:33:03 GMT-0400 (Eastern Daylight Time)","416859","Untrustworthy,Trustworthy","html-keyboard-response","13","139590","0.0-11.0-1.1","","1470","","<div class='trialDiv'><img src='Fruit/plums1.png'><br><font class='baseline'><strong>Plum Powerball</strong><p>Choose number of points to bet.</font><div class='respPicDiv'><img src='img/responseButtonOffersNo0L.png' class='respPic'></div></div>","4","1","Plum Powerball","Fruit/plums1.png","Won","0.35,0.8","10","0.35","13","2","",""
"","","","decisionFB","","6108114eaacc3458294b244c","bdp_rwlrn","Tue Mar 14 2023 13:33:03 GMT-0400 (Eastern Daylight Time)","416859","Untrustworthy,Trustworthy","html-keyboard-response","14","139849","0.0-11.0-2.1","","null","","<div class='trialDiv'><img src='Fruit/plums1.png'><br><font class='baseline'><strong>Plum Powerball</strong><p>Choose number of points to bet.</font><div class='respPicDiv'><img src='img/responseButtonOffersNo0L4.png' class='respPic'></div></div>","null","1","Plum Powerball","Fruit/plums1.png","Won","0.35,0.8","10","0.35","9","2","",""
"","","","feedback","","6108114eaacc3458294b244c","bdp_rwlrn","Tue Mar 14 2023 13:33:03 GMT-0400 (Eastern Daylight Time)","416859","Untrustworthy,Trustworthy","html-keyboard-response","15","140855","0.0-11.0-3.1","","null","","<div class='respPicDiv'><img src='img/responseButtonOffersNo0_wht.png' class='respPic'></div><div class='trialDiv'><img src='Fruit/plums1.png'><br><font class='baseline'><strong>Plum Powerball</strong><p><strong><font class='posOutcome'>You WON</font><p>You bet: 4</strong></font> &nbsp; &nbsp; &nbsp; &nbsp; &nbsp; &nbsp;<font class='posOutcome'>you receive: <strong>8</strong></font></div>","null","1","Plum Powerball","Fruit/plums1.png","Won","0.35,0.8","10","0.35","17","2","",""
"","","","decision","","6108114eaacc3458294b244c","bdp_rwlrn","Tue Mar 14 2023 13:33:03 GMT-0400 (Eastern Daylight Time)","416859","Untrustworthy,Trustworthy","html-keyboard-response","16","143002","0.0-11.0-1.2","","2146","","<div class='trialDiv'><img src='Fruit/watermelon.png'><br><font class='baseline'><strong>Watermelon Win$</strong><p>Choose number of points to bet.</font><div class='respPicDiv'><img src='img/responseButtonOffersNo0L.png' class='respPic'></div></div>","4","1","Watermelon Win$","Fruit/watermelon.png","Won","0.35,0.65","14","0.35","22","3","",""
"","","","decisionFB","","6108114eaacc3458294b244c","bdp_rwlrn","Tue Mar 14 2023 13:33:03 GMT-0400 (Eastern Daylight Time)","416859","Untrustworthy,Trustworthy","html-keyboard-response","17","143256","0.0-11.0-2.2","","null","","<div class='trialDiv'><img src='Fruit/watermelon.png'><br><font class='baseline'><strong>Watermelon Win$</strong><p>Choose number of points to bet.</font><div class='respPicDiv'><img src='img/responseButtonOffersNo0L4.png' class='respPic'></div></div>","null","1","Watermelon Win$","Fruit/watermelon.png","Won","0.35,0.65","14","0.35","18","3","",""
"","","","feedback","","6108114eaacc3458294b244c","bdp_rwlrn","Tue Mar 14 2023 13:33:03 GMT-0400 (Eastern Daylight Time)","416859","Untrustworthy,Trustworthy","html-keyboard-response","18","144267","0.0-11.0-3.2","","null","","<div class='respPicDiv'><img src='img/responseButtonOffersNo0_wht.png' class='respPic'></div><div class='trialDiv'><img src='Fruit/watermelon.png'><br><font class='baseline'><strong>Watermelon Win$</strong><p><strong><font class='posOutcome'>You WON</font><p>You bet: 4</strong></font> &nbsp; &nbsp; &nbsp; &nbsp; &nbsp; &nbsp;<font class='posOutcome'>you receive: <strong>8</strong></font></div>","null","1","Watermelon Win$","Fruit/watermelon.png","Won","0.35,0.65","14","0.35","26","3","",""
"","","","decision","","6108114eaacc3458294b244c","bdp_rwlrn","Tue Mar 14 2023 13:33:03 GMT-0400 (Eastern Daylight Time)","416859","Untrustworthy,Trustworthy","html-keyboard-response","19","145591","0.0-11.0-1.3","","1323","","<div class='trialDiv'><img src='Fruit/bananas.png'><br><font class='baseline'><strong>Banana Bonanza</strong><p>Choose number of points to bet.</font><div class='respPicDiv'><img src='img/responseButtonOffersNo0L.png' class='respPic'></div></div>","4","2","Banana Bonanza","Fruit/bananas.png","Won","0.8,0.35","9","0.8","31","4","",""
"","","","decisionFB","","6108114eaacc3458294b244c","bdp_rwlrn","Tue Mar 14 2023 13:33:03 GMT-0400 (Eastern Daylight Time)","416859","Untrustworthy,Trustworthy","html-keyboard-response","20","145848","0.0-11.0-2.3","","null","","<div class='trialDiv'><img src='Fruit/bananas.png'><br><font class='baseline'><strong>Banana Bonanza</strong><p>Choose number of points to bet.</font><div class='respPicDiv'><img src='img/responseButtonOffersNo0L4.png' class='respPic'></div></div>","null","2","Banana Bonanza","Fruit/bananas.png","Won","0.8,0.35","9","0.8","27","4","",""
"","","","feedback","","6108114eaacc3458294b244c","bdp_rwlrn","Tue Mar 14 2023 13:33:03 GMT-0400 (Eastern Daylight Time)","416859","Untrustworthy,Trustworthy","html-keyboard-response","21","146858","0.0-11.0-3.3","","null","","<div class='respPicDiv'><img src='img/responseButtonOffersNo0_wht.png' class='respPic'></div><div class='trialDiv'><img src='Fruit/bananas.png'><br><font class='baseline'><strong>Banana Bonanza</strong><p><strong><font class='posOutcome'>You WON</font><p>You bet: 4</strong></font> &nbsp; &nbsp; &nbsp; &nbsp; &nbsp; &nbsp;<font class='posOutcome'>you receive: <strong>8</strong></font></div>","null","2","Banana Bonanza","Fruit/bananas.png","Won","0.8,0.35","9","0.8","35","4","",""
"","","","decision","","6108114eaacc3458294b244c","bdp_rwlrn","Tue Mar 14 2023 13:33:03 GMT-0400 (Eastern Daylight Time)","416859","Untrustworthy,Trustworthy","html-keyboard-response","22","147951","0.0-11.0-1.4","","1092","","<div class='trialDiv'><img src='Fruit/plums1.png'><br><font class='baseline'><strong>Plum Powerball</strong><p>Choose number of points to bet.</font><div class='respPicDiv'><img src='img/responseButtonOffersNo0L.png' class='respPic'></div></div>","4","2","Plum Powerball","Fruit/plums1.png","Lost","0.35,0.8","10","0.35","40","5","",""
"","","","decisionFB","","6108114eaacc3458294b244c","bdp_rwlrn","Tue Mar 14 2023 13:33:03 GMT-0400 (Eastern Daylight Time)","416859","Untrustworthy,Trustworthy","html-keyboard-response","23","148208","0.0-11.0-2.4","","null","","<div class='trialDiv'><img src='Fruit/plums1.png'><br><font class='baseline'><strong>Plum Powerball</strong><p>Choose number of points to bet.</font><div class='respPicDiv'><img src='img/responseButtonOffersNo0L4.png' class='respPic'></div></div>","null","2","Plum Powerball","Fruit/plums1.png","Lost","0.35,0.8","10","0.35","36","5","",""
"","","","feedback","","6108114eaacc3458294b244c","bdp_rwlrn","Tue Mar 14 2023 13:33:03 GMT-0400 (Eastern Daylight Time)","416859","Untrustworthy,Trustworthy","html-keyboard-response","24","149218","0.0-11.0-3.4","","null","","<div class='respPicDiv'><img src='img/responseButtonOffersNo0_wht.png' class='respPic'></div><div class='trialDiv'><img src='Fruit/plums1.png'><br><font class='baseline'><strong>Plum Powerball</strong><p><strong><font class='negOutcome'>You LOST</font><p>You bet: 4</strong></font> &nbsp; &nbsp; &nbsp; &nbsp; &nbsp; &nbsp;<font class='negOutcome'>You receive: <strong>0</strong></font></div>","null","2","Plum Powerball","Fruit/plums1.png","Lost","0.35,0.8","10","0.35","36","5","",""
"","","","decision","","6108114eaacc3458294b244c","bdp_rwlrn","Tue Mar 14 2023 13:33:03 GMT-0400 (Eastern Daylight Time)","416859","Untrustworthy,Trustworthy","html-keyboard-response","25","149644","0.0-11.0-1.5","","425","","<div class='trialDiv'><img src='Fruit/watermelon.png'><br><font class='baseline'><strong>Watermelon Win$</strong><p>Choose number of points to bet.</font><div class='respPicDiv'><img src='img/responseButtonOffersNo0L.png' class='respPic'></div></div>","4","2","Watermelon Win$","Fruit/watermelon.png","Lost","0.35,0.65","14","0.35","41","6","",""
"","","","decisionFB","","6108114eaacc3458294b244c","bdp_rwlrn","Tue Mar 14 2023 13:33:03 GMT-0400 (Eastern Daylight Time)","416859","Untrustworthy,Trustworthy","html-keyboard-response","26","149903","0.0-11.0-2.5","","null","","<div class='trialDiv'><img src='Fruit/watermelon.png'><br><font class='baseline'><strong>Watermelon Win$</strong><p>Choose number of points to bet.</font><div class='respPicDiv'><img src='img/responseButtonOffersNo0L4.png' class='respPic'></div></div>","null","2","Watermelon Win$","Fruit/watermelon.png","Lost","0.35,0.65","14","0.35","37","6","",""
"","","","feedback","","6108114eaacc3458294b244c","bdp_rwlrn","Tue Mar 14 2023 13:33:03 GMT-0400 (Eastern Daylight Time)","416859","Untrustworthy,Trustworthy","html-keyboard-response","27","150914","0.0-11.0-3.5","","null","","<div class='respPicDiv'><img src='img/responseButtonOffersNo0_wht.png' class='respPic'></div><div class='trialDiv'><img src='Fruit/watermelon.png'><br><font class='baseline'><strong>Watermelon Win$</strong><p><strong><font class='negOutcome'>You LOST</font><p>You bet: 4</strong></font> &nbsp; &nbsp; &nbsp; &nbsp; &nbsp; &nbsp;<font class='negOutcome'>You receive: <strong>0</strong></font></div>","null","2","Watermelon Win$","Fruit/watermelon.png","Lost","0.35,0.65","14","0.35","37","6","",""
"","","","decision","","6108114eaacc3458294b244c","bdp_rwlrn","Tue Mar 14 2023 13:33:03 GMT-0400 (Eastern Daylight Time)","416859","Untrustworthy,Trustworthy","html-keyboard-response","28","151661","0.0-11.0-1.6","","747","","<div class='trialDiv'><img src='Fruit/plums1.png'><br><font class='baseline'><strong>Plum Powerball</strong><p>Choose number of points to bet.</font><div class='respPicDiv'><img src='img/responseButtonOffersNo0L.png' class='respPic'></div></div>","4","3","Plum Powerball","Fruit/plums1.png","Lost","0.35,0.8","10","0.35","42","7","",""
"","","","decisionFB","","6108114eaacc3458294b244c","bdp_rwlrn","Tue Mar 14 2023 13:33:03 GMT-0400 (Eastern Daylight Time)","416859","Untrustworthy,Trustworthy","html-keyboard-response","29","151919","0.0-11.0-2.6","","null","","<div class='trialDiv'><img src='Fruit/plums1.png'><br><font class='baseline'><strong>Plum Powerball</strong><p>Choose number of points to bet.</font><div class='respPicDiv'><img src='img/responseButtonOffersNo0L4.png' class='respPic'></div></div>","null","3","Plum Powerball","Fruit/plums1.png","Lost","0.35,0.8","10","0.35","38","7","",""
"","","","feedback","","6108114eaacc3458294b244c","bdp_rwlrn","Tue Mar 14 2023 13:33:03 GMT-0400 (Eastern Daylight Time)","416859","Untrustworthy,Trustworthy","html-keyboard-response","30","152928","0.0-11.0-3.6","","null","","<div class='respPicDiv'><img src='img/responseButtonOffersNo0_wht.png' class='respPic'></div><div class='trialDiv'><img src='Fruit/plums1.png'><br><font class='baseline'><strong>Plum Powerball</strong><p><strong><font class='negOutcome'>You LOST</font><p>You bet: 4</strong></font> &nbsp; &nbsp; &nbsp; &nbsp; &nbsp; &nbsp;<font class='negOutcome'>You receive: <strong>0</strong></font></div>","null","3","Plum Powerball","Fruit/plums1.png","Lost","0.35,0.8","10","0.35","38","7","",""
"","","","decision","","6108114eaacc3458294b244c","bdp_rwlrn","Tue Mar 14 2023 13:33:03 GMT-0400 (Eastern Daylight Time)","416859","Untrustworthy,Trustworthy","html-keyboard-response","31","153399","0.0-11.0-1.7","","470","","<div class='trialDiv'><img src='Fruit/watermelon.png'><br><font class='baseline'><strong>Watermelon Win$</strong><p>Choose number of points to bet.</font><div class='respPicDiv'><img src='img/responseButtonOffersNo0L.png' class='respPic'></div></div>","2","3","Watermelon Win$","Fruit/watermelon.png","Lost","0.35,0.65","14","0.35","43","8","",""
"","","","decisionFB","","6108114eaacc3458294b244c","bdp_rwlrn","Tue Mar 14 2023 13:33:03 GMT-0400 (Eastern Daylight Time)","416859","Untrustworthy,Trustworthy","html-keyboard-response","32","153659","0.0-11.0-2.7","","null","","<div class='trialDiv'><img src='Fruit/watermelon.png'><br><font class='baseline'><strong>Watermelon Win$</strong><p>Choose number of points to bet.</font><div class='respPicDiv'><img src='img/responseButtonOffersNo0L2.png' class='respPic'></div></div>","null","3","Watermelon Win$","Fruit/watermelon.png","Lost","0.35,0.65","14","0.35","41","8","",""
"","","","feedback","","6108114eaacc3458294b244c","bdp_rwlrn","Tue Mar 14 2023 13:33:03 GMT-0400 (Eastern Daylight Time)","416859","Untrustworthy,Trustworthy","html-keyboard-response","33","154663","0.0-11.0-3.7","","null","","<div class='respPicDiv'><img src='img/responseButtonOffersNo0_wht.png' class='respPic'></div><div class='trialDiv'><img src='Fruit/watermelon.png'><br><font class='baseline'><strong>Watermelon Win$</strong><p><strong><font class='negOutcome'>You LOST</font><p>You bet: 2</strong></font> &nbsp; &nbsp; &nbsp; &nbsp; &nbsp; &nbsp;<font class='negOutcome'>You receive: <strong>0</strong></font></div>","null","3","Watermelon Win$","Fruit/watermelon.png","Lost","0.35,0.65","14","0.35","41","8","",""
"","","","decision","","6108114eaacc3458294b244c","bdp_rwlrn","Tue Mar 14 2023 13:33:03 GMT-0400 (Eastern Daylight Time)","416859","Untrustworthy,Trustworthy","html-keyboard-response","34","156738","0.0-11.0-1.8","","2074","","<div class='trialDiv'><img src='Fruit/bananas.png'><br><font class='baseline'><strong>Banana Bonanza</strong><p>Choose number of points to bet.</font><div class='respPicDiv'><img src='img/responseButtonOffersNo0L.png' class='respPic'></div></div>","3","3","Banana Bonanza","Fruit/bananas.png","Won","0.8,0.35","9","0.8","46","9","",""
"","","","decisionFB","","6108114eaacc3458294b244c","bdp_rwlrn","Tue Mar 14 2023 13:33:03 GMT-0400 (Eastern Daylight Time)","416859","Untrustworthy,Trustworthy","html-keyboard-response","35","156991","0.0-11.0-2.8","","null","","<div class='trialDiv'><img src='Fruit/bananas.png'><br><font class='baseline'><strong>Banana Bonanza</strong><p>Choose number of points to bet.</font><div class='respPicDiv'><img src='img/responseButtonOffersNo0L3.png' class='respPic'></div></div>","null","3","Banana Bonanza","Fruit/bananas.png","Won","0.8,0.35","9","0.8","43","9","",""
"","","","feedback","","6108114eaacc3458294b244c","bdp_rwlrn","Tue Mar 14 2023 13:33:03 GMT-0400 (Eastern Daylight Time)","416859","Untrustworthy,Trustworthy","html-keyboard-response","36","158002","0.0-11.0-3.8","","null","","<div class='respPicDiv'><img src='img/responseButtonOffersNo0_wht.png' class='respPic'></div><div class='trialDiv'><img src='Fruit/bananas.png'><br><font class='baseline'><strong>Banana Bonanza</strong><p><strong><font class='posOutcome'>You WON</font><p>You bet: 3</strong></font> &nbsp; &nbsp; &nbsp; &nbsp; &nbsp; &nbsp;<font class='posOutcome'>you receive: <strong>6</strong></font></div>","null","3","Banana Bonanza","Fruit/bananas.png","Won","0.8,0.35","9","0.8","49","9","",""
"","","","decision","","6108114eaacc3458294b244c","bdp_rwlrn","Tue Mar 14 2023 13:33:03 GMT-0400 (Eastern Daylight Time)","416859","Untrustworthy,Trustworthy","html-keyboard-response","37","158800","0.0-11.0-1.9","","797","","<div class='trialDiv'><img src='Fruit/plums1.png'><br><font class='baseline'><strong>Plum Powerball</strong><p>Choose number of points to bet.</font><div class='respPicDiv'><img src='img/responseButtonOffersNo0L.png' class='respPic'></div></div>","4","4","Plum Powerball","Fruit/plums1.png","Lost","0.35,0.8","10","0.35","54","10","",""
"","","","decisionFB","","6108114eaacc3458294b244c","bdp_rwlrn","Tue Mar 14 2023 13:33:03 GMT-0400 (Eastern Daylight Time)","416859","Untrustworthy,Trustworthy","html-keyboard-response","38","159058","0.0-11.0-2.9","","null","","<div class='trialDiv'><img src='Fruit/plums1.png'><br><font class='baseline'><strong>Plum Powerball</strong><p>Choose number of points to bet.</font><div class='respPicDiv'><img src='img/responseButtonOffersNo0L4.png' class='respPic'></div></div>","null","4","Plum Powerball","Fruit/plums1.png","Lost","0.35,0.8","10","0.35","50","10","",""
"","","","feedback","","6108114eaacc3458294b244c","bdp_rwlrn","Tue Mar 14 2023 13:33:03 GMT-0400 (Eastern Daylight Time)","416859","Untrustworthy,Trustworthy","html-keyboard-response","39","160063","0.0-11.0-3.9","","null","","<div class='respPicDiv'><img src='img/responseButtonOffersNo0_wht.png' class='respPic'></div><div class='trialDiv'><img src='Fruit/plums1.png'><br><font class='baseline'><strong>Plum Powerball</strong><p><strong><font class='negOutcome'>You LOST</font><p>You bet: 4</strong></font> &nbsp; &nbsp; &nbsp; &nbsp; &nbsp; &nbsp;<font class='negOutcome'>You receive: <strong>0</strong></font></div>","null","4","Plum Powerball","Fruit/plums1.png","Lost","0.35,0.8","10","0.35","50","10","",""
"","","","decision","","6108114eaacc3458294b244c","bdp_rwlrn","Tue Mar 14 2023 13:33:03 GMT-0400 (Eastern Daylight Time)","416859","Untrustworthy,Trustworthy","html-keyboard-response","40","160855","0.0-11.0-1.10","","792","","<div class='trialDiv'><img src='Fruit/watermelon.png'><br><font class='baseline'><strong>Watermelon Win$</strong><p>Choose number of points to bet.</font><div class='respPicDiv'><img src='img/responseButtonOffersNo0L.png' class='respPic'></div></div>","4","4","Watermelon Win$","Fruit/watermelon.png","Won","0.35,0.65","14","0.35","55","11","",""
"","","","decisionFB","","6108114eaacc3458294b244c","bdp_rwlrn","Tue Mar 14 2023 13:33:03 GMT-0400 (Eastern Daylight Time)","416859","Untrustworthy,Trustworthy","html-keyboard-response","41","161113","0.0-11.0-2.10","","null","","<div class='trialDiv'><img src='Fruit/watermelon.png'><br><font class='baseline'><strong>Watermelon Win$</strong><p>Choose number of points to bet.</font><div class='respPicDiv'><img src='img/responseButtonOffersNo0L4.png' class='respPic'></div></div>","null","4","Watermelon Win$","Fruit/watermelon.png","Won","0.35,0.65","14","0.35","51","11","",""
"","","","feedback","","6108114eaacc3458294b244c","bdp_rwlrn","Tue Mar 14 2023 13:33:03 GMT-0400 (Eastern Daylight Time)","416859","Untrustworthy,Trustworthy","html-keyboard-response","42","162123","0.0-11.0-3.10","","null","","<div class='respPicDiv'><img src='img/responseButtonOffersNo0_wht.png' class='respPic'></div><div class='trialDiv'><img src='Fruit/watermelon.png'><br><font class='baseline'><strong>Watermelon Win$</strong><p><strong><font class='posOutcome'>You WON</font><p>You bet: 4</strong></font> &nbsp; &nbsp; &nbsp; &nbsp; &nbsp; &nbsp;<font class='posOutcome'>you receive: <strong>8</strong></font></div>","null","4","Watermelon Win$","Fruit/watermelon.png","Won","0.35,0.65","14","0.35","59","11","",""
"","","","decision","","6108114eaacc3458294b244c","bdp_rwlrn","Tue Mar 14 2023 13:33:03 GMT-0400 (Eastern Daylight Time)","416859","Untrustworthy,Trustworthy","html-keyboard-response","43","163149","0.0-11.0-1.11","","1025","","<div class='trialDiv'><img src='Fruit/bananas.png'><br><font class='baseline'><strong>Banana Bonanza</strong><p>Choose number of points to bet.</font><div class='respPicDiv'><img src='img/responseButtonOffersNo0L.png' class='respPic'></div></div>","4","4","Banana Bonanza","Fruit/bananas.png","Won","0.8,0.35","9","0.8","64","12","",""
"","","","decisionFB","","6108114eaacc3458294b244c","bdp_rwlrn","Tue Mar 14 2023 13:33:03 GMT-0400 (Eastern Daylight Time)","416859","Untrustworthy,Trustworthy","html-keyboard-response","44","163408","0.0-11.0-2.11","","null","","<div class='trialDiv'><img src='Fruit/bananas.png'><br><font class='baseline'><strong>Banana Bonanza</strong><p>Choose number of points to bet.</font><div class='respPicDiv'><img src='img/responseButtonOffersNo0L4.png' class='respPic'></div></div>","null","4","Banana Bonanza","Fruit/bananas.png","Won","0.8,0.35","9","0.8","60","12","",""
"","","","feedback","","6108114eaacc3458294b244c","bdp_rwlrn","Tue Mar 14 2023 13:33:03 GMT-0400 (Eastern Daylight Time)","416859","Untrustworthy,Trustworthy","html-keyboard-response","45","164416","0.0-11.0-3.11","","null","","<div class='respPicDiv'><img src='img/responseButtonOffersNo0_wht.png' class='respPic'></div><div class='trialDiv'><img src='Fruit/bananas.png'><br><font class='baseline'><strong>Banana Bonanza</strong><p><strong><font class='posOutcome'>You WON</font><p>You bet: 4</strong></font> &nbsp; &nbsp; &nbsp; &nbsp; &nbsp; &nbsp;<font class='posOutcome'>you receive: <strong>8</strong></font></div>","null","4","Banana Bonanza","Fruit/bananas.png","Won","0.8,0.35","9","0.8","68","12","",""
"","","","decision","","6108114eaacc3458294b244c","bdp_rwlrn","Tue Mar 14 2023 13:33:03 GMT-0400 (Eastern Daylight Time)","416859","Untrustworthy,Trustworthy","html-keyboard-response","46","165028","0.0-11.0-1.12","","611","","<div class='trialDiv'><img src='Fruit/plums1.png'><br><font class='baseline'><strong>Plum Powerball</strong><p>Choose number of points to bet.</font><div class='respPicDiv'><img src='img/responseButtonOffersNo0L.png' class='respPic'></div></div>","4","5","Plum Powerball","Fruit/plums1.png","Won","0.35,0.8","10","0.35","73","13","",""
"","","","decisionFB","","6108114eaacc3458294b244c","bdp_rwlrn","Tue Mar 14 2023 13:33:03 GMT-0400 (Eastern Daylight Time)","416859","Untrustworthy,Trustworthy","html-keyboard-response","47","165287","0.0-11.0-2.12","","null","","<div class='trialDiv'><img src='Fruit/plums1.png'><br><font class='baseline'><strong>Plum Powerball</strong><p>Choose number of points to bet.</font><div class='respPicDiv'><img src='img/responseButtonOffersNo0L4.png' class='respPic'></div></div>","null","5","Plum Powerball","Fruit/plums1.png","Won","0.35,0.8","10","0.35","69","13","",""
"","","","feedback","","6108114eaacc3458294b244c","bdp_rwlrn","Tue Mar 14 2023 13:33:03 GMT-0400 (Eastern Daylight Time)","416859","Untrustworthy,Trustworthy","html-keyboard-response","48","166297","0.0-11.0-3.12","","null","","<div class='respPicDiv'><img src='img/responseButtonOffersNo0_wht.png' class='respPic'></div><div class='trialDiv'><img src='Fruit/plums1.png'><br><font class='baseline'><strong>Plum Powerball</strong><p><strong><font class='posOutcome'>You WON</font><p>You bet: 4</strong></font> &nbsp; &nbsp; &nbsp; &nbsp; &nbsp; &nbsp;<font class='posOutcome'>you receive: <strong>8</strong></font></div>","null","5","Plum Powerball","Fruit/plums1.png","Won","0.35,0.8","10","0.35","77","13","",""
"","","","decision","","6108114eaacc3458294b244c","bdp_rwlrn","Tue Mar 14 2023 13:33:03 GMT-0400 (Eastern Daylight Time)","416859","Untrustworthy,Trustworthy","html-keyboard-response","49","167381","0.0-11.0-1.13","","1083","","<div class='trialDiv'><img src='Fruit/bananas.png'><br><font class='baseline'><strong>Banana Bonanza</strong><p>Choose number of points to bet.</font><div class='respPicDiv'><img src='img/responseButtonOffersNo0L.png' class='respPic'></div></div>","4","5","Banana Bonanza","Fruit/bananas.png","Won","0.8,0.35","9","0.8","82","14","",""
"","","","decisionFB","","6108114eaacc3458294b244c","bdp_rwlrn","Tue Mar 14 2023 13:33:03 GMT-0400 (Eastern Daylight Time)","416859","Untrustworthy,Trustworthy","html-keyboard-response","50","167644","0.0-11.0-2.13","","null","","<div class='trialDiv'><img src='Fruit/bananas.png'><br><font class='baseline'><strong>Banana Bonanza</strong><p>Choose number of points to bet.</font><div class='respPicDiv'><img src='img/responseButtonOffersNo0L4.png' class='respPic'></div></div>","null","5","Banana Bonanza","Fruit/bananas.png","Won","0.8,0.35","9","0.8","78","14","",""
"","","","feedback","","6108114eaacc3458294b244c","bdp_rwlrn","Tue Mar 14 2023 13:33:03 GMT-0400 (Eastern Daylight Time)","416859","Untrustworthy,Trustworthy","html-keyboard-response","51","168648","0.0-11.0-3.13","","null","","<div class='respPicDiv'><img src='img/responseButtonOffersNo0_wht.png' class='respPic'></div><div class='trialDiv'><img src='Fruit/bananas.png'><br><font class='baseline'><strong>Banana Bonanza</strong><p><strong><font class='posOutcome'>You WON</font><p>You bet: 4</strong></font> &nbsp; &nbsp; &nbsp; &nbsp; &nbsp; &nbsp;<font class='posOutcome'>you receive: <strong>8</strong></font></div>","null","5","Banana Bonanza","Fruit/bananas.png","Won","0.8,0.35","9","0.8","86","14","",""
"","","","decision","","6108114eaacc3458294b244c","bdp_rwlrn","Tue Mar 14 2023 13:33:03 GMT-0400 (Eastern Daylight Time)","416859","Untrustworthy,Trustworthy","html-keyboard-response","52","169548","0.0-11.0-1.14","","899","","<div class='trialDiv'><img src='Fruit/watermelon.png'><br><font class='baseline'><strong>Watermelon Win$</strong><p>Choose number of points to bet.</font><div class='respPicDiv'><img src='img/responseButtonOffersNo0L.png' class='respPic'></div></div>","2","5","Watermelon Win$","Fruit/watermelon.png","Lost","0.35,0.65","14","0.35","91","15","",""
"","","","decisionFB","","6108114eaacc3458294b244c","bdp_rwlrn","Tue Mar 14 2023 13:33:03 GMT-0400 (Eastern Daylight Time)","416859","Untrustworthy,Trustworthy","html-keyboard-response","53","169809","0.0-11.0-2.14","","null","","<div class='trialDiv'><img src='Fruit/watermelon.png'><br><font class='baseline'><strong>Watermelon Win$</strong><p>Choose number of points to bet.</font><div class='respPicDiv'><img src='img/responseButtonOffersNo0L2.png' class='respPic'></div></div>","null","5","Watermelon Win$","Fruit/watermelon.png","Lost","0.35,0.65","14","0.35","89","15","",""
"","","","feedback","","6108114eaacc3458294b244c","bdp_rwlrn","Tue Mar 14 2023 13:33:03 GMT-0400 (Eastern Daylight Time)","416859","Untrustworthy,Trustworthy","html-keyboard-response","54","170819","0.0-11.0-3.14","","null","","<div class='respPicDiv'><img src='img/responseButtonOffersNo0_wht.png' class='respPic'></div><div class='trialDiv'><img src='Fruit/watermelon.png'><br><font class='baseline'><strong>Watermelon Win$</strong><p><strong><font class='negOutcome'>You LOST</font><p>You bet: 2</strong></font> &nbsp; &nbsp; &nbsp; &nbsp; &nbsp; &nbsp;<font class='negOutcome'>You receive: <strong>0</strong></font></div>","null","5","Watermelon Win$","Fruit/watermelon.png","Lost","0.35,0.65","14","0.35","89","15","",""
"","","","decision","","6108114eaacc3458294b244c","bdp_rwlrn","Tue Mar 14 2023 13:33:03 GMT-0400 (Eastern Daylight Time)","416859","Untrustworthy,Trustworthy","html-keyboard-response","55","172127","0.0-11.0-1.15","","1307","","<div class='trialDiv'><img src='Fruit/plums1.png'><br><font class='baseline'><strong>Plum Powerball</strong><p>Choose number of points to bet.</font><div class='respPicDiv'><img src='img/responseButtonOffersNo0L.png' class='respPic'></div></div>","4","6","Plum Powerball","Fruit/plums1.png","Lost","0.35,0.8","10","0.35","94","16","",""
"","","","decisionFB","","6108114eaacc3458294b244c","bdp_rwlrn","Tue Mar 14 2023 13:33:03 GMT-0400 (Eastern Daylight Time)","416859","Untrustworthy,Trustworthy","html-keyboard-response","56","172387","0.0-11.0-2.15","","null","","<div class='trialDiv'><img src='Fruit/plums1.png'><br><font class='baseline'><strong>Plum Powerball</strong><p>Choose number of points to bet.</font><div class='respPicDiv'><img src='img/responseButtonOffersNo0L4.png' class='respPic'></div></div>","null","6","Plum Powerball","Fruit/plums1.png","Lost","0.35,0.8","10","0.35","90","16","",""
"","","","feedback","","6108114eaacc3458294b244c","bdp_rwlrn","Tue Mar 14 2023 13:33:03 GMT-0400 (Eastern Daylight Time)","416859","Untrustworthy,Trustworthy","html-keyboard-response","57","173394","0.0-11.0-3.15","","null","","<div class='respPicDiv'><img src='img/responseButtonOffersNo0_wht.png' class='respPic'></div><div class='trialDiv'><img src='Fruit/plums1.png'><br><font class='baseline'><strong>Plum Powerball</strong><p><strong><font class='negOutcome'>You LOST</font><p>You bet: 4</strong></font> &nbsp; &nbsp; &nbsp; &nbsp; &nbsp; &nbsp;<font class='negOutcome'>You receive: <strong>0</strong></font></div>","null","6","Plum Powerball","Fruit/plums1.png","Lost","0.35,0.8","10","0.35","90","16","",""
"","","","decision","","6108114eaacc3458294b244c","bdp_rwlrn","Tue Mar 14 2023 13:33:03 GMT-0400 (Eastern Daylight Time)","416859","Untrustworthy,Trustworthy","html-keyboard-response","58","173747","0.0-11.0-1.16","","353","","<div class='trialDiv'><img src='Fruit/bananas.png'><br><font class='baseline'><strong>Banana Bonanza</strong><p>Choose number of points to bet.</font><div class='respPicDiv'><img src='img/responseButtonOffersNo0L.png' class='respPic'></div></div>","4","6","Banana Bonanza","Fruit/bananas.png","Won","0.8,0.35","9","0.8","95","17","",""
"","","","decisionFB","","6108114eaacc3458294b244c","bdp_rwlrn","Tue Mar 14 2023 13:33:03 GMT-0400 (Eastern Daylight Time)","416859","Untrustworthy,Trustworthy","html-keyboard-response","59","174001","0.0-11.0-2.16","","null","","<div class='trialDiv'><img src='Fruit/bananas.png'><br><font class='baseline'><strong>Banana Bonanza</strong><p>Choose number of points to bet.</font><div class='respPicDiv'><img src='img/responseButtonOffersNo0L4.png' class='respPic'></div></div>","null","6","Banana Bonanza","Fruit/bananas.png","Won","0.8,0.35","9","0.8","91","17","",""
"","","","feedback","","6108114eaacc3458294b244c","bdp_rwlrn","Tue Mar 14 2023 13:33:03 GMT-0400 (Eastern Daylight Time)","416859","Untrustworthy,Trustworthy","html-keyboard-response","60","175011","0.0-11.0-3.16","","null","","<div class='respPicDiv'><img src='img/responseButtonOffersNo0_wht.png' class='respPic'></div><div class='trialDiv'><img src='Fruit/bananas.png'><br><font class='baseline'><strong>Banana Bonanza</strong><p><strong><font class='posOutcome'>You WON</font><p>You bet: 4</strong></font> &nbsp; &nbsp; &nbsp; &nbsp; &nbsp; &nbsp;<font class='posOutcome'>you receive: <strong>8</strong></font></div>","null","6","Banana Bonanza","Fruit/bananas.png","Won","0.8,0.35","9","0.8","99","17","",""
"","","","decision","","6108114eaacc3458294b244c","bdp_rwlrn","Tue Mar 14 2023 13:33:03 GMT-0400 (Eastern Daylight Time)","416859","Untrustworthy,Trustworthy","html-keyboard-response","61","176608","0.0-11.0-1.17","","1596","","<div class='trialDiv'><img src='Fruit/watermelon.png'><br><font class='baseline'><strong>Watermelon Win$</strong><p>Choose number of points to bet.</font><div class='respPicDiv'><img src='img/responseButtonOffersNo0L.png' class='respPic'></div></div>","3","6","Watermelon Win$","Fruit/watermelon.png","Lost","0.35,0.65","14","0.35","104","18","",""
"","","","decisionFB","","6108114eaacc3458294b244c","bdp_rwlrn","Tue Mar 14 2023 13:33:03 GMT-0400 (Eastern Daylight Time)","416859","Untrustworthy,Trustworthy","html-keyboard-response","62","176864","0.0-11.0-2.17","","null","","<div class='trialDiv'><img src='Fruit/watermelon.png'><br><font class='baseline'><strong>Watermelon Win$</strong><p>Choose number of points to bet.</font><div class='respPicDiv'><img src='img/responseButtonOffersNo0L3.png' class='respPic'></div></div>","null","6","Watermelon Win$","Fruit/watermelon.png","Lost","0.35,0.65","14","0.35","101","18","",""
"","","","feedback","","6108114eaacc3458294b244c","bdp_rwlrn","Tue Mar 14 2023 13:33:03 GMT-0400 (Eastern Daylight Time)","416859","Untrustworthy,Trustworthy","html-keyboard-response","63","177873","0.0-11.0-3.17","","null","","<div class='respPicDiv'><img src='img/responseButtonOffersNo0_wht.png' class='respPic'></div><div class='trialDiv'><img src='Fruit/watermelon.png'><br><font class='baseline'><strong>Watermelon Win$</strong><p><strong><font class='negOutcome'>You LOST</font><p>You bet: 3</strong></font> &nbsp; &nbsp; &nbsp; &nbsp; &nbsp; &nbsp;<font class='negOutcome'>You receive: <strong>0</strong></font></div>","null","6","Watermelon Win$","Fruit/watermelon.png","Lost","0.35,0.65","14","0.35","101","18","",""
"","","","decision","","6108114eaacc3458294b244c","bdp_rwlrn","Tue Mar 14 2023 13:33:03 GMT-0400 (Eastern Daylight Time)","416859","Untrustworthy,Trustworthy","html-keyboard-response","64","178239","0.0-11.0-1.18","","366","","<div class='trialDiv'><img src='Fruit/bananas.png'><br><font class='baseline'><strong>Banana Bonanza</strong><p>Choose number of points to bet.</font><div class='respPicDiv'><img src='img/responseButtonOffersNo0L.png' class='respPic'></div></div>","3","7","Banana Bonanza","Fruit/bananas.png","Lost","0.8,0.35","9","0.8","106","19","",""
"","","","decisionFB","","6108114eaacc3458294b244c","bdp_rwlrn","Tue Mar 14 2023 13:33:03 GMT-0400 (Eastern Daylight Time)","416859","Untrustworthy,Trustworthy","html-keyboard-response","65","178500","0.0-11.0-2.18","","null","","<div class='trialDiv'><img src='Fruit/bananas.png'><br><font class='baseline'><strong>Banana Bonanza</strong><p>Choose number of points to bet.</font><div class='respPicDiv'><img src='img/responseButtonOffersNo0L3.png' class='respPic'></div></div>","null","7","Banana Bonanza","Fruit/bananas.png","Lost","0.8,0.35","9","0.8","103","19","",""
"","","","feedback","","6108114eaacc3458294b244c","bdp_rwlrn","Tue Mar 14 2023 13:33:03 GMT-0400 (Eastern Daylight Time)","416859","Untrustworthy,Trustworthy","html-keyboard-response","66","179504","0.0-11.0-3.18","","null","","<div class='respPicDiv'><img src='img/responseButtonOffersNo0_wht.png' class='respPic'></div><div class='trialDiv'><img src='Fruit/bananas.png'><br><font class='baseline'><strong>Banana Bonanza</strong><p><strong><font class='negOutcome'>You LOST</font><p>You bet: 3</strong></font> &nbsp; &nbsp; &nbsp; &nbsp; &nbsp; &nbsp;<font class='negOutcome'>You receive: <strong>0</strong></font></div>","null","7","Banana Bonanza","Fruit/bananas.png","Lost","0.8,0.35","9","0.8","103","19","",""
"","","","decision","","6108114eaacc3458294b244c","bdp_rwlrn","Tue Mar 14 2023 13:33:03 GMT-0400 (Eastern Daylight Time)","416859","Untrustworthy,Trustworthy","html-keyboard-response","67","179996","0.0-11.0-1.19","","491","","<div class='trialDiv'><img src='Fruit/watermelon.png'><br><font class='baseline'><strong>Watermelon Win$</strong><p>Choose number of points to bet.</font><div class='respPicDiv'><img src='img/responseButtonOffersNo0L.png' class='respPic'></div></div>","3","7","Watermelon Win$","Fruit/watermelon.png","Lost","0.35,0.65","14","0.35","108","20","",""
"","","","decisionFB","","6108114eaacc3458294b244c","bdp_rwlrn","Tue Mar 14 2023 13:33:03 GMT-0400 (Eastern Daylight Time)","416859","Untrustworthy,Trustworthy","html-keyboard-response","68","180247","0.0-11.0-2.19","","null","","<div class='trialDiv'><img src='Fruit/watermelon.png'><br><font class='baseline'><strong>Watermelon Win$</strong><p>Choose number of points to bet.</font><div class='respPicDiv'><img src='img/responseButtonOffersNo0L3.png' class='respPic'></div></div>","null","7","Watermelon Win$","Fruit/watermelon.png","Lost","0.35,0.65","14","0.35","105","20","",""
"","","","feedback","","6108114eaacc3458294b244c","bdp_rwlrn","Tue Mar 14 2023 13:33:03 GMT-0400 (Eastern Daylight Time)","416859","Untrustworthy,Trustworthy","html-keyboard-response","69","181257","0.0-11.0-3.19","","null","","<div class='respPicDiv'><img src='img/responseButtonOffersNo0_wht.png' class='respPic'></div><div class='trialDiv'><img src='Fruit/watermelon.png'><br><font class='baseline'><strong>Watermelon Win$</strong><p><strong><font class='negOutcome'>You LOST</font><p>You bet: 3</strong></font> &nbsp; &nbsp; &nbsp; &nbsp; &nbsp; &nbsp;<font class='negOutcome'>You receive: <strong>0</strong></font></div>","null","7","Watermelon Win$","Fruit/watermelon.png","Lost","0.35,0.65","14","0.35","105","20","",""
"","","","decision","","6108114eaacc3458294b244c","bdp_rwlrn","Tue Mar 14 2023 13:33:03 GMT-0400 (Eastern Daylight Time)","416859","Untrustworthy,Trustworthy","html-keyboard-response","70","181750","0.0-11.0-1.20","","493","","<div class='trialDiv'><img src='Fruit/plums1.png'><br><font class='baseline'><strong>Plum Powerball</strong><p>Choose number of points to bet.</font><div class='respPicDiv'><img src='img/responseButtonOffersNo0L.png' class='respPic'></div></div>","3","7","Plum Powerball","Fruit/plums1.png","Lost","0.35,0.8","10","0.35","110","21","",""
"","","","decisionFB","","6108114eaacc3458294b244c","bdp_rwlrn","Tue Mar 14 2023 13:33:03 GMT-0400 (Eastern Daylight Time)","416859","Untrustworthy,Trustworthy","html-keyboard-response","71","182012","0.0-11.0-2.20","","null","","<div class='trialDiv'><img src='Fruit/plums1.png'><br><font class='baseline'><strong>Plum Powerball</strong><p>Choose number of points to bet.</font><div class='respPicDiv'><img src='img/responseButtonOffersNo0L3.png' class='respPic'></div></div>","null","7","Plum Powerball","Fruit/plums1.png","Lost","0.35,0.8","10","0.35","107","21","",""
"","","","feedback","","6108114eaacc3458294b244c","bdp_rwlrn","Tue Mar 14 2023 13:33:03 GMT-0400 (Eastern Daylight Time)","416859","Untrustworthy,Trustworthy","html-keyboard-response","72","183016","0.0-11.0-3.20","","null","","<div class='respPicDiv'><img src='img/responseButtonOffersNo0_wht.png' class='respPic'></div><div class='trialDiv'><img src='Fruit/plums1.png'><br><font class='baseline'><strong>Plum Powerball</strong><p><strong><font class='negOutcome'>You LOST</font><p>You bet: 3</strong></font> &nbsp; &nbsp; &nbsp; &nbsp; &nbsp; &nbsp;<font class='negOutcome'>You receive: <strong>0</strong></font></div>","null","7","Plum Powerball","Fruit/plums1.png","Lost","0.35,0.8","10","0.35","107","21","",""
"","","","decision","","6108114eaacc3458294b244c","bdp_rwlrn","Tue Mar 14 2023 13:33:03 GMT-0400 (Eastern Daylight Time)","416859","Untrustworthy,Trustworthy","html-keyboard-response","73","186418","0.0-11.0-1.21","","3401","","<div class='trialDiv'><img src='Fruit/watermelon.png'><br><font class='baseline'><strong>Watermelon Win$</strong><p>Choose number of points to bet.</font><div class='respPicDiv'><img src='img/responseButtonOffersNo0L.png' class='respPic'></div></div>","5","8","Watermelon Win$","Fruit/watermelon.png","Lost","0.35,0.65","14","0.35","112","22","",""
"","","","decisionFB","","6108114eaacc3458294b244c","bdp_rwlrn","Tue Mar 14 2023 13:33:03 GMT-0400 (Eastern Daylight Time)","416859","Untrustworthy,Trustworthy","html-keyboard-response","74","186673","0.0-11.0-2.21","","null","","<div class='trialDiv'><img src='Fruit/watermelon.png'><br><font class='baseline'><strong>Watermelon Win$</strong><p>Choose number of points to bet.</font><div class='respPicDiv'><img src='img/responseButtonOffersNo0L5.png' class='respPic'></div></div>","null","8","Watermelon Win$","Fruit/watermelon.png","Lost","0.35,0.65","14","0.35","107","22","",""
"","","","feedback","","6108114eaacc3458294b244c","bdp_rwlrn","Tue Mar 14 2023 13:33:03 GMT-0400 (Eastern Daylight Time)","416859","Untrustworthy,Trustworthy","html-keyboard-response","75","187683","0.0-11.0-3.21","","null","","<div class='respPicDiv'><img src='img/responseButtonOffersNo0_wht.png' class='respPic'></div><div class='trialDiv'><img src='Fruit/watermelon.png'><br><font class='baseline'><strong>Watermelon Win$</strong><p><strong><font class='negOutcome'>You LOST</font><p>You bet: 5</strong></font> &nbsp; &nbsp; &nbsp; &nbsp; &nbsp; &nbsp;<font class='negOutcome'>You receive: <strong>0</strong></font></div>","null","8","Watermelon Win$","Fruit/watermelon.png","Lost","0.35,0.65","14","0.35","107","22","",""
"","","","decision","","6108114eaacc3458294b244c","bdp_rwlrn","Tue Mar 14 2023 13:33:03 GMT-0400 (Eastern Daylight Time)","416859","Untrustworthy,Trustworthy","html-keyboard-response","76","188407","0.0-11.0-1.22","","723","","<div class='trialDiv'><img src='Fruit/bananas.png'><br><font class='baseline'><strong>Banana Bonanza</strong><p>Choose number of points to bet.</font><div class='respPicDiv'><img src='img/responseButtonOffersNo0L.png' class='respPic'></div></div>","5","8","Banana Bonanza","Fruit/bananas.png","Won","0.8,0.35","9","0.8","112","23","",""
"","","","decisionFB","","6108114eaacc3458294b244c","bdp_rwlrn","Tue Mar 14 2023 13:33:03 GMT-0400 (Eastern Daylight Time)","416859","Untrustworthy,Trustworthy","html-keyboard-response","77","188664","0.0-11.0-2.22","","null","","<div class='trialDiv'><img src='Fruit/bananas.png'><br><font class='baseline'><strong>Banana Bonanza</strong><p>Choose number of points to bet.</font><div class='respPicDiv'><img src='img/responseButtonOffersNo0L5.png' class='respPic'></div></div>","null","8","Banana Bonanza","Fruit/bananas.png","Won","0.8,0.35","9","0.8","107","23","",""
"","","","feedback","","6108114eaacc3458294b244c","bdp_rwlrn","Tue Mar 14 2023 13:33:03 GMT-0400 (Eastern Daylight Time)","416859","Untrustworthy,Trustworthy","html-keyboard-response","78","189675","0.0-11.0-3.22","","null","","<div class='respPicDiv'><img src='img/responseButtonOffersNo0_wht.png' class='respPic'></div><div class='trialDiv'><img src='Fruit/bananas.png'><br><font class='baseline'><strong>Banana Bonanza</strong><p><strong><font class='posOutcome'>You WON</font><p>You bet: 5</strong></font> &nbsp; &nbsp; &nbsp; &nbsp; &nbsp; &nbsp;<font class='posOutcome'>you receive: <strong>10</strong></font></div>","null","8","Banana Bonanza","Fruit/bananas.png","Won","0.8,0.35","9","0.8","117","23","",""
"","","","decision","","6108114eaacc3458294b244c","bdp_rwlrn","Tue Mar 14 2023 13:33:03 GMT-0400 (Eastern Daylight Time)","416859","Untrustworthy,Trustworthy","html-keyboard-response","79","190267","0.0-11.0-1.23","","592","","<div class='trialDiv'><img src='Fruit/plums1.png'><br><font class='baseline'><strong>Plum Powerball</strong><p>Choose number of points to bet.</font><div class='respPicDiv'><img src='img/responseButtonOffersNo0L.png' class='respPic'></div></div>","5","8","Plum Powerball","Fruit/plums1.png","Lost","0.35,0.8","10","0.35","122","24","",""
"","","","decisionFB","","6108114eaacc3458294b244c","bdp_rwlrn","Tue Mar 14 2023 13:33:03 GMT-0400 (Eastern Daylight Time)","416859","Untrustworthy,Trustworthy","html-keyboard-response","80","190522","0.0-11.0-2.23","","null","","<div class='trialDiv'><img src='Fruit/plums1.png'><br><font class='baseline'><strong>Plum Powerball</strong><p>Choose number of points to bet.</font><div class='respPicDiv'><img src='img/responseButtonOffersNo0L5.png' class='respPic'></div></div>","null","8","Plum Powerball","Fruit/plums1.png","Lost","0.35,0.8","10","0.35","117","24","",""
"","","","feedback","","6108114eaacc3458294b244c","bdp_rwlrn","Tue Mar 14 2023 13:33:03 GMT-0400 (Eastern Daylight Time)","416859","Untrustworthy,Trustworthy","html-keyboard-response","81","191532","0.0-11.0-3.23","","null","","<div class='respPicDiv'><img src='img/responseButtonOffersNo0_wht.png' class='respPic'></div><div class='trialDiv'><img src='Fruit/plums1.png'><br><font class='baseline'><strong>Plum Powerball</strong><p><strong><font class='negOutcome'>You LOST</font><p>You bet: 5</strong></font> &nbsp; &nbsp; &nbsp; &nbsp; &nbsp; &nbsp;<font class='negOutcome'>You receive: <strong>0</strong></font></div>","null","8","Plum Powerball","Fruit/plums1.png","Lost","0.35,0.8","10","0.35","117","24","",""
"","","","decision","","6108114eaacc3458294b244c","bdp_rwlrn","Tue Mar 14 2023 13:33:03 GMT-0400 (Eastern Daylight Time)","416859","Untrustworthy,Trustworthy","html-keyboard-response","82","192004","0.0-11.0-1.24","","470","","<div class='trialDiv'><img src='Fruit/watermelon.png'><br><font class='baseline'><strong>Watermelon Win$</strong><p>Choose number of points to bet.</font><div class='respPicDiv'><img src='img/responseButtonOffersNo0L.png' class='respPic'></div></div>","2","9","Watermelon Win$","Fruit/watermelon.png","Lost","0.35,0.65","14","0.35","122","25","",""
"","","","decisionFB","","6108114eaacc3458294b244c","bdp_rwlrn","Tue Mar 14 2023 13:33:03 GMT-0400 (Eastern Daylight Time)","416859","Untrustworthy,Trustworthy","html-keyboard-response","83","192257","0.0-11.0-2.24","","null","","<div class='trialDiv'><img src='Fruit/watermelon.png'><br><font class='baseline'><strong>Watermelon Win$</strong><p>Choose number of points to bet.</font><div class='respPicDiv'><img src='img/responseButtonOffersNo0L2.png' class='respPic'></div></div>","null","9","Watermelon Win$","Fruit/watermelon.png","Lost","0.35,0.65","14","0.35","120","25","",""
"","","","feedback","","6108114eaacc3458294b244c","bdp_rwlrn","Tue Mar 14 2023 13:33:03 GMT-0400 (Eastern Daylight Time)","416859","Untrustworthy,Trustworthy","html-keyboard-response","84","193268","0.0-11.0-3.24","","null","","<div class='respPicDiv'><img src='img/responseButtonOffersNo0_wht.png' class='respPic'></div><div class='trialDiv'><img src='Fruit/watermelon.png'><br><font class='baseline'><strong>Watermelon Win$</strong><p><strong><font class='negOutcome'>You LOST</font><p>You bet: 2</strong></font> &nbsp; &nbsp; &nbsp; &nbsp; &nbsp; &nbsp;<font class='negOutcome'>You receive: <strong>0</strong></font></div>","null","9","Watermelon Win$","Fruit/watermelon.png","Lost","0.35,0.65","14","0.35","120","25","",""
"","","","decision","","6108114eaacc3458294b244c","bdp_rwlrn","Tue Mar 14 2023 13:33:03 GMT-0400 (Eastern Daylight Time)","416859","Untrustworthy,Trustworthy","html-keyboard-response","85","194200","0.0-11.0-1.25","","931","","<div class='trialDiv'><img src='Fruit/bananas.png'><br><font class='baseline'><strong>Banana Bonanza</strong><p>Choose number of points to bet.</font><div class='respPicDiv'><img src='img/responseButtonOffersNo0L.png' class='respPic'></div></div>","3","9","Banana Bonanza","Fruit/bananas.png","Lost","0.8,0.35","9","0.8","125","26","",""
"","","","decisionFB","","6108114eaacc3458294b244c","bdp_rwlrn","Tue Mar 14 2023 13:33:03 GMT-0400 (Eastern Daylight Time)","416859","Untrustworthy,Trustworthy","html-keyboard-response","86","194458","0.0-11.0-2.25","","null","","<div class='trialDiv'><img src='Fruit/bananas.png'><br><font class='baseline'><strong>Banana Bonanza</strong><p>Choose number of points to bet.</font><div class='respPicDiv'><img src='img/responseButtonOffersNo0L3.png' class='respPic'></div></div>","null","9","Banana Bonanza","Fruit/bananas.png","Lost","0.8,0.35","9","0.8","122","26","",""
"","","","feedback","","6108114eaacc3458294b244c","bdp_rwlrn","Tue Mar 14 2023 13:33:03 GMT-0400 (Eastern Daylight Time)","416859","Untrustworthy,Trustworthy","html-keyboard-response","87","195468","0.0-11.0-3.25","","null","","<div class='respPicDiv'><img src='img/responseButtonOffersNo0_wht.png' class='respPic'></div><div class='trialDiv'><img src='Fruit/bananas.png'><br><font class='baseline'><strong>Banana Bonanza</strong><p><strong><font class='negOutcome'>You LOST</font><p>You bet: 3</strong></font> &nbsp; &nbsp; &nbsp; &nbsp; &nbsp; &nbsp;<font class='negOutcome'>You receive: <strong>0</strong></font></div>","null","9","Banana Bonanza","Fruit/bananas.png","Lost","0.8,0.35","9","0.8","122","26","",""
"","","","decision","","6108114eaacc3458294b244c","bdp_rwlrn","Tue Mar 14 2023 13:33:03 GMT-0400 (Eastern Daylight Time)","416859","Untrustworthy,Trustworthy","html-keyboard-response","88","195778","0.0-11.0-1.26","","309","","<div class='trialDiv'><img src='Fruit/plums1.png'><br><font class='baseline'><strong>Plum Powerball</strong><p>Choose number of points to bet.</font><div class='respPicDiv'><img src='img/responseButtonOffersNo0L.png' class='respPic'></div></div>","2","9","Plum Powerball","Fruit/plums1.png","Lost","0.35,0.8","10","0.35","127","27","",""
"","","","decisionFB","","6108114eaacc3458294b244c","bdp_rwlrn","Tue Mar 14 2023 13:33:03 GMT-0400 (Eastern Daylight Time)","416859","Untrustworthy,Trustworthy","html-keyboard-response","89","196037","0.0-11.0-2.26","","null","","<div class='trialDiv'><img src='Fruit/plums1.png'><br><font class='baseline'><strong>Plum Powerball</strong><p>Choose number of points to bet.</font><div class='respPicDiv'><img src='img/responseButtonOffersNo0L2.png' class='respPic'></div></div>","null","9","Plum Powerball","Fruit/plums1.png","Lost","0.35,0.8","10","0.35","125","27","",""
"","","","feedback","","6108114eaacc3458294b244c","bdp_rwlrn","Tue Mar 14 2023 13:33:03 GMT-0400 (Eastern Daylight Time)","416859","Untrustworthy,Trustworthy","html-keyboard-response","90","197041","0.0-11.0-3.26","","null","","<div class='respPicDiv'><img src='img/responseButtonOffersNo0_wht.png' class='respPic'></div><div class='trialDiv'><img src='Fruit/plums1.png'><br><font class='baseline'><strong>Plum Powerball</strong><p><strong><font class='negOutcome'>You LOST</font><p>You bet: 2</strong></font> &nbsp; &nbsp; &nbsp; &nbsp; &nbsp; &nbsp;<font class='negOutcome'>You receive: <strong>0</strong></font></div>","null","9","Plum Powerball","Fruit/plums1.png","Lost","0.35,0.8","10","0.35","125","27","",""
"","","","decision","","6108114eaacc3458294b244c","bdp_rwlrn","Tue Mar 14 2023 13:33:03 GMT-0400 (Eastern Daylight Time)","416859","Untrustworthy,Trustworthy","html-keyboard-response","91","198561","0.0-11.0-1.27","","1519","","<div class='trialDiv'><img src='Fruit/bananas.png'><br><font class='baseline'><strong>Banana Bonanza</strong><p>Choose number of points to bet.</font><div class='respPicDiv'><img src='img/responseButtonOffersNo0L.png' class='respPic'></div></div>","2","10","Banana Bonanza","Fruit/bananas.png","Lost","0.8,0.35","9","0.8","130","28","",""
"","","","decisionFB","","6108114eaacc3458294b244c","bdp_rwlrn","Tue Mar 14 2023 13:33:03 GMT-0400 (Eastern Daylight Time)","416859","Untrustworthy,Trustworthy","html-keyboard-response","92","198818","0.0-11.0-2.27","","null","","<div class='trialDiv'><img src='Fruit/bananas.png'><br><font class='baseline'><strong>Banana Bonanza</strong><p>Choose number of points to bet.</font><div class='respPicDiv'><img src='img/responseButtonOffersNo0L2.png' class='respPic'></div></div>","null","10","Banana Bonanza","Fruit/bananas.png","Lost","0.8,0.35","9","0.8","128","28","",""
"","","","feedback","","6108114eaacc3458294b244c","bdp_rwlrn","Tue Mar 14 2023 13:33:03 GMT-0400 (Eastern Daylight Time)","416859","Untrustworthy,Trustworthy","html-keyboard-response","93","199828","0.0-11.0-3.27","","null","","<div class='respPicDiv'><img src='img/responseButtonOffersNo0_wht.png' class='respPic'></div><div class='trialDiv'><img src='Fruit/bananas.png'><br><font class='baseline'><strong>Banana Bonanza</strong><p><strong><font class='negOutcome'>You LOST</font><p>You bet: 2</strong></font> &nbsp; &nbsp; &nbsp; &nbsp; &nbsp; &nbsp;<font class='negOutcome'>You receive: <strong>0</strong></font></div>","null","10","Banana Bonanza","Fruit/bananas.png","Lost","0.8,0.35","9","0.8","128","28","",""
"","","","decision","","6108114eaacc3458294b244c","bdp_rwlrn","Tue Mar 14 2023 13:33:03 GMT-0400 (Eastern Daylight Time)","416859","Untrustworthy,Trustworthy","html-keyboard-response","94","200156","0.0-11.0-1.28","","327","","<div class='trialDiv'><img src='Fruit/watermelon.png'><br><font class='baseline'><strong>Watermelon Win$</strong><p>Choose number of points to bet.</font><div class='respPicDiv'><img src='img/responseButtonOffersNo0L.png' class='respPic'></div></div>","5","10","Watermelon Win$","Fruit/watermelon.png","Won","0.35,0.65","14","0.35","133","29","",""
"","","","decisionFB","","6108114eaacc3458294b244c","bdp_rwlrn","Tue Mar 14 2023 13:33:03 GMT-0400 (Eastern Daylight Time)","416859","Untrustworthy,Trustworthy","html-keyboard-response","95","200408","0.0-11.0-2.28","","null","","<div class='trialDiv'><img src='Fruit/watermelon.png'><br><font class='baseline'><strong>Watermelon Win$</strong><p>Choose number of points to bet.</font><div class='respPicDiv'><img src='img/responseButtonOffersNo0L5.png' class='respPic'></div></div>","null","10","Watermelon Win$","Fruit/watermelon.png","Won","0.35,0.65","14","0.35","128","29","",""
"","","","feedback","","6108114eaacc3458294b244c","bdp_rwlrn","Tue Mar 14 2023 13:33:03 GMT-0400 (Eastern Daylight Time)","416859","Untrustworthy,Trustworthy","html-keyboard-response","96","201418","0.0-11.0-3.28","","null","","<div class='respPicDiv'><img src='img/responseButtonOffersNo0_wht.png' class='respPic'></div><div class='trialDiv'><img src='Fruit/watermelon.png'><br><font class='baseline'><strong>Watermelon Win$</strong><p><strong><font class='posOutcome'>You WON</font><p>You bet: 5</strong></font> &nbsp; &nbsp; &nbsp; &nbsp; &nbsp; &nbsp;<font class='posOutcome'>you receive: <strong>10</strong></font></div>","null","10","Watermelon Win$","Fruit/watermelon.png","Won","0.35,0.65","14","0.35","138","29","",""
"","","","decision","","6108114eaacc3458294b244c","bdp_rwlrn","Tue Mar 14 2023 13:33:03 GMT-0400 (Eastern Daylight Time)","416859","Untrustworthy,Trustworthy","html-keyboard-response","97","201742","0.0-11.0-1.29","","324","","<div class='trialDiv'><img src='Fruit/plums1.png'><br><font class='baseline'><strong>Plum Powerball</strong><p>Choose number of points to bet.</font><div class='respPicDiv'><img src='img/responseButtonOffersNo0L.png' class='respPic'></div></div>","5","10","Plum Powerball","Fruit/plums1.png","Won","0.35,0.8","10","0.35","143","30","",""
"","","","decisionFB","","6108114eaacc3458294b244c","bdp_rwlrn","Tue Mar 14 2023 13:33:03 GMT-0400 (Eastern Daylight Time)","416859","Untrustworthy,Trustworthy","html-keyboard-response","98","202001","0.0-11.0-2.29","","null","","<div class='trialDiv'><img src='Fruit/plums1.png'><br><font class='baseline'><strong>Plum Powerball</strong><p>Choose number of points to bet.</font><div class='respPicDiv'><img src='img/responseButtonOffersNo0L5.png' class='respPic'></div></div>","null","10","Plum Powerball","Fruit/plums1.png","Won","0.35,0.8","10","0.35","138","30","",""
"","","","feedback","","6108114eaacc3458294b244c","bdp_rwlrn","Tue Mar 14 2023 13:33:03 GMT-0400 (Eastern Daylight Time)","416859","Untrustworthy,Trustworthy","html-keyboard-response","99","203009","0.0-11.0-3.29","","null","","<div class='respPicDiv'><img src='img/responseButtonOffersNo0_wht.png' class='respPic'></div><div class='trialDiv'><img src='Fruit/plums1.png'><br><font class='baseline'><strong>Plum Powerball</strong><p><strong><font class='posOutcome'>You WON</font><p>You bet: 5</strong></font> &nbsp; &nbsp; &nbsp; &nbsp; &nbsp; &nbsp;<font class='posOutcome'>you receive: <strong>10</strong></font></div>","null","10","Plum Powerball","Fruit/plums1.png","Won","0.35,0.8","10","0.35","148","30","",""
"","","","decision","","6108114eaacc3458294b244c","bdp_rwlrn","Tue Mar 14 2023 13:33:03 GMT-0400 (Eastern Daylight Time)","416859","Untrustworthy,Trustworthy","html-keyboard-response","100","203292","0.0-11.0-1.30","","282","","<div class='trialDiv'><img src='Fruit/bananas.png'><br><font class='baseline'><strong>Banana Bonanza</strong><p>Choose number of points to bet.</font><div class='respPicDiv'><img src='img/responseButtonOffersNo0L.png' class='respPic'></div></div>","5","11","Banana Bonanza","Fruit/bananas.png","Lost","0.8,0.35","9","0.8","153","31","",""
"","","","decisionFB","","6108114eaacc3458294b244c","bdp_rwlrn","Tue Mar 14 2023 13:33:03 GMT-0400 (Eastern Daylight Time)","416859","Untrustworthy,Trustworthy","html-keyboard-response","101","203544","0.0-11.0-2.30","","null","","<div class='trialDiv'><img src='Fruit/bananas.png'><br><font class='baseline'><strong>Banana Bonanza</strong><p>Choose number of points to bet.</font><div class='respPicDiv'><img src='img/responseButtonOffersNo0L5.png' class='respPic'></div></div>","null","11","Banana Bonanza","Fruit/bananas.png","Lost","0.8,0.35","9","0.8","148","31","",""
"","","","feedback","","6108114eaacc3458294b244c","bdp_rwlrn","Tue Mar 14 2023 13:33:03 GMT-0400 (Eastern Daylight Time)","416859","Untrustworthy,Trustworthy","html-keyboard-response","102","204554","0.0-11.0-3.30","","null","","<div class='respPicDiv'><img src='img/responseButtonOffersNo0_wht.png' class='respPic'></div><div class='trialDiv'><img src='Fruit/bananas.png'><br><font class='baseline'><strong>Banana Bonanza</strong><p><strong><font class='negOutcome'>You LOST</font><p>You bet: 5</strong></font> &nbsp; &nbsp; &nbsp; &nbsp; &nbsp; &nbsp;<font class='negOutcome'>You receive: <strong>0</strong></font></div>","null","11","Banana Bonanza","Fruit/bananas.png","Lost","0.8,0.35","9","0.8","148","31","",""
"","","","decision","","6108114eaacc3458294b244c","bdp_rwlrn","Tue Mar 14 2023 13:33:03 GMT-0400 (Eastern Daylight Time)","416859","Untrustworthy,Trustworthy","html-keyboard-response","103","204832","0.0-11.0-1.31","","277","","<div class='trialDiv'><img src='Fruit/plums1.png'><br><font class='baseline'><strong>Plum Powerball</strong><p>Choose number of points to bet.</font><div class='respPicDiv'><img src='img/responseButtonOffersNo0L.png' class='respPic'></div></div>","5","11","Plum Powerball","Fruit/plums1.png","Won","0.35,0.8","10","0.35","153","32","",""
"","","","decisionFB","","6108114eaacc3458294b244c","bdp_rwlrn","Tue Mar 14 2023 13:33:03 GMT-0400 (Eastern Daylight Time)","416859","Untrustworthy,Trustworthy","html-keyboard-response","104","205089","0.0-11.0-2.31","","null","","<div class='trialDiv'><img src='Fruit/plums1.png'><br><font class='baseline'><strong>Plum Powerball</strong><p>Choose number of points to bet.</font><div class='respPicDiv'><img src='img/responseButtonOffersNo0L5.png' class='respPic'></div></div>","null","11","Plum Powerball","Fruit/plums1.png","Won","0.35,0.8","10","0.35","148","32","",""
"","","","feedback","","6108114eaacc3458294b244c","bdp_rwlrn","Tue Mar 14 2023 13:33:03 GMT-0400 (Eastern Daylight Time)","416859","Untrustworthy,Trustworthy","html-keyboard-response","105","206097","0.0-11.0-3.31","","null","","<div class='respPicDiv'><img src='img/responseButtonOffersNo0_wht.png' class='respPic'></div><div class='trialDiv'><img src='Fruit/plums1.png'><br><font class='baseline'><strong>Plum Powerball</strong><p><strong><font class='posOutcome'>You WON</font><p>You bet: 5</strong></font> &nbsp; &nbsp; &nbsp; &nbsp; &nbsp; &nbsp;<font class='posOutcome'>you receive: <strong>10</strong></font></div>","null","11","Plum Powerball","Fruit/plums1.png","Won","0.35,0.8","10","0.35","158","32","",""
"","","","decision","","6108114eaacc3458294b244c","bdp_rwlrn","Tue Mar 14 2023 13:33:03 GMT-0400 (Eastern Daylight Time)","416859","Untrustworthy,Trustworthy","html-keyboard-response","106","206491","0.0-11.0-1.32","","394","","<div class='trialDiv'><img src='Fruit/watermelon.png'><br><font class='baseline'><strong>Watermelon Win$</strong><p>Choose number of points to bet.</font><div class='respPicDiv'><img src='img/responseButtonOffersNo0L.png' class='respPic'></div></div>","5","11","Watermelon Win$","Fruit/watermelon.png","Lost","0.35,0.65","14","0.35","163","33","",""
"","","","decisionFB","","6108114eaacc3458294b244c","bdp_rwlrn","Tue Mar 14 2023 13:33:03 GMT-0400 (Eastern Daylight Time)","416859","Untrustworthy,Trustworthy","html-keyboard-response","107","206747","0.0-11.0-2.32","","null","","<div class='trialDiv'><img src='Fruit/watermelon.png'><br><font class='baseline'><strong>Watermelon Win$</strong><p>Choose number of points to bet.</font><div class='respPicDiv'><img src='img/responseButtonOffersNo0L5.png' class='respPic'></div></div>","null","11","Watermelon Win$","Fruit/watermelon.png","Lost","0.35,0.65","14","0.35","158","33","",""
"","","","feedback","","6108114eaacc3458294b244c","bdp_rwlrn","Tue Mar 14 2023 13:33:03 GMT-0400 (Eastern Daylight Time)","416859","Untrustworthy,Trustworthy","html-keyboard-response","108","207752","0.0-11.0-3.32","","null","","<div class='respPicDiv'><img src='img/responseButtonOffersNo0_wht.png' class='respPic'></div><div class='trialDiv'><img src='Fruit/watermelon.png'><br><font class='baseline'><strong>Watermelon Win$</strong><p><strong><font class='negOutcome'>You LOST</font><p>You bet: 5</strong></font> &nbsp; &nbsp; &nbsp; &nbsp; &nbsp; &nbsp;<font class='negOutcome'>You receive: <strong>0</strong></font></div>","null","11","Watermelon Win$","Fruit/watermelon.png","Lost","0.35,0.65","14","0.35","158","33","",""
"","","","decision","","6108114eaacc3458294b244c","bdp_rwlrn","Tue Mar 14 2023 13:33:03 GMT-0400 (Eastern Daylight Time)","416859","Untrustworthy,Trustworthy","html-keyboard-response","109","208911","0.0-11.0-1.33","","1158","","<div class='trialDiv'><img src='Fruit/bananas.png'><br><font class='baseline'><strong>Banana Bonanza</strong><p>Choose number of points to bet.</font><div class='respPicDiv'><img src='img/responseButtonOffersNo0L.png' class='respPic'></div></div>","4","12","Banana Bonanza","Fruit/bananas.png","Lost","0.8,0.35","9","0.8","163","34","",""
"","","","decisionFB","","6108114eaacc3458294b244c","bdp_rwlrn","Tue Mar 14 2023 13:33:03 GMT-0400 (Eastern Daylight Time)","416859","Untrustworthy,Trustworthy","html-keyboard-response","110","209168","0.0-11.0-2.33","","null","","<div class='trialDiv'><img src='Fruit/bananas.png'><br><font class='baseline'><strong>Banana Bonanza</strong><p>Choose number of points to bet.</font><div class='respPicDiv'><img src='img/responseButtonOffersNo0L4.png' class='respPic'></div></div>","null","12","Banana Bonanza","Fruit/bananas.png","Lost","0.8,0.35","9","0.8","159","34","",""
"","","","feedback","","6108114eaacc3458294b244c","bdp_rwlrn","Tue Mar 14 2023 13:33:03 GMT-0400 (Eastern Daylight Time)","416859","Untrustworthy,Trustworthy","html-keyboard-response","111","210178","0.0-11.0-3.33","","null","","<div class='respPicDiv'><img src='img/responseButtonOffersNo0_wht.png' class='respPic'></div><div class='trialDiv'><img src='Fruit/bananas.png'><br><font class='baseline'><strong>Banana Bonanza</strong><p><strong><font class='negOutcome'>You LOST</font><p>You bet: 4</strong></font> &nbsp; &nbsp; &nbsp; &nbsp; &nbsp; &nbsp;<font class='negOutcome'>You receive: <strong>0</strong></font></div>","null","12","Banana Bonanza","Fruit/bananas.png","Lost","0.8,0.35","9","0.8","159","34","",""
"","","","decision","","6108114eaacc3458294b244c","bdp_rwlrn","Tue Mar 14 2023 13:33:03 GMT-0400 (Eastern Daylight Time)","416859","Untrustworthy,Trustworthy","html-keyboard-response","112","210679","0.0-11.0-1.34","","500","","<div class='trialDiv'><img src='Fruit/watermelon.png'><br><font class='baseline'><strong>Watermelon Win$</strong><p>Choose number of points to bet.</font><div class='respPicDiv'><img src='img/responseButtonOffersNo0L.png' class='respPic'></div></div>","5","12","Watermelon Win$","Fruit/watermelon.png","Lost","0.35,0.65","14","0.35","164","35","",""
"","","","decisionFB","","6108114eaacc3458294b244c","bdp_rwlrn","Tue Mar 14 2023 13:33:03 GMT-0400 (Eastern Daylight Time)","416859","Untrustworthy,Trustworthy","html-keyboard-response","113","210939","0.0-11.0-2.34","","null","","<div class='trialDiv'><img src='Fruit/watermelon.png'><br><font class='baseline'><strong>Watermelon Win$</strong><p>Choose number of points to bet.</font><div class='respPicDiv'><img src='img/responseButtonOffersNo0L5.png' class='respPic'></div></div>","null","12","Watermelon Win$","Fruit/watermelon.png","Lost","0.35,0.65","14","0.35","159","35","",""
"","","","feedback","","6108114eaacc3458294b244c","bdp_rwlrn","Tue Mar 14 2023 13:33:03 GMT-0400 (Eastern Daylight Time)","416859","Untrustworthy,Trustworthy","html-keyboard-response","114","211949","0.0-11.0-3.34","","null","","<div class='respPicDiv'><img src='img/responseButtonOffersNo0_wht.png' class='respPic'></div><div class='trialDiv'><img src='Fruit/watermelon.png'><br><font class='baseline'><strong>Watermelon Win$</strong><p><strong><font class='negOutcome'>You LOST</font><p>You bet: 5</strong></font> &nbsp; &nbsp; &nbsp; &nbsp; &nbsp; &nbsp;<font class='negOutcome'>You receive: <strong>0</strong></font></div>","null","12","Watermelon Win$","Fruit/watermelon.png","Lost","0.35,0.65","14","0.35","159","35","",""
"","","","decision","","6108114eaacc3458294b244c","bdp_rwlrn","Tue Mar 14 2023 13:33:03 GMT-0400 (Eastern Daylight Time)","416859","Untrustworthy,Trustworthy","html-keyboard-response","115","212266","0.0-11.0-1.35","","316","","<div class='trialDiv'><img src='Fruit/plums1.png'><br><font class='baseline'><strong>Plum Powerball</strong><p>Choose number of points to bet.</font><div class='respPicDiv'><img src='img/responseButtonOffersNo0L.png' class='respPic'></div></div>","5","12","Plum Powerball","Fruit/plums1.png","Won","0.35,0.8","10","0.35","164","36","",""
"","","","decisionFB","","6108114eaacc3458294b244c","bdp_rwlrn","Tue Mar 14 2023 13:33:03 GMT-0400 (Eastern Daylight Time)","416859","Untrustworthy,Trustworthy","html-keyboard-response","116","212522","0.0-11.0-2.35","","null","","<div class='trialDiv'><img src='Fruit/plums1.png'><br><font class='baseline'><strong>Plum Powerball</strong><p>Choose number of points to bet.</font><div class='respPicDiv'><img src='img/responseButtonOffersNo0L5.png' class='respPic'></div></div>","null","12","Plum Powerball","Fruit/plums1.png","Won","0.35,0.8","10","0.35","159","36","",""
"","","","feedback","","6108114eaacc3458294b244c","bdp_rwlrn","Tue Mar 14 2023 13:33:03 GMT-0400 (Eastern Daylight Time)","416859","Untrustworthy,Trustworthy","html-keyboard-response","117","213528","0.0-11.0-3.35","","null","","<div class='respPicDiv'><img src='img/responseButtonOffersNo0_wht.png' class='respPic'></div><div class='trialDiv'><img src='Fruit/plums1.png'><br><font class='baseline'><strong>Plum Powerball</strong><p><strong><font class='posOutcome'>You WON</font><p>You bet: 5</strong></font> &nbsp; &nbsp; &nbsp; &nbsp; &nbsp; &nbsp;<font class='posOutcome'>you receive: <strong>10</strong></font></div>","null","12","Plum Powerball","Fruit/plums1.png","Won","0.35,0.8","10","0.35","169","36","",""
"","","","decision","","6108114eaacc3458294b244c","bdp_rwlrn","Tue Mar 14 2023 13:33:03 GMT-0400 (Eastern Daylight Time)","416859","Untrustworthy,Trustworthy","html-keyboard-response","118","214373","0.0-11.0-1.36","","844","","<div class='trialDiv'><img src='Fruit/watermelon.png'><br><font class='baseline'><strong>Watermelon Win$</strong><p>Choose number of points to bet.</font><div class='respPicDiv'><img src='img/responseButtonOffersNo0L.png' class='respPic'></div></div>","5","13","Watermelon Win$","Fruit/watermelon.png","Won","0.35,0.65","14","0.35","174","37","",""
"","","","decisionFB","","6108114eaacc3458294b244c","bdp_rwlrn","Tue Mar 14 2023 13:33:03 GMT-0400 (Eastern Daylight Time)","416859","Untrustworthy,Trustworthy","html-keyboard-response","119","214625","0.0-11.0-2.36","","null","","<div class='trialDiv'><img src='Fruit/watermelon.png'><br><font class='baseline'><strong>Watermelon Win$</strong><p>Choose number of points to bet.</font><div class='respPicDiv'><img src='img/responseButtonOffersNo0L5.png' class='respPic'></div></div>","null","13","Watermelon Win$","Fruit/watermelon.png","Won","0.35,0.65","14","0.35","169","37","",""
"","","","feedback","","6108114eaacc3458294b244c","bdp_rwlrn","Tue Mar 14 2023 13:33:03 GMT-0400 (Eastern Daylight Time)","416859","Untrustworthy,Trustworthy","html-keyboard-response","120","215635","0.0-11.0-3.36","","null","","<div class='respPicDiv'><img src='img/responseButtonOffersNo0_wht.png' class='respPic'></div><div class='trialDiv'><img src='Fruit/watermelon.png'><br><font class='baseline'><strong>Watermelon Win$</strong><p><strong><font class='posOutcome'>You WON</font><p>You bet: 5</strong></font> &nbsp; &nbsp; &nbsp; &nbsp; &nbsp; &nbsp;<font class='posOutcome'>you receive: <strong>10</strong></font></div>","null","13","Watermelon Win$","Fruit/watermelon.png","Won","0.35,0.65","14","0.35","179","37","",""
"","","","decision","","6108114eaacc3458294b244c","bdp_rwlrn","Tue Mar 14 2023 13:33:03 GMT-0400 (Eastern Daylight Time)","416859","Untrustworthy,Trustworthy","html-keyboard-response","121","216205","0.0-11.0-1.37","","569","","<div class='trialDiv'><img src='Fruit/plums1.png'><br><font class='baseline'><strong>Plum Powerball</strong><p>Choose number of points to bet.</font><div class='respPicDiv'><img src='img/responseButtonOffersNo0L.png' class='respPic'></div></div>","5","13","Plum Powerball","Fruit/plums1.png","Won","0.35,0.8","10","0.35","184","38","",""
"","","","decisionFB","","6108114eaacc3458294b244c","bdp_rwlrn","Tue Mar 14 2023 13:33:03 GMT-0400 (Eastern Daylight Time)","416859","Untrustworthy,Trustworthy","html-keyboard-response","122","216460","0.0-11.0-2.37","","null","","<div class='trialDiv'><img src='Fruit/plums1.png'><br><font class='baseline'><strong>Plum Powerball</strong><p>Choose number of points to bet.</font><div class='respPicDiv'><img src='img/responseButtonOffersNo0L5.png' class='respPic'></div></div>","null","13","Plum Powerball","Fruit/plums1.png","Won","0.35,0.8","10","0.35","179","38","",""
"","","","feedback","","6108114eaacc3458294b244c","bdp_rwlrn","Tue Mar 14 2023 13:33:03 GMT-0400 (Eastern Daylight Time)","416859","Untrustworthy,Trustworthy","html-keyboard-response","123","217467","0.0-11.0-3.37","","null","","<div class='respPicDiv'><img src='img/responseButtonOffersNo0_wht.png' class='respPic'></div><div class='trialDiv'><img src='Fruit/plums1.png'><br><font class='baseline'><strong>Plum Powerball</strong><p><strong><font class='posOutcome'>You WON</font><p>You bet: 5</strong></font> &nbsp; &nbsp; &nbsp; &nbsp; &nbsp; &nbsp;<font class='posOutcome'>you receive: <strong>10</strong></font></div>","null","13","Plum Powerball","Fruit/plums1.png","Won","0.35,0.8","10","0.35","189","38","",""
"","","","decision","","6108114eaacc3458294b244c","bdp_rwlrn","Tue Mar 14 2023 13:33:03 GMT-0400 (Eastern Daylight Time)","416859","Untrustworthy,Trustworthy","html-keyboard-response","124","218014","0.0-11.0-1.38","","546","","<div class='trialDiv'><img src='Fruit/bananas.png'><br><font class='baseline'><strong>Banana Bonanza</strong><p>Choose number of points to bet.</font><div class='respPicDiv'><img src='img/responseButtonOffersNo0L.png' class='respPic'></div></div>","5","13","Banana Bonanza","Fruit/bananas.png","Won","0.8,0.35","9","0.8","194","39","",""
"","","","decisionFB","","6108114eaacc3458294b244c","bdp_rwlrn","Tue Mar 14 2023 13:33:03 GMT-0400 (Eastern Daylight Time)","416859","Untrustworthy,Trustworthy","html-keyboard-response","125","218276","0.0-11.0-2.38","","null","","<div class='trialDiv'><img src='Fruit/bananas.png'><br><font class='baseline'><strong>Banana Bonanza</strong><p>Choose number of points to bet.</font><div class='respPicDiv'><img src='img/responseButtonOffersNo0L5.png' class='respPic'></div></div>","null","13","Banana Bonanza","Fruit/bananas.png","Won","0.8,0.35","9","0.8","189","39","",""
"","","","feedback","","6108114eaacc3458294b244c","bdp_rwlrn","Tue Mar 14 2023 13:33:03 GMT-0400 (Eastern Daylight Time)","416859","Untrustworthy,Trustworthy","html-keyboard-response","126","219281","0.0-11.0-3.38","","null","","<div class='respPicDiv'><img src='img/responseButtonOffersNo0_wht.png' class='respPic'></div><div class='trialDiv'><img src='Fruit/bananas.png'><br><font class='baseline'><strong>Banana Bonanza</strong><p><strong><font class='posOutcome'>You WON</font><p>You bet: 5</strong></font> &nbsp; &nbsp; &nbsp; &nbsp; &nbsp; &nbsp;<font class='posOutcome'>you receive: <strong>10</strong></font></div>","null","13","Banana Bonanza","Fruit/bananas.png","Won","0.8,0.35","9","0.8","199","39","",""
"","","","decision","","6108114eaacc3458294b244c","bdp_rwlrn","Tue Mar 14 2023 13:33:03 GMT-0400 (Eastern Daylight Time)","416859","Untrustworthy,Trustworthy","html-keyboard-response","127","219741","0.0-11.0-1.39","","458","","<div class='trialDiv'><img src='Fruit/watermelon.png'><br><font class='baseline'><strong>Watermelon Win$</strong><p>Choose number of points to bet.</font><div class='respPicDiv'><img src='img/responseButtonOffersNo0L.png' class='respPic'></div></div>","1","14","Watermelon Win$","Fruit/watermelon.png","Won","0.35,0.65","14","0.35","204","40","",""
"","","","decisionFB","","6108114eaacc3458294b244c","bdp_rwlrn","Tue Mar 14 2023 13:33:03 GMT-0400 (Eastern Daylight Time)","416859","Untrustworthy,Trustworthy","html-keyboard-response","128","219995","0.0-11.0-2.39","","null","","<div class='trialDiv'><img src='Fruit/watermelon.png'><br><font class='baseline'><strong>Watermelon Win$</strong><p>Choose number of points to bet.</font><div class='respPicDiv'><img src='img/responseButtonOffersNo0L1.png' class='respPic'></div></div>","null","14","Watermelon Win$","Fruit/watermelon.png","Won","0.35,0.65","14","0.35","203","40","",""
"","","","feedback","","6108114eaacc3458294b244c","bdp_rwlrn","Tue Mar 14 2023 13:33:03 GMT-0400 (Eastern Daylight Time)","416859","Untrustworthy,Trustworthy","html-keyboard-response","129","221005","0.0-11.0-3.39","","null","","<div class='respPicDiv'><img src='img/responseButtonOffersNo0_wht.png' class='respPic'></div><div class='trialDiv'><img src='Fruit/watermelon.png'><br><font class='baseline'><strong>Watermelon Win$</strong><p><strong><font class='posOutcome'>You WON</font><p>You bet: 1</strong></font> &nbsp; &nbsp; &nbsp; &nbsp; &nbsp; &nbsp;<font class='posOutcome'>you receive: <strong>2</strong></font></div>","null","14","Watermelon Win$","Fruit/watermelon.png","Won","0.35,0.65","14","0.35","205","40","",""
"","","","decision","","6108114eaacc3458294b244c","bdp_rwlrn","Tue Mar 14 2023 13:33:03 GMT-0400 (Eastern Daylight Time)","416859","Untrustworthy,Trustworthy","html-keyboard-response","130","221471","0.0-11.0-1.40","","465","","<div class='trialDiv'><img src='Fruit/bananas.png'><br><font class='baseline'><strong>Banana Bonanza</strong><p>Choose number of points to bet.</font><div class='respPicDiv'><img src='img/responseButtonOffersNo0L.png' class='respPic'></div></div>","3","14","Banana Bonanza","Fruit/bananas.png","Lost","0.8,0.35","9","0.8","210","41","",""
"","","","decisionFB","","6108114eaacc3458294b244c","bdp_rwlrn","Tue Mar 14 2023 13:33:03 GMT-0400 (Eastern Daylight Time)","416859","Untrustworthy,Trustworthy","html-keyboard-response","131","221731","0.0-11.0-2.40","","null","","<div class='trialDiv'><img src='Fruit/bananas.png'><br><font class='baseline'><strong>Banana Bonanza</strong><p>Choose number of points to bet.</font><div class='respPicDiv'><img src='img/responseButtonOffersNo0L3.png' class='respPic'></div></div>","null","14","Banana Bonanza","Fruit/bananas.png","Lost","0.8,0.35","9","0.8","207","41","",""
"","","","feedback","","6108114eaacc3458294b244c","bdp_rwlrn","Tue Mar 14 2023 13:33:03 GMT-0400 (Eastern Daylight Time)","416859","Untrustworthy,Trustworthy","html-keyboard-response","132","222741","0.0-11.0-3.40","","null","","<div class='respPicDiv'><img src='img/responseButtonOffersNo0_wht.png' class='respPic'></div><div class='trialDiv'><img src='Fruit/bananas.png'><br><font class='baseline'><strong>Banana Bonanza</strong><p><strong><font class='negOutcome'>You LOST</font><p>You bet: 3</strong></font> &nbsp; &nbsp; &nbsp; &nbsp; &nbsp; &nbsp;<font class='negOutcome'>You receive: <strong>0</strong></font></div>","null","14","Banana Bonanza","Fruit/bananas.png","Lost","0.8,0.35","9","0.8","207","41","",""
"","","","decision","","6108114eaacc3458294b244c","bdp_rwlrn","Tue Mar 14 2023 13:33:03 GMT-0400 (Eastern Daylight Time)","416859","Untrustworthy,Trustworthy","html-keyboard-response","133","223436","0.0-11.0-1.41","","694","","<div class='trialDiv'><img src='Fruit/plums1.png'><br><font class='baseline'><strong>Plum Powerball</strong><p>Choose number of points to bet.</font><div class='respPicDiv'><img src='img/responseButtonOffersNo0L.png' class='respPic'></div></div>","5","14","Plum Powerball","Fruit/plums1.png","Won","0.35,0.8","10","0.35","212","42","",""
"","","","decisionFB","","6108114eaacc3458294b244c","bdp_rwlrn","Tue Mar 14 2023 13:33:03 GMT-0400 (Eastern Daylight Time)","416859","Untrustworthy,Trustworthy","html-keyboard-response","134","223693","0.0-11.0-2.41","","null","","<div class='trialDiv'><img src='Fruit/plums1.png'><br><font class='baseline'><strong>Plum Powerball</strong><p>Choose number of points to bet.</font><div class='respPicDiv'><img src='img/responseButtonOffersNo0L5.png' class='respPic'></div></div>","null","14","Plum Powerball","Fruit/plums1.png","Won","0.35,0.8","10","0.35","207","42","",""
"","","","feedback","","6108114eaacc3458294b244c","bdp_rwlrn","Tue Mar 14 2023 13:33:03 GMT-0400 (Eastern Daylight Time)","416859","Untrustworthy,Trustworthy","html-keyboard-response","135","224697","0.0-11.0-3.41","","null","","<div class='respPicDiv'><img src='img/responseButtonOffersNo0_wht.png' class='respPic'></div><div class='trialDiv'><img src='Fruit/plums1.png'><br><font class='baseline'><strong>Plum Powerball</strong><p><strong><font class='posOutcome'>You WON</font><p>You bet: 5</strong></font> &nbsp; &nbsp; &nbsp; &nbsp; &nbsp; &nbsp;<font class='posOutcome'>you receive: <strong>10</strong></font></div>","null","14","Plum Powerball","Fruit/plums1.png","Won","0.35,0.8","10","0.35","217","42","",""
"","","","decision","","6108114eaacc3458294b244c","bdp_rwlrn","Tue Mar 14 2023 13:33:03 GMT-0400 (Eastern Daylight Time)","416859","Untrustworthy,Trustworthy","html-keyboard-response","136","225319","0.0-11.0-1.42","","621","","<div class='trialDiv'><img src='Fruit/watermelon.png'><br><font class='baseline'><strong>Watermelon Win$</strong><p>Choose number of points to bet.</font><div class='respPicDiv'><img src='img/responseButtonOffersNo0L.png' class='respPic'></div></div>","2","15","Watermelon Win$","Fruit/watermelon.png","Won","0.35,0.65","14","0.35","222","43","",""
"","","","decisionFB","","6108114eaacc3458294b244c","bdp_rwlrn","Tue Mar 14 2023 13:33:03 GMT-0400 (Eastern Daylight Time)","416859","Untrustworthy,Trustworthy","html-keyboard-response","137","225579","0.0-11.0-2.42","","null","","<div class='trialDiv'><img src='Fruit/watermelon.png'><br><font class='baseline'><strong>Watermelon Win$</strong><p>Choose number of points to bet.</font><div class='respPicDiv'><img src='img/responseButtonOffersNo0L2.png' class='respPic'></div></div>","null","15","Watermelon Win$","Fruit/watermelon.png","Won","0.35,0.65","14","0.35","220","43","",""
"","","","feedback","","6108114eaacc3458294b244c","bdp_rwlrn","Tue Mar 14 2023 13:33:03 GMT-0400 (Eastern Daylight Time)","416859","Untrustworthy,Trustworthy","html-keyboard-response","138","226586","0.0-11.0-3.42","","null","","<div class='respPicDiv'><img src='img/responseButtonOffersNo0_wht.png' class='respPic'></div><div class='trialDiv'><img src='Fruit/watermelon.png'><br><font class='baseline'><strong>Watermelon Win$</strong><p><strong><font class='posOutcome'>You WON</font><p>You bet: 2</strong></font> &nbsp; &nbsp; &nbsp; &nbsp; &nbsp; &nbsp;<font class='posOutcome'>you receive: <strong>4</strong></font></div>","null","15","Watermelon Win$","Fruit/watermelon.png","Won","0.35,0.65","14","0.35","224","43","",""
"","","","decision","","6108114eaacc3458294b244c","bdp_rwlrn","Tue Mar 14 2023 13:33:03 GMT-0400 (Eastern Daylight Time)","416859","Untrustworthy,Trustworthy","html-keyboard-response","139","226966","0.0-11.0-1.43","","379","","<div class='trialDiv'><img src='Fruit/bananas.png'><br><font class='baseline'><strong>Banana Bonanza</strong><p>Choose number of points to bet.</font><div class='respPicDiv'><img src='img/responseButtonOffersNo0L.png' class='respPic'></div></div>","5","15","Banana Bonanza","Fruit/bananas.png","Won","0.8,0.35","9","0.8","229","44","",""
"","","","decisionFB","","6108114eaacc3458294b244c","bdp_rwlrn","Tue Mar 14 2023 13:33:03 GMT-0400 (Eastern Daylight Time)","416859","Untrustworthy,Trustworthy","html-keyboard-response","140","227226","0.0-11.0-2.43","","null","","<div class='trialDiv'><img src='Fruit/bananas.png'><br><font class='baseline'><strong>Banana Bonanza</strong><p>Choose number of points to bet.</font><div class='respPicDiv'><img src='img/responseButtonOffersNo0L5.png' class='respPic'></div></div>","null","15","Banana Bonanza","Fruit/bananas.png","Won","0.8,0.35","9","0.8","224","44","",""
"","","","feedback","","6108114eaacc3458294b244c","bdp_rwlrn","Tue Mar 14 2023 13:33:03 GMT-0400 (Eastern Daylight Time)","416859","Untrustworthy,Trustworthy","html-keyboard-response","141","228232","0.0-11.0-3.43","","null","","<div class='respPicDiv'><img src='img/responseButtonOffersNo0_wht.png' class='respPic'></div><div class='trialDiv'><img src='Fruit/bananas.png'><br><font class='baseline'><strong>Banana Bonanza</strong><p><strong><font class='posOutcome'>You WON</font><p>You bet: 5</strong></font> &nbsp; &nbsp; &nbsp; &nbsp; &nbsp; &nbsp;<font class='posOutcome'>you receive: <strong>10</strong></font></div>","null","15","Banana Bonanza","Fruit/bananas.png","Won","0.8,0.35","9","0.8","234","44","",""
"","","","decision","","6108114eaacc3458294b244c","bdp_rwlrn","Tue Mar 14 2023 13:33:03 GMT-0400 (Eastern Daylight Time)","416859","Untrustworthy,Trustworthy","html-keyboard-response","142","228714","0.0-11.0-1.44","","481","","<div class='trialDiv'><img src='Fruit/plums1.png'><br><font class='baseline'><strong>Plum Powerball</strong><p>Choose number of points to bet.</font><div class='respPicDiv'><img src='img/responseButtonOffersNo0L.png' class='respPic'></div></div>","2","15","Plum Powerball","Fruit/plums1.png","Lost","0.35,0.8","10","0.35","239","45","",""
"","","","decisionFB","","6108114eaacc3458294b244c","bdp_rwlrn","Tue Mar 14 2023 13:33:03 GMT-0400 (Eastern Daylight Time)","416859","Untrustworthy,Trustworthy","html-keyboard-response","143","228970","0.0-11.0-2.44","","null","","<div class='trialDiv'><img src='Fruit/plums1.png'><br><font class='baseline'><strong>Plum Powerball</strong><p>Choose number of points to bet.</font><div class='respPicDiv'><img src='img/responseButtonOffersNo0L2.png' class='respPic'></div></div>","null","15","Plum Powerball","Fruit/plums1.png","Lost","0.35,0.8","10","0.35","237","45","",""
"","","","feedback","","6108114eaacc3458294b244c","bdp_rwlrn","Tue Mar 14 2023 13:33:03 GMT-0400 (Eastern Daylight Time)","416859","Untrustworthy,Trustworthy","html-keyboard-response","144","229980","0.0-11.0-3.44","","null","","<div class='respPicDiv'><img src='img/responseButtonOffersNo0_wht.png' class='respPic'></div><div class='trialDiv'><img src='Fruit/plums1.png'><br><font class='baseline'><strong>Plum Powerball</strong><p><strong><font class='negOutcome'>You LOST</font><p>You bet: 2</strong></font> &nbsp; &nbsp; &nbsp; &nbsp; &nbsp; &nbsp;<font class='negOutcome'>You receive: <strong>0</strong></font></div>","null","15","Plum Powerball","Fruit/plums1.png","Lost","0.35,0.8","10","0.35","237","45","",""
"","","","decision","","6108114eaacc3458294b244c","bdp_rwlrn","Tue Mar 14 2023 13:33:03 GMT-0400 (Eastern Daylight Time)","416859","Untrustworthy,Trustworthy","html-keyboard-response","145","230531","0.0-11.0-1.45","","551","","<div class='trialDiv'><img src='Fruit/watermelon.png'><br><font class='baseline'><strong>Watermelon Win$</strong><p>Choose number of points to bet.</font><div class='respPicDiv'><img src='img/responseButtonOffersNo0L.png' class='respPic'></div></div>","5","16","Watermelon Win$","Fruit/watermelon.png","Won","0.35,0.65","14","0.35","242","46","",""
"","","","decisionFB","","6108114eaacc3458294b244c","bdp_rwlrn","Tue Mar 14 2023 13:33:03 GMT-0400 (Eastern Daylight Time)","416859","Untrustworthy,Trustworthy","html-keyboard-response","146","230788","0.0-11.0-2.45","","null","","<div class='trialDiv'><img src='Fruit/watermelon.png'><br><font class='baseline'><strong>Watermelon Win$</strong><p>Choose number of points to bet.</font><div class='respPicDiv'><img src='img/responseButtonOffersNo0L5.png' class='respPic'></div></div>","null","16","Watermelon Win$","Fruit/watermelon.png","Won","0.35,0.65","14","0.35","237","46","",""
"","","","feedback","","6108114eaacc3458294b244c","bdp_rwlrn","Tue Mar 14 2023 13:33:03 GMT-0400 (Eastern Daylight Time)","416859","Untrustworthy,Trustworthy","html-keyboard-response","147","231797","0.0-11.0-3.45","","null","","<div class='respPicDiv'><img src='img/responseButtonOffersNo0_wht.png' class='respPic'></div><div class='trialDiv'><img src='Fruit/watermelon.png'><br><font class='baseline'><strong>Watermelon Win$</strong><p><strong><font class='posOutcome'>You WON</font><p>You bet: 5</strong></font> &nbsp; &nbsp; &nbsp; &nbsp; &nbsp; &nbsp;<font class='posOutcome'>you receive: <strong>10</strong></font></div>","null","16","Watermelon Win$","Fruit/watermelon.png","Won","0.35,0.65","14","0.35","247","46","",""
"","","","decision","","6108114eaacc3458294b244c","bdp_rwlrn","Tue Mar 14 2023 13:33:03 GMT-0400 (Eastern Daylight Time)","416859","Untrustworthy,Trustworthy","html-keyboard-response","148","232053","0.0-11.0-1.46","","256","","<div class='trialDiv'><img src='Fruit/bananas.png'><br><font class='baseline'><strong>Banana Bonanza</strong><p>Choose number of points to bet.</font><div class='respPicDiv'><img src='img/responseButtonOffersNo0L.png' class='respPic'></div></div>","2","16","Banana Bonanza","Fruit/bananas.png","Lost","0.8,0.35","9","0.8","252","47","",""
"","","","decisionFB","","6108114eaacc3458294b244c","bdp_rwlrn","Tue Mar 14 2023 13:33:03 GMT-0400 (Eastern Daylight Time)","416859","Untrustworthy,Trustworthy","html-keyboard-response","149","232308","0.0-11.0-2.46","","null","","<div class='trialDiv'><img src='Fruit/bananas.png'><br><font class='baseline'><strong>Banana Bonanza</strong><p>Choose number of points to bet.</font><div class='respPicDiv'><img src='img/responseButtonOffersNo0L2.png' class='respPic'></div></div>","null","16","Banana Bonanza","Fruit/bananas.png","Lost","0.8,0.35","9","0.8","250","47","",""
"","","","feedback","","6108114eaacc3458294b244c","bdp_rwlrn","Tue Mar 14 2023 13:33:03 GMT-0400 (Eastern Daylight Time)","416859","Untrustworthy,Trustworthy","html-keyboard-response","150","233315","0.0-11.0-3.46","","null","","<div class='respPicDiv'><img src='img/responseButtonOffersNo0_wht.png' class='respPic'></div><div class='trialDiv'><img src='Fruit/bananas.png'><br><font class='baseline'><strong>Banana Bonanza</strong><p><strong><font class='negOutcome'>You LOST</font><p>You bet: 2</strong></font> &nbsp; &nbsp; &nbsp; &nbsp; &nbsp; &nbsp;<font class='negOutcome'>You receive: <strong>0</strong></font></div>","null","16","Banana Bonanza","Fruit/bananas.png","Lost","0.8,0.35","9","0.8","250","47","",""
"","","","decision","","6108114eaacc3458294b244c","bdp_rwlrn","Tue Mar 14 2023 13:33:03 GMT-0400 (Eastern Daylight Time)","416859","Untrustworthy,Trustworthy","html-keyboard-response","151","233645","0.0-11.0-1.47","","329","","<div class='trialDiv'><img src='Fruit/plums1.png'><br><font class='baseline'><strong>Plum Powerball</strong><p>Choose number of points to bet.</font><div class='respPicDiv'><img src='img/responseButtonOffersNo0L.png' class='respPic'></div></div>","5","16","Plum Powerball","Fruit/plums1.png","Won","0.35,0.8","10","0.35","255","48","",""
"","","","decisionFB","","6108114eaacc3458294b244c","bdp_rwlrn","Tue Mar 14 2023 13:33:03 GMT-0400 (Eastern Daylight Time)","416859","Untrustworthy,Trustworthy","html-keyboard-response","152","233898","0.0-11.0-2.47","","null","","<div class='trialDiv'><img src='Fruit/plums1.png'><br><font class='baseline'><strong>Plum Powerball</strong><p>Choose number of points to bet.</font><div class='respPicDiv'><img src='img/responseButtonOffersNo0L5.png' class='respPic'></div></div>","null","16","Plum Powerball","Fruit/plums1.png","Won","0.35,0.8","10","0.35","250","48","",""
"","","","feedback","","6108114eaacc3458294b244c","bdp_rwlrn","Tue Mar 14 2023 13:33:03 GMT-0400 (Eastern Daylight Time)","416859","Untrustworthy,Trustworthy","html-keyboard-response","153","234908","0.0-11.0-3.47","","null","","<div class='respPicDiv'><img src='img/responseButtonOffersNo0_wht.png' class='respPic'></div><div class='trialDiv'><img src='Fruit/plums1.png'><br><font class='baseline'><strong>Plum Powerball</strong><p><strong><font class='posOutcome'>You WON</font><p>You bet: 5</strong></font> &nbsp; &nbsp; &nbsp; &nbsp; &nbsp; &nbsp;<font class='posOutcome'>you receive: <strong>10</strong></font></div>","null","16","Plum Powerball","Fruit/plums1.png","Won","0.35,0.8","10","0.35","260","48","",""
"","","","decision","","6108114eaacc3458294b244c","bdp_rwlrn","Tue Mar 14 2023 13:33:03 GMT-0400 (Eastern Daylight Time)","416859","Untrustworthy,Trustworthy","html-keyboard-response","154","235217","0.0-11.0-1.48","","308","","<div class='trialDiv'><img src='Fruit/watermelon.png'><br><font class='baseline'><strong>Watermelon Win$</strong><p>Choose number of points to bet.</font><div class='respPicDiv'><img src='img/responseButtonOffersNo0L.png' class='respPic'></div></div>","5","17","Watermelon Win$","Fruit/watermelon.png","Won","0.35,0.65","14","0.35","265","49","",""
"","","","decisionFB","","6108114eaacc3458294b244c","bdp_rwlrn","Tue Mar 14 2023 13:33:03 GMT-0400 (Eastern Daylight Time)","416859","Untrustworthy,Trustworthy","html-keyboard-response","155","235477","0.0-11.0-2.48","","null","","<div class='trialDiv'><img src='Fruit/watermelon.png'><br><font class='baseline'><strong>Watermelon Win$</strong><p>Choose number of points to bet.</font><div class='respPicDiv'><img src='img/responseButtonOffersNo0L5.png' class='respPic'></div></div>","null","17","Watermelon Win$","Fruit/watermelon.png","Won","0.35,0.65","14","0.35","260","49","",""
"","","","feedback","","6108114eaacc3458294b244c","bdp_rwlrn","Tue Mar 14 2023 13:33:03 GMT-0400 (Eastern Daylight Time)","416859","Untrustworthy,Trustworthy","html-keyboard-response","156","236482","0.0-11.0-3.48","","null","","<div class='respPicDiv'><img src='img/responseButtonOffersNo0_wht.png' class='respPic'></div><div class='trialDiv'><img src='Fruit/watermelon.png'><br><font class='baseline'><strong>Watermelon Win$</strong><p><strong><font class='posOutcome'>You WON</font><p>You bet: 5</strong></font> &nbsp; &nbsp; &nbsp; &nbsp; &nbsp; &nbsp;<font class='posOutcome'>you receive: <strong>10</strong></font></div>","null","17","Watermelon Win$","Fruit/watermelon.png","Won","0.35,0.65","14","0.35","270","49","",""
"","","","decision","","6108114eaacc3458294b244c","bdp_rwlrn","Tue Mar 14 2023 13:33:03 GMT-0400 (Eastern Daylight Time)","416859","Untrustworthy,Trustworthy","html-keyboard-response","157","236685","0.0-11.0-1.49","","203","","<div class='trialDiv'><img src='Fruit/plums1.png'><br><font class='baseline'><strong>Plum Powerball</strong><p>Choose number of points to bet.</font><div class='respPicDiv'><img src='img/responseButtonOffersNo0L.png' class='respPic'></div></div>","5","17","Plum Powerball","Fruit/plums1.png","Won","0.35,0.8","10","0.35","275","50","",""
"","","","decisionFB","","6108114eaacc3458294b244c","bdp_rwlrn","Tue Mar 14 2023 13:33:03 GMT-0400 (Eastern Daylight Time)","416859","Untrustworthy,Trustworthy","html-keyboard-response","158","236940","0.0-11.0-2.49","","null","","<div class='trialDiv'><img src='Fruit/plums1.png'><br><font class='baseline'><strong>Plum Powerball</strong><p>Choose number of points to bet.</font><div class='respPicDiv'><img src='img/responseButtonOffersNo0L5.png' class='respPic'></div></div>","null","17","Plum Powerball","Fruit/plums1.png","Won","0.35,0.8","10","0.35","270","50","",""
"","","","feedback","","6108114eaacc3458294b244c","bdp_rwlrn","Tue Mar 14 2023 13:33:03 GMT-0400 (Eastern Daylight Time)","416859","Untrustworthy,Trustworthy","html-keyboard-response","159","237947","0.0-11.0-3.49","","null","","<div class='respPicDiv'><img src='img/responseButtonOffersNo0_wht.png' class='respPic'></div><div class='trialDiv'><img src='Fruit/plums1.png'><br><font class='baseline'><strong>Plum Powerball</strong><p><strong><font class='posOutcome'>You WON</font><p>You bet: 5</strong></font> &nbsp; &nbsp; &nbsp; &nbsp; &nbsp; &nbsp;<font class='posOutcome'>you receive: <strong>10</strong></font></div>","null","17","Plum Powerball","Fruit/plums1.png","Won","0.35,0.8","10","0.35","280","50","",""
