"trial_type","trial_index","time_elapsed","internal_node_id","subject_id","task","startTime","totalTime","labels","view_history","rt","event","trial","time","trialtype","success","stimulus","key_press","ltround","name","fileID","outcome","lottotype","lottoswpt","lottocurrpshare","point_total","round","faceID","face"
"pavlovia","0","4","0.0-0.0","63d7457dae12d98a8ebd18f6","bdp_rwlrn","Mon Mar 13 2023 13:10:17 GMT-0500 (Central Daylight Time)","464530","Untrustworthy,Trustworthy","","","","","","","","","","","","","","","","","","","",""
"instructions","1","6127","0.0-1.0","63d7457dae12d98a8ebd18f6","bdp_rwlrn","Mon Mar 13 2023 13:10:17 GMT-0500 (Central Daylight Time)","464530","Untrustworthy,Trustworthy","[{""page_index"":0,""viewing_time"":6122}]","6122","","","","","","","","","","","","","","","","","",""
"","","","","63d7457dae12d98a8ebd18f6","bdp_rwlrn","Mon Mar 13 2023 13:10:17 GMT-0500 (Central Daylight Time)","464530","Untrustworthy,Trustworthy","","","fullscreenenter","2","8357","fullscreenenter","","","","","","","","","","","","","",""
"fullscreen","2","9355","0.0-2.0","63d7457dae12d98a8ebd18f6","bdp_rwlrn","Mon Mar 13 2023 13:10:17 GMT-0500 (Central Daylight Time)","464530","Untrustworthy,Trustworthy","","","","","","","true","","","","","","","","","","","","",""
"instructions","3","84014","0.0-4.0","63d7457dae12d98a8ebd18f6","bdp_rwlrn","Mon Mar 13 2023 13:10:17 GMT-0500 (Central Daylight Time)","464530","Untrustworthy,Trustworthy","[{""page_index"":0,""viewing_time"":22893},{""page_index"":1,""viewing_time"":26398},{""page_index"":2,""viewing_time"":7026},{""page_index"":3,""viewing_time"":6771},{""page_index"":4,""viewing_time"":7653},{""page_index"":5,""viewing_time"":3917}]","74658","","","","","","","","","","","","","","","","","",""
"html-keyboard-response","4","86918","0.0-5.0","63d7457dae12d98a8ebd18f6","bdp_rwlrn","Mon Mar 13 2023 13:10:17 GMT-0500 (Central Daylight Time)","464530","Untrustworthy,Trustworthy","","2902","","","","","","<div class='header' style='text-align:left; position: absolute; top: 5%; left: 5%;'><small>Task 3 of 5</small></div><div class='instruxDiv'><p><strong>1) What is the maximum number of points you can choose to bet on a lottery?</strong></p><p>a) 0</p><p>b) 1</p><p>c) 5</p>","C","","","","","","","","","","",""
"html-keyboard-response","5","89571","0.0-6.0","63d7457dae12d98a8ebd18f6","bdp_rwlrn","Mon Mar 13 2023 13:10:17 GMT-0500 (Central Daylight Time)","464530","Untrustworthy,Trustworthy","","2550","","","","","","<div class='header' style='text-align:left; position: absolute; top: 5%; left: 5%;'><small>Task 3 of 5</small></div><div class='instruxDiv'><p><strong>1) What is the maximum number of points you can choose to bet on a lottery?</strong></p><p>a) 1</p><p>b) 1</p><p style='color:#00FF00'>c) 5</p><h3 style='color:#00FF00'>Correct!</h3><h3 class='center-content'>The correct response is c).</h3><h3 class='center-content'>The maximum number of points you can choose to bet on a lottery is 5 points.</h3><p><em>Press SPACEBAR to continue</em></p></div>"," ","","","","","","","","","","",""
"html-keyboard-response","6","94532","0.0-7.0","63d7457dae12d98a8ebd18f6","bdp_rwlrn","Mon Mar 13 2023 13:10:17 GMT-0500 (Central Daylight Time)","464530","Untrustworthy,Trustworthy","","4856","","","","","","<div class='header' style='text-align:left; position: absolute; top: 5%; left: 5%;'><small>Task 3 of 5</small></div><div class='instruxDiv'><p><strong>2) How many points can you win each round?</strong></p><p>a) 10 points</p><p>b) Double what you bet</p><p>c) Quadruple what you bet</p>","C","","","","","","","","","","",""
"html-keyboard-response","7","97416","0.0-8.0","63d7457dae12d98a8ebd18f6","bdp_rwlrn","Mon Mar 13 2023 13:10:17 GMT-0500 (Central Daylight Time)","464530","Untrustworthy,Trustworthy","","2780","","","","","","<div class='header' style='text-align:left; position: absolute; top: 5%; left: 5%;'><small>Task 3 of 5</small></div><div class='instruxDiv'><p><strong>2) How many points can you win each round?</strong></p><p>a) 10 points</p><p>b) Double what you bet</p><p style='color:#FF0000'>c) Quadruple what you bet</p><h3 style='color:#FF0000'>Incorrect!</h3><h3 class='center-content'>The correct response is b).</h3><h3 class='center-content'>You can win double the amount of points you bet.</h3><p><em>Press SPACEBAR to continue</em></p></div>"," ","","","","","","","","","","",""
"html-keyboard-response","8","102535","0.0-9.0","63d7457dae12d98a8ebd18f6","bdp_rwlrn","Mon Mar 13 2023 13:10:17 GMT-0500 (Central Daylight Time)","464530","Untrustworthy,Trustworthy","","null","","","","","","<div class='header' style='text-align:left; position: absolute; top: 5%; left: 5%;'><small>Task 3 of 5</small></div><div class='instruxDiv'><p>Thank you for completing the quiz<p>These are the actual lotteries you will be playing in the next block:<p><div class='tc' align='center'><img class='introPic' src='Fruit/watermelon.png'><br><strong>Watermelon Win$</strong></div><div class='bl' align='center'><img class='introPic' src='Fruit/bananas.png'><br><strong>Banana Bonanza</strong></div><div class='br' align='center'><img class='introPic' src='Fruit/orange.png'><br><strong>Odds are Orange</strong></div></div><p>Across <strong>66 rounds</strong> you will play each lottery <strong>22 times</strong> (in random order).<p style='align:center; color:white'><font <em>Press SPACEBAR to continue</em></p>","null","","","","","","","","","","",""
"instructions","9","110734","0.0-10.0","63d7457dae12d98a8ebd18f6","bdp_rwlrn","Mon Mar 13 2023 13:10:17 GMT-0500 (Central Daylight Time)","464530","Untrustworthy,Trustworthy","[{""page_index"":0,""viewing_time"":7016},{""page_index"":1,""viewing_time"":1182}]","8198","","","","","","","","","","","","","","","","","",""
"html-keyboard-response","10","111920","0.0-11.0-1.0","63d7457dae12d98a8ebd18f6","bdp_rwlrn","Mon Mar 13 2023 13:10:17 GMT-0500 (Central Daylight Time)","464530","Untrustworthy,Trustworthy","","1078","","","","decision","","<div class='trialDiv'><img src='Fruit/orange.png'><br><font class='baseline'><strong>Odds are Orange</strong><p>Choose number of points to bet.</font><div class='respPicDiv'><img src='img/responseButtonOffersNo0L.png' class='respPic'></div></div>","3","1","Odds are Orange","Fruit/orange.png","Lost","0.35,0.65","10","0.35","5","1","",""
"html-keyboard-response","11","112183","0.0-11.0-2.0","63d7457dae12d98a8ebd18f6","bdp_rwlrn","Mon Mar 13 2023 13:10:17 GMT-0500 (Central Daylight Time)","464530","Untrustworthy,Trustworthy","","null","","","","decisionFB","","<div class='trialDiv'><img src='Fruit/orange.png'><br><font class='baseline'><strong>Odds are Orange</strong><p>Choose number of points to bet.</font><div class='respPicDiv'><img src='img/responseButtonOffersNo0L3.png' class='respPic'></div></div>","null","1","Odds are Orange","Fruit/orange.png","Lost","0.35,0.65","10","0.35","2","1","",""
"html-keyboard-response","12","113191","0.0-11.0-3.0","63d7457dae12d98a8ebd18f6","bdp_rwlrn","Mon Mar 13 2023 13:10:17 GMT-0500 (Central Daylight Time)","464530","Untrustworthy,Trustworthy","","null","","","","feedback","","<div class='respPicDiv'><img src='img/responseButtonOffersNo0_wht.png' class='respPic'></div><div class='trialDiv'><img src='Fruit/orange.png'><br><font class='baseline'><strong>Odds are Orange</strong><p><strong><font class='negOutcome'>You LOST</font><p>You bet: 3</strong></font> &nbsp; &nbsp; &nbsp; &nbsp; &nbsp; &nbsp;<font class='negOutcome'>You receive: <strong>0</strong></font></div>","null","1","Odds are Orange","Fruit/orange.png","Lost","0.35,0.65","10","0.35","2","1","",""
"html-keyboard-response","13","114603","0.0-11.0-1.1","63d7457dae12d98a8ebd18f6","bdp_rwlrn","Mon Mar 13 2023 13:10:17 GMT-0500 (Central Daylight Time)","464530","Untrustworthy,Trustworthy","","1411","","","","decision","","<div class='trialDiv'><img src='Fruit/watermelon.png'><br><font class='baseline'><strong>Watermelon Win$</strong><p>Choose number of points to bet.</font><div class='respPicDiv'><img src='img/responseButtonOffersNo0L.png' class='respPic'></div></div>","4","1","Watermelon Win$","Fruit/watermelon.png","Lost","0.2,0.65","12","0.2","7","2","",""
"html-keyboard-response","14","114860","0.0-11.0-2.1","63d7457dae12d98a8ebd18f6","bdp_rwlrn","Mon Mar 13 2023 13:10:17 GMT-0500 (Central Daylight Time)","464530","Untrustworthy,Trustworthy","","null","","","","decisionFB","","<div class='trialDiv'><img src='Fruit/watermelon.png'><br><font class='baseline'><strong>Watermelon Win$</strong><p>Choose number of points to bet.</font><div class='respPicDiv'><img src='img/responseButtonOffersNo0L4.png' class='respPic'></div></div>","null","1","Watermelon Win$","Fruit/watermelon.png","Lost","0.2,0.65","12","0.2","3","2","",""
"html-keyboard-response","15","115868","0.0-11.0-3.1","63d7457dae12d98a8ebd18f6","bdp_rwlrn","Mon Mar 13 2023 13:10:17 GMT-0500 (Central Daylight Time)","464530","Untrustworthy,Trustworthy","","null","","","","feedback","","<div class='respPicDiv'><img src='img/responseButtonOffersNo0_wht.png' class='respPic'></div><div class='trialDiv'><img src='Fruit/watermelon.png'><br><font class='baseline'><strong>Watermelon Win$</strong><p><strong><font class='negOutcome'>You LOST</font><p>You bet: 4</strong></font> &nbsp; &nbsp; &nbsp; &nbsp; &nbsp; &nbsp;<font class='negOutcome'>You receive: <strong>0</strong></font></div>","null","1","Watermelon Win$","Fruit/watermelon.png","Lost","0.2,0.65","12","0.2","3","2","",""
"html-keyboard-response","16","117460","0.0-11.0-1.2","63d7457dae12d98a8ebd18f6","bdp_rwlrn","Mon Mar 13 2023 13:10:17 GMT-0500 (Central Daylight Time)","464530","Untrustworthy,Trustworthy","","1591","","","","decision","","<div class='trialDiv'><img src='Fruit/bananas.png'><br><font class='baseline'><strong>Banana Bonanza</strong><p>Choose number of points to bet.</font><div class='respPicDiv'><img src='img/responseButtonOffersNo0L.png' class='respPic'></div></div>","4","1","Banana Bonanza","Fruit/bananas.png","Won","0.8,0.35","13","0.8","8","3","",""
"html-keyboard-response","17","117719","0.0-11.0-2.2","63d7457dae12d98a8ebd18f6","bdp_rwlrn","Mon Mar 13 2023 13:10:17 GMT-0500 (Central Daylight Time)","464530","Untrustworthy,Trustworthy","","null","","","","decisionFB","","<div class='trialDiv'><img src='Fruit/bananas.png'><br><font class='baseline'><strong>Banana Bonanza</strong><p>Choose number of points to bet.</font><div class='respPicDiv'><img src='img/responseButtonOffersNo0L4.png' class='respPic'></div></div>","null","1","Banana Bonanza","Fruit/bananas.png","Won","0.8,0.35","13","0.8","4","3","",""
"html-keyboard-response","18","118727","0.0-11.0-3.2","63d7457dae12d98a8ebd18f6","bdp_rwlrn","Mon Mar 13 2023 13:10:17 GMT-0500 (Central Daylight Time)","464530","Untrustworthy,Trustworthy","","null","","","","feedback","","<div class='respPicDiv'><img src='img/responseButtonOffersNo0_wht.png' class='respPic'></div><div class='trialDiv'><img src='Fruit/bananas.png'><br><font class='baseline'><strong>Banana Bonanza</strong><p><strong><font class='posOutcome'>You WON</font><p>You bet: 4</strong></font> &nbsp; &nbsp; &nbsp; &nbsp; &nbsp; &nbsp;<font class='posOutcome'>you receive: <strong>8</strong></font></div>","null","1","Banana Bonanza","Fruit/bananas.png","Won","0.8,0.35","13","0.8","12","3","",""
"html-keyboard-response","19","119875","0.0-11.0-1.3","63d7457dae12d98a8ebd18f6","bdp_rwlrn","Mon Mar 13 2023 13:10:17 GMT-0500 (Central Daylight Time)","464530","Untrustworthy,Trustworthy","","1147","","","","decision","","<div class='trialDiv'><img src='Fruit/watermelon.png'><br><font class='baseline'><strong>Watermelon Win$</strong><p>Choose number of points to bet.</font><div class='respPicDiv'><img src='img/responseButtonOffersNo0L.png' class='respPic'></div></div>","5","2","Watermelon Win$","Fruit/watermelon.png","Lost","0.2,0.65","12","0.2","17","4","",""
"html-keyboard-response","20","120132","0.0-11.0-2.3","63d7457dae12d98a8ebd18f6","bdp_rwlrn","Mon Mar 13 2023 13:10:17 GMT-0500 (Central Daylight Time)","464530","Untrustworthy,Trustworthy","","null","","","","decisionFB","","<div class='trialDiv'><img src='Fruit/watermelon.png'><br><font class='baseline'><strong>Watermelon Win$</strong><p>Choose number of points to bet.</font><div class='respPicDiv'><img src='img/responseButtonOffersNo0L5.png' class='respPic'></div></div>","null","2","Watermelon Win$","Fruit/watermelon.png","Lost","0.2,0.65","12","0.2","12","4","",""
"html-keyboard-response","21","121143","0.0-11.0-3.3","63d7457dae12d98a8ebd18f6","bdp_rwlrn","Mon Mar 13 2023 13:10:17 GMT-0500 (Central Daylight Time)","464530","Untrustworthy,Trustworthy","","null","","","","feedback","","<div class='respPicDiv'><img src='img/responseButtonOffersNo0_wht.png' class='respPic'></div><div class='trialDiv'><img src='Fruit/watermelon.png'><br><font class='baseline'><strong>Watermelon Win$</strong><p><strong><font class='negOutcome'>You LOST</font><p>You bet: 5</strong></font> &nbsp; &nbsp; &nbsp; &nbsp; &nbsp; &nbsp;<font class='negOutcome'>You receive: <strong>0</strong></font></div>","null","2","Watermelon Win$","Fruit/watermelon.png","Lost","0.2,0.65","12","0.2","12","4","",""
"html-keyboard-response","22","121904","0.0-11.0-1.4","63d7457dae12d98a8ebd18f6","bdp_rwlrn","Mon Mar 13 2023 13:10:17 GMT-0500 (Central Daylight Time)","464530","Untrustworthy,Trustworthy","","760","","","","decision","","<div class='trialDiv'><img src='Fruit/orange.png'><br><font class='baseline'><strong>Odds are Orange</strong><p>Choose number of points to bet.</font><div class='respPicDiv'><img src='img/responseButtonOffersNo0L.png' class='respPic'></div></div>","2","2","Odds are Orange","Fruit/orange.png","Lost","0.35,0.65","10","0.35","17","5","",""
"html-keyboard-response","23","122167","0.0-11.0-2.4","63d7457dae12d98a8ebd18f6","bdp_rwlrn","Mon Mar 13 2023 13:10:17 GMT-0500 (Central Daylight Time)","464530","Untrustworthy,Trustworthy","","null","","","","decisionFB","","<div class='trialDiv'><img src='Fruit/orange.png'><br><font class='baseline'><strong>Odds are Orange</strong><p>Choose number of points to bet.</font><div class='respPicDiv'><img src='img/responseButtonOffersNo0L2.png' class='respPic'></div></div>","null","2","Odds are Orange","Fruit/orange.png","Lost","0.35,0.65","10","0.35","15","5","",""
"html-keyboard-response","24","123175","0.0-11.0-3.4","63d7457dae12d98a8ebd18f6","bdp_rwlrn","Mon Mar 13 2023 13:10:17 GMT-0500 (Central Daylight Time)","464530","Untrustworthy,Trustworthy","","null","","","","feedback","","<div class='respPicDiv'><img src='img/responseButtonOffersNo0_wht.png' class='respPic'></div><div class='trialDiv'><img src='Fruit/orange.png'><br><font class='baseline'><strong>Odds are Orange</strong><p><strong><font class='negOutcome'>You LOST</font><p>You bet: 2</strong></font> &nbsp; &nbsp; &nbsp; &nbsp; &nbsp; &nbsp;<font class='negOutcome'>You receive: <strong>0</strong></font></div>","null","2","Odds are Orange","Fruit/orange.png","Lost","0.35,0.65","10","0.35","15","5","",""
"html-keyboard-response","25","124104","0.0-11.0-1.5","63d7457dae12d98a8ebd18f6","bdp_rwlrn","Mon Mar 13 2023 13:10:17 GMT-0500 (Central Daylight Time)","464530","Untrustworthy,Trustworthy","","927","","","","decision","","<div class='trialDiv'><img src='Fruit/bananas.png'><br><font class='baseline'><strong>Banana Bonanza</strong><p>Choose number of points to bet.</font><div class='respPicDiv'><img src='img/responseButtonOffersNo0L.png' class='respPic'></div></div>","3","2","Banana Bonanza","Fruit/bananas.png","Won","0.8,0.35","13","0.8","20","6","",""
"html-keyboard-response","26","124364","0.0-11.0-2.5","63d7457dae12d98a8ebd18f6","bdp_rwlrn","Mon Mar 13 2023 13:10:17 GMT-0500 (Central Daylight Time)","464530","Untrustworthy,Trustworthy","","null","","","","decisionFB","","<div class='trialDiv'><img src='Fruit/bananas.png'><br><font class='baseline'><strong>Banana Bonanza</strong><p>Choose number of points to bet.</font><div class='respPicDiv'><img src='img/responseButtonOffersNo0L3.png' class='respPic'></div></div>","null","2","Banana Bonanza","Fruit/bananas.png","Won","0.8,0.35","13","0.8","17","6","",""
"html-keyboard-response","27","125372","0.0-11.0-3.5","63d7457dae12d98a8ebd18f6","bdp_rwlrn","Mon Mar 13 2023 13:10:17 GMT-0500 (Central Daylight Time)","464530","Untrustworthy,Trustworthy","","null","","","","feedback","","<div class='respPicDiv'><img src='img/responseButtonOffersNo0_wht.png' class='respPic'></div><div class='trialDiv'><img src='Fruit/bananas.png'><br><font class='baseline'><strong>Banana Bonanza</strong><p><strong><font class='posOutcome'>You WON</font><p>You bet: 3</strong></font> &nbsp; &nbsp; &nbsp; &nbsp; &nbsp; &nbsp;<font class='posOutcome'>you receive: <strong>6</strong></font></div>","null","2","Banana Bonanza","Fruit/bananas.png","Won","0.8,0.35","13","0.8","23","6","",""
"html-keyboard-response","28","126080","0.0-11.0-1.6","63d7457dae12d98a8ebd18f6","bdp_rwlrn","Mon Mar 13 2023 13:10:17 GMT-0500 (Central Daylight Time)","464530","Untrustworthy,Trustworthy","","707","","","","decision","","<div class='trialDiv'><img src='Fruit/watermelon.png'><br><font class='baseline'><strong>Watermelon Win$</strong><p>Choose number of points to bet.</font><div class='respPicDiv'><img src='img/responseButtonOffersNo0L.png' class='respPic'></div></div>","1","3","Watermelon Win$","Fruit/watermelon.png","Lost","0.2,0.65","12","0.2","28","7","",""
"html-keyboard-response","29","126343","0.0-11.0-2.6","63d7457dae12d98a8ebd18f6","bdp_rwlrn","Mon Mar 13 2023 13:10:17 GMT-0500 (Central Daylight Time)","464530","Untrustworthy,Trustworthy","","null","","","","decisionFB","","<div class='trialDiv'><img src='Fruit/watermelon.png'><br><font class='baseline'><strong>Watermelon Win$</strong><p>Choose number of points to bet.</font><div class='respPicDiv'><img src='img/responseButtonOffersNo0L1.png' class='respPic'></div></div>","null","3","Watermelon Win$","Fruit/watermelon.png","Lost","0.2,0.65","12","0.2","27","7","",""
"html-keyboard-response","30","127351","0.0-11.0-3.6","63d7457dae12d98a8ebd18f6","bdp_rwlrn","Mon Mar 13 2023 13:10:17 GMT-0500 (Central Daylight Time)","464530","Untrustworthy,Trustworthy","","null","","","","feedback","","<div class='respPicDiv'><img src='img/responseButtonOffersNo0_wht.png' class='respPic'></div><div class='trialDiv'><img src='Fruit/watermelon.png'><br><font class='baseline'><strong>Watermelon Win$</strong><p><strong><font class='negOutcome'>You LOST</font><p>You bet: 1</strong></font> &nbsp; &nbsp; &nbsp; &nbsp; &nbsp; &nbsp;<font class='negOutcome'>You receive: <strong>0</strong></font></div>","null","3","Watermelon Win$","Fruit/watermelon.png","Lost","0.2,0.65","12","0.2","27","7","",""
"html-keyboard-response","31","128344","0.0-11.0-1.7","63d7457dae12d98a8ebd18f6","bdp_rwlrn","Mon Mar 13 2023 13:10:17 GMT-0500 (Central Daylight Time)","464530","Untrustworthy,Trustworthy","","992","","","","decision","","<div class='trialDiv'><img src='Fruit/bananas.png'><br><font class='baseline'><strong>Banana Bonanza</strong><p>Choose number of points to bet.</font><div class='respPicDiv'><img src='img/responseButtonOffersNo0L.png' class='respPic'></div></div>","4","3","Banana Bonanza","Fruit/bananas.png","Won","0.8,0.35","13","0.8","32","8","",""
"html-keyboard-response","32","128604","0.0-11.0-2.7","63d7457dae12d98a8ebd18f6","bdp_rwlrn","Mon Mar 13 2023 13:10:17 GMT-0500 (Central Daylight Time)","464530","Untrustworthy,Trustworthy","","null","","","","decisionFB","","<div class='trialDiv'><img src='Fruit/bananas.png'><br><font class='baseline'><strong>Banana Bonanza</strong><p>Choose number of points to bet.</font><div class='respPicDiv'><img src='img/responseButtonOffersNo0L4.png' class='respPic'></div></div>","null","3","Banana Bonanza","Fruit/bananas.png","Won","0.8,0.35","13","0.8","28","8","",""
"html-keyboard-response","33","129612","0.0-11.0-3.7","63d7457dae12d98a8ebd18f6","bdp_rwlrn","Mon Mar 13 2023 13:10:17 GMT-0500 (Central Daylight Time)","464530","Untrustworthy,Trustworthy","","null","","","","feedback","","<div class='respPicDiv'><img src='img/responseButtonOffersNo0_wht.png' class='respPic'></div><div class='trialDiv'><img src='Fruit/bananas.png'><br><font class='baseline'><strong>Banana Bonanza</strong><p><strong><font class='posOutcome'>You WON</font><p>You bet: 4</strong></font> &nbsp; &nbsp; &nbsp; &nbsp; &nbsp; &nbsp;<font class='posOutcome'>you receive: <strong>8</strong></font></div>","null","3","Banana Bonanza","Fruit/bananas.png","Won","0.8,0.35","13","0.8","36","8","",""
"html-keyboard-response","34","130205","0.0-11.0-1.8","63d7457dae12d98a8ebd18f6","bdp_rwlrn","Mon Mar 13 2023 13:10:17 GMT-0500 (Central Daylight Time)","464530","Untrustworthy,Trustworthy","","592","","","","decision","","<div class='trialDiv'><img src='Fruit/orange.png'><br><font class='baseline'><strong>Odds are Orange</strong><p>Choose number of points to bet.</font><div class='respPicDiv'><img src='img/responseButtonOffersNo0L.png' class='respPic'></div></div>","5","3","Odds are Orange","Fruit/orange.png","Won","0.35,0.65","10","0.35","41","9","",""
"html-keyboard-response","35","130460","0.0-11.0-2.8","63d7457dae12d98a8ebd18f6","bdp_rwlrn","Mon Mar 13 2023 13:10:17 GMT-0500 (Central Daylight Time)","464530","Untrustworthy,Trustworthy","","null","","","","decisionFB","","<div class='trialDiv'><img src='Fruit/orange.png'><br><font class='baseline'><strong>Odds are Orange</strong><p>Choose number of points to bet.</font><div class='respPicDiv'><img src='img/responseButtonOffersNo0L5.png' class='respPic'></div></div>","null","3","Odds are Orange","Fruit/orange.png","Won","0.35,0.65","10","0.35","36","9","",""
"html-keyboard-response","36","131468","0.0-11.0-3.8","63d7457dae12d98a8ebd18f6","bdp_rwlrn","Mon Mar 13 2023 13:10:17 GMT-0500 (Central Daylight Time)","464530","Untrustworthy,Trustworthy","","null","","","","feedback","","<div class='respPicDiv'><img src='img/responseButtonOffersNo0_wht.png' class='respPic'></div><div class='trialDiv'><img src='Fruit/orange.png'><br><font class='baseline'><strong>Odds are Orange</strong><p><strong><font class='posOutcome'>You WON</font><p>You bet: 5</strong></font> &nbsp; &nbsp; &nbsp; &nbsp; &nbsp; &nbsp;<font class='posOutcome'>you receive: <strong>10</strong></font></div>","null","3","Odds are Orange","Fruit/orange.png","Won","0.35,0.65","10","0.35","46","9","",""
"html-keyboard-response","37","132168","0.0-11.0-1.9","63d7457dae12d98a8ebd18f6","bdp_rwlrn","Mon Mar 13 2023 13:10:17 GMT-0500 (Central Daylight Time)","464530","Untrustworthy,Trustworthy","","698","","","","decision","","<div class='trialDiv'><img src='Fruit/watermelon.png'><br><font class='baseline'><strong>Watermelon Win$</strong><p>Choose number of points to bet.</font><div class='respPicDiv'><img src='img/responseButtonOffersNo0L.png' class='respPic'></div></div>","5","4","Watermelon Win$","Fruit/watermelon.png","Lost","0.2,0.65","12","0.2","51","10","",""
"html-keyboard-response","38","132428","0.0-11.0-2.9","63d7457dae12d98a8ebd18f6","bdp_rwlrn","Mon Mar 13 2023 13:10:17 GMT-0500 (Central Daylight Time)","464530","Untrustworthy,Trustworthy","","null","","","","decisionFB","","<div class='trialDiv'><img src='Fruit/watermelon.png'><br><font class='baseline'><strong>Watermelon Win$</strong><p>Choose number of points to bet.</font><div class='respPicDiv'><img src='img/responseButtonOffersNo0L5.png' class='respPic'></div></div>","null","4","Watermelon Win$","Fruit/watermelon.png","Lost","0.2,0.65","12","0.2","46","10","",""
"html-keyboard-response","39","133439","0.0-11.0-3.9","63d7457dae12d98a8ebd18f6","bdp_rwlrn","Mon Mar 13 2023 13:10:17 GMT-0500 (Central Daylight Time)","464530","Untrustworthy,Trustworthy","","null","","","","feedback","","<div class='respPicDiv'><img src='img/responseButtonOffersNo0_wht.png' class='respPic'></div><div class='trialDiv'><img src='Fruit/watermelon.png'><br><font class='baseline'><strong>Watermelon Win$</strong><p><strong><font class='negOutcome'>You LOST</font><p>You bet: 5</strong></font> &nbsp; &nbsp; &nbsp; &nbsp; &nbsp; &nbsp;<font class='negOutcome'>You receive: <strong>0</strong></font></div>","null","4","Watermelon Win$","Fruit/watermelon.png","Lost","0.2,0.65","12","0.2","46","10","",""
"html-keyboard-response","40","133838","0.0-11.0-1.10","63d7457dae12d98a8ebd18f6","bdp_rwlrn","Mon Mar 13 2023 13:10:17 GMT-0500 (Central Daylight Time)","464530","Untrustworthy,Trustworthy","","397","","","","decision","","<div class='trialDiv'><img src='Fruit/bananas.png'><br><font class='baseline'><strong>Banana Bonanza</strong><p>Choose number of points to bet.</font><div class='respPicDiv'><img src='img/responseButtonOffersNo0L.png' class='respPic'></div></div>","5","4","Banana Bonanza","Fruit/bananas.png","Won","0.8,0.35","13","0.8","51","11","",""
"html-keyboard-response","41","134092","0.0-11.0-2.10","63d7457dae12d98a8ebd18f6","bdp_rwlrn","Mon Mar 13 2023 13:10:17 GMT-0500 (Central Daylight Time)","464530","Untrustworthy,Trustworthy","","null","","","","decisionFB","","<div class='trialDiv'><img src='Fruit/bananas.png'><br><font class='baseline'><strong>Banana Bonanza</strong><p>Choose number of points to bet.</font><div class='respPicDiv'><img src='img/responseButtonOffersNo0L5.png' class='respPic'></div></div>","null","4","Banana Bonanza","Fruit/bananas.png","Won","0.8,0.35","13","0.8","46","11","",""
"html-keyboard-response","42","135100","0.0-11.0-3.10","63d7457dae12d98a8ebd18f6","bdp_rwlrn","Mon Mar 13 2023 13:10:17 GMT-0500 (Central Daylight Time)","464530","Untrustworthy,Trustworthy","","null","","","","feedback","","<div class='respPicDiv'><img src='img/responseButtonOffersNo0_wht.png' class='respPic'></div><div class='trialDiv'><img src='Fruit/bananas.png'><br><font class='baseline'><strong>Banana Bonanza</strong><p><strong><font class='posOutcome'>You WON</font><p>You bet: 5</strong></font> &nbsp; &nbsp; &nbsp; &nbsp; &nbsp; &nbsp;<font class='posOutcome'>you receive: <strong>10</strong></font></div>","null","4","Banana Bonanza","Fruit/bananas.png","Won","0.8,0.35","13","0.8","56","11","",""
"html-keyboard-response","43","135500","0.0-11.0-1.11","63d7457dae12d98a8ebd18f6","bdp_rwlrn","Mon Mar 13 2023 13:10:17 GMT-0500 (Central Daylight Time)","464530","Untrustworthy,Trustworthy","","399","","","","decision","","<div class='trialDiv'><img src='Fruit/orange.png'><br><font class='baseline'><strong>Odds are Orange</strong><p>Choose number of points to bet.</font><div class='respPicDiv'><img src='img/responseButtonOffersNo0L.png' class='respPic'></div></div>","2","4","Odds are Orange","Fruit/orange.png","Lost","0.35,0.65","10","0.35","61","12","",""
"html-keyboard-response","44","135756","0.0-11.0-2.11","63d7457dae12d98a8ebd18f6","bdp_rwlrn","Mon Mar 13 2023 13:10:17 GMT-0500 (Central Daylight Time)","464530","Untrustworthy,Trustworthy","","null","","","","decisionFB","","<div class='trialDiv'><img src='Fruit/orange.png'><br><font class='baseline'><strong>Odds are Orange</strong><p>Choose number of points to bet.</font><div class='respPicDiv'><img src='img/responseButtonOffersNo0L2.png' class='respPic'></div></div>","null","4","Odds are Orange","Fruit/orange.png","Lost","0.35,0.65","10","0.35","59","12","",""
"html-keyboard-response","45","136764","0.0-11.0-3.11","63d7457dae12d98a8ebd18f6","bdp_rwlrn","Mon Mar 13 2023 13:10:17 GMT-0500 (Central Daylight Time)","464530","Untrustworthy,Trustworthy","","null","","","","feedback","","<div class='respPicDiv'><img src='img/responseButtonOffersNo0_wht.png' class='respPic'></div><div class='trialDiv'><img src='Fruit/orange.png'><br><font class='baseline'><strong>Odds are Orange</strong><p><strong><font class='negOutcome'>You LOST</font><p>You bet: 2</strong></font> &nbsp; &nbsp; &nbsp; &nbsp; &nbsp; &nbsp;<font class='negOutcome'>You receive: <strong>0</strong></font></div>","null","4","Odds are Orange","Fruit/orange.png","Lost","0.35,0.65","10","0.35","59","12","",""
"html-keyboard-response","46","137321","0.0-11.0-1.12","63d7457dae12d98a8ebd18f6","bdp_rwlrn","Mon Mar 13 2023 13:10:17 GMT-0500 (Central Daylight Time)","464530","Untrustworthy,Trustworthy","","556","","","","decision","","<div class='trialDiv'><img src='Fruit/watermelon.png'><br><font class='baseline'><strong>Watermelon Win$</strong><p>Choose number of points to bet.</font><div class='respPicDiv'><img src='img/responseButtonOffersNo0L.png' class='respPic'></div></div>","1","5","Watermelon Win$","Fruit/watermelon.png","Won","0.2,0.65","12","0.2","64","13","",""
"html-keyboard-response","47","137580","0.0-11.0-2.12","63d7457dae12d98a8ebd18f6","bdp_rwlrn","Mon Mar 13 2023 13:10:17 GMT-0500 (Central Daylight Time)","464530","Untrustworthy,Trustworthy","","null","","","","decisionFB","","<div class='trialDiv'><img src='Fruit/watermelon.png'><br><font class='baseline'><strong>Watermelon Win$</strong><p>Choose number of points to bet.</font><div class='respPicDiv'><img src='img/responseButtonOffersNo0L1.png' class='respPic'></div></div>","null","5","Watermelon Win$","Fruit/watermelon.png","Won","0.2,0.65","12","0.2","63","13","",""
"html-keyboard-response","48","138588","0.0-11.0-3.12","63d7457dae12d98a8ebd18f6","bdp_rwlrn","Mon Mar 13 2023 13:10:17 GMT-0500 (Central Daylight Time)","464530","Untrustworthy,Trustworthy","","null","","","","feedback","","<div class='respPicDiv'><img src='img/responseButtonOffersNo0_wht.png' class='respPic'></div><div class='trialDiv'><img src='Fruit/watermelon.png'><br><font class='baseline'><strong>Watermelon Win$</strong><p><strong><font class='posOutcome'>You WON</font><p>You bet: 1</strong></font> &nbsp; &nbsp; &nbsp; &nbsp; &nbsp; &nbsp;<font class='posOutcome'>you receive: <strong>2</strong></font></div>","null","5","Watermelon Win$","Fruit/watermelon.png","Won","0.2,0.65","12","0.2","65","13","",""
"html-keyboard-response","49","139163","0.0-11.0-1.13","63d7457dae12d98a8ebd18f6","bdp_rwlrn","Mon Mar 13 2023 13:10:17 GMT-0500 (Central Daylight Time)","464530","Untrustworthy,Trustworthy","","574","","","","decision","","<div class='trialDiv'><img src='Fruit/bananas.png'><br><font class='baseline'><strong>Banana Bonanza</strong><p>Choose number of points to bet.</font><div class='respPicDiv'><img src='img/responseButtonOffersNo0L.png' class='respPic'></div></div>","1","5","Banana Bonanza","Fruit/bananas.png","Won","0.8,0.35","13","0.8","70","14","",""
"html-keyboard-response","50","139420","0.0-11.0-2.13","63d7457dae12d98a8ebd18f6","bdp_rwlrn","Mon Mar 13 2023 13:10:17 GMT-0500 (Central Daylight Time)","464530","Untrustworthy,Trustworthy","","null","","","","decisionFB","","<div class='trialDiv'><img src='Fruit/bananas.png'><br><font class='baseline'><strong>Banana Bonanza</strong><p>Choose number of points to bet.</font><div class='respPicDiv'><img src='img/responseButtonOffersNo0L1.png' class='respPic'></div></div>","null","5","Banana Bonanza","Fruit/bananas.png","Won","0.8,0.35","13","0.8","69","14","",""
"html-keyboard-response","51","140428","0.0-11.0-3.13","63d7457dae12d98a8ebd18f6","bdp_rwlrn","Mon Mar 13 2023 13:10:17 GMT-0500 (Central Daylight Time)","464530","Untrustworthy,Trustworthy","","null","","","","feedback","","<div class='respPicDiv'><img src='img/responseButtonOffersNo0_wht.png' class='respPic'></div><div class='trialDiv'><img src='Fruit/bananas.png'><br><font class='baseline'><strong>Banana Bonanza</strong><p><strong><font class='posOutcome'>You WON</font><p>You bet: 1</strong></font> &nbsp; &nbsp; &nbsp; &nbsp; &nbsp; &nbsp;<font class='posOutcome'>you receive: <strong>2</strong></font></div>","null","5","Banana Bonanza","Fruit/bananas.png","Won","0.8,0.35","13","0.8","71","14","",""
"html-keyboard-response","52","142318","0.0-11.0-1.14","63d7457dae12d98a8ebd18f6","bdp_rwlrn","Mon Mar 13 2023 13:10:17 GMT-0500 (Central Daylight Time)","464530","Untrustworthy,Trustworthy","","1889","","","","decision","","<div class='trialDiv'><img src='Fruit/orange.png'><br><font class='baseline'><strong>Odds are Orange</strong><p>Choose number of points to bet.</font><div class='respPicDiv'><img src='img/responseButtonOffersNo0L.png' class='respPic'></div></div>","5","5","Odds are Orange","Fruit/orange.png","Lost","0.35,0.65","10","0.35","76","15","",""
"html-keyboard-response","53","142573","0.0-11.0-2.14","63d7457dae12d98a8ebd18f6","bdp_rwlrn","Mon Mar 13 2023 13:10:17 GMT-0500 (Central Daylight Time)","464530","Untrustworthy,Trustworthy","","null","","","","decisionFB","","<div class='trialDiv'><img src='Fruit/orange.png'><br><font class='baseline'><strong>Odds are Orange</strong><p>Choose number of points to bet.</font><div class='respPicDiv'><img src='img/responseButtonOffersNo0L5.png' class='respPic'></div></div>","null","5","Odds are Orange","Fruit/orange.png","Lost","0.35,0.65","10","0.35","71","15","",""
"html-keyboard-response","54","143581","0.0-11.0-3.14","63d7457dae12d98a8ebd18f6","bdp_rwlrn","Mon Mar 13 2023 13:10:17 GMT-0500 (Central Daylight Time)","464530","Untrustworthy,Trustworthy","","null","","","","feedback","","<div class='respPicDiv'><img src='img/responseButtonOffersNo0_wht.png' class='respPic'></div><div class='trialDiv'><img src='Fruit/orange.png'><br><font class='baseline'><strong>Odds are Orange</strong><p><strong><font class='negOutcome'>You LOST</font><p>You bet: 5</strong></font> &nbsp; &nbsp; &nbsp; &nbsp; &nbsp; &nbsp;<font class='negOutcome'>You receive: <strong>0</strong></font></div>","null","5","Odds are Orange","Fruit/orange.png","Lost","0.35,0.65","10","0.35","71","15","",""
"html-keyboard-response","55","145105","0.0-11.0-1.15","63d7457dae12d98a8ebd18f6","bdp_rwlrn","Mon Mar 13 2023 13:10:17 GMT-0500 (Central Daylight Time)","464530","Untrustworthy,Trustworthy","","1523","","","","decision","","<div class='trialDiv'><img src='Fruit/watermelon.png'><br><font class='baseline'><strong>Watermelon Win$</strong><p>Choose number of points to bet.</font><div class='respPicDiv'><img src='img/responseButtonOffersNo0L.png' class='respPic'></div></div>","1","6","Watermelon Win$","Fruit/watermelon.png","Lost","0.2,0.65","12","0.2","76","16","",""
"html-keyboard-response","56","145367","0.0-11.0-2.15","63d7457dae12d98a8ebd18f6","bdp_rwlrn","Mon Mar 13 2023 13:10:17 GMT-0500 (Central Daylight Time)","464530","Untrustworthy,Trustworthy","","null","","","","decisionFB","","<div class='trialDiv'><img src='Fruit/watermelon.png'><br><font class='baseline'><strong>Watermelon Win$</strong><p>Choose number of points to bet.</font><div class='respPicDiv'><img src='img/responseButtonOffersNo0L1.png' class='respPic'></div></div>","null","6","Watermelon Win$","Fruit/watermelon.png","Lost","0.2,0.65","12","0.2","75","16","",""
"html-keyboard-response","57","146375","0.0-11.0-3.15","63d7457dae12d98a8ebd18f6","bdp_rwlrn","Mon Mar 13 2023 13:10:17 GMT-0500 (Central Daylight Time)","464530","Untrustworthy,Trustworthy","","null","","","","feedback","","<div class='respPicDiv'><img src='img/responseButtonOffersNo0_wht.png' class='respPic'></div><div class='trialDiv'><img src='Fruit/watermelon.png'><br><font class='baseline'><strong>Watermelon Win$</strong><p><strong><font class='negOutcome'>You LOST</font><p>You bet: 1</strong></font> &nbsp; &nbsp; &nbsp; &nbsp; &nbsp; &nbsp;<font class='negOutcome'>You receive: <strong>0</strong></font></div>","null","6","Watermelon Win$","Fruit/watermelon.png","Lost","0.2,0.65","12","0.2","75","16","",""
"html-keyboard-response","58","147096","0.0-11.0-1.16","63d7457dae12d98a8ebd18f6","bdp_rwlrn","Mon Mar 13 2023 13:10:17 GMT-0500 (Central Daylight Time)","464530","Untrustworthy,Trustworthy","","720","","","","decision","","<div class='trialDiv'><img src='Fruit/bananas.png'><br><font class='baseline'><strong>Banana Bonanza</strong><p>Choose number of points to bet.</font><div class='respPicDiv'><img src='img/responseButtonOffersNo0L.png' class='respPic'></div></div>","2","6","Banana Bonanza","Fruit/bananas.png","Won","0.8,0.35","13","0.8","80","17","",""
"html-keyboard-response","59","147356","0.0-11.0-2.16","63d7457dae12d98a8ebd18f6","bdp_rwlrn","Mon Mar 13 2023 13:10:17 GMT-0500 (Central Daylight Time)","464530","Untrustworthy,Trustworthy","","null","","","","decisionFB","","<div class='trialDiv'><img src='Fruit/bananas.png'><br><font class='baseline'><strong>Banana Bonanza</strong><p>Choose number of points to bet.</font><div class='respPicDiv'><img src='img/responseButtonOffersNo0L2.png' class='respPic'></div></div>","null","6","Banana Bonanza","Fruit/bananas.png","Won","0.8,0.35","13","0.8","78","17","",""
"html-keyboard-response","60","148364","0.0-11.0-3.16","63d7457dae12d98a8ebd18f6","bdp_rwlrn","Mon Mar 13 2023 13:10:17 GMT-0500 (Central Daylight Time)","464530","Untrustworthy,Trustworthy","","null","","","","feedback","","<div class='respPicDiv'><img src='img/responseButtonOffersNo0_wht.png' class='respPic'></div><div class='trialDiv'><img src='Fruit/bananas.png'><br><font class='baseline'><strong>Banana Bonanza</strong><p><strong><font class='posOutcome'>You WON</font><p>You bet: 2</strong></font> &nbsp; &nbsp; &nbsp; &nbsp; &nbsp; &nbsp;<font class='posOutcome'>you receive: <strong>4</strong></font></div>","null","6","Banana Bonanza","Fruit/bananas.png","Won","0.8,0.35","13","0.8","82","17","",""
"html-keyboard-response","61","149206","0.0-11.0-1.17","63d7457dae12d98a8ebd18f6","bdp_rwlrn","Mon Mar 13 2023 13:10:17 GMT-0500 (Central Daylight Time)","464530","Untrustworthy,Trustworthy","","841","","","","decision","","<div class='trialDiv'><img src='Fruit/orange.png'><br><font class='baseline'><strong>Odds are Orange</strong><p>Choose number of points to bet.</font><div class='respPicDiv'><img src='img/responseButtonOffersNo0L.png' class='respPic'></div></div>","5","6","Odds are Orange","Fruit/orange.png","Lost","0.35,0.65","10","0.35","87","18","",""
"html-keyboard-response","62","149463","0.0-11.0-2.17","63d7457dae12d98a8ebd18f6","bdp_rwlrn","Mon Mar 13 2023 13:10:17 GMT-0500 (Central Daylight Time)","464530","Untrustworthy,Trustworthy","","null","","","","decisionFB","","<div class='trialDiv'><img src='Fruit/orange.png'><br><font class='baseline'><strong>Odds are Orange</strong><p>Choose number of points to bet.</font><div class='respPicDiv'><img src='img/responseButtonOffersNo0L5.png' class='respPic'></div></div>","null","6","Odds are Orange","Fruit/orange.png","Lost","0.35,0.65","10","0.35","82","18","",""
"html-keyboard-response","63","150471","0.0-11.0-3.17","63d7457dae12d98a8ebd18f6","bdp_rwlrn","Mon Mar 13 2023 13:10:17 GMT-0500 (Central Daylight Time)","464530","Untrustworthy,Trustworthy","","null","","","","feedback","","<div class='respPicDiv'><img src='img/responseButtonOffersNo0_wht.png' class='respPic'></div><div class='trialDiv'><img src='Fruit/orange.png'><br><font class='baseline'><strong>Odds are Orange</strong><p><strong><font class='negOutcome'>You LOST</font><p>You bet: 5</strong></font> &nbsp; &nbsp; &nbsp; &nbsp; &nbsp; &nbsp;<font class='negOutcome'>You receive: <strong>0</strong></font></div>","null","6","Odds are Orange","Fruit/orange.png","Lost","0.35,0.65","10","0.35","82","18","",""
"html-keyboard-response","64","152016","0.0-11.0-1.18","63d7457dae12d98a8ebd18f6","bdp_rwlrn","Mon Mar 13 2023 13:10:17 GMT-0500 (Central Daylight Time)","464530","Untrustworthy,Trustworthy","","1543","","","","decision","","<div class='trialDiv'><img src='Fruit/bananas.png'><br><font class='baseline'><strong>Banana Bonanza</strong><p>Choose number of points to bet.</font><div class='respPicDiv'><img src='img/responseButtonOffersNo0L.png' class='respPic'></div></div>","5","7","Banana Bonanza","Fruit/bananas.png","Won","0.8,0.35","13","0.8","87","19","",""
"html-keyboard-response","65","152279","0.0-11.0-2.18","63d7457dae12d98a8ebd18f6","bdp_rwlrn","Mon Mar 13 2023 13:10:17 GMT-0500 (Central Daylight Time)","464530","Untrustworthy,Trustworthy","","null","","","","decisionFB","","<div class='trialDiv'><img src='Fruit/bananas.png'><br><font class='baseline'><strong>Banana Bonanza</strong><p>Choose number of points to bet.</font><div class='respPicDiv'><img src='img/responseButtonOffersNo0L5.png' class='respPic'></div></div>","null","7","Banana Bonanza","Fruit/bananas.png","Won","0.8,0.35","13","0.8","82","19","",""
"html-keyboard-response","66","153287","0.0-11.0-3.18","63d7457dae12d98a8ebd18f6","bdp_rwlrn","Mon Mar 13 2023 13:10:17 GMT-0500 (Central Daylight Time)","464530","Untrustworthy,Trustworthy","","null","","","","feedback","","<div class='respPicDiv'><img src='img/responseButtonOffersNo0_wht.png' class='respPic'></div><div class='trialDiv'><img src='Fruit/bananas.png'><br><font class='baseline'><strong>Banana Bonanza</strong><p><strong><font class='posOutcome'>You WON</font><p>You bet: 5</strong></font> &nbsp; &nbsp; &nbsp; &nbsp; &nbsp; &nbsp;<font class='posOutcome'>you receive: <strong>10</strong></font></div>","null","7","Banana Bonanza","Fruit/bananas.png","Won","0.8,0.35","13","0.8","92","19","",""
"html-keyboard-response","67","153900","0.0-11.0-1.19","63d7457dae12d98a8ebd18f6","bdp_rwlrn","Mon Mar 13 2023 13:10:17 GMT-0500 (Central Daylight Time)","464530","Untrustworthy,Trustworthy","","612","","","","decision","","<div class='trialDiv'><img src='Fruit/watermelon.png'><br><font class='baseline'><strong>Watermelon Win$</strong><p>Choose number of points to bet.</font><div class='respPicDiv'><img src='img/responseButtonOffersNo0L.png' class='respPic'></div></div>","2","7","Watermelon Win$","Fruit/watermelon.png","Won","0.2,0.65","12","0.2","97","20","",""
"html-keyboard-response","68","154157","0.0-11.0-2.19","63d7457dae12d98a8ebd18f6","bdp_rwlrn","Mon Mar 13 2023 13:10:17 GMT-0500 (Central Daylight Time)","464530","Untrustworthy,Trustworthy","","null","","","","decisionFB","","<div class='trialDiv'><img src='Fruit/watermelon.png'><br><font class='baseline'><strong>Watermelon Win$</strong><p>Choose number of points to bet.</font><div class='respPicDiv'><img src='img/responseButtonOffersNo0L2.png' class='respPic'></div></div>","null","7","Watermelon Win$","Fruit/watermelon.png","Won","0.2,0.65","12","0.2","95","20","",""
"html-keyboard-response","69","155164","0.0-11.0-3.19","63d7457dae12d98a8ebd18f6","bdp_rwlrn","Mon Mar 13 2023 13:10:17 GMT-0500 (Central Daylight Time)","464530","Untrustworthy,Trustworthy","","null","","","","feedback","","<div class='respPicDiv'><img src='img/responseButtonOffersNo0_wht.png' class='respPic'></div><div class='trialDiv'><img src='Fruit/watermelon.png'><br><font class='baseline'><strong>Watermelon Win$</strong><p><strong><font class='posOutcome'>You WON</font><p>You bet: 2</strong></font> &nbsp; &nbsp; &nbsp; &nbsp; &nbsp; &nbsp;<font class='posOutcome'>you receive: <strong>4</strong></font></div>","null","7","Watermelon Win$","Fruit/watermelon.png","Won","0.2,0.65","12","0.2","99","20","",""
"html-keyboard-response","70","156014","0.0-11.0-1.20","63d7457dae12d98a8ebd18f6","bdp_rwlrn","Mon Mar 13 2023 13:10:17 GMT-0500 (Central Daylight Time)","464530","Untrustworthy,Trustworthy","","849","","","","decision","","<div class='trialDiv'><img src='Fruit/orange.png'><br><font class='baseline'><strong>Odds are Orange</strong><p>Choose number of points to bet.</font><div class='respPicDiv'><img src='img/responseButtonOffersNo0L.png' class='respPic'></div></div>","2","7","Odds are Orange","Fruit/orange.png","Lost","0.35,0.65","10","0.35","104","21","",""
"html-keyboard-response","71","156269","0.0-11.0-2.20","63d7457dae12d98a8ebd18f6","bdp_rwlrn","Mon Mar 13 2023 13:10:17 GMT-0500 (Central Daylight Time)","464530","Untrustworthy,Trustworthy","","null","","","","decisionFB","","<div class='trialDiv'><img src='Fruit/orange.png'><br><font class='baseline'><strong>Odds are Orange</strong><p>Choose number of points to bet.</font><div class='respPicDiv'><img src='img/responseButtonOffersNo0L2.png' class='respPic'></div></div>","null","7","Odds are Orange","Fruit/orange.png","Lost","0.35,0.65","10","0.35","102","21","",""
"html-keyboard-response","72","157277","0.0-11.0-3.20","63d7457dae12d98a8ebd18f6","bdp_rwlrn","Mon Mar 13 2023 13:10:17 GMT-0500 (Central Daylight Time)","464530","Untrustworthy,Trustworthy","","null","","","","feedback","","<div class='respPicDiv'><img src='img/responseButtonOffersNo0_wht.png' class='respPic'></div><div class='trialDiv'><img src='Fruit/orange.png'><br><font class='baseline'><strong>Odds are Orange</strong><p><strong><font class='negOutcome'>You LOST</font><p>You bet: 2</strong></font> &nbsp; &nbsp; &nbsp; &nbsp; &nbsp; &nbsp;<font class='negOutcome'>You receive: <strong>0</strong></font></div>","null","7","Odds are Orange","Fruit/orange.png","Lost","0.35,0.65","10","0.35","102","21","",""
"html-keyboard-response","73","157823","0.0-11.0-1.21","63d7457dae12d98a8ebd18f6","bdp_rwlrn","Mon Mar 13 2023 13:10:17 GMT-0500 (Central Daylight Time)","464530","Untrustworthy,Trustworthy","","545","","","","decision","","<div class='trialDiv'><img src='Fruit/bananas.png'><br><font class='baseline'><strong>Banana Bonanza</strong><p>Choose number of points to bet.</font><div class='respPicDiv'><img src='img/responseButtonOffersNo0L.png' class='respPic'></div></div>","5","8","Banana Bonanza","Fruit/bananas.png","Won","0.8,0.35","13","0.8","107","22","",""
"html-keyboard-response","74","158077","0.0-11.0-2.21","63d7457dae12d98a8ebd18f6","bdp_rwlrn","Mon Mar 13 2023 13:10:17 GMT-0500 (Central Daylight Time)","464530","Untrustworthy,Trustworthy","","null","","","","decisionFB","","<div class='trialDiv'><img src='Fruit/bananas.png'><br><font class='baseline'><strong>Banana Bonanza</strong><p>Choose number of points to bet.</font><div class='respPicDiv'><img src='img/responseButtonOffersNo0L5.png' class='respPic'></div></div>","null","8","Banana Bonanza","Fruit/bananas.png","Won","0.8,0.35","13","0.8","102","22","",""
"html-keyboard-response","75","159084","0.0-11.0-3.21","63d7457dae12d98a8ebd18f6","bdp_rwlrn","Mon Mar 13 2023 13:10:17 GMT-0500 (Central Daylight Time)","464530","Untrustworthy,Trustworthy","","null","","","","feedback","","<div class='respPicDiv'><img src='img/responseButtonOffersNo0_wht.png' class='respPic'></div><div class='trialDiv'><img src='Fruit/bananas.png'><br><font class='baseline'><strong>Banana Bonanza</strong><p><strong><font class='posOutcome'>You WON</font><p>You bet: 5</strong></font> &nbsp; &nbsp; &nbsp; &nbsp; &nbsp; &nbsp;<font class='posOutcome'>you receive: <strong>10</strong></font></div>","null","8","Banana Bonanza","Fruit/bananas.png","Won","0.8,0.35","13","0.8","112","22","",""
"html-keyboard-response","76","160260","0.0-11.0-1.22","63d7457dae12d98a8ebd18f6","bdp_rwlrn","Mon Mar 13 2023 13:10:17 GMT-0500 (Central Daylight Time)","464530","Untrustworthy,Trustworthy","","1174","","","","decision","","<div class='trialDiv'><img src='Fruit/orange.png'><br><font class='baseline'><strong>Odds are Orange</strong><p>Choose number of points to bet.</font><div class='respPicDiv'><img src='img/responseButtonOffersNo0L.png' class='respPic'></div></div>","5","8","Odds are Orange","Fruit/orange.png","Lost","0.35,0.65","10","0.35","117","23","",""
"html-keyboard-response","77","160519","0.0-11.0-2.22","63d7457dae12d98a8ebd18f6","bdp_rwlrn","Mon Mar 13 2023 13:10:17 GMT-0500 (Central Daylight Time)","464530","Untrustworthy,Trustworthy","","null","","","","decisionFB","","<div class='trialDiv'><img src='Fruit/orange.png'><br><font class='baseline'><strong>Odds are Orange</strong><p>Choose number of points to bet.</font><div class='respPicDiv'><img src='img/responseButtonOffersNo0L5.png' class='respPic'></div></div>","null","8","Odds are Orange","Fruit/orange.png","Lost","0.35,0.65","10","0.35","112","23","",""
"html-keyboard-response","78","161527","0.0-11.0-3.22","63d7457dae12d98a8ebd18f6","bdp_rwlrn","Mon Mar 13 2023 13:10:17 GMT-0500 (Central Daylight Time)","464530","Untrustworthy,Trustworthy","","null","","","","feedback","","<div class='respPicDiv'><img src='img/responseButtonOffersNo0_wht.png' class='respPic'></div><div class='trialDiv'><img src='Fruit/orange.png'><br><font class='baseline'><strong>Odds are Orange</strong><p><strong><font class='negOutcome'>You LOST</font><p>You bet: 5</strong></font> &nbsp; &nbsp; &nbsp; &nbsp; &nbsp; &nbsp;<font class='negOutcome'>You receive: <strong>0</strong></font></div>","null","8","Odds are Orange","Fruit/orange.png","Lost","0.35,0.65","10","0.35","112","23","",""
"html-keyboard-response","79","164078","0.0-11.0-1.23","63d7457dae12d98a8ebd18f6","bdp_rwlrn","Mon Mar 13 2023 13:10:17 GMT-0500 (Central Daylight Time)","464530","Untrustworthy,Trustworthy","","2550","","","","decision","","<div class='trialDiv'><img src='Fruit/watermelon.png'><br><font class='baseline'><strong>Watermelon Win$</strong><p>Choose number of points to bet.</font><div class='respPicDiv'><img src='img/responseButtonOffersNo0L.png' class='respPic'></div></div>","5","8","Watermelon Win$","Fruit/watermelon.png","Lost","0.2,0.65","12","0.2","117","24","",""
"html-keyboard-response","80","164332","0.0-11.0-2.23","63d7457dae12d98a8ebd18f6","bdp_rwlrn","Mon Mar 13 2023 13:10:17 GMT-0500 (Central Daylight Time)","464530","Untrustworthy,Trustworthy","","null","","","","decisionFB","","<div class='trialDiv'><img src='Fruit/watermelon.png'><br><font class='baseline'><strong>Watermelon Win$</strong><p>Choose number of points to bet.</font><div class='respPicDiv'><img src='img/responseButtonOffersNo0L5.png' class='respPic'></div></div>","null","8","Watermelon Win$","Fruit/watermelon.png","Lost","0.2,0.65","12","0.2","112","24","",""
"html-keyboard-response","81","165340","0.0-11.0-3.23","63d7457dae12d98a8ebd18f6","bdp_rwlrn","Mon Mar 13 2023 13:10:17 GMT-0500 (Central Daylight Time)","464530","Untrustworthy,Trustworthy","","null","","","","feedback","","<div class='respPicDiv'><img src='img/responseButtonOffersNo0_wht.png' class='respPic'></div><div class='trialDiv'><img src='Fruit/watermelon.png'><br><font class='baseline'><strong>Watermelon Win$</strong><p><strong><font class='negOutcome'>You LOST</font><p>You bet: 5</strong></font> &nbsp; &nbsp; &nbsp; &nbsp; &nbsp; &nbsp;<font class='negOutcome'>You receive: <strong>0</strong></font></div>","null","8","Watermelon Win$","Fruit/watermelon.png","Lost","0.2,0.65","12","0.2","112","24","",""
"html-keyboard-response","82","166222","0.0-11.0-1.24","63d7457dae12d98a8ebd18f6","bdp_rwlrn","Mon Mar 13 2023 13:10:17 GMT-0500 (Central Daylight Time)","464530","Untrustworthy,Trustworthy","","881","","","","decision","","<div class='trialDiv'><img src='Fruit/orange.png'><br><font class='baseline'><strong>Odds are Orange</strong><p>Choose number of points to bet.</font><div class='respPicDiv'><img src='img/responseButtonOffersNo0L.png' class='respPic'></div></div>","5","9","Odds are Orange","Fruit/orange.png","Won","0.35,0.65","10","0.35","117","25","",""
"html-keyboard-response","83","166477","0.0-11.0-2.24","63d7457dae12d98a8ebd18f6","bdp_rwlrn","Mon Mar 13 2023 13:10:17 GMT-0500 (Central Daylight Time)","464530","Untrustworthy,Trustworthy","","null","","","","decisionFB","","<div class='trialDiv'><img src='Fruit/orange.png'><br><font class='baseline'><strong>Odds are Orange</strong><p>Choose number of points to bet.</font><div class='respPicDiv'><img src='img/responseButtonOffersNo0L5.png' class='respPic'></div></div>","null","9","Odds are Orange","Fruit/orange.png","Won","0.35,0.65","10","0.35","112","25","",""
"html-keyboard-response","84","167485","0.0-11.0-3.24","63d7457dae12d98a8ebd18f6","bdp_rwlrn","Mon Mar 13 2023 13:10:17 GMT-0500 (Central Daylight Time)","464530","Untrustworthy,Trustworthy","","null","","","","feedback","","<div class='respPicDiv'><img src='img/responseButtonOffersNo0_wht.png' class='respPic'></div><div class='trialDiv'><img src='Fruit/orange.png'><br><font class='baseline'><strong>Odds are Orange</strong><p><strong><font class='posOutcome'>You WON</font><p>You bet: 5</strong></font> &nbsp; &nbsp; &nbsp; &nbsp; &nbsp; &nbsp;<font class='posOutcome'>you receive: <strong>10</strong></font></div>","null","9","Odds are Orange","Fruit/orange.png","Won","0.35,0.65","10","0.35","122","25","",""
"html-keyboard-response","85","168003","0.0-11.0-1.25","63d7457dae12d98a8ebd18f6","bdp_rwlrn","Mon Mar 13 2023 13:10:17 GMT-0500 (Central Daylight Time)","464530","Untrustworthy,Trustworthy","","516","","","","decision","","<div class='trialDiv'><img src='Fruit/bananas.png'><br><font class='baseline'><strong>Banana Bonanza</strong><p>Choose number of points to bet.</font><div class='respPicDiv'><img src='img/responseButtonOffersNo0L.png' class='respPic'></div></div>","2","9","Banana Bonanza","Fruit/bananas.png","Won","0.8,0.35","13","0.8","127","26","",""
"html-keyboard-response","86","168263","0.0-11.0-2.25","63d7457dae12d98a8ebd18f6","bdp_rwlrn","Mon Mar 13 2023 13:10:17 GMT-0500 (Central Daylight Time)","464530","Untrustworthy,Trustworthy","","null","","","","decisionFB","","<div class='trialDiv'><img src='Fruit/bananas.png'><br><font class='baseline'><strong>Banana Bonanza</strong><p>Choose number of points to bet.</font><div class='respPicDiv'><img src='img/responseButtonOffersNo0L2.png' class='respPic'></div></div>","null","9","Banana Bonanza","Fruit/bananas.png","Won","0.8,0.35","13","0.8","125","26","",""
"html-keyboard-response","87","169271","0.0-11.0-3.25","63d7457dae12d98a8ebd18f6","bdp_rwlrn","Mon Mar 13 2023 13:10:17 GMT-0500 (Central Daylight Time)","464530","Untrustworthy,Trustworthy","","null","","","","feedback","","<div class='respPicDiv'><img src='img/responseButtonOffersNo0_wht.png' class='respPic'></div><div class='trialDiv'><img src='Fruit/bananas.png'><br><font class='baseline'><strong>Banana Bonanza</strong><p><strong><font class='posOutcome'>You WON</font><p>You bet: 2</strong></font> &nbsp; &nbsp; &nbsp; &nbsp; &nbsp; &nbsp;<font class='posOutcome'>you receive: <strong>4</strong></font></div>","null","9","Banana Bonanza","Fruit/bananas.png","Won","0.8,0.35","13","0.8","129","26","",""
"html-keyboard-response","88","169768","0.0-11.0-1.26","63d7457dae12d98a8ebd18f6","bdp_rwlrn","Mon Mar 13 2023 13:10:17 GMT-0500 (Central Daylight Time)","464530","Untrustworthy,Trustworthy","","497","","","","decision","","<div class='trialDiv'><img src='Fruit/watermelon.png'><br><font class='baseline'><strong>Watermelon Win$</strong><p>Choose number of points to bet.</font><div class='respPicDiv'><img src='img/responseButtonOffersNo0L.png' class='respPic'></div></div>","3","9","Watermelon Win$","Fruit/watermelon.png","Lost","0.2,0.65","12","0.2","134","27","",""
"html-keyboard-response","89","170028","0.0-11.0-2.26","63d7457dae12d98a8ebd18f6","bdp_rwlrn","Mon Mar 13 2023 13:10:17 GMT-0500 (Central Daylight Time)","464530","Untrustworthy,Trustworthy","","null","","","","decisionFB","","<div class='trialDiv'><img src='Fruit/watermelon.png'><br><font class='baseline'><strong>Watermelon Win$</strong><p>Choose number of points to bet.</font><div class='respPicDiv'><img src='img/responseButtonOffersNo0L3.png' class='respPic'></div></div>","null","9","Watermelon Win$","Fruit/watermelon.png","Lost","0.2,0.65","12","0.2","131","27","",""
"html-keyboard-response","90","171037","0.0-11.0-3.26","63d7457dae12d98a8ebd18f6","bdp_rwlrn","Mon Mar 13 2023 13:10:17 GMT-0500 (Central Daylight Time)","464530","Untrustworthy,Trustworthy","","null","","","","feedback","","<div class='respPicDiv'><img src='img/responseButtonOffersNo0_wht.png' class='respPic'></div><div class='trialDiv'><img src='Fruit/watermelon.png'><br><font class='baseline'><strong>Watermelon Win$</strong><p><strong><font class='negOutcome'>You LOST</font><p>You bet: 3</strong></font> &nbsp; &nbsp; &nbsp; &nbsp; &nbsp; &nbsp;<font class='negOutcome'>You receive: <strong>0</strong></font></div>","null","9","Watermelon Win$","Fruit/watermelon.png","Lost","0.2,0.65","12","0.2","131","27","",""
"html-keyboard-response","91","171461","0.0-11.0-1.27","63d7457dae12d98a8ebd18f6","bdp_rwlrn","Mon Mar 13 2023 13:10:17 GMT-0500 (Central Daylight Time)","464530","Untrustworthy,Trustworthy","","423","","","","decision","","<div class='trialDiv'><img src='Fruit/orange.png'><br><font class='baseline'><strong>Odds are Orange</strong><p>Choose number of points to bet.</font><div class='respPicDiv'><img src='img/responseButtonOffersNo0L.png' class='respPic'></div></div>","1","10","Odds are Orange","Fruit/orange.png","Lost","0.35,0.65","10","0.35","136","28","",""
"html-keyboard-response","92","171717","0.0-11.0-2.27","63d7457dae12d98a8ebd18f6","bdp_rwlrn","Mon Mar 13 2023 13:10:17 GMT-0500 (Central Daylight Time)","464530","Untrustworthy,Trustworthy","","null","","","","decisionFB","","<div class='trialDiv'><img src='Fruit/orange.png'><br><font class='baseline'><strong>Odds are Orange</strong><p>Choose number of points to bet.</font><div class='respPicDiv'><img src='img/responseButtonOffersNo0L1.png' class='respPic'></div></div>","null","10","Odds are Orange","Fruit/orange.png","Lost","0.35,0.65","10","0.35","135","28","",""
"html-keyboard-response","93","172727","0.0-11.0-3.27","63d7457dae12d98a8ebd18f6","bdp_rwlrn","Mon Mar 13 2023 13:10:17 GMT-0500 (Central Daylight Time)","464530","Untrustworthy,Trustworthy","","null","","","","feedback","","<div class='respPicDiv'><img src='img/responseButtonOffersNo0_wht.png' class='respPic'></div><div class='trialDiv'><img src='Fruit/orange.png'><br><font class='baseline'><strong>Odds are Orange</strong><p><strong><font class='negOutcome'>You LOST</font><p>You bet: 1</strong></font> &nbsp; &nbsp; &nbsp; &nbsp; &nbsp; &nbsp;<font class='negOutcome'>You receive: <strong>0</strong></font></div>","null","10","Odds are Orange","Fruit/orange.png","Lost","0.35,0.65","10","0.35","135","28","",""
"html-keyboard-response","94","174059","0.0-11.0-1.28","63d7457dae12d98a8ebd18f6","bdp_rwlrn","Mon Mar 13 2023 13:10:17 GMT-0500 (Central Daylight Time)","464530","Untrustworthy,Trustworthy","","1331","","","","decision","","<div class='trialDiv'><img src='Fruit/bananas.png'><br><font class='baseline'><strong>Banana Bonanza</strong><p>Choose number of points to bet.</font><div class='respPicDiv'><img src='img/responseButtonOffersNo0L.png' class='respPic'></div></div>","2","10","Banana Bonanza","Fruit/bananas.png","Won","0.8,0.35","13","0.8","140","29","",""
"html-keyboard-response","95","174317","0.0-11.0-2.28","63d7457dae12d98a8ebd18f6","bdp_rwlrn","Mon Mar 13 2023 13:10:17 GMT-0500 (Central Daylight Time)","464530","Untrustworthy,Trustworthy","","null","","","","decisionFB","","<div class='trialDiv'><img src='Fruit/bananas.png'><br><font class='baseline'><strong>Banana Bonanza</strong><p>Choose number of points to bet.</font><div class='respPicDiv'><img src='img/responseButtonOffersNo0L2.png' class='respPic'></div></div>","null","10","Banana Bonanza","Fruit/bananas.png","Won","0.8,0.35","13","0.8","138","29","",""
"html-keyboard-response","96","175325","0.0-11.0-3.28","63d7457dae12d98a8ebd18f6","bdp_rwlrn","Mon Mar 13 2023 13:10:17 GMT-0500 (Central Daylight Time)","464530","Untrustworthy,Trustworthy","","null","","","","feedback","","<div class='respPicDiv'><img src='img/responseButtonOffersNo0_wht.png' class='respPic'></div><div class='trialDiv'><img src='Fruit/bananas.png'><br><font class='baseline'><strong>Banana Bonanza</strong><p><strong><font class='posOutcome'>You WON</font><p>You bet: 2</strong></font> &nbsp; &nbsp; &nbsp; &nbsp; &nbsp; &nbsp;<font class='posOutcome'>you receive: <strong>4</strong></font></div>","null","10","Banana Bonanza","Fruit/bananas.png","Won","0.8,0.35","13","0.8","142","29","",""
"html-keyboard-response","97","176423","0.0-11.0-1.29","63d7457dae12d98a8ebd18f6","bdp_rwlrn","Mon Mar 13 2023 13:10:17 GMT-0500 (Central Daylight Time)","464530","Untrustworthy,Trustworthy","","1097","","","","decision","","<div class='trialDiv'><img src='Fruit/watermelon.png'><br><font class='baseline'><strong>Watermelon Win$</strong><p>Choose number of points to bet.</font><div class='respPicDiv'><img src='img/responseButtonOffersNo0L.png' class='respPic'></div></div>","3","10","Watermelon Win$","Fruit/watermelon.png","Lost","0.2,0.65","12","0.2","147","30","",""
"html-keyboard-response","98","176679","0.0-11.0-2.29","63d7457dae12d98a8ebd18f6","bdp_rwlrn","Mon Mar 13 2023 13:10:17 GMT-0500 (Central Daylight Time)","464530","Untrustworthy,Trustworthy","","null","","","","decisionFB","","<div class='trialDiv'><img src='Fruit/watermelon.png'><br><font class='baseline'><strong>Watermelon Win$</strong><p>Choose number of points to bet.</font><div class='respPicDiv'><img src='img/responseButtonOffersNo0L3.png' class='respPic'></div></div>","null","10","Watermelon Win$","Fruit/watermelon.png","Lost","0.2,0.65","12","0.2","144","30","",""
"html-keyboard-response","99","177687","0.0-11.0-3.29","63d7457dae12d98a8ebd18f6","bdp_rwlrn","Mon Mar 13 2023 13:10:17 GMT-0500 (Central Daylight Time)","464530","Untrustworthy,Trustworthy","","null","","","","feedback","","<div class='respPicDiv'><img src='img/responseButtonOffersNo0_wht.png' class='respPic'></div><div class='trialDiv'><img src='Fruit/watermelon.png'><br><font class='baseline'><strong>Watermelon Win$</strong><p><strong><font class='negOutcome'>You LOST</font><p>You bet: 3</strong></font> &nbsp; &nbsp; &nbsp; &nbsp; &nbsp; &nbsp;<font class='negOutcome'>You receive: <strong>0</strong></font></div>","null","10","Watermelon Win$","Fruit/watermelon.png","Lost","0.2,0.65","12","0.2","144","30","",""
"html-keyboard-response","100","178774","0.0-11.0-1.30","63d7457dae12d98a8ebd18f6","bdp_rwlrn","Mon Mar 13 2023 13:10:17 GMT-0500 (Central Daylight Time)","464530","Untrustworthy,Trustworthy","","1086","","","","decision","","<div class='trialDiv'><img src='Fruit/bananas.png'><br><font class='baseline'><strong>Banana Bonanza</strong><p>Choose number of points to bet.</font><div class='respPicDiv'><img src='img/responseButtonOffersNo0L.png' class='respPic'></div></div>","5","11","Banana Bonanza","Fruit/bananas.png","Won","0.8,0.35","13","0.8","149","31","",""
"html-keyboard-response","101","179028","0.0-11.0-2.30","63d7457dae12d98a8ebd18f6","bdp_rwlrn","Mon Mar 13 2023 13:10:17 GMT-0500 (Central Daylight Time)","464530","Untrustworthy,Trustworthy","","null","","","","decisionFB","","<div class='trialDiv'><img src='Fruit/bananas.png'><br><font class='baseline'><strong>Banana Bonanza</strong><p>Choose number of points to bet.</font><div class='respPicDiv'><img src='img/responseButtonOffersNo0L5.png' class='respPic'></div></div>","null","11","Banana Bonanza","Fruit/bananas.png","Won","0.8,0.35","13","0.8","144","31","",""
"html-keyboard-response","102","180039","0.0-11.0-3.30","63d7457dae12d98a8ebd18f6","bdp_rwlrn","Mon Mar 13 2023 13:10:17 GMT-0500 (Central Daylight Time)","464530","Untrustworthy,Trustworthy","","null","","","","feedback","","<div class='respPicDiv'><img src='img/responseButtonOffersNo0_wht.png' class='respPic'></div><div class='trialDiv'><img src='Fruit/bananas.png'><br><font class='baseline'><strong>Banana Bonanza</strong><p><strong><font class='posOutcome'>You WON</font><p>You bet: 5</strong></font> &nbsp; &nbsp; &nbsp; &nbsp; &nbsp; &nbsp;<font class='posOutcome'>you receive: <strong>10</strong></font></div>","null","11","Banana Bonanza","Fruit/bananas.png","Won","0.8,0.35","13","0.8","154","31","",""
"html-keyboard-response","103","180847","0.0-11.0-1.31","63d7457dae12d98a8ebd18f6","bdp_rwlrn","Mon Mar 13 2023 13:10:17 GMT-0500 (Central Daylight Time)","464530","Untrustworthy,Trustworthy","","807","","","","decision","","<div class='trialDiv'><img src='Fruit/orange.png'><br><font class='baseline'><strong>Odds are Orange</strong><p>Choose number of points to bet.</font><div class='respPicDiv'><img src='img/responseButtonOffersNo0L.png' class='respPic'></div></div>","5","11","Odds are Orange","Fruit/orange.png","Won","0.35,0.65","10","0.35","159","32","",""
"html-keyboard-response","104","181101","0.0-11.0-2.31","63d7457dae12d98a8ebd18f6","bdp_rwlrn","Mon Mar 13 2023 13:10:17 GMT-0500 (Central Daylight Time)","464530","Untrustworthy,Trustworthy","","null","","","","decisionFB","","<div class='trialDiv'><img src='Fruit/orange.png'><br><font class='baseline'><strong>Odds are Orange</strong><p>Choose number of points to bet.</font><div class='respPicDiv'><img src='img/responseButtonOffersNo0L5.png' class='respPic'></div></div>","null","11","Odds are Orange","Fruit/orange.png","Won","0.35,0.65","10","0.35","154","32","",""
"html-keyboard-response","105","182109","0.0-11.0-3.31","63d7457dae12d98a8ebd18f6","bdp_rwlrn","Mon Mar 13 2023 13:10:17 GMT-0500 (Central Daylight Time)","464530","Untrustworthy,Trustworthy","","null","","","","feedback","","<div class='respPicDiv'><img src='img/responseButtonOffersNo0_wht.png' class='respPic'></div><div class='trialDiv'><img src='Fruit/orange.png'><br><font class='baseline'><strong>Odds are Orange</strong><p><strong><font class='posOutcome'>You WON</font><p>You bet: 5</strong></font> &nbsp; &nbsp; &nbsp; &nbsp; &nbsp; &nbsp;<font class='posOutcome'>you receive: <strong>10</strong></font></div>","null","11","Odds are Orange","Fruit/orange.png","Won","0.35,0.65","10","0.35","164","32","",""
"html-keyboard-response","106","182471","0.0-11.0-1.32","63d7457dae12d98a8ebd18f6","bdp_rwlrn","Mon Mar 13 2023 13:10:17 GMT-0500 (Central Daylight Time)","464530","Untrustworthy,Trustworthy","","361","","","","decision","","<div class='trialDiv'><img src='Fruit/watermelon.png'><br><font class='baseline'><strong>Watermelon Win$</strong><p>Choose number of points to bet.</font><div class='respPicDiv'><img src='img/responseButtonOffersNo0L.png' class='respPic'></div></div>","1","11","Watermelon Win$","Fruit/watermelon.png","Lost","0.2,0.65","12","0.2","169","33","",""
"html-keyboard-response","107","182727","0.0-11.0-2.32","63d7457dae12d98a8ebd18f6","bdp_rwlrn","Mon Mar 13 2023 13:10:17 GMT-0500 (Central Daylight Time)","464530","Untrustworthy,Trustworthy","","null","","","","decisionFB","","<div class='trialDiv'><img src='Fruit/watermelon.png'><br><font class='baseline'><strong>Watermelon Win$</strong><p>Choose number of points to bet.</font><div class='respPicDiv'><img src='img/responseButtonOffersNo0L1.png' class='respPic'></div></div>","null","11","Watermelon Win$","Fruit/watermelon.png","Lost","0.2,0.65","12","0.2","168","33","",""
"html-keyboard-response","108","183735","0.0-11.0-3.32","63d7457dae12d98a8ebd18f6","bdp_rwlrn","Mon Mar 13 2023 13:10:17 GMT-0500 (Central Daylight Time)","464530","Untrustworthy,Trustworthy","","null","","","","feedback","","<div class='respPicDiv'><img src='img/responseButtonOffersNo0_wht.png' class='respPic'></div><div class='trialDiv'><img src='Fruit/watermelon.png'><br><font class='baseline'><strong>Watermelon Win$</strong><p><strong><font class='negOutcome'>You LOST</font><p>You bet: 1</strong></font> &nbsp; &nbsp; &nbsp; &nbsp; &nbsp; &nbsp;<font class='negOutcome'>You receive: <strong>0</strong></font></div>","null","11","Watermelon Win$","Fruit/watermelon.png","Lost","0.2,0.65","12","0.2","168","33","",""
"html-keyboard-response","109","184091","0.0-11.0-1.33","63d7457dae12d98a8ebd18f6","bdp_rwlrn","Mon Mar 13 2023 13:10:17 GMT-0500 (Central Daylight Time)","464530","Untrustworthy,Trustworthy","","354","","","","decision","","<div class='trialDiv'><img src='Fruit/orange.png'><br><font class='baseline'><strong>Odds are Orange</strong><p>Choose number of points to bet.</font><div class='respPicDiv'><img src='img/responseButtonOffersNo0L.png' class='respPic'></div></div>","1","12","Odds are Orange","Fruit/orange.png","Lost","0.35,0.65","10","0.35","173","34","",""
"html-keyboard-response","110","184349","0.0-11.0-2.33","63d7457dae12d98a8ebd18f6","bdp_rwlrn","Mon Mar 13 2023 13:10:17 GMT-0500 (Central Daylight Time)","464530","Untrustworthy,Trustworthy","","null","","","","decisionFB","","<div class='trialDiv'><img src='Fruit/orange.png'><br><font class='baseline'><strong>Odds are Orange</strong><p>Choose number of points to bet.</font><div class='respPicDiv'><img src='img/responseButtonOffersNo0L1.png' class='respPic'></div></div>","null","12","Odds are Orange","Fruit/orange.png","Lost","0.35,0.65","10","0.35","172","34","",""
"html-keyboard-response","111","185357","0.0-11.0-3.33","63d7457dae12d98a8ebd18f6","bdp_rwlrn","Mon Mar 13 2023 13:10:17 GMT-0500 (Central Daylight Time)","464530","Untrustworthy,Trustworthy","","null","","","","feedback","","<div class='respPicDiv'><img src='img/responseButtonOffersNo0_wht.png' class='respPic'></div><div class='trialDiv'><img src='Fruit/orange.png'><br><font class='baseline'><strong>Odds are Orange</strong><p><strong><font class='negOutcome'>You LOST</font><p>You bet: 1</strong></font> &nbsp; &nbsp; &nbsp; &nbsp; &nbsp; &nbsp;<font class='negOutcome'>You receive: <strong>0</strong></font></div>","null","12","Odds are Orange","Fruit/orange.png","Lost","0.35,0.65","10","0.35","172","34","",""
"html-keyboard-response","112","185653","0.0-11.0-1.34","63d7457dae12d98a8ebd18f6","bdp_rwlrn","Mon Mar 13 2023 13:10:17 GMT-0500 (Central Daylight Time)","464530","Untrustworthy,Trustworthy","","295","","","","decision","","<div class='trialDiv'><img src='Fruit/bananas.png'><br><font class='baseline'><strong>Banana Bonanza</strong><p>Choose number of points to bet.</font><div class='respPicDiv'><img src='img/responseButtonOffersNo0L.png' class='respPic'></div></div>","5","12","Banana Bonanza","Fruit/bananas.png","Lost","0.8,0.35","13","0.8","177","35","",""
"html-keyboard-response","113","185912","0.0-11.0-2.34","63d7457dae12d98a8ebd18f6","bdp_rwlrn","Mon Mar 13 2023 13:10:17 GMT-0500 (Central Daylight Time)","464530","Untrustworthy,Trustworthy","","null","","","","decisionFB","","<div class='trialDiv'><img src='Fruit/bananas.png'><br><font class='baseline'><strong>Banana Bonanza</strong><p>Choose number of points to bet.</font><div class='respPicDiv'><img src='img/responseButtonOffersNo0L5.png' class='respPic'></div></div>","null","12","Banana Bonanza","Fruit/bananas.png","Lost","0.8,0.35","13","0.8","172","35","",""
"html-keyboard-response","114","186920","0.0-11.0-3.34","63d7457dae12d98a8ebd18f6","bdp_rwlrn","Mon Mar 13 2023 13:10:17 GMT-0500 (Central Daylight Time)","464530","Untrustworthy,Trustworthy","","null","","","","feedback","","<div class='respPicDiv'><img src='img/responseButtonOffersNo0_wht.png' class='respPic'></div><div class='trialDiv'><img src='Fruit/bananas.png'><br><font class='baseline'><strong>Banana Bonanza</strong><p><strong><font class='negOutcome'>You LOST</font><p>You bet: 5</strong></font> &nbsp; &nbsp; &nbsp; &nbsp; &nbsp; &nbsp;<font class='negOutcome'>You receive: <strong>0</strong></font></div>","null","12","Banana Bonanza","Fruit/bananas.png","Lost","0.8,0.35","13","0.8","172","35","",""
"html-keyboard-response","115","187457","0.0-11.0-1.35","63d7457dae12d98a8ebd18f6","bdp_rwlrn","Mon Mar 13 2023 13:10:17 GMT-0500 (Central Daylight Time)","464530","Untrustworthy,Trustworthy","","537","","","","decision","","<div class='trialDiv'><img src='Fruit/watermelon.png'><br><font class='baseline'><strong>Watermelon Win$</strong><p>Choose number of points to bet.</font><div class='respPicDiv'><img src='img/responseButtonOffersNo0L.png' class='respPic'></div></div>","5","12","Watermelon Win$","Fruit/watermelon.png","Won","0.2,0.65","12","0.2","177","36","",""
"html-keyboard-response","116","187719","0.0-11.0-2.35","63d7457dae12d98a8ebd18f6","bdp_rwlrn","Mon Mar 13 2023 13:10:17 GMT-0500 (Central Daylight Time)","464530","Untrustworthy,Trustworthy","","null","","","","decisionFB","","<div class='trialDiv'><img src='Fruit/watermelon.png'><br><font class='baseline'><strong>Watermelon Win$</strong><p>Choose number of points to bet.</font><div class='respPicDiv'><img src='img/responseButtonOffersNo0L5.png' class='respPic'></div></div>","null","12","Watermelon Win$","Fruit/watermelon.png","Won","0.2,0.65","12","0.2","172","36","",""
"html-keyboard-response","117","188727","0.0-11.0-3.35","63d7457dae12d98a8ebd18f6","bdp_rwlrn","Mon Mar 13 2023 13:10:17 GMT-0500 (Central Daylight Time)","464530","Untrustworthy,Trustworthy","","null","","","","feedback","","<div class='respPicDiv'><img src='img/responseButtonOffersNo0_wht.png' class='respPic'></div><div class='trialDiv'><img src='Fruit/watermelon.png'><br><font class='baseline'><strong>Watermelon Win$</strong><p><strong><font class='posOutcome'>You WON</font><p>You bet: 5</strong></font> &nbsp; &nbsp; &nbsp; &nbsp; &nbsp; &nbsp;<font class='posOutcome'>you receive: <strong>10</strong></font></div>","null","12","Watermelon Win$","Fruit/watermelon.png","Won","0.2,0.65","12","0.2","182","36","",""
"html-keyboard-response","118","189276","0.0-11.0-1.36","63d7457dae12d98a8ebd18f6","bdp_rwlrn","Mon Mar 13 2023 13:10:17 GMT-0500 (Central Daylight Time)","464530","Untrustworthy,Trustworthy","","548","","","","decision","","<div class='trialDiv'><img src='Fruit/orange.png'><br><font class='baseline'><strong>Odds are Orange</strong><p>Choose number of points to bet.</font><div class='respPicDiv'><img src='img/responseButtonOffersNo0L.png' class='respPic'></div></div>","5","13","Odds are Orange","Fruit/orange.png","Lost","0.35,0.65","10","0.35","187","37","",""
"html-keyboard-response","119","189532","0.0-11.0-2.36","63d7457dae12d98a8ebd18f6","bdp_rwlrn","Mon Mar 13 2023 13:10:17 GMT-0500 (Central Daylight Time)","464530","Untrustworthy,Trustworthy","","null","","","","decisionFB","","<div class='trialDiv'><img src='Fruit/orange.png'><br><font class='baseline'><strong>Odds are Orange</strong><p>Choose number of points to bet.</font><div class='respPicDiv'><img src='img/responseButtonOffersNo0L5.png' class='respPic'></div></div>","null","13","Odds are Orange","Fruit/orange.png","Lost","0.35,0.65","10","0.35","182","37","",""
"html-keyboard-response","120","190536","0.0-11.0-3.36","63d7457dae12d98a8ebd18f6","bdp_rwlrn","Mon Mar 13 2023 13:10:17 GMT-0500 (Central Daylight Time)","464530","Untrustworthy,Trustworthy","","null","","","","feedback","","<div class='respPicDiv'><img src='img/responseButtonOffersNo0_wht.png' class='respPic'></div><div class='trialDiv'><img src='Fruit/orange.png'><br><font class='baseline'><strong>Odds are Orange</strong><p><strong><font class='negOutcome'>You LOST</font><p>You bet: 5</strong></font> &nbsp; &nbsp; &nbsp; &nbsp; &nbsp; &nbsp;<font class='negOutcome'>You receive: <strong>0</strong></font></div>","null","13","Odds are Orange","Fruit/orange.png","Lost","0.35,0.65","10","0.35","182","37","",""
"html-keyboard-response","121","190922","0.0-11.0-1.37","63d7457dae12d98a8ebd18f6","bdp_rwlrn","Mon Mar 13 2023 13:10:17 GMT-0500 (Central Daylight Time)","464530","Untrustworthy,Trustworthy","","385","","","","decision","","<div class='trialDiv'><img src='Fruit/bananas.png'><br><font class='baseline'><strong>Banana Bonanza</strong><p>Choose number of points to bet.</font><div class='respPicDiv'><img src='img/responseButtonOffersNo0L.png' class='respPic'></div></div>","3","13","Banana Bonanza","Fruit/bananas.png","Won","0.8,0.35","13","0.8","187","38","",""
"html-keyboard-response","122","191180","0.0-11.0-2.37","63d7457dae12d98a8ebd18f6","bdp_rwlrn","Mon Mar 13 2023 13:10:17 GMT-0500 (Central Daylight Time)","464530","Untrustworthy,Trustworthy","","null","","","","decisionFB","","<div class='trialDiv'><img src='Fruit/bananas.png'><br><font class='baseline'><strong>Banana Bonanza</strong><p>Choose number of points to bet.</font><div class='respPicDiv'><img src='img/responseButtonOffersNo0L3.png' class='respPic'></div></div>","null","13","Banana Bonanza","Fruit/bananas.png","Won","0.8,0.35","13","0.8","184","38","",""
"html-keyboard-response","123","192189","0.0-11.0-3.37","63d7457dae12d98a8ebd18f6","bdp_rwlrn","Mon Mar 13 2023 13:10:17 GMT-0500 (Central Daylight Time)","464530","Untrustworthy,Trustworthy","","null","","","","feedback","","<div class='respPicDiv'><img src='img/responseButtonOffersNo0_wht.png' class='respPic'></div><div class='trialDiv'><img src='Fruit/bananas.png'><br><font class='baseline'><strong>Banana Bonanza</strong><p><strong><font class='posOutcome'>You WON</font><p>You bet: 3</strong></font> &nbsp; &nbsp; &nbsp; &nbsp; &nbsp; &nbsp;<font class='posOutcome'>you receive: <strong>6</strong></font></div>","null","13","Banana Bonanza","Fruit/bananas.png","Won","0.8,0.35","13","0.8","190","38","",""
"html-keyboard-response","124","193107","0.0-11.0-1.38","63d7457dae12d98a8ebd18f6","bdp_rwlrn","Mon Mar 13 2023 13:10:17 GMT-0500 (Central Daylight Time)","464530","Untrustworthy,Trustworthy","","917","","","","decision","","<div class='trialDiv'><img src='Fruit/watermelon.png'><br><font class='baseline'><strong>Watermelon Win$</strong><p>Choose number of points to bet.</font><div class='respPicDiv'><img src='img/responseButtonOffersNo0L.png' class='respPic'></div></div>","2","13","Watermelon Win$","Fruit/watermelon.png","Won","0.2,0.65","12","0.2","195","39","",""
"html-keyboard-response","125","193367","0.0-11.0-2.38","63d7457dae12d98a8ebd18f6","bdp_rwlrn","Mon Mar 13 2023 13:10:17 GMT-0500 (Central Daylight Time)","464530","Untrustworthy,Trustworthy","","null","","","","decisionFB","","<div class='trialDiv'><img src='Fruit/watermelon.png'><br><font class='baseline'><strong>Watermelon Win$</strong><p>Choose number of points to bet.</font><div class='respPicDiv'><img src='img/responseButtonOffersNo0L2.png' class='respPic'></div></div>","null","13","Watermelon Win$","Fruit/watermelon.png","Won","0.2,0.65","12","0.2","193","39","",""
"html-keyboard-response","126","194376","0.0-11.0-3.38","63d7457dae12d98a8ebd18f6","bdp_rwlrn","Mon Mar 13 2023 13:10:17 GMT-0500 (Central Daylight Time)","464530","Untrustworthy,Trustworthy","","null","","","","feedback","","<div class='respPicDiv'><img src='img/responseButtonOffersNo0_wht.png' class='respPic'></div><div class='trialDiv'><img src='Fruit/watermelon.png'><br><font class='baseline'><strong>Watermelon Win$</strong><p><strong><font class='posOutcome'>You WON</font><p>You bet: 2</strong></font> &nbsp; &nbsp; &nbsp; &nbsp; &nbsp; &nbsp;<font class='posOutcome'>you receive: <strong>4</strong></font></div>","null","13","Watermelon Win$","Fruit/watermelon.png","Won","0.2,0.65","12","0.2","197","39","",""
"html-keyboard-response","127","194997","0.0-11.0-1.39","63d7457dae12d98a8ebd18f6","bdp_rwlrn","Mon Mar 13 2023 13:10:17 GMT-0500 (Central Daylight Time)","464530","Untrustworthy,Trustworthy","","621","","","","decision","","<div class='trialDiv'><img src='Fruit/bananas.png'><br><font class='baseline'><strong>Banana Bonanza</strong><p>Choose number of points to bet.</font><div class='respPicDiv'><img src='img/responseButtonOffersNo0L.png' class='respPic'></div></div>","5","14","Banana Bonanza","Fruit/bananas.png","Lost","0.8,0.35","13","0.8","202","40","",""
"html-keyboard-response","128","195256","0.0-11.0-2.39","63d7457dae12d98a8ebd18f6","bdp_rwlrn","Mon Mar 13 2023 13:10:17 GMT-0500 (Central Daylight Time)","464530","Untrustworthy,Trustworthy","","null","","","","decisionFB","","<div class='trialDiv'><img src='Fruit/bananas.png'><br><font class='baseline'><strong>Banana Bonanza</strong><p>Choose number of points to bet.</font><div class='respPicDiv'><img src='img/responseButtonOffersNo0L5.png' class='respPic'></div></div>","null","14","Banana Bonanza","Fruit/bananas.png","Lost","0.8,0.35","13","0.8","197","40","",""
"html-keyboard-response","129","196264","0.0-11.0-3.39","63d7457dae12d98a8ebd18f6","bdp_rwlrn","Mon Mar 13 2023 13:10:17 GMT-0500 (Central Daylight Time)","464530","Untrustworthy,Trustworthy","","null","","","","feedback","","<div class='respPicDiv'><img src='img/responseButtonOffersNo0_wht.png' class='respPic'></div><div class='trialDiv'><img src='Fruit/bananas.png'><br><font class='baseline'><strong>Banana Bonanza</strong><p><strong><font class='negOutcome'>You LOST</font><p>You bet: 5</strong></font> &nbsp; &nbsp; &nbsp; &nbsp; &nbsp; &nbsp;<font class='negOutcome'>You receive: <strong>0</strong></font></div>","null","14","Banana Bonanza","Fruit/bananas.png","Lost","0.8,0.35","13","0.8","197","40","",""
"html-keyboard-response","130","197081","0.0-11.0-1.40","63d7457dae12d98a8ebd18f6","bdp_rwlrn","Mon Mar 13 2023 13:10:17 GMT-0500 (Central Daylight Time)","464530","Untrustworthy,Trustworthy","","817","","","","decision","","<div class='trialDiv'><img src='Fruit/watermelon.png'><br><font class='baseline'><strong>Watermelon Win$</strong><p>Choose number of points to bet.</font><div class='respPicDiv'><img src='img/responseButtonOffersNo0L.png' class='respPic'></div></div>","2","14","Watermelon Win$","Fruit/watermelon.png","Won","0.2,0.65","12","0.2","202","41","",""
"html-keyboard-response","131","197336","0.0-11.0-2.40","63d7457dae12d98a8ebd18f6","bdp_rwlrn","Mon Mar 13 2023 13:10:17 GMT-0500 (Central Daylight Time)","464530","Untrustworthy,Trustworthy","","null","","","","decisionFB","","<div class='trialDiv'><img src='Fruit/watermelon.png'><br><font class='baseline'><strong>Watermelon Win$</strong><p>Choose number of points to bet.</font><div class='respPicDiv'><img src='img/responseButtonOffersNo0L2.png' class='respPic'></div></div>","null","14","Watermelon Win$","Fruit/watermelon.png","Won","0.2,0.65","12","0.2","200","41","",""
"html-keyboard-response","132","198344","0.0-11.0-3.40","63d7457dae12d98a8ebd18f6","bdp_rwlrn","Mon Mar 13 2023 13:10:17 GMT-0500 (Central Daylight Time)","464530","Untrustworthy,Trustworthy","","null","","","","feedback","","<div class='respPicDiv'><img src='img/responseButtonOffersNo0_wht.png' class='respPic'></div><div class='trialDiv'><img src='Fruit/watermelon.png'><br><font class='baseline'><strong>Watermelon Win$</strong><p><strong><font class='posOutcome'>You WON</font><p>You bet: 2</strong></font> &nbsp; &nbsp; &nbsp; &nbsp; &nbsp; &nbsp;<font class='posOutcome'>you receive: <strong>4</strong></font></div>","null","14","Watermelon Win$","Fruit/watermelon.png","Won","0.2,0.65","12","0.2","204","41","",""
"html-keyboard-response","133","199290","0.0-11.0-1.41","63d7457dae12d98a8ebd18f6","bdp_rwlrn","Mon Mar 13 2023 13:10:17 GMT-0500 (Central Daylight Time)","464530","Untrustworthy,Trustworthy","","945","","","","decision","","<div class='trialDiv'><img src='Fruit/orange.png'><br><font class='baseline'><strong>Odds are Orange</strong><p>Choose number of points to bet.</font><div class='respPicDiv'><img src='img/responseButtonOffersNo0L.png' class='respPic'></div></div>","2","14","Odds are Orange","Fruit/orange.png","Lost","0.35,0.65","10","0.35","209","42","",""
"html-keyboard-response","134","199549","0.0-11.0-2.41","63d7457dae12d98a8ebd18f6","bdp_rwlrn","Mon Mar 13 2023 13:10:17 GMT-0500 (Central Daylight Time)","464530","Untrustworthy,Trustworthy","","null","","","","decisionFB","","<div class='trialDiv'><img src='Fruit/orange.png'><br><font class='baseline'><strong>Odds are Orange</strong><p>Choose number of points to bet.</font><div class='respPicDiv'><img src='img/responseButtonOffersNo0L2.png' class='respPic'></div></div>","null","14","Odds are Orange","Fruit/orange.png","Lost","0.35,0.65","10","0.35","207","42","",""
"html-keyboard-response","135","200557","0.0-11.0-3.41","63d7457dae12d98a8ebd18f6","bdp_rwlrn","Mon Mar 13 2023 13:10:17 GMT-0500 (Central Daylight Time)","464530","Untrustworthy,Trustworthy","","null","","","","feedback","","<div class='respPicDiv'><img src='img/responseButtonOffersNo0_wht.png' class='respPic'></div><div class='trialDiv'><img src='Fruit/orange.png'><br><font class='baseline'><strong>Odds are Orange</strong><p><strong><font class='negOutcome'>You LOST</font><p>You bet: 2</strong></font> &nbsp; &nbsp; &nbsp; &nbsp; &nbsp; &nbsp;<font class='negOutcome'>You receive: <strong>0</strong></font></div>","null","14","Odds are Orange","Fruit/orange.png","Lost","0.35,0.65","10","0.35","207","42","",""
"html-keyboard-response","136","201344","0.0-11.0-1.42","63d7457dae12d98a8ebd18f6","bdp_rwlrn","Mon Mar 13 2023 13:10:17 GMT-0500 (Central Daylight Time)","464530","Untrustworthy,Trustworthy","","786","","","","decision","","<div class='trialDiv'><img src='Fruit/watermelon.png'><br><font class='baseline'><strong>Watermelon Win$</strong><p>Choose number of points to bet.</font><div class='respPicDiv'><img src='img/responseButtonOffersNo0L.png' class='respPic'></div></div>","2","15","Watermelon Win$","Fruit/watermelon.png","Won","0.2,0.65","12","0.2","212","43","",""
"html-keyboard-response","137","201597","0.0-11.0-2.42","63d7457dae12d98a8ebd18f6","bdp_rwlrn","Mon Mar 13 2023 13:10:17 GMT-0500 (Central Daylight Time)","464530","Untrustworthy,Trustworthy","","null","","","","decisionFB","","<div class='trialDiv'><img src='Fruit/watermelon.png'><br><font class='baseline'><strong>Watermelon Win$</strong><p>Choose number of points to bet.</font><div class='respPicDiv'><img src='img/responseButtonOffersNo0L2.png' class='respPic'></div></div>","null","15","Watermelon Win$","Fruit/watermelon.png","Won","0.2,0.65","12","0.2","210","43","",""
"html-keyboard-response","138","202605","0.0-11.0-3.42","63d7457dae12d98a8ebd18f6","bdp_rwlrn","Mon Mar 13 2023 13:10:17 GMT-0500 (Central Daylight Time)","464530","Untrustworthy,Trustworthy","","null","","","","feedback","","<div class='respPicDiv'><img src='img/responseButtonOffersNo0_wht.png' class='respPic'></div><div class='trialDiv'><img src='Fruit/watermelon.png'><br><font class='baseline'><strong>Watermelon Win$</strong><p><strong><font class='posOutcome'>You WON</font><p>You bet: 2</strong></font> &nbsp; &nbsp; &nbsp; &nbsp; &nbsp; &nbsp;<font class='posOutcome'>you receive: <strong>4</strong></font></div>","null","15","Watermelon Win$","Fruit/watermelon.png","Won","0.2,0.65","12","0.2","214","43","",""
"html-keyboard-response","139","202827","0.0-11.0-1.43","63d7457dae12d98a8ebd18f6","bdp_rwlrn","Mon Mar 13 2023 13:10:17 GMT-0500 (Central Daylight Time)","464530","Untrustworthy,Trustworthy","","221","","","","decision","","<div class='trialDiv'><img src='Fruit/bananas.png'><br><font class='baseline'><strong>Banana Bonanza</strong><p>Choose number of points to bet.</font><div class='respPicDiv'><img src='img/responseButtonOffersNo0L.png' class='respPic'></div></div>","2","15","Banana Bonanza","Fruit/bananas.png","Lost","0.8,0.35","13","0.8","219","44","",""
"html-keyboard-response","140","203085","0.0-11.0-2.43","63d7457dae12d98a8ebd18f6","bdp_rwlrn","Mon Mar 13 2023 13:10:17 GMT-0500 (Central Daylight Time)","464530","Untrustworthy,Trustworthy","","null","","","","decisionFB","","<div class='trialDiv'><img src='Fruit/bananas.png'><br><font class='baseline'><strong>Banana Bonanza</strong><p>Choose number of points to bet.</font><div class='respPicDiv'><img src='img/responseButtonOffersNo0L2.png' class='respPic'></div></div>","null","15","Banana Bonanza","Fruit/bananas.png","Lost","0.8,0.35","13","0.8","217","44","",""
"html-keyboard-response","141","204093","0.0-11.0-3.43","63d7457dae12d98a8ebd18f6","bdp_rwlrn","Mon Mar 13 2023 13:10:17 GMT-0500 (Central Daylight Time)","464530","Untrustworthy,Trustworthy","","null","","","","feedback","","<div class='respPicDiv'><img src='img/responseButtonOffersNo0_wht.png' class='respPic'></div><div class='trialDiv'><img src='Fruit/bananas.png'><br><font class='baseline'><strong>Banana Bonanza</strong><p><strong><font class='negOutcome'>You LOST</font><p>You bet: 2</strong></font> &nbsp; &nbsp; &nbsp; &nbsp; &nbsp; &nbsp;<font class='negOutcome'>You receive: <strong>0</strong></font></div>","null","15","Banana Bonanza","Fruit/bananas.png","Lost","0.8,0.35","13","0.8","217","44","",""
"html-keyboard-response","142","204876","0.0-11.0-1.44","63d7457dae12d98a8ebd18f6","bdp_rwlrn","Mon Mar 13 2023 13:10:17 GMT-0500 (Central Daylight Time)","464530","Untrustworthy,Trustworthy","","783","","","","decision","","<div class='trialDiv'><img src='Fruit/orange.png'><br><font class='baseline'><strong>Odds are Orange</strong><p>Choose number of points to bet.</font><div class='respPicDiv'><img src='img/responseButtonOffersNo0L.png' class='respPic'></div></div>","4","15","Odds are Orange","Fruit/orange.png","Won","0.35,0.65","10","0.35","222","45","",""
"html-keyboard-response","143","205133","0.0-11.0-2.44","63d7457dae12d98a8ebd18f6","bdp_rwlrn","Mon Mar 13 2023 13:10:17 GMT-0500 (Central Daylight Time)","464530","Untrustworthy,Trustworthy","","null","","","","decisionFB","","<div class='trialDiv'><img src='Fruit/orange.png'><br><font class='baseline'><strong>Odds are Orange</strong><p>Choose number of points to bet.</font><div class='respPicDiv'><img src='img/responseButtonOffersNo0L4.png' class='respPic'></div></div>","null","15","Odds are Orange","Fruit/orange.png","Won","0.35,0.65","10","0.35","218","45","",""
"html-keyboard-response","144","206141","0.0-11.0-3.44","63d7457dae12d98a8ebd18f6","bdp_rwlrn","Mon Mar 13 2023 13:10:17 GMT-0500 (Central Daylight Time)","464530","Untrustworthy,Trustworthy","","null","","","","feedback","","<div class='respPicDiv'><img src='img/responseButtonOffersNo0_wht.png' class='respPic'></div><div class='trialDiv'><img src='Fruit/orange.png'><br><font class='baseline'><strong>Odds are Orange</strong><p><strong><font class='posOutcome'>You WON</font><p>You bet: 4</strong></font> &nbsp; &nbsp; &nbsp; &nbsp; &nbsp; &nbsp;<font class='posOutcome'>you receive: <strong>8</strong></font></div>","null","15","Odds are Orange","Fruit/orange.png","Won","0.35,0.65","10","0.35","226","45","",""
"html-keyboard-response","145","206826","0.0-11.0-1.45","63d7457dae12d98a8ebd18f6","bdp_rwlrn","Mon Mar 13 2023 13:10:17 GMT-0500 (Central Daylight Time)","464530","Untrustworthy,Trustworthy","","684","","","","decision","","<div class='trialDiv'><img src='Fruit/watermelon.png'><br><font class='baseline'><strong>Watermelon Win$</strong><p>Choose number of points to bet.</font><div class='respPicDiv'><img src='img/responseButtonOffersNo0L.png' class='respPic'></div></div>","4","16","Watermelon Win$","Fruit/watermelon.png","Won","0.2,0.65","12","0.2","231","46","",""
"html-keyboard-response","146","207085","0.0-11.0-2.45","63d7457dae12d98a8ebd18f6","bdp_rwlrn","Mon Mar 13 2023 13:10:17 GMT-0500 (Central Daylight Time)","464530","Untrustworthy,Trustworthy","","null","","","","decisionFB","","<div class='trialDiv'><img src='Fruit/watermelon.png'><br><font class='baseline'><strong>Watermelon Win$</strong><p>Choose number of points to bet.</font><div class='respPicDiv'><img src='img/responseButtonOffersNo0L4.png' class='respPic'></div></div>","null","16","Watermelon Win$","Fruit/watermelon.png","Won","0.2,0.65","12","0.2","227","46","",""
"html-keyboard-response","147","208093","0.0-11.0-3.45","63d7457dae12d98a8ebd18f6","bdp_rwlrn","Mon Mar 13 2023 13:10:17 GMT-0500 (Central Daylight Time)","464530","Untrustworthy,Trustworthy","","null","","","","feedback","","<div class='respPicDiv'><img src='img/responseButtonOffersNo0_wht.png' class='respPic'></div><div class='trialDiv'><img src='Fruit/watermelon.png'><br><font class='baseline'><strong>Watermelon Win$</strong><p><strong><font class='posOutcome'>You WON</font><p>You bet: 4</strong></font> &nbsp; &nbsp; &nbsp; &nbsp; &nbsp; &nbsp;<font class='posOutcome'>you receive: <strong>8</strong></font></div>","null","16","Watermelon Win$","Fruit/watermelon.png","Won","0.2,0.65","12","0.2","235","46","",""
"html-keyboard-response","148","208758","0.0-11.0-1.46","63d7457dae12d98a8ebd18f6","bdp_rwlrn","Mon Mar 13 2023 13:10:17 GMT-0500 (Central Daylight Time)","464530","Untrustworthy,Trustworthy","","665","","","","decision","","<div class='trialDiv'><img src='Fruit/orange.png'><br><font class='baseline'><strong>Odds are Orange</strong><p>Choose number of points to bet.</font><div class='respPicDiv'><img src='img/responseButtonOffersNo0L.png' class='respPic'></div></div>","5","16","Odds are Orange","Fruit/orange.png","Won","0.35,0.65","10","0.35","240","47","",""
"html-keyboard-response","149","209016","0.0-11.0-2.46","63d7457dae12d98a8ebd18f6","bdp_rwlrn","Mon Mar 13 2023 13:10:17 GMT-0500 (Central Daylight Time)","464530","Untrustworthy,Trustworthy","","null","","","","decisionFB","","<div class='trialDiv'><img src='Fruit/orange.png'><br><font class='baseline'><strong>Odds are Orange</strong><p>Choose number of points to bet.</font><div class='respPicDiv'><img src='img/responseButtonOffersNo0L5.png' class='respPic'></div></div>","null","16","Odds are Orange","Fruit/orange.png","Won","0.35,0.65","10","0.35","235","47","",""
"html-keyboard-response","150","210024","0.0-11.0-3.46","63d7457dae12d98a8ebd18f6","bdp_rwlrn","Mon Mar 13 2023 13:10:17 GMT-0500 (Central Daylight Time)","464530","Untrustworthy,Trustworthy","","null","","","","feedback","","<div class='respPicDiv'><img src='img/responseButtonOffersNo0_wht.png' class='respPic'></div><div class='trialDiv'><img src='Fruit/orange.png'><br><font class='baseline'><strong>Odds are Orange</strong><p><strong><font class='posOutcome'>You WON</font><p>You bet: 5</strong></font> &nbsp; &nbsp; &nbsp; &nbsp; &nbsp; &nbsp;<font class='posOutcome'>you receive: <strong>10</strong></font></div>","null","16","Odds are Orange","Fruit/orange.png","Won","0.35,0.65","10","0.35","245","47","",""
"html-keyboard-response","151","211014","0.0-11.0-1.47","63d7457dae12d98a8ebd18f6","bdp_rwlrn","Mon Mar 13 2023 13:10:17 GMT-0500 (Central Daylight Time)","464530","Untrustworthy,Trustworthy","","990","","","","decision","","<div class='trialDiv'><img src='Fruit/bananas.png'><br><font class='baseline'><strong>Banana Bonanza</strong><p>Choose number of points to bet.</font><div class='respPicDiv'><img src='img/responseButtonOffersNo0L.png' class='respPic'></div></div>","2","16","Banana Bonanza","Fruit/bananas.png","Lost","0.8,0.35","13","0.8","250","48","",""
"html-keyboard-response","152","211272","0.0-11.0-2.47","63d7457dae12d98a8ebd18f6","bdp_rwlrn","Mon Mar 13 2023 13:10:17 GMT-0500 (Central Daylight Time)","464530","Untrustworthy,Trustworthy","","null","","","","decisionFB","","<div class='trialDiv'><img src='Fruit/bananas.png'><br><font class='baseline'><strong>Banana Bonanza</strong><p>Choose number of points to bet.</font><div class='respPicDiv'><img src='img/responseButtonOffersNo0L2.png' class='respPic'></div></div>","null","16","Banana Bonanza","Fruit/bananas.png","Lost","0.8,0.35","13","0.8","248","48","",""
"html-keyboard-response","153","212280","0.0-11.0-3.47","63d7457dae12d98a8ebd18f6","bdp_rwlrn","Mon Mar 13 2023 13:10:17 GMT-0500 (Central Daylight Time)","464530","Untrustworthy,Trustworthy","","null","","","","feedback","","<div class='respPicDiv'><img src='img/responseButtonOffersNo0_wht.png' class='respPic'></div><div class='trialDiv'><img src='Fruit/bananas.png'><br><font class='baseline'><strong>Banana Bonanza</strong><p><strong><font class='negOutcome'>You LOST</font><p>You bet: 2</strong></font> &nbsp; &nbsp; &nbsp; &nbsp; &nbsp; &nbsp;<font class='negOutcome'>You receive: <strong>0</strong></font></div>","null","16","Banana Bonanza","Fruit/bananas.png","Lost","0.8,0.35","13","0.8","248","48","",""
"html-keyboard-response","154","212792","0.0-11.0-1.48","63d7457dae12d98a8ebd18f6","bdp_rwlrn","Mon Mar 13 2023 13:10:17 GMT-0500 (Central Daylight Time)","464530","Untrustworthy,Trustworthy","","512","","","","decision","","<div class='trialDiv'><img src='Fruit/watermelon.png'><br><font class='baseline'><strong>Watermelon Win$</strong><p>Choose number of points to bet.</font><div class='respPicDiv'><img src='img/responseButtonOffersNo0L.png' class='respPic'></div></div>","1","17","Watermelon Win$","Fruit/watermelon.png","Won","0.2,0.65","12","0.2","253","49","",""
"html-keyboard-response","155","213053","0.0-11.0-2.48","63d7457dae12d98a8ebd18f6","bdp_rwlrn","Mon Mar 13 2023 13:10:17 GMT-0500 (Central Daylight Time)","464530","Untrustworthy,Trustworthy","","null","","","","decisionFB","","<div class='trialDiv'><img src='Fruit/watermelon.png'><br><font class='baseline'><strong>Watermelon Win$</strong><p>Choose number of points to bet.</font><div class='respPicDiv'><img src='img/responseButtonOffersNo0L1.png' class='respPic'></div></div>","null","17","Watermelon Win$","Fruit/watermelon.png","Won","0.2,0.65","12","0.2","252","49","",""
"html-keyboard-response","156","214061","0.0-11.0-3.48","63d7457dae12d98a8ebd18f6","bdp_rwlrn","Mon Mar 13 2023 13:10:17 GMT-0500 (Central Daylight Time)","464530","Untrustworthy,Trustworthy","","null","","","","feedback","","<div class='respPicDiv'><img src='img/responseButtonOffersNo0_wht.png' class='respPic'></div><div class='trialDiv'><img src='Fruit/watermelon.png'><br><font class='baseline'><strong>Watermelon Win$</strong><p><strong><font class='posOutcome'>You WON</font><p>You bet: 1</strong></font> &nbsp; &nbsp; &nbsp; &nbsp; &nbsp; &nbsp;<font class='posOutcome'>you receive: <strong>2</strong></font></div>","null","17","Watermelon Win$","Fruit/watermelon.png","Won","0.2,0.65","12","0.2","254","49","",""
"html-keyboard-response","157","215015","0.0-11.0-1.49","63d7457dae12d98a8ebd18f6","bdp_rwlrn","Mon Mar 13 2023 13:10:17 GMT-0500 (Central Daylight Time)","464530","Untrustworthy,Trustworthy","","953","","","","decision","","<div class='trialDiv'><img src='Fruit/orange.png'><br><font class='baseline'><strong>Odds are Orange</strong><p>Choose number of points to bet.</font><div class='respPicDiv'><img src='img/responseButtonOffersNo0L.png' class='respPic'></div></div>","1","17","Odds are Orange","Fruit/orange.png","Won","0.35,0.65","10","0.35","259","50","",""
"html-keyboard-response","158","215268","0.0-11.0-2.49","63d7457dae12d98a8ebd18f6","bdp_rwlrn","Mon Mar 13 2023 13:10:17 GMT-0500 (Central Daylight Time)","464530","Untrustworthy,Trustworthy","","null","","","","decisionFB","","<div class='trialDiv'><img src='Fruit/orange.png'><br><font class='baseline'><strong>Odds are Orange</strong><p>Choose number of points to bet.</font><div class='respPicDiv'><img src='img/responseButtonOffersNo0L1.png' class='respPic'></div></div>","null","17","Odds are Orange","Fruit/orange.png","Won","0.35,0.65","10","0.35","258","50","",""
"html-keyboard-response","159","216280","0.0-11.0-3.49","63d7457dae12d98a8ebd18f6","bdp_rwlrn","Mon Mar 13 2023 13:10:17 GMT-0500 (Central Daylight Time)","464530","Untrustworthy,Trustworthy","","null","","","","feedback","","<div class='respPicDiv'><img src='img/responseButtonOffersNo0_wht.png' class='respPic'></div><div class='trialDiv'><img src='Fruit/orange.png'><br><font class='baseline'><strong>Odds are Orange</strong><p><strong><font class='posOutcome'>You WON</font><p>You bet: 1</strong></font> &nbsp; &nbsp; &nbsp; &nbsp; &nbsp; &nbsp;<font class='posOutcome'>you receive: <strong>2</strong></font></div>","null","17","Odds are Orange","Fruit/orange.png","Won","0.35,0.65","10","0.35","260","50","",""
"html-keyboard-response","160","219756","0.0-11.0-1.50","63d7457dae12d98a8ebd18f6","bdp_rwlrn","Mon Mar 13 2023 13:10:17 GMT-0500 (Central Daylight Time)","464530","Untrustworthy,Trustworthy","","3476","","","","decision","","<div class='trialDiv'><img src='Fruit/bananas.png'><br><font class='baseline'><strong>Banana Bonanza</strong><p>Choose number of points to bet.</font><div class='respPicDiv'><img src='img/responseButtonOffersNo0L.png' class='respPic'></div></div>","3","17","Banana Bonanza","Fruit/bananas.png","Won","0.8,0.35","13","0.8","265","51","",""
"html-keyboard-response","161","220013","0.0-11.0-2.50","63d7457dae12d98a8ebd18f6","bdp_rwlrn","Mon Mar 13 2023 13:10:17 GMT-0500 (Central Daylight Time)","464530","Untrustworthy,Trustworthy","","null","","","","decisionFB","","<div class='trialDiv'><img src='Fruit/bananas.png'><br><font class='baseline'><strong>Banana Bonanza</strong><p>Choose number of points to bet.</font><div class='respPicDiv'><img src='img/responseButtonOffersNo0L3.png' class='respPic'></div></div>","null","17","Banana Bonanza","Fruit/bananas.png","Won","0.8,0.35","13","0.8","262","51","",""
