"trial_type","trial_index","time_elapsed","internal_node_id","subject_id","task","startTime","totalTime","labels","view_history","rt","event","trial","time","trialtype","success","stimulus","key_press","ltround","name","fileID","outcome","lottotype","lottoswpt","lottocurrpshare","point_total","round","faceID","face"
"pavlovia","0","4","0.0-0.0","64015b86a1764cf737326eb7","bdp_rwlrn","Wed Mar 15 2023 23:28:05 GMT-0400 (Eastern Daylight Time)","433802","Trustworthy,Untrustworthy","","","","","","","","","","","","","","","","","","","",""
"instructions","1","6124","0.0-1.0","64015b86a1764cf737326eb7","bdp_rwlrn","Wed Mar 15 2023 23:28:05 GMT-0400 (Eastern Daylight Time)","433802","Trustworthy,Untrustworthy","[{""page_index"":0,""viewing_time"":6120}]","6120","","","","","","","","","","","","","","","","","",""
"","","","","64015b86a1764cf737326eb7","bdp_rwlrn","Wed Mar 15 2023 23:28:05 GMT-0400 (Eastern Daylight Time)","433802","Trustworthy,Untrustworthy","","","fullscreenenter","2","10298","fullscreenenter","","","","","","","","","","","","","",""
"fullscreen","2","11289","0.0-2.0","64015b86a1764cf737326eb7","bdp_rwlrn","Wed Mar 15 2023 23:28:05 GMT-0400 (Eastern Daylight Time)","433802","Trustworthy,Untrustworthy","","","","","","","true","","","","","","","","","","","","",""
"instructions","3","113695","0.0-4.0","64015b86a1764cf737326eb7","bdp_rwlrn","Wed Mar 15 2023 23:28:05 GMT-0400 (Eastern Daylight Time)","433802","Trustworthy,Untrustworthy","[{""page_index"":0,""viewing_time"":19073},{""page_index"":1,""viewing_time"":24185},{""page_index"":2,""viewing_time"":13320},{""page_index"":3,""viewing_time"":10053},{""page_index"":4,""viewing_time"":28438},{""page_index"":5,""viewing_time"":7333}]","102402","","","","","","","","","","","","","","","","","",""
"html-keyboard-response","4","118391","0.0-5.0","64015b86a1764cf737326eb7","bdp_rwlrn","Wed Mar 15 2023 23:28:05 GMT-0400 (Eastern Daylight Time)","433802","Trustworthy,Untrustworthy","","4682","","","","","","<div class='header' style='text-align:left; position: absolute; top: 5%; left: 5%;'><small>Task 1 of 5</small></div><div class='instruxDiv'><p><strong>1) What is the maximum number of points you can choose to bet on a lottery?</strong></p><p>a) 0</p><p>b) 1</p><p>c) 5</p>","C","","","","","","","","","","",""
"html-keyboard-response","5","122200","0.0-6.0","64015b86a1764cf737326eb7","bdp_rwlrn","Wed Mar 15 2023 23:28:05 GMT-0400 (Eastern Daylight Time)","433802","Trustworthy,Untrustworthy","","3707","","","","","","<div class='header' style='text-align:left; position: absolute; top: 5%; left: 5%;'><small>Task 1 of 5</small></div><div class='instruxDiv'><p><strong>1) What is the maximum number of points you can choose to bet on a lottery?</strong></p><p>a) 1</p><p>b) 1</p><p style='color:#00FF00'>c) 5</p><h3 style='color:#00FF00'>Correct!</h3><h3 class='center-content'>The correct response is c).</h3><h3 class='center-content'>The maximum number of points you can choose to bet on a lottery is 5 points.</h3><p><em>Press SPACEBAR to continue</em></p></div>"," ","","","","","","","","","","",""
"html-keyboard-response","6","127465","0.0-7.0","64015b86a1764cf737326eb7","bdp_rwlrn","Wed Mar 15 2023 23:28:05 GMT-0400 (Eastern Daylight Time)","433802","Trustworthy,Untrustworthy","","5163","","","","","","<div class='header' style='text-align:left; position: absolute; top: 5%; left: 5%;'><small>Task 1 of 5</small></div><div class='instruxDiv'><p><strong>2) How many points can you win each round?</strong></p><p>a) 10 points</p><p>b) Double what you bet</p><p>c) Quadruple what you bet</p>","B","","","","","","","","","","",""
"html-keyboard-response","7","128556","0.0-8.0","64015b86a1764cf737326eb7","bdp_rwlrn","Wed Mar 15 2023 23:28:05 GMT-0400 (Eastern Daylight Time)","433802","Trustworthy,Untrustworthy","","986","","","","","","<div class='header' style='text-align:left; position: absolute; top: 5%; left: 5%;'><small>Task 1 of 5</small></div><div class='instruxDiv'><p><strong>2) How many points can you win each round?</strong></p><p>a) 10 points</p><p style='color:#00FF00'>b) Double what you bet</p><p>c) Quadruple what you bet</p><h3 style='color:#00FF00'>Correct!</h3><h3 class='center-content'>The correct response is b).</h3><h3 class='center-content'>You can win double the amount of points you bet.</h3><p><em>Press SPACEBAR to continue</em></p></div>"," ","","","","","","","","","","",""
"html-keyboard-response","8","133664","0.0-9.0","64015b86a1764cf737326eb7","bdp_rwlrn","Wed Mar 15 2023 23:28:05 GMT-0400 (Eastern Daylight Time)","433802","Trustworthy,Untrustworthy","","null","","","","","","<div class='header' style='text-align:left; position: absolute; top: 5%; left: 5%;'><small>Task 1 of 5</small></div><div class='instruxDiv'><p>Thank you for completing the quiz<p>These are the actual lotteries you will be playing in the next block:<p><div class='tc' align='center'><img class='introPic' src='Fruit/bananas.png'><br><strong>Banana Bonanza</strong></div><div class='bl' align='center'><img class='introPic' src='Fruit/pears.png'><br><strong>Pears Aplenty</strong></div><div class='br' align='center'><img class='introPic' src='Fruit/mango.png'><br><strong>Mega Mangos</strong></div></div><p>Across <strong>66 rounds</strong> you will play each lottery <strong>22 times</strong> (in random order).<p style='align:center; color:white'><font <em>Press SPACEBAR to continue</em></p>","null","","","","","","","","","","",""
"instructions","9","142148","0.0-10.0","64015b86a1764cf737326eb7","bdp_rwlrn","Wed Mar 15 2023 23:28:05 GMT-0400 (Eastern Daylight Time)","433802","Trustworthy,Untrustworthy","[{""page_index"":0,""viewing_time"":4959},{""page_index"":1,""viewing_time"":3524}]","8483","","","","","","","","","","","","","","","","","",""
"html-keyboard-response","10","145755","0.0-11.0-1.0","64015b86a1764cf737326eb7","bdp_rwlrn","Wed Mar 15 2023 23:28:05 GMT-0400 (Eastern Daylight Time)","433802","Trustworthy,Untrustworthy","","3495","","","","decision","","<div class='trialDiv'><img src='Fruit/bananas.png'><br><font class='baseline'><strong>Banana Bonanza</strong><p>Choose number of points to bet.</font><div class='respPicDiv'><img src='img/responseButtonOffersNo0L.png' class='respPic'></div></div>","3","1","Banana Bonanza","Fruit/bananas.png","Lost","0.35,0.65","11","0.35","5","1","",""
"html-keyboard-response","11","146008","0.0-11.0-2.0","64015b86a1764cf737326eb7","bdp_rwlrn","Wed Mar 15 2023 23:28:05 GMT-0400 (Eastern Daylight Time)","433802","Trustworthy,Untrustworthy","","null","","","","decisionFB","","<div class='trialDiv'><img src='Fruit/bananas.png'><br><font class='baseline'><strong>Banana Bonanza</strong><p>Choose number of points to bet.</font><div class='respPicDiv'><img src='img/responseButtonOffersNo0L3.png' class='respPic'></div></div>","null","1","Banana Bonanza","Fruit/bananas.png","Lost","0.35,0.65","11","0.35","2","1","",""
"html-keyboard-response","12","147015","0.0-11.0-3.0","64015b86a1764cf737326eb7","bdp_rwlrn","Wed Mar 15 2023 23:28:05 GMT-0400 (Eastern Daylight Time)","433802","Trustworthy,Untrustworthy","","null","","","","feedback","","<div class='respPicDiv'><img src='img/responseButtonOffersNo0_wht.png' class='respPic'></div><div class='trialDiv'><img src='Fruit/bananas.png'><br><font class='baseline'><strong>Banana Bonanza</strong><p><strong><font class='negOutcome'>You LOST</font><p>You bet: 3</strong></font> &nbsp; &nbsp; &nbsp; &nbsp; &nbsp; &nbsp;<font class='negOutcome'>You receive: <strong>0</strong></font></div>","null","1","Banana Bonanza","Fruit/bananas.png","Lost","0.35,0.65","11","0.35","2","1","",""
"html-keyboard-response","13","147849","0.0-11.0-1.1","64015b86a1764cf737326eb7","bdp_rwlrn","Wed Mar 15 2023 23:28:05 GMT-0400 (Eastern Daylight Time)","433802","Trustworthy,Untrustworthy","","833","","","","decision","","<div class='trialDiv'><img src='Fruit/pears.png'><br><font class='baseline'><strong>Pears Aplenty</strong><p>Choose number of points to bet.</font><div class='respPicDiv'><img src='img/responseButtonOffersNo0L.png' class='respPic'></div></div>","3","1","Pears Aplenty","Fruit/pears.png","Won","0.65,0.2","9","0.65","7","2","",""
"html-keyboard-response","14","148106","0.0-11.0-2.1","64015b86a1764cf737326eb7","bdp_rwlrn","Wed Mar 15 2023 23:28:05 GMT-0400 (Eastern Daylight Time)","433802","Trustworthy,Untrustworthy","","null","","","","decisionFB","","<div class='trialDiv'><img src='Fruit/pears.png'><br><font class='baseline'><strong>Pears Aplenty</strong><p>Choose number of points to bet.</font><div class='respPicDiv'><img src='img/responseButtonOffersNo0L3.png' class='respPic'></div></div>","null","1","Pears Aplenty","Fruit/pears.png","Won","0.65,0.2","9","0.65","4","2","",""
"html-keyboard-response","15","149109","0.0-11.0-3.1","64015b86a1764cf737326eb7","bdp_rwlrn","Wed Mar 15 2023 23:28:05 GMT-0400 (Eastern Daylight Time)","433802","Trustworthy,Untrustworthy","","null","","","","feedback","","<div class='respPicDiv'><img src='img/responseButtonOffersNo0_wht.png' class='respPic'></div><div class='trialDiv'><img src='Fruit/pears.png'><br><font class='baseline'><strong>Pears Aplenty</strong><p><strong><font class='posOutcome'>You WON</font><p>You bet: 3</strong></font> &nbsp; &nbsp; &nbsp; &nbsp; &nbsp; &nbsp;<font class='posOutcome'>you receive: <strong>6</strong></font></div>","null","1","Pears Aplenty","Fruit/pears.png","Won","0.65,0.2","9","0.65","10","2","",""
"html-keyboard-response","16","150589","0.0-11.0-1.2","64015b86a1764cf737326eb7","bdp_rwlrn","Wed Mar 15 2023 23:28:05 GMT-0400 (Eastern Daylight Time)","433802","Trustworthy,Untrustworthy","","1479","","","","decision","","<div class='trialDiv'><img src='Fruit/mango.png'><br><font class='baseline'><strong>Mega Mangos</strong><p>Choose number of points to bet.</font><div class='respPicDiv'><img src='img/responseButtonOffersNo0L.png' class='respPic'></div></div>","4","1","Mega Mangos","Fruit/mango.png","Lost","0.35,0.8","14","0.35","15","3","",""
"html-keyboard-response","17","150845","0.0-11.0-2.2","64015b86a1764cf737326eb7","bdp_rwlrn","Wed Mar 15 2023 23:28:05 GMT-0400 (Eastern Daylight Time)","433802","Trustworthy,Untrustworthy","","null","","","","decisionFB","","<div class='trialDiv'><img src='Fruit/mango.png'><br><font class='baseline'><strong>Mega Mangos</strong><p>Choose number of points to bet.</font><div class='respPicDiv'><img src='img/responseButtonOffersNo0L4.png' class='respPic'></div></div>","null","1","Mega Mangos","Fruit/mango.png","Lost","0.35,0.8","14","0.35","11","3","",""
"html-keyboard-response","18","151852","0.0-11.0-3.2","64015b86a1764cf737326eb7","bdp_rwlrn","Wed Mar 15 2023 23:28:05 GMT-0400 (Eastern Daylight Time)","433802","Trustworthy,Untrustworthy","","null","","","","feedback","","<div class='respPicDiv'><img src='img/responseButtonOffersNo0_wht.png' class='respPic'></div><div class='trialDiv'><img src='Fruit/mango.png'><br><font class='baseline'><strong>Mega Mangos</strong><p><strong><font class='negOutcome'>You LOST</font><p>You bet: 4</strong></font> &nbsp; &nbsp; &nbsp; &nbsp; &nbsp; &nbsp;<font class='negOutcome'>You receive: <strong>0</strong></font></div>","null","1","Mega Mangos","Fruit/mango.png","Lost","0.35,0.8","14","0.35","11","3","",""
"html-keyboard-response","19","152288","0.0-11.0-1.3","64015b86a1764cf737326eb7","bdp_rwlrn","Wed Mar 15 2023 23:28:05 GMT-0400 (Eastern Daylight Time)","433802","Trustworthy,Untrustworthy","","435","","","","decision","","<div class='trialDiv'><img src='Fruit/pears.png'><br><font class='baseline'><strong>Pears Aplenty</strong><p>Choose number of points to bet.</font><div class='respPicDiv'><img src='img/responseButtonOffersNo0L.png' class='respPic'></div></div>","4","2","Pears Aplenty","Fruit/pears.png","Won","0.65,0.2","9","0.65","16","4","",""
"html-keyboard-response","20","152541","0.0-11.0-2.3","64015b86a1764cf737326eb7","bdp_rwlrn","Wed Mar 15 2023 23:28:05 GMT-0400 (Eastern Daylight Time)","433802","Trustworthy,Untrustworthy","","null","","","","decisionFB","","<div class='trialDiv'><img src='Fruit/pears.png'><br><font class='baseline'><strong>Pears Aplenty</strong><p>Choose number of points to bet.</font><div class='respPicDiv'><img src='img/responseButtonOffersNo0L4.png' class='respPic'></div></div>","null","2","Pears Aplenty","Fruit/pears.png","Won","0.65,0.2","9","0.65","12","4","",""
"html-keyboard-response","21","153547","0.0-11.0-3.3","64015b86a1764cf737326eb7","bdp_rwlrn","Wed Mar 15 2023 23:28:05 GMT-0400 (Eastern Daylight Time)","433802","Trustworthy,Untrustworthy","","null","","","","feedback","","<div class='respPicDiv'><img src='img/responseButtonOffersNo0_wht.png' class='respPic'></div><div class='trialDiv'><img src='Fruit/pears.png'><br><font class='baseline'><strong>Pears Aplenty</strong><p><strong><font class='posOutcome'>You WON</font><p>You bet: 4</strong></font> &nbsp; &nbsp; &nbsp; &nbsp; &nbsp; &nbsp;<font class='posOutcome'>you receive: <strong>8</strong></font></div>","null","2","Pears Aplenty","Fruit/pears.png","Won","0.65,0.2","9","0.65","20","4","",""
"html-keyboard-response","22","154541","0.0-11.0-1.4","64015b86a1764cf737326eb7","bdp_rwlrn","Wed Mar 15 2023 23:28:05 GMT-0400 (Eastern Daylight Time)","433802","Trustworthy,Untrustworthy","","993","","","","decision","","<div class='trialDiv'><img src='Fruit/mango.png'><br><font class='baseline'><strong>Mega Mangos</strong><p>Choose number of points to bet.</font><div class='respPicDiv'><img src='img/responseButtonOffersNo0L.png' class='respPic'></div></div>","5","2","Mega Mangos","Fruit/mango.png","Won","0.35,0.8","14","0.35","25","5","",""
"html-keyboard-response","23","154794","0.0-11.0-2.4","64015b86a1764cf737326eb7","bdp_rwlrn","Wed Mar 15 2023 23:28:05 GMT-0400 (Eastern Daylight Time)","433802","Trustworthy,Untrustworthy","","null","","","","decisionFB","","<div class='trialDiv'><img src='Fruit/mango.png'><br><font class='baseline'><strong>Mega Mangos</strong><p>Choose number of points to bet.</font><div class='respPicDiv'><img src='img/responseButtonOffersNo0L5.png' class='respPic'></div></div>","null","2","Mega Mangos","Fruit/mango.png","Won","0.35,0.8","14","0.35","20","5","",""
"html-keyboard-response","24","155795","0.0-11.0-3.4","64015b86a1764cf737326eb7","bdp_rwlrn","Wed Mar 15 2023 23:28:05 GMT-0400 (Eastern Daylight Time)","433802","Trustworthy,Untrustworthy","","null","","","","feedback","","<div class='respPicDiv'><img src='img/responseButtonOffersNo0_wht.png' class='respPic'></div><div class='trialDiv'><img src='Fruit/mango.png'><br><font class='baseline'><strong>Mega Mangos</strong><p><strong><font class='posOutcome'>You WON</font><p>You bet: 5</strong></font> &nbsp; &nbsp; &nbsp; &nbsp; &nbsp; &nbsp;<font class='posOutcome'>you receive: <strong>10</strong></font></div>","null","2","Mega Mangos","Fruit/mango.png","Won","0.35,0.8","14","0.35","30","5","",""
"html-keyboard-response","25","156601","0.0-11.0-1.5","64015b86a1764cf737326eb7","bdp_rwlrn","Wed Mar 15 2023 23:28:05 GMT-0400 (Eastern Daylight Time)","433802","Trustworthy,Untrustworthy","","805","","","","decision","","<div class='trialDiv'><img src='Fruit/bananas.png'><br><font class='baseline'><strong>Banana Bonanza</strong><p>Choose number of points to bet.</font><div class='respPicDiv'><img src='img/responseButtonOffersNo0L.png' class='respPic'></div></div>","2","2","Banana Bonanza","Fruit/bananas.png","Lost","0.35,0.65","11","0.35","35","6","",""
"html-keyboard-response","26","156853","0.0-11.0-2.5","64015b86a1764cf737326eb7","bdp_rwlrn","Wed Mar 15 2023 23:28:05 GMT-0400 (Eastern Daylight Time)","433802","Trustworthy,Untrustworthy","","null","","","","decisionFB","","<div class='trialDiv'><img src='Fruit/bananas.png'><br><font class='baseline'><strong>Banana Bonanza</strong><p>Choose number of points to bet.</font><div class='respPicDiv'><img src='img/responseButtonOffersNo0L2.png' class='respPic'></div></div>","null","2","Banana Bonanza","Fruit/bananas.png","Lost","0.35,0.65","11","0.35","33","6","",""
"html-keyboard-response","27","157856","0.0-11.0-3.5","64015b86a1764cf737326eb7","bdp_rwlrn","Wed Mar 15 2023 23:28:05 GMT-0400 (Eastern Daylight Time)","433802","Trustworthy,Untrustworthy","","null","","","","feedback","","<div class='respPicDiv'><img src='img/responseButtonOffersNo0_wht.png' class='respPic'></div><div class='trialDiv'><img src='Fruit/bananas.png'><br><font class='baseline'><strong>Banana Bonanza</strong><p><strong><font class='negOutcome'>You LOST</font><p>You bet: 2</strong></font> &nbsp; &nbsp; &nbsp; &nbsp; &nbsp; &nbsp;<font class='negOutcome'>You receive: <strong>0</strong></font></div>","null","2","Banana Bonanza","Fruit/bananas.png","Lost","0.35,0.65","11","0.35","33","6","",""
"html-keyboard-response","28","157900","0.0-11.0-1.6","64015b86a1764cf737326eb7","bdp_rwlrn","Wed Mar 15 2023 23:28:05 GMT-0400 (Eastern Daylight Time)","433802","Trustworthy,Untrustworthy","","43","","","","decision","","<div class='trialDiv'><img src='Fruit/pears.png'><br><font class='baseline'><strong>Pears Aplenty</strong><p>Choose number of points to bet.</font><div class='respPicDiv'><img src='img/responseButtonOffersNo0L.png' class='respPic'></div></div>","5","3","Pears Aplenty","Fruit/pears.png","Won","0.65,0.2","9","0.65","38","7","",""
"html-keyboard-response","29","158155","0.0-11.0-2.6","64015b86a1764cf737326eb7","bdp_rwlrn","Wed Mar 15 2023 23:28:05 GMT-0400 (Eastern Daylight Time)","433802","Trustworthy,Untrustworthy","","null","","","","decisionFB","","<div class='trialDiv'><img src='Fruit/pears.png'><br><font class='baseline'><strong>Pears Aplenty</strong><p>Choose number of points to bet.</font><div class='respPicDiv'><img src='img/responseButtonOffersNo0L5.png' class='respPic'></div></div>","null","3","Pears Aplenty","Fruit/pears.png","Won","0.65,0.2","9","0.65","33","7","",""
"html-keyboard-response","30","159162","0.0-11.0-3.6","64015b86a1764cf737326eb7","bdp_rwlrn","Wed Mar 15 2023 23:28:05 GMT-0400 (Eastern Daylight Time)","433802","Trustworthy,Untrustworthy","","null","","","","feedback","","<div class='respPicDiv'><img src='img/responseButtonOffersNo0_wht.png' class='respPic'></div><div class='trialDiv'><img src='Fruit/pears.png'><br><font class='baseline'><strong>Pears Aplenty</strong><p><strong><font class='posOutcome'>You WON</font><p>You bet: 5</strong></font> &nbsp; &nbsp; &nbsp; &nbsp; &nbsp; &nbsp;<font class='posOutcome'>you receive: <strong>10</strong></font></div>","null","3","Pears Aplenty","Fruit/pears.png","Won","0.65,0.2","9","0.65","43","7","",""
"html-keyboard-response","31","160227","0.0-11.0-1.7","64015b86a1764cf737326eb7","bdp_rwlrn","Wed Mar 15 2023 23:28:05 GMT-0400 (Eastern Daylight Time)","433802","Trustworthy,Untrustworthy","","1064","","","","decision","","<div class='trialDiv'><img src='Fruit/bananas.png'><br><font class='baseline'><strong>Banana Bonanza</strong><p>Choose number of points to bet.</font><div class='respPicDiv'><img src='img/responseButtonOffersNo0L.png' class='respPic'></div></div>","2","3","Banana Bonanza","Fruit/bananas.png","Won","0.35,0.65","11","0.35","48","8","",""
"html-keyboard-response","32","160481","0.0-11.0-2.7","64015b86a1764cf737326eb7","bdp_rwlrn","Wed Mar 15 2023 23:28:05 GMT-0400 (Eastern Daylight Time)","433802","Trustworthy,Untrustworthy","","null","","","","decisionFB","","<div class='trialDiv'><img src='Fruit/bananas.png'><br><font class='baseline'><strong>Banana Bonanza</strong><p>Choose number of points to bet.</font><div class='respPicDiv'><img src='img/responseButtonOffersNo0L2.png' class='respPic'></div></div>","null","3","Banana Bonanza","Fruit/bananas.png","Won","0.35,0.65","11","0.35","46","8","",""
"html-keyboard-response","33","161488","0.0-11.0-3.7","64015b86a1764cf737326eb7","bdp_rwlrn","Wed Mar 15 2023 23:28:05 GMT-0400 (Eastern Daylight Time)","433802","Trustworthy,Untrustworthy","","null","","","","feedback","","<div class='respPicDiv'><img src='img/responseButtonOffersNo0_wht.png' class='respPic'></div><div class='trialDiv'><img src='Fruit/bananas.png'><br><font class='baseline'><strong>Banana Bonanza</strong><p><strong><font class='posOutcome'>You WON</font><p>You bet: 2</strong></font> &nbsp; &nbsp; &nbsp; &nbsp; &nbsp; &nbsp;<font class='posOutcome'>you receive: <strong>4</strong></font></div>","null","3","Banana Bonanza","Fruit/bananas.png","Won","0.35,0.65","11","0.35","50","8","",""
"html-keyboard-response","34","162329","0.0-11.0-1.8","64015b86a1764cf737326eb7","bdp_rwlrn","Wed Mar 15 2023 23:28:05 GMT-0400 (Eastern Daylight Time)","433802","Trustworthy,Untrustworthy","","839","","","","decision","","<div class='trialDiv'><img src='Fruit/mango.png'><br><font class='baseline'><strong>Mega Mangos</strong><p>Choose number of points to bet.</font><div class='respPicDiv'><img src='img/responseButtonOffersNo0L.png' class='respPic'></div></div>","4","3","Mega Mangos","Fruit/mango.png","Lost","0.35,0.8","14","0.35","55","9","",""
"html-keyboard-response","35","162581","0.0-11.0-2.8","64015b86a1764cf737326eb7","bdp_rwlrn","Wed Mar 15 2023 23:28:05 GMT-0400 (Eastern Daylight Time)","433802","Trustworthy,Untrustworthy","","null","","","","decisionFB","","<div class='trialDiv'><img src='Fruit/mango.png'><br><font class='baseline'><strong>Mega Mangos</strong><p>Choose number of points to bet.</font><div class='respPicDiv'><img src='img/responseButtonOffersNo0L4.png' class='respPic'></div></div>","null","3","Mega Mangos","Fruit/mango.png","Lost","0.35,0.8","14","0.35","51","9","",""
"html-keyboard-response","36","163588","0.0-11.0-3.8","64015b86a1764cf737326eb7","bdp_rwlrn","Wed Mar 15 2023 23:28:05 GMT-0400 (Eastern Daylight Time)","433802","Trustworthy,Untrustworthy","","null","","","","feedback","","<div class='respPicDiv'><img src='img/responseButtonOffersNo0_wht.png' class='respPic'></div><div class='trialDiv'><img src='Fruit/mango.png'><br><font class='baseline'><strong>Mega Mangos</strong><p><strong><font class='negOutcome'>You LOST</font><p>You bet: 4</strong></font> &nbsp; &nbsp; &nbsp; &nbsp; &nbsp; &nbsp;<font class='negOutcome'>You receive: <strong>0</strong></font></div>","null","3","Mega Mangos","Fruit/mango.png","Lost","0.35,0.8","14","0.35","51","9","",""
"html-keyboard-response","37","163867","0.0-11.0-1.9","64015b86a1764cf737326eb7","bdp_rwlrn","Wed Mar 15 2023 23:28:05 GMT-0400 (Eastern Daylight Time)","433802","Trustworthy,Untrustworthy","","278","","","","decision","","<div class='trialDiv'><img src='Fruit/bananas.png'><br><font class='baseline'><strong>Banana Bonanza</strong><p>Choose number of points to bet.</font><div class='respPicDiv'><img src='img/responseButtonOffersNo0L.png' class='respPic'></div></div>","4","4","Banana Bonanza","Fruit/bananas.png","Lost","0.35,0.65","11","0.35","56","10","",""
"html-keyboard-response","38","164123","0.0-11.0-2.9","64015b86a1764cf737326eb7","bdp_rwlrn","Wed Mar 15 2023 23:28:05 GMT-0400 (Eastern Daylight Time)","433802","Trustworthy,Untrustworthy","","null","","","","decisionFB","","<div class='trialDiv'><img src='Fruit/bananas.png'><br><font class='baseline'><strong>Banana Bonanza</strong><p>Choose number of points to bet.</font><div class='respPicDiv'><img src='img/responseButtonOffersNo0L4.png' class='respPic'></div></div>","null","4","Banana Bonanza","Fruit/bananas.png","Lost","0.35,0.65","11","0.35","52","10","",""
"html-keyboard-response","39","165130","0.0-11.0-3.9","64015b86a1764cf737326eb7","bdp_rwlrn","Wed Mar 15 2023 23:28:05 GMT-0400 (Eastern Daylight Time)","433802","Trustworthy,Untrustworthy","","null","","","","feedback","","<div class='respPicDiv'><img src='img/responseButtonOffersNo0_wht.png' class='respPic'></div><div class='trialDiv'><img src='Fruit/bananas.png'><br><font class='baseline'><strong>Banana Bonanza</strong><p><strong><font class='negOutcome'>You LOST</font><p>You bet: 4</strong></font> &nbsp; &nbsp; &nbsp; &nbsp; &nbsp; &nbsp;<font class='negOutcome'>You receive: <strong>0</strong></font></div>","null","4","Banana Bonanza","Fruit/bananas.png","Lost","0.35,0.65","11","0.35","52","10","",""
"html-keyboard-response","40","165668","0.0-11.0-1.10","64015b86a1764cf737326eb7","bdp_rwlrn","Wed Mar 15 2023 23:28:05 GMT-0400 (Eastern Daylight Time)","433802","Trustworthy,Untrustworthy","","537","","","","decision","","<div class='trialDiv'><img src='Fruit/pears.png'><br><font class='baseline'><strong>Pears Aplenty</strong><p>Choose number of points to bet.</font><div class='respPicDiv'><img src='img/responseButtonOffersNo0L.png' class='respPic'></div></div>","4","4","Pears Aplenty","Fruit/pears.png","Lost","0.65,0.2","9","0.65","57","11","",""
"html-keyboard-response","41","165920","0.0-11.0-2.10","64015b86a1764cf737326eb7","bdp_rwlrn","Wed Mar 15 2023 23:28:05 GMT-0400 (Eastern Daylight Time)","433802","Trustworthy,Untrustworthy","","null","","","","decisionFB","","<div class='trialDiv'><img src='Fruit/pears.png'><br><font class='baseline'><strong>Pears Aplenty</strong><p>Choose number of points to bet.</font><div class='respPicDiv'><img src='img/responseButtonOffersNo0L4.png' class='respPic'></div></div>","null","4","Pears Aplenty","Fruit/pears.png","Lost","0.65,0.2","9","0.65","53","11","",""
"html-keyboard-response","42","166926","0.0-11.0-3.10","64015b86a1764cf737326eb7","bdp_rwlrn","Wed Mar 15 2023 23:28:05 GMT-0400 (Eastern Daylight Time)","433802","Trustworthy,Untrustworthy","","null","","","","feedback","","<div class='respPicDiv'><img src='img/responseButtonOffersNo0_wht.png' class='respPic'></div><div class='trialDiv'><img src='Fruit/pears.png'><br><font class='baseline'><strong>Pears Aplenty</strong><p><strong><font class='negOutcome'>You LOST</font><p>You bet: 4</strong></font> &nbsp; &nbsp; &nbsp; &nbsp; &nbsp; &nbsp;<font class='negOutcome'>You receive: <strong>0</strong></font></div>","null","4","Pears Aplenty","Fruit/pears.png","Lost","0.65,0.2","9","0.65","53","11","",""
"html-keyboard-response","43","167234","0.0-11.0-1.11","64015b86a1764cf737326eb7","bdp_rwlrn","Wed Mar 15 2023 23:28:05 GMT-0400 (Eastern Daylight Time)","433802","Trustworthy,Untrustworthy","","307","","","","decision","","<div class='trialDiv'><img src='Fruit/mango.png'><br><font class='baseline'><strong>Mega Mangos</strong><p>Choose number of points to bet.</font><div class='respPicDiv'><img src='img/responseButtonOffersNo0L.png' class='respPic'></div></div>","4","4","Mega Mangos","Fruit/mango.png","Won","0.35,0.8","14","0.35","58","12","",""
"html-keyboard-response","44","167485","0.0-11.0-2.11","64015b86a1764cf737326eb7","bdp_rwlrn","Wed Mar 15 2023 23:28:05 GMT-0400 (Eastern Daylight Time)","433802","Trustworthy,Untrustworthy","","null","","","","decisionFB","","<div class='trialDiv'><img src='Fruit/mango.png'><br><font class='baseline'><strong>Mega Mangos</strong><p>Choose number of points to bet.</font><div class='respPicDiv'><img src='img/responseButtonOffersNo0L4.png' class='respPic'></div></div>","null","4","Mega Mangos","Fruit/mango.png","Won","0.35,0.8","14","0.35","54","12","",""
"html-keyboard-response","45","168492","0.0-11.0-3.11","64015b86a1764cf737326eb7","bdp_rwlrn","Wed Mar 15 2023 23:28:05 GMT-0400 (Eastern Daylight Time)","433802","Trustworthy,Untrustworthy","","null","","","","feedback","","<div class='respPicDiv'><img src='img/responseButtonOffersNo0_wht.png' class='respPic'></div><div class='trialDiv'><img src='Fruit/mango.png'><br><font class='baseline'><strong>Mega Mangos</strong><p><strong><font class='posOutcome'>You WON</font><p>You bet: 4</strong></font> &nbsp; &nbsp; &nbsp; &nbsp; &nbsp; &nbsp;<font class='posOutcome'>you receive: <strong>8</strong></font></div>","null","4","Mega Mangos","Fruit/mango.png","Won","0.35,0.8","14","0.35","62","12","",""
"html-keyboard-response","46","169664","0.0-11.0-1.12","64015b86a1764cf737326eb7","bdp_rwlrn","Wed Mar 15 2023 23:28:05 GMT-0400 (Eastern Daylight Time)","433802","Trustworthy,Untrustworthy","","1171","","","","decision","","<div class='trialDiv'><img src='Fruit/bananas.png'><br><font class='baseline'><strong>Banana Bonanza</strong><p>Choose number of points to bet.</font><div class='respPicDiv'><img src='img/responseButtonOffersNo0L.png' class='respPic'></div></div>","5","5","Banana Bonanza","Fruit/bananas.png","Lost","0.35,0.65","11","0.35","67","13","",""
"html-keyboard-response","47","169916","0.0-11.0-2.12","64015b86a1764cf737326eb7","bdp_rwlrn","Wed Mar 15 2023 23:28:05 GMT-0400 (Eastern Daylight Time)","433802","Trustworthy,Untrustworthy","","null","","","","decisionFB","","<div class='trialDiv'><img src='Fruit/bananas.png'><br><font class='baseline'><strong>Banana Bonanza</strong><p>Choose number of points to bet.</font><div class='respPicDiv'><img src='img/responseButtonOffersNo0L5.png' class='respPic'></div></div>","null","5","Banana Bonanza","Fruit/bananas.png","Lost","0.35,0.65","11","0.35","62","13","",""
"html-keyboard-response","48","170918","0.0-11.0-3.12","64015b86a1764cf737326eb7","bdp_rwlrn","Wed Mar 15 2023 23:28:05 GMT-0400 (Eastern Daylight Time)","433802","Trustworthy,Untrustworthy","","null","","","","feedback","","<div class='respPicDiv'><img src='img/responseButtonOffersNo0_wht.png' class='respPic'></div><div class='trialDiv'><img src='Fruit/bananas.png'><br><font class='baseline'><strong>Banana Bonanza</strong><p><strong><font class='negOutcome'>You LOST</font><p>You bet: 5</strong></font> &nbsp; &nbsp; &nbsp; &nbsp; &nbsp; &nbsp;<font class='negOutcome'>You receive: <strong>0</strong></font></div>","null","5","Banana Bonanza","Fruit/bananas.png","Lost","0.35,0.65","11","0.35","62","13","",""
"html-keyboard-response","49","171536","0.0-11.0-1.13","64015b86a1764cf737326eb7","bdp_rwlrn","Wed Mar 15 2023 23:28:05 GMT-0400 (Eastern Daylight Time)","433802","Trustworthy,Untrustworthy","","617","","","","decision","","<div class='trialDiv'><img src='Fruit/mango.png'><br><font class='baseline'><strong>Mega Mangos</strong><p>Choose number of points to bet.</font><div class='respPicDiv'><img src='img/responseButtonOffersNo0L.png' class='respPic'></div></div>","3","5","Mega Mangos","Fruit/mango.png","Lost","0.35,0.8","14","0.35","67","14","",""
"html-keyboard-response","50","171793","0.0-11.0-2.13","64015b86a1764cf737326eb7","bdp_rwlrn","Wed Mar 15 2023 23:28:05 GMT-0400 (Eastern Daylight Time)","433802","Trustworthy,Untrustworthy","","null","","","","decisionFB","","<div class='trialDiv'><img src='Fruit/mango.png'><br><font class='baseline'><strong>Mega Mangos</strong><p>Choose number of points to bet.</font><div class='respPicDiv'><img src='img/responseButtonOffersNo0L3.png' class='respPic'></div></div>","null","5","Mega Mangos","Fruit/mango.png","Lost","0.35,0.8","14","0.35","64","14","",""
"html-keyboard-response","51","172800","0.0-11.0-3.13","64015b86a1764cf737326eb7","bdp_rwlrn","Wed Mar 15 2023 23:28:05 GMT-0400 (Eastern Daylight Time)","433802","Trustworthy,Untrustworthy","","null","","","","feedback","","<div class='respPicDiv'><img src='img/responseButtonOffersNo0_wht.png' class='respPic'></div><div class='trialDiv'><img src='Fruit/mango.png'><br><font class='baseline'><strong>Mega Mangos</strong><p><strong><font class='negOutcome'>You LOST</font><p>You bet: 3</strong></font> &nbsp; &nbsp; &nbsp; &nbsp; &nbsp; &nbsp;<font class='negOutcome'>You receive: <strong>0</strong></font></div>","null","5","Mega Mangos","Fruit/mango.png","Lost","0.35,0.8","14","0.35","64","14","",""
"html-keyboard-response","52","173145","0.0-11.0-1.14","64015b86a1764cf737326eb7","bdp_rwlrn","Wed Mar 15 2023 23:28:05 GMT-0400 (Eastern Daylight Time)","433802","Trustworthy,Untrustworthy","","344","","","","decision","","<div class='trialDiv'><img src='Fruit/pears.png'><br><font class='baseline'><strong>Pears Aplenty</strong><p>Choose number of points to bet.</font><div class='respPicDiv'><img src='img/responseButtonOffersNo0L.png' class='respPic'></div></div>","3","5","Pears Aplenty","Fruit/pears.png","Lost","0.65,0.2","9","0.65","69","15","",""
"html-keyboard-response","53","173397","0.0-11.0-2.14","64015b86a1764cf737326eb7","bdp_rwlrn","Wed Mar 15 2023 23:28:05 GMT-0400 (Eastern Daylight Time)","433802","Trustworthy,Untrustworthy","","null","","","","decisionFB","","<div class='trialDiv'><img src='Fruit/pears.png'><br><font class='baseline'><strong>Pears Aplenty</strong><p>Choose number of points to bet.</font><div class='respPicDiv'><img src='img/responseButtonOffersNo0L3.png' class='respPic'></div></div>","null","5","Pears Aplenty","Fruit/pears.png","Lost","0.65,0.2","9","0.65","66","15","",""
"html-keyboard-response","54","174401","0.0-11.0-3.14","64015b86a1764cf737326eb7","bdp_rwlrn","Wed Mar 15 2023 23:28:05 GMT-0400 (Eastern Daylight Time)","433802","Trustworthy,Untrustworthy","","null","","","","feedback","","<div class='respPicDiv'><img src='img/responseButtonOffersNo0_wht.png' class='respPic'></div><div class='trialDiv'><img src='Fruit/pears.png'><br><font class='baseline'><strong>Pears Aplenty</strong><p><strong><font class='negOutcome'>You LOST</font><p>You bet: 3</strong></font> &nbsp; &nbsp; &nbsp; &nbsp; &nbsp; &nbsp;<font class='negOutcome'>You receive: <strong>0</strong></font></div>","null","5","Pears Aplenty","Fruit/pears.png","Lost","0.65,0.2","9","0.65","66","15","",""
"html-keyboard-response","55","174652","0.0-11.0-1.15","64015b86a1764cf737326eb7","bdp_rwlrn","Wed Mar 15 2023 23:28:05 GMT-0400 (Eastern Daylight Time)","433802","Trustworthy,Untrustworthy","","250","","","","decision","","<div class='trialDiv'><img src='Fruit/mango.png'><br><font class='baseline'><strong>Mega Mangos</strong><p>Choose number of points to bet.</font><div class='respPicDiv'><img src='img/responseButtonOffersNo0L.png' class='respPic'></div></div>","3","6","Mega Mangos","Fruit/mango.png","Lost","0.35,0.8","14","0.35","71","16","",""
"html-keyboard-response","56","174907","0.0-11.0-2.15","64015b86a1764cf737326eb7","bdp_rwlrn","Wed Mar 15 2023 23:28:05 GMT-0400 (Eastern Daylight Time)","433802","Trustworthy,Untrustworthy","","null","","","","decisionFB","","<div class='trialDiv'><img src='Fruit/mango.png'><br><font class='baseline'><strong>Mega Mangos</strong><p>Choose number of points to bet.</font><div class='respPicDiv'><img src='img/responseButtonOffersNo0L3.png' class='respPic'></div></div>","null","6","Mega Mangos","Fruit/mango.png","Lost","0.35,0.8","14","0.35","68","16","",""
"html-keyboard-response","57","175913","0.0-11.0-3.15","64015b86a1764cf737326eb7","bdp_rwlrn","Wed Mar 15 2023 23:28:05 GMT-0400 (Eastern Daylight Time)","433802","Trustworthy,Untrustworthy","","null","","","","feedback","","<div class='respPicDiv'><img src='img/responseButtonOffersNo0_wht.png' class='respPic'></div><div class='trialDiv'><img src='Fruit/mango.png'><br><font class='baseline'><strong>Mega Mangos</strong><p><strong><font class='negOutcome'>You LOST</font><p>You bet: 3</strong></font> &nbsp; &nbsp; &nbsp; &nbsp; &nbsp; &nbsp;<font class='negOutcome'>You receive: <strong>0</strong></font></div>","null","6","Mega Mangos","Fruit/mango.png","Lost","0.35,0.8","14","0.35","68","16","",""
"html-keyboard-response","58","176511","0.0-11.0-1.16","64015b86a1764cf737326eb7","bdp_rwlrn","Wed Mar 15 2023 23:28:05 GMT-0400 (Eastern Daylight Time)","433802","Trustworthy,Untrustworthy","","597","","","","decision","","<div class='trialDiv'><img src='Fruit/pears.png'><br><font class='baseline'><strong>Pears Aplenty</strong><p>Choose number of points to bet.</font><div class='respPicDiv'><img src='img/responseButtonOffersNo0L.png' class='respPic'></div></div>","3","6","Pears Aplenty","Fruit/pears.png","Lost","0.65,0.2","9","0.65","73","17","",""
"html-keyboard-response","59","176764","0.0-11.0-2.16","64015b86a1764cf737326eb7","bdp_rwlrn","Wed Mar 15 2023 23:28:05 GMT-0400 (Eastern Daylight Time)","433802","Trustworthy,Untrustworthy","","null","","","","decisionFB","","<div class='trialDiv'><img src='Fruit/pears.png'><br><font class='baseline'><strong>Pears Aplenty</strong><p>Choose number of points to bet.</font><div class='respPicDiv'><img src='img/responseButtonOffersNo0L3.png' class='respPic'></div></div>","null","6","Pears Aplenty","Fruit/pears.png","Lost","0.65,0.2","9","0.65","70","17","",""
"html-keyboard-response","60","177770","0.0-11.0-3.16","64015b86a1764cf737326eb7","bdp_rwlrn","Wed Mar 15 2023 23:28:05 GMT-0400 (Eastern Daylight Time)","433802","Trustworthy,Untrustworthy","","null","","","","feedback","","<div class='respPicDiv'><img src='img/responseButtonOffersNo0_wht.png' class='respPic'></div><div class='trialDiv'><img src='Fruit/pears.png'><br><font class='baseline'><strong>Pears Aplenty</strong><p><strong><font class='negOutcome'>You LOST</font><p>You bet: 3</strong></font> &nbsp; &nbsp; &nbsp; &nbsp; &nbsp; &nbsp;<font class='negOutcome'>You receive: <strong>0</strong></font></div>","null","6","Pears Aplenty","Fruit/pears.png","Lost","0.65,0.2","9","0.65","70","17","",""
"html-keyboard-response","61","178102","0.0-11.0-1.17","64015b86a1764cf737326eb7","bdp_rwlrn","Wed Mar 15 2023 23:28:05 GMT-0400 (Eastern Daylight Time)","433802","Trustworthy,Untrustworthy","","331","","","","decision","","<div class='trialDiv'><img src='Fruit/bananas.png'><br><font class='baseline'><strong>Banana Bonanza</strong><p>Choose number of points to bet.</font><div class='respPicDiv'><img src='img/responseButtonOffersNo0L.png' class='respPic'></div></div>","3","6","Banana Bonanza","Fruit/bananas.png","Lost","0.35,0.65","11","0.35","75","18","",""
"html-keyboard-response","62","178357","0.0-11.0-2.17","64015b86a1764cf737326eb7","bdp_rwlrn","Wed Mar 15 2023 23:28:05 GMT-0400 (Eastern Daylight Time)","433802","Trustworthy,Untrustworthy","","null","","","","decisionFB","","<div class='trialDiv'><img src='Fruit/bananas.png'><br><font class='baseline'><strong>Banana Bonanza</strong><p>Choose number of points to bet.</font><div class='respPicDiv'><img src='img/responseButtonOffersNo0L3.png' class='respPic'></div></div>","null","6","Banana Bonanza","Fruit/bananas.png","Lost","0.35,0.65","11","0.35","72","18","",""
"html-keyboard-response","63","179360","0.0-11.0-3.17","64015b86a1764cf737326eb7","bdp_rwlrn","Wed Mar 15 2023 23:28:05 GMT-0400 (Eastern Daylight Time)","433802","Trustworthy,Untrustworthy","","null","","","","feedback","","<div class='respPicDiv'><img src='img/responseButtonOffersNo0_wht.png' class='respPic'></div><div class='trialDiv'><img src='Fruit/bananas.png'><br><font class='baseline'><strong>Banana Bonanza</strong><p><strong><font class='negOutcome'>You LOST</font><p>You bet: 3</strong></font> &nbsp; &nbsp; &nbsp; &nbsp; &nbsp; &nbsp;<font class='negOutcome'>You receive: <strong>0</strong></font></div>","null","6","Banana Bonanza","Fruit/bananas.png","Lost","0.35,0.65","11","0.35","72","18","",""
"html-keyboard-response","64","179670","0.0-11.0-1.18","64015b86a1764cf737326eb7","bdp_rwlrn","Wed Mar 15 2023 23:28:05 GMT-0400 (Eastern Daylight Time)","433802","Trustworthy,Untrustworthy","","309","","","","decision","","<div class='trialDiv'><img src='Fruit/mango.png'><br><font class='baseline'><strong>Mega Mangos</strong><p>Choose number of points to bet.</font><div class='respPicDiv'><img src='img/responseButtonOffersNo0L.png' class='respPic'></div></div>","3","7","Mega Mangos","Fruit/mango.png","Won","0.35,0.8","14","0.35","77","19","",""
"html-keyboard-response","65","179927","0.0-11.0-2.18","64015b86a1764cf737326eb7","bdp_rwlrn","Wed Mar 15 2023 23:28:05 GMT-0400 (Eastern Daylight Time)","433802","Trustworthy,Untrustworthy","","null","","","","decisionFB","","<div class='trialDiv'><img src='Fruit/mango.png'><br><font class='baseline'><strong>Mega Mangos</strong><p>Choose number of points to bet.</font><div class='respPicDiv'><img src='img/responseButtonOffersNo0L3.png' class='respPic'></div></div>","null","7","Mega Mangos","Fruit/mango.png","Won","0.35,0.8","14","0.35","74","19","",""
"html-keyboard-response","66","180930","0.0-11.0-3.18","64015b86a1764cf737326eb7","bdp_rwlrn","Wed Mar 15 2023 23:28:05 GMT-0400 (Eastern Daylight Time)","433802","Trustworthy,Untrustworthy","","null","","","","feedback","","<div class='respPicDiv'><img src='img/responseButtonOffersNo0_wht.png' class='respPic'></div><div class='trialDiv'><img src='Fruit/mango.png'><br><font class='baseline'><strong>Mega Mangos</strong><p><strong><font class='posOutcome'>You WON</font><p>You bet: 3</strong></font> &nbsp; &nbsp; &nbsp; &nbsp; &nbsp; &nbsp;<font class='posOutcome'>you receive: <strong>6</strong></font></div>","null","7","Mega Mangos","Fruit/mango.png","Won","0.35,0.8","14","0.35","80","19","",""
"html-keyboard-response","67","182099","0.0-11.0-1.19","64015b86a1764cf737326eb7","bdp_rwlrn","Wed Mar 15 2023 23:28:05 GMT-0400 (Eastern Daylight Time)","433802","Trustworthy,Untrustworthy","","1168","","","","decision","","<div class='trialDiv'><img src='Fruit/bananas.png'><br><font class='baseline'><strong>Banana Bonanza</strong><p>Choose number of points to bet.</font><div class='respPicDiv'><img src='img/responseButtonOffersNo0L.png' class='respPic'></div></div>","5","7","Banana Bonanza","Fruit/bananas.png","Lost","0.35,0.65","11","0.35","85","20","",""
"html-keyboard-response","68","182353","0.0-11.0-2.19","64015b86a1764cf737326eb7","bdp_rwlrn","Wed Mar 15 2023 23:28:05 GMT-0400 (Eastern Daylight Time)","433802","Trustworthy,Untrustworthy","","null","","","","decisionFB","","<div class='trialDiv'><img src='Fruit/bananas.png'><br><font class='baseline'><strong>Banana Bonanza</strong><p>Choose number of points to bet.</font><div class='respPicDiv'><img src='img/responseButtonOffersNo0L5.png' class='respPic'></div></div>","null","7","Banana Bonanza","Fruit/bananas.png","Lost","0.35,0.65","11","0.35","80","20","",""
"html-keyboard-response","69","183360","0.0-11.0-3.19","64015b86a1764cf737326eb7","bdp_rwlrn","Wed Mar 15 2023 23:28:05 GMT-0400 (Eastern Daylight Time)","433802","Trustworthy,Untrustworthy","","null","","","","feedback","","<div class='respPicDiv'><img src='img/responseButtonOffersNo0_wht.png' class='respPic'></div><div class='trialDiv'><img src='Fruit/bananas.png'><br><font class='baseline'><strong>Banana Bonanza</strong><p><strong><font class='negOutcome'>You LOST</font><p>You bet: 5</strong></font> &nbsp; &nbsp; &nbsp; &nbsp; &nbsp; &nbsp;<font class='negOutcome'>You receive: <strong>0</strong></font></div>","null","7","Banana Bonanza","Fruit/bananas.png","Lost","0.35,0.65","11","0.35","80","20","",""
"html-keyboard-response","70","183747","0.0-11.0-1.20","64015b86a1764cf737326eb7","bdp_rwlrn","Wed Mar 15 2023 23:28:05 GMT-0400 (Eastern Daylight Time)","433802","Trustworthy,Untrustworthy","","386","","","","decision","","<div class='trialDiv'><img src='Fruit/pears.png'><br><font class='baseline'><strong>Pears Aplenty</strong><p>Choose number of points to bet.</font><div class='respPicDiv'><img src='img/responseButtonOffersNo0L.png' class='respPic'></div></div>","4","7","Pears Aplenty","Fruit/pears.png","Won","0.65,0.2","9","0.65","85","21","",""
"html-keyboard-response","71","184002","0.0-11.0-2.20","64015b86a1764cf737326eb7","bdp_rwlrn","Wed Mar 15 2023 23:28:05 GMT-0400 (Eastern Daylight Time)","433802","Trustworthy,Untrustworthy","","null","","","","decisionFB","","<div class='trialDiv'><img src='Fruit/pears.png'><br><font class='baseline'><strong>Pears Aplenty</strong><p>Choose number of points to bet.</font><div class='respPicDiv'><img src='img/responseButtonOffersNo0L4.png' class='respPic'></div></div>","null","7","Pears Aplenty","Fruit/pears.png","Won","0.65,0.2","9","0.65","81","21","",""
"html-keyboard-response","72","185008","0.0-11.0-3.20","64015b86a1764cf737326eb7","bdp_rwlrn","Wed Mar 15 2023 23:28:05 GMT-0400 (Eastern Daylight Time)","433802","Trustworthy,Untrustworthy","","null","","","","feedback","","<div class='respPicDiv'><img src='img/responseButtonOffersNo0_wht.png' class='respPic'></div><div class='trialDiv'><img src='Fruit/pears.png'><br><font class='baseline'><strong>Pears Aplenty</strong><p><strong><font class='posOutcome'>You WON</font><p>You bet: 4</strong></font> &nbsp; &nbsp; &nbsp; &nbsp; &nbsp; &nbsp;<font class='posOutcome'>you receive: <strong>8</strong></font></div>","null","7","Pears Aplenty","Fruit/pears.png","Won","0.65,0.2","9","0.65","89","21","",""
"html-keyboard-response","73","185437","0.0-11.0-1.21","64015b86a1764cf737326eb7","bdp_rwlrn","Wed Mar 15 2023 23:28:05 GMT-0400 (Eastern Daylight Time)","433802","Trustworthy,Untrustworthy","","428","","","","decision","","<div class='trialDiv'><img src='Fruit/bananas.png'><br><font class='baseline'><strong>Banana Bonanza</strong><p>Choose number of points to bet.</font><div class='respPicDiv'><img src='img/responseButtonOffersNo0L.png' class='respPic'></div></div>","1","8","Banana Bonanza","Fruit/bananas.png","Lost","0.35,0.65","11","0.35","94","22","",""
"html-keyboard-response","74","185688","0.0-11.0-2.21","64015b86a1764cf737326eb7","bdp_rwlrn","Wed Mar 15 2023 23:28:05 GMT-0400 (Eastern Daylight Time)","433802","Trustworthy,Untrustworthy","","null","","","","decisionFB","","<div class='trialDiv'><img src='Fruit/bananas.png'><br><font class='baseline'><strong>Banana Bonanza</strong><p>Choose number of points to bet.</font><div class='respPicDiv'><img src='img/responseButtonOffersNo0L1.png' class='respPic'></div></div>","null","8","Banana Bonanza","Fruit/bananas.png","Lost","0.35,0.65","11","0.35","93","22","",""
"html-keyboard-response","75","186694","0.0-11.0-3.21","64015b86a1764cf737326eb7","bdp_rwlrn","Wed Mar 15 2023 23:28:05 GMT-0400 (Eastern Daylight Time)","433802","Trustworthy,Untrustworthy","","null","","","","feedback","","<div class='respPicDiv'><img src='img/responseButtonOffersNo0_wht.png' class='respPic'></div><div class='trialDiv'><img src='Fruit/bananas.png'><br><font class='baseline'><strong>Banana Bonanza</strong><p><strong><font class='negOutcome'>You LOST</font><p>You bet: 1</strong></font> &nbsp; &nbsp; &nbsp; &nbsp; &nbsp; &nbsp;<font class='negOutcome'>You receive: <strong>0</strong></font></div>","null","8","Banana Bonanza","Fruit/bananas.png","Lost","0.35,0.65","11","0.35","93","22","",""
"html-keyboard-response","76","186972","0.0-11.0-1.22","64015b86a1764cf737326eb7","bdp_rwlrn","Wed Mar 15 2023 23:28:05 GMT-0400 (Eastern Daylight Time)","433802","Trustworthy,Untrustworthy","","277","","","","decision","","<div class='trialDiv'><img src='Fruit/mango.png'><br><font class='baseline'><strong>Mega Mangos</strong><p>Choose number of points to bet.</font><div class='respPicDiv'><img src='img/responseButtonOffersNo0L.png' class='respPic'></div></div>","2","8","Mega Mangos","Fruit/mango.png","Lost","0.35,0.8","14","0.35","98","23","",""
"html-keyboard-response","77","187224","0.0-11.0-2.22","64015b86a1764cf737326eb7","bdp_rwlrn","Wed Mar 15 2023 23:28:05 GMT-0400 (Eastern Daylight Time)","433802","Trustworthy,Untrustworthy","","null","","","","decisionFB","","<div class='trialDiv'><img src='Fruit/mango.png'><br><font class='baseline'><strong>Mega Mangos</strong><p>Choose number of points to bet.</font><div class='respPicDiv'><img src='img/responseButtonOffersNo0L2.png' class='respPic'></div></div>","null","8","Mega Mangos","Fruit/mango.png","Lost","0.35,0.8","14","0.35","96","23","",""
"html-keyboard-response","78","188231","0.0-11.0-3.22","64015b86a1764cf737326eb7","bdp_rwlrn","Wed Mar 15 2023 23:28:05 GMT-0400 (Eastern Daylight Time)","433802","Trustworthy,Untrustworthy","","null","","","","feedback","","<div class='respPicDiv'><img src='img/responseButtonOffersNo0_wht.png' class='respPic'></div><div class='trialDiv'><img src='Fruit/mango.png'><br><font class='baseline'><strong>Mega Mangos</strong><p><strong><font class='negOutcome'>You LOST</font><p>You bet: 2</strong></font> &nbsp; &nbsp; &nbsp; &nbsp; &nbsp; &nbsp;<font class='negOutcome'>You receive: <strong>0</strong></font></div>","null","8","Mega Mangos","Fruit/mango.png","Lost","0.35,0.8","14","0.35","96","23","",""
"html-keyboard-response","79","188491","0.0-11.0-1.23","64015b86a1764cf737326eb7","bdp_rwlrn","Wed Mar 15 2023 23:28:05 GMT-0400 (Eastern Daylight Time)","433802","Trustworthy,Untrustworthy","","259","","","","decision","","<div class='trialDiv'><img src='Fruit/pears.png'><br><font class='baseline'><strong>Pears Aplenty</strong><p>Choose number of points to bet.</font><div class='respPicDiv'><img src='img/responseButtonOffersNo0L.png' class='respPic'></div></div>","2","8","Pears Aplenty","Fruit/pears.png","Lost","0.65,0.2","9","0.65","101","24","",""
"html-keyboard-response","80","188743","0.0-11.0-2.23","64015b86a1764cf737326eb7","bdp_rwlrn","Wed Mar 15 2023 23:28:05 GMT-0400 (Eastern Daylight Time)","433802","Trustworthy,Untrustworthy","","null","","","","decisionFB","","<div class='trialDiv'><img src='Fruit/pears.png'><br><font class='baseline'><strong>Pears Aplenty</strong><p>Choose number of points to bet.</font><div class='respPicDiv'><img src='img/responseButtonOffersNo0L2.png' class='respPic'></div></div>","null","8","Pears Aplenty","Fruit/pears.png","Lost","0.65,0.2","9","0.65","99","24","",""
"html-keyboard-response","81","189748","0.0-11.0-3.23","64015b86a1764cf737326eb7","bdp_rwlrn","Wed Mar 15 2023 23:28:05 GMT-0400 (Eastern Daylight Time)","433802","Trustworthy,Untrustworthy","","null","","","","feedback","","<div class='respPicDiv'><img src='img/responseButtonOffersNo0_wht.png' class='respPic'></div><div class='trialDiv'><img src='Fruit/pears.png'><br><font class='baseline'><strong>Pears Aplenty</strong><p><strong><font class='negOutcome'>You LOST</font><p>You bet: 2</strong></font> &nbsp; &nbsp; &nbsp; &nbsp; &nbsp; &nbsp;<font class='negOutcome'>You receive: <strong>0</strong></font></div>","null","8","Pears Aplenty","Fruit/pears.png","Lost","0.65,0.2","9","0.65","99","24","",""
"html-keyboard-response","82","190083","0.0-11.0-1.24","64015b86a1764cf737326eb7","bdp_rwlrn","Wed Mar 15 2023 23:28:05 GMT-0400 (Eastern Daylight Time)","433802","Trustworthy,Untrustworthy","","334","","","","decision","","<div class='trialDiv'><img src='Fruit/mango.png'><br><font class='baseline'><strong>Mega Mangos</strong><p>Choose number of points to bet.</font><div class='respPicDiv'><img src='img/responseButtonOffersNo0L.png' class='respPic'></div></div>","2","9","Mega Mangos","Fruit/mango.png","Lost","0.35,0.8","14","0.35","104","25","",""
"html-keyboard-response","83","190340","0.0-11.0-2.24","64015b86a1764cf737326eb7","bdp_rwlrn","Wed Mar 15 2023 23:28:05 GMT-0400 (Eastern Daylight Time)","433802","Trustworthy,Untrustworthy","","null","","","","decisionFB","","<div class='trialDiv'><img src='Fruit/mango.png'><br><font class='baseline'><strong>Mega Mangos</strong><p>Choose number of points to bet.</font><div class='respPicDiv'><img src='img/responseButtonOffersNo0L2.png' class='respPic'></div></div>","null","9","Mega Mangos","Fruit/mango.png","Lost","0.35,0.8","14","0.35","102","25","",""
"html-keyboard-response","84","191347","0.0-11.0-3.24","64015b86a1764cf737326eb7","bdp_rwlrn","Wed Mar 15 2023 23:28:05 GMT-0400 (Eastern Daylight Time)","433802","Trustworthy,Untrustworthy","","null","","","","feedback","","<div class='respPicDiv'><img src='img/responseButtonOffersNo0_wht.png' class='respPic'></div><div class='trialDiv'><img src='Fruit/mango.png'><br><font class='baseline'><strong>Mega Mangos</strong><p><strong><font class='negOutcome'>You LOST</font><p>You bet: 2</strong></font> &nbsp; &nbsp; &nbsp; &nbsp; &nbsp; &nbsp;<font class='negOutcome'>You receive: <strong>0</strong></font></div>","null","9","Mega Mangos","Fruit/mango.png","Lost","0.35,0.8","14","0.35","102","25","",""
"html-keyboard-response","85","191423","0.0-11.0-1.25","64015b86a1764cf737326eb7","bdp_rwlrn","Wed Mar 15 2023 23:28:05 GMT-0400 (Eastern Daylight Time)","433802","Trustworthy,Untrustworthy","","76","","","","decision","","<div class='trialDiv'><img src='Fruit/bananas.png'><br><font class='baseline'><strong>Banana Bonanza</strong><p>Choose number of points to bet.</font><div class='respPicDiv'><img src='img/responseButtonOffersNo0L.png' class='respPic'></div></div>","2","9","Banana Bonanza","Fruit/bananas.png","Won","0.35,0.65","11","0.35","107","26","",""
"html-keyboard-response","86","191675","0.0-11.0-2.25","64015b86a1764cf737326eb7","bdp_rwlrn","Wed Mar 15 2023 23:28:05 GMT-0400 (Eastern Daylight Time)","433802","Trustworthy,Untrustworthy","","null","","","","decisionFB","","<div class='trialDiv'><img src='Fruit/bananas.png'><br><font class='baseline'><strong>Banana Bonanza</strong><p>Choose number of points to bet.</font><div class='respPicDiv'><img src='img/responseButtonOffersNo0L2.png' class='respPic'></div></div>","null","9","Banana Bonanza","Fruit/bananas.png","Won","0.35,0.65","11","0.35","105","26","",""
"html-keyboard-response","87","192679","0.0-11.0-3.25","64015b86a1764cf737326eb7","bdp_rwlrn","Wed Mar 15 2023 23:28:05 GMT-0400 (Eastern Daylight Time)","433802","Trustworthy,Untrustworthy","","null","","","","feedback","","<div class='respPicDiv'><img src='img/responseButtonOffersNo0_wht.png' class='respPic'></div><div class='trialDiv'><img src='Fruit/bananas.png'><br><font class='baseline'><strong>Banana Bonanza</strong><p><strong><font class='posOutcome'>You WON</font><p>You bet: 2</strong></font> &nbsp; &nbsp; &nbsp; &nbsp; &nbsp; &nbsp;<font class='posOutcome'>you receive: <strong>4</strong></font></div>","null","9","Banana Bonanza","Fruit/bananas.png","Won","0.35,0.65","11","0.35","109","26","",""
"html-keyboard-response","88","193350","0.0-11.0-1.26","64015b86a1764cf737326eb7","bdp_rwlrn","Wed Mar 15 2023 23:28:05 GMT-0400 (Eastern Daylight Time)","433802","Trustworthy,Untrustworthy","","671","","","","decision","","<div class='trialDiv'><img src='Fruit/pears.png'><br><font class='baseline'><strong>Pears Aplenty</strong><p>Choose number of points to bet.</font><div class='respPicDiv'><img src='img/responseButtonOffersNo0L.png' class='respPic'></div></div>","5","9","Pears Aplenty","Fruit/pears.png","Lost","0.65,0.2","9","0.65","114","27","",""
"html-keyboard-response","89","193601","0.0-11.0-2.26","64015b86a1764cf737326eb7","bdp_rwlrn","Wed Mar 15 2023 23:28:05 GMT-0400 (Eastern Daylight Time)","433802","Trustworthy,Untrustworthy","","null","","","","decisionFB","","<div class='trialDiv'><img src='Fruit/pears.png'><br><font class='baseline'><strong>Pears Aplenty</strong><p>Choose number of points to bet.</font><div class='respPicDiv'><img src='img/responseButtonOffersNo0L5.png' class='respPic'></div></div>","null","9","Pears Aplenty","Fruit/pears.png","Lost","0.65,0.2","9","0.65","109","27","",""
"html-keyboard-response","90","194608","0.0-11.0-3.26","64015b86a1764cf737326eb7","bdp_rwlrn","Wed Mar 15 2023 23:28:05 GMT-0400 (Eastern Daylight Time)","433802","Trustworthy,Untrustworthy","","null","","","","feedback","","<div class='respPicDiv'><img src='img/responseButtonOffersNo0_wht.png' class='respPic'></div><div class='trialDiv'><img src='Fruit/pears.png'><br><font class='baseline'><strong>Pears Aplenty</strong><p><strong><font class='negOutcome'>You LOST</font><p>You bet: 5</strong></font> &nbsp; &nbsp; &nbsp; &nbsp; &nbsp; &nbsp;<font class='negOutcome'>You receive: <strong>0</strong></font></div>","null","9","Pears Aplenty","Fruit/pears.png","Lost","0.65,0.2","9","0.65","109","27","",""
"html-keyboard-response","91","196357","0.0-11.0-1.27","64015b86a1764cf737326eb7","bdp_rwlrn","Wed Mar 15 2023 23:28:05 GMT-0400 (Eastern Daylight Time)","433802","Trustworthy,Untrustworthy","","1748","","","","decision","","<div class='trialDiv'><img src='Fruit/mango.png'><br><font class='baseline'><strong>Mega Mangos</strong><p>Choose number of points to bet.</font><div class='respPicDiv'><img src='img/responseButtonOffersNo0L.png' class='respPic'></div></div>","5","10","Mega Mangos","Fruit/mango.png","Lost","0.35,0.8","14","0.35","114","28","",""
"html-keyboard-response","92","196610","0.0-11.0-2.27","64015b86a1764cf737326eb7","bdp_rwlrn","Wed Mar 15 2023 23:28:05 GMT-0400 (Eastern Daylight Time)","433802","Trustworthy,Untrustworthy","","null","","","","decisionFB","","<div class='trialDiv'><img src='Fruit/mango.png'><br><font class='baseline'><strong>Mega Mangos</strong><p>Choose number of points to bet.</font><div class='respPicDiv'><img src='img/responseButtonOffersNo0L5.png' class='respPic'></div></div>","null","10","Mega Mangos","Fruit/mango.png","Lost","0.35,0.8","14","0.35","109","28","",""
"html-keyboard-response","93","197617","0.0-11.0-3.27","64015b86a1764cf737326eb7","bdp_rwlrn","Wed Mar 15 2023 23:28:05 GMT-0400 (Eastern Daylight Time)","433802","Trustworthy,Untrustworthy","","null","","","","feedback","","<div class='respPicDiv'><img src='img/responseButtonOffersNo0_wht.png' class='respPic'></div><div class='trialDiv'><img src='Fruit/mango.png'><br><font class='baseline'><strong>Mega Mangos</strong><p><strong><font class='negOutcome'>You LOST</font><p>You bet: 5</strong></font> &nbsp; &nbsp; &nbsp; &nbsp; &nbsp; &nbsp;<font class='negOutcome'>You receive: <strong>0</strong></font></div>","null","10","Mega Mangos","Fruit/mango.png","Lost","0.35,0.8","14","0.35","109","28","",""
"html-keyboard-response","94","198002","0.0-11.0-1.28","64015b86a1764cf737326eb7","bdp_rwlrn","Wed Mar 15 2023 23:28:05 GMT-0400 (Eastern Daylight Time)","433802","Trustworthy,Untrustworthy","","383","","","","decision","","<div class='trialDiv'><img src='Fruit/bananas.png'><br><font class='baseline'><strong>Banana Bonanza</strong><p>Choose number of points to bet.</font><div class='respPicDiv'><img src='img/responseButtonOffersNo0L.png' class='respPic'></div></div>","3","10","Banana Bonanza","Fruit/bananas.png","Lost","0.35,0.65","11","0.35","114","29","",""
"html-keyboard-response","95","198253","0.0-11.0-2.28","64015b86a1764cf737326eb7","bdp_rwlrn","Wed Mar 15 2023 23:28:05 GMT-0400 (Eastern Daylight Time)","433802","Trustworthy,Untrustworthy","","null","","","","decisionFB","","<div class='trialDiv'><img src='Fruit/bananas.png'><br><font class='baseline'><strong>Banana Bonanza</strong><p>Choose number of points to bet.</font><div class='respPicDiv'><img src='img/responseButtonOffersNo0L3.png' class='respPic'></div></div>","null","10","Banana Bonanza","Fruit/bananas.png","Lost","0.35,0.65","11","0.35","111","29","",""
"html-keyboard-response","96","199260","0.0-11.0-3.28","64015b86a1764cf737326eb7","bdp_rwlrn","Wed Mar 15 2023 23:28:05 GMT-0400 (Eastern Daylight Time)","433802","Trustworthy,Untrustworthy","","null","","","","feedback","","<div class='respPicDiv'><img src='img/responseButtonOffersNo0_wht.png' class='respPic'></div><div class='trialDiv'><img src='Fruit/bananas.png'><br><font class='baseline'><strong>Banana Bonanza</strong><p><strong><font class='negOutcome'>You LOST</font><p>You bet: 3</strong></font> &nbsp; &nbsp; &nbsp; &nbsp; &nbsp; &nbsp;<font class='negOutcome'>You receive: <strong>0</strong></font></div>","null","10","Banana Bonanza","Fruit/bananas.png","Lost","0.35,0.65","11","0.35","111","29","",""
"html-keyboard-response","97","199869","0.0-11.0-1.29","64015b86a1764cf737326eb7","bdp_rwlrn","Wed Mar 15 2023 23:28:05 GMT-0400 (Eastern Daylight Time)","433802","Trustworthy,Untrustworthy","","609","","","","decision","","<div class='trialDiv'><img src='Fruit/pears.png'><br><font class='baseline'><strong>Pears Aplenty</strong><p>Choose number of points to bet.</font><div class='respPicDiv'><img src='img/responseButtonOffersNo0L.png' class='respPic'></div></div>","3","10","Pears Aplenty","Fruit/pears.png","Lost","0.65,0.2","9","0.65","116","30","",""
"html-keyboard-response","98","200126","0.0-11.0-2.29","64015b86a1764cf737326eb7","bdp_rwlrn","Wed Mar 15 2023 23:28:05 GMT-0400 (Eastern Daylight Time)","433802","Trustworthy,Untrustworthy","","null","","","","decisionFB","","<div class='trialDiv'><img src='Fruit/pears.png'><br><font class='baseline'><strong>Pears Aplenty</strong><p>Choose number of points to bet.</font><div class='respPicDiv'><img src='img/responseButtonOffersNo0L3.png' class='respPic'></div></div>","null","10","Pears Aplenty","Fruit/pears.png","Lost","0.65,0.2","9","0.65","113","30","",""
"html-keyboard-response","99","201133","0.0-11.0-3.29","64015b86a1764cf737326eb7","bdp_rwlrn","Wed Mar 15 2023 23:28:05 GMT-0400 (Eastern Daylight Time)","433802","Trustworthy,Untrustworthy","","null","","","","feedback","","<div class='respPicDiv'><img src='img/responseButtonOffersNo0_wht.png' class='respPic'></div><div class='trialDiv'><img src='Fruit/pears.png'><br><font class='baseline'><strong>Pears Aplenty</strong><p><strong><font class='negOutcome'>You LOST</font><p>You bet: 3</strong></font> &nbsp; &nbsp; &nbsp; &nbsp; &nbsp; &nbsp;<font class='negOutcome'>You receive: <strong>0</strong></font></div>","null","10","Pears Aplenty","Fruit/pears.png","Lost","0.65,0.2","9","0.65","113","30","",""
"html-keyboard-response","100","201389","0.0-11.0-1.30","64015b86a1764cf737326eb7","bdp_rwlrn","Wed Mar 15 2023 23:28:05 GMT-0400 (Eastern Daylight Time)","433802","Trustworthy,Untrustworthy","","256","","","","decision","","<div class='trialDiv'><img src='Fruit/bananas.png'><br><font class='baseline'><strong>Banana Bonanza</strong><p>Choose number of points to bet.</font><div class='respPicDiv'><img src='img/responseButtonOffersNo0L.png' class='respPic'></div></div>","3","11","Banana Bonanza","Fruit/bananas.png","Lost","0.35,0.65","11","0.35","118","31","",""
"html-keyboard-response","101","201644","0.0-11.0-2.30","64015b86a1764cf737326eb7","bdp_rwlrn","Wed Mar 15 2023 23:28:05 GMT-0400 (Eastern Daylight Time)","433802","Trustworthy,Untrustworthy","","null","","","","decisionFB","","<div class='trialDiv'><img src='Fruit/bananas.png'><br><font class='baseline'><strong>Banana Bonanza</strong><p>Choose number of points to bet.</font><div class='respPicDiv'><img src='img/responseButtonOffersNo0L3.png' class='respPic'></div></div>","null","11","Banana Bonanza","Fruit/bananas.png","Lost","0.35,0.65","11","0.35","115","31","",""
"html-keyboard-response","102","202651","0.0-11.0-3.30","64015b86a1764cf737326eb7","bdp_rwlrn","Wed Mar 15 2023 23:28:05 GMT-0400 (Eastern Daylight Time)","433802","Trustworthy,Untrustworthy","","null","","","","feedback","","<div class='respPicDiv'><img src='img/responseButtonOffersNo0_wht.png' class='respPic'></div><div class='trialDiv'><img src='Fruit/bananas.png'><br><font class='baseline'><strong>Banana Bonanza</strong><p><strong><font class='negOutcome'>You LOST</font><p>You bet: 3</strong></font> &nbsp; &nbsp; &nbsp; &nbsp; &nbsp; &nbsp;<font class='negOutcome'>You receive: <strong>0</strong></font></div>","null","11","Banana Bonanza","Fruit/bananas.png","Lost","0.35,0.65","11","0.35","115","31","",""
"html-keyboard-response","103","202871","0.0-11.0-1.31","64015b86a1764cf737326eb7","bdp_rwlrn","Wed Mar 15 2023 23:28:05 GMT-0400 (Eastern Daylight Time)","433802","Trustworthy,Untrustworthy","","218","","","","decision","","<div class='trialDiv'><img src='Fruit/pears.png'><br><font class='baseline'><strong>Pears Aplenty</strong><p>Choose number of points to bet.</font><div class='respPicDiv'><img src='img/responseButtonOffersNo0L.png' class='respPic'></div></div>","3","11","Pears Aplenty","Fruit/pears.png","Lost","0.65,0.2","9","0.65","120","32","",""
"html-keyboard-response","104","203123","0.0-11.0-2.31","64015b86a1764cf737326eb7","bdp_rwlrn","Wed Mar 15 2023 23:28:05 GMT-0400 (Eastern Daylight Time)","433802","Trustworthy,Untrustworthy","","null","","","","decisionFB","","<div class='trialDiv'><img src='Fruit/pears.png'><br><font class='baseline'><strong>Pears Aplenty</strong><p>Choose number of points to bet.</font><div class='respPicDiv'><img src='img/responseButtonOffersNo0L3.png' class='respPic'></div></div>","null","11","Pears Aplenty","Fruit/pears.png","Lost","0.65,0.2","9","0.65","117","32","",""
"html-keyboard-response","105","204130","0.0-11.0-3.31","64015b86a1764cf737326eb7","bdp_rwlrn","Wed Mar 15 2023 23:28:05 GMT-0400 (Eastern Daylight Time)","433802","Trustworthy,Untrustworthy","","null","","","","feedback","","<div class='respPicDiv'><img src='img/responseButtonOffersNo0_wht.png' class='respPic'></div><div class='trialDiv'><img src='Fruit/pears.png'><br><font class='baseline'><strong>Pears Aplenty</strong><p><strong><font class='negOutcome'>You LOST</font><p>You bet: 3</strong></font> &nbsp; &nbsp; &nbsp; &nbsp; &nbsp; &nbsp;<font class='negOutcome'>You receive: <strong>0</strong></font></div>","null","11","Pears Aplenty","Fruit/pears.png","Lost","0.65,0.2","9","0.65","117","32","",""
"html-keyboard-response","106","204410","0.0-11.0-1.32","64015b86a1764cf737326eb7","bdp_rwlrn","Wed Mar 15 2023 23:28:05 GMT-0400 (Eastern Daylight Time)","433802","Trustworthy,Untrustworthy","","279","","","","decision","","<div class='trialDiv'><img src='Fruit/mango.png'><br><font class='baseline'><strong>Mega Mangos</strong><p>Choose number of points to bet.</font><div class='respPicDiv'><img src='img/responseButtonOffersNo0L.png' class='respPic'></div></div>","3","11","Mega Mangos","Fruit/mango.png","Lost","0.35,0.8","14","0.35","122","33","",""
"html-keyboard-response","107","204662","0.0-11.0-2.32","64015b86a1764cf737326eb7","bdp_rwlrn","Wed Mar 15 2023 23:28:05 GMT-0400 (Eastern Daylight Time)","433802","Trustworthy,Untrustworthy","","null","","","","decisionFB","","<div class='trialDiv'><img src='Fruit/mango.png'><br><font class='baseline'><strong>Mega Mangos</strong><p>Choose number of points to bet.</font><div class='respPicDiv'><img src='img/responseButtonOffersNo0L3.png' class='respPic'></div></div>","null","11","Mega Mangos","Fruit/mango.png","Lost","0.35,0.8","14","0.35","119","33","",""
"html-keyboard-response","108","205668","0.0-11.0-3.32","64015b86a1764cf737326eb7","bdp_rwlrn","Wed Mar 15 2023 23:28:05 GMT-0400 (Eastern Daylight Time)","433802","Trustworthy,Untrustworthy","","null","","","","feedback","","<div class='respPicDiv'><img src='img/responseButtonOffersNo0_wht.png' class='respPic'></div><div class='trialDiv'><img src='Fruit/mango.png'><br><font class='baseline'><strong>Mega Mangos</strong><p><strong><font class='negOutcome'>You LOST</font><p>You bet: 3</strong></font> &nbsp; &nbsp; &nbsp; &nbsp; &nbsp; &nbsp;<font class='negOutcome'>You receive: <strong>0</strong></font></div>","null","11","Mega Mangos","Fruit/mango.png","Lost","0.35,0.8","14","0.35","119","33","",""
"html-keyboard-response","109","205947","0.0-11.0-1.33","64015b86a1764cf737326eb7","bdp_rwlrn","Wed Mar 15 2023 23:28:05 GMT-0400 (Eastern Daylight Time)","433802","Trustworthy,Untrustworthy","","278","","","","decision","","<div class='trialDiv'><img src='Fruit/bananas.png'><br><font class='baseline'><strong>Banana Bonanza</strong><p>Choose number of points to bet.</font><div class='respPicDiv'><img src='img/responseButtonOffersNo0L.png' class='respPic'></div></div>","3","12","Banana Bonanza","Fruit/bananas.png","Won","0.35,0.65","11","0.35","124","34","",""
"html-keyboard-response","110","206203","0.0-11.0-2.33","64015b86a1764cf737326eb7","bdp_rwlrn","Wed Mar 15 2023 23:28:05 GMT-0400 (Eastern Daylight Time)","433802","Trustworthy,Untrustworthy","","null","","","","decisionFB","","<div class='trialDiv'><img src='Fruit/bananas.png'><br><font class='baseline'><strong>Banana Bonanza</strong><p>Choose number of points to bet.</font><div class='respPicDiv'><img src='img/responseButtonOffersNo0L3.png' class='respPic'></div></div>","null","12","Banana Bonanza","Fruit/bananas.png","Won","0.35,0.65","11","0.35","121","34","",""
"html-keyboard-response","111","207210","0.0-11.0-3.33","64015b86a1764cf737326eb7","bdp_rwlrn","Wed Mar 15 2023 23:28:05 GMT-0400 (Eastern Daylight Time)","433802","Trustworthy,Untrustworthy","","null","","","","feedback","","<div class='respPicDiv'><img src='img/responseButtonOffersNo0_wht.png' class='respPic'></div><div class='trialDiv'><img src='Fruit/bananas.png'><br><font class='baseline'><strong>Banana Bonanza</strong><p><strong><font class='posOutcome'>You WON</font><p>You bet: 3</strong></font> &nbsp; &nbsp; &nbsp; &nbsp; &nbsp; &nbsp;<font class='posOutcome'>you receive: <strong>6</strong></font></div>","null","12","Banana Bonanza","Fruit/bananas.png","Won","0.35,0.65","11","0.35","127","34","",""
"html-keyboard-response","112","207683","0.0-11.0-1.34","64015b86a1764cf737326eb7","bdp_rwlrn","Wed Mar 15 2023 23:28:05 GMT-0400 (Eastern Daylight Time)","433802","Trustworthy,Untrustworthy","","472","","","","decision","","<div class='trialDiv'><img src='Fruit/mango.png'><br><font class='baseline'><strong>Mega Mangos</strong><p>Choose number of points to bet.</font><div class='respPicDiv'><img src='img/responseButtonOffersNo0L.png' class='respPic'></div></div>","2","12","Mega Mangos","Fruit/mango.png","Won","0.35,0.8","14","0.35","132","35","",""
"html-keyboard-response","113","207935","0.0-11.0-2.34","64015b86a1764cf737326eb7","bdp_rwlrn","Wed Mar 15 2023 23:28:05 GMT-0400 (Eastern Daylight Time)","433802","Trustworthy,Untrustworthy","","null","","","","decisionFB","","<div class='trialDiv'><img src='Fruit/mango.png'><br><font class='baseline'><strong>Mega Mangos</strong><p>Choose number of points to bet.</font><div class='respPicDiv'><img src='img/responseButtonOffersNo0L2.png' class='respPic'></div></div>","null","12","Mega Mangos","Fruit/mango.png","Won","0.35,0.8","14","0.35","130","35","",""
"html-keyboard-response","114","208941","0.0-11.0-3.34","64015b86a1764cf737326eb7","bdp_rwlrn","Wed Mar 15 2023 23:28:05 GMT-0400 (Eastern Daylight Time)","433802","Trustworthy,Untrustworthy","","null","","","","feedback","","<div class='respPicDiv'><img src='img/responseButtonOffersNo0_wht.png' class='respPic'></div><div class='trialDiv'><img src='Fruit/mango.png'><br><font class='baseline'><strong>Mega Mangos</strong><p><strong><font class='posOutcome'>You WON</font><p>You bet: 2</strong></font> &nbsp; &nbsp; &nbsp; &nbsp; &nbsp; &nbsp;<font class='posOutcome'>you receive: <strong>4</strong></font></div>","null","12","Mega Mangos","Fruit/mango.png","Won","0.35,0.8","14","0.35","134","35","",""
"html-keyboard-response","115","209329","0.0-11.0-1.35","64015b86a1764cf737326eb7","bdp_rwlrn","Wed Mar 15 2023 23:28:05 GMT-0400 (Eastern Daylight Time)","433802","Trustworthy,Untrustworthy","","387","","","","decision","","<div class='trialDiv'><img src='Fruit/pears.png'><br><font class='baseline'><strong>Pears Aplenty</strong><p>Choose number of points to bet.</font><div class='respPicDiv'><img src='img/responseButtonOffersNo0L.png' class='respPic'></div></div>","5","12","Pears Aplenty","Fruit/pears.png","Lost","0.65,0.2","9","0.65","139","36","",""
"html-keyboard-response","116","209583","0.0-11.0-2.35","64015b86a1764cf737326eb7","bdp_rwlrn","Wed Mar 15 2023 23:28:05 GMT-0400 (Eastern Daylight Time)","433802","Trustworthy,Untrustworthy","","null","","","","decisionFB","","<div class='trialDiv'><img src='Fruit/pears.png'><br><font class='baseline'><strong>Pears Aplenty</strong><p>Choose number of points to bet.</font><div class='respPicDiv'><img src='img/responseButtonOffersNo0L5.png' class='respPic'></div></div>","null","12","Pears Aplenty","Fruit/pears.png","Lost","0.65,0.2","9","0.65","134","36","",""
"html-keyboard-response","117","210589","0.0-11.0-3.35","64015b86a1764cf737326eb7","bdp_rwlrn","Wed Mar 15 2023 23:28:05 GMT-0400 (Eastern Daylight Time)","433802","Trustworthy,Untrustworthy","","null","","","","feedback","","<div class='respPicDiv'><img src='img/responseButtonOffersNo0_wht.png' class='respPic'></div><div class='trialDiv'><img src='Fruit/pears.png'><br><font class='baseline'><strong>Pears Aplenty</strong><p><strong><font class='negOutcome'>You LOST</font><p>You bet: 5</strong></font> &nbsp; &nbsp; &nbsp; &nbsp; &nbsp; &nbsp;<font class='negOutcome'>You receive: <strong>0</strong></font></div>","null","12","Pears Aplenty","Fruit/pears.png","Lost","0.65,0.2","9","0.65","134","36","",""
"html-keyboard-response","118","210881","0.0-11.0-1.36","64015b86a1764cf737326eb7","bdp_rwlrn","Wed Mar 15 2023 23:28:05 GMT-0400 (Eastern Daylight Time)","433802","Trustworthy,Untrustworthy","","291","","","","decision","","<div class='trialDiv'><img src='Fruit/mango.png'><br><font class='baseline'><strong>Mega Mangos</strong><p>Choose number of points to bet.</font><div class='respPicDiv'><img src='img/responseButtonOffersNo0L.png' class='respPic'></div></div>","5","13","Mega Mangos","Fruit/mango.png","Lost","0.35,0.8","14","0.35","139","37","",""
"html-keyboard-response","119","211134","0.0-11.0-2.36","64015b86a1764cf737326eb7","bdp_rwlrn","Wed Mar 15 2023 23:28:05 GMT-0400 (Eastern Daylight Time)","433802","Trustworthy,Untrustworthy","","null","","","","decisionFB","","<div class='trialDiv'><img src='Fruit/mango.png'><br><font class='baseline'><strong>Mega Mangos</strong><p>Choose number of points to bet.</font><div class='respPicDiv'><img src='img/responseButtonOffersNo0L5.png' class='respPic'></div></div>","null","13","Mega Mangos","Fruit/mango.png","Lost","0.35,0.8","14","0.35","134","37","",""
"html-keyboard-response","120","212139","0.0-11.0-3.36","64015b86a1764cf737326eb7","bdp_rwlrn","Wed Mar 15 2023 23:28:05 GMT-0400 (Eastern Daylight Time)","433802","Trustworthy,Untrustworthy","","null","","","","feedback","","<div class='respPicDiv'><img src='img/responseButtonOffersNo0_wht.png' class='respPic'></div><div class='trialDiv'><img src='Fruit/mango.png'><br><font class='baseline'><strong>Mega Mangos</strong><p><strong><font class='negOutcome'>You LOST</font><p>You bet: 5</strong></font> &nbsp; &nbsp; &nbsp; &nbsp; &nbsp; &nbsp;<font class='negOutcome'>You receive: <strong>0</strong></font></div>","null","13","Mega Mangos","Fruit/mango.png","Lost","0.35,0.8","14","0.35","134","37","",""
"html-keyboard-response","121","212802","0.0-11.0-1.37","64015b86a1764cf737326eb7","bdp_rwlrn","Wed Mar 15 2023 23:28:05 GMT-0400 (Eastern Daylight Time)","433802","Trustworthy,Untrustworthy","","662","","","","decision","","<div class='trialDiv'><img src='Fruit/bananas.png'><br><font class='baseline'><strong>Banana Bonanza</strong><p>Choose number of points to bet.</font><div class='respPicDiv'><img src='img/responseButtonOffersNo0L.png' class='respPic'></div></div>","5","13","Banana Bonanza","Fruit/bananas.png","Lost","0.35,0.65","11","0.35","139","38","",""
"html-keyboard-response","122","213054","0.0-11.0-2.37","64015b86a1764cf737326eb7","bdp_rwlrn","Wed Mar 15 2023 23:28:05 GMT-0400 (Eastern Daylight Time)","433802","Trustworthy,Untrustworthy","","null","","","","decisionFB","","<div class='trialDiv'><img src='Fruit/bananas.png'><br><font class='baseline'><strong>Banana Bonanza</strong><p>Choose number of points to bet.</font><div class='respPicDiv'><img src='img/responseButtonOffersNo0L5.png' class='respPic'></div></div>","null","13","Banana Bonanza","Fruit/bananas.png","Lost","0.35,0.65","11","0.35","134","38","",""
"html-keyboard-response","123","214061","0.0-11.0-3.37","64015b86a1764cf737326eb7","bdp_rwlrn","Wed Mar 15 2023 23:28:05 GMT-0400 (Eastern Daylight Time)","433802","Trustworthy,Untrustworthy","","null","","","","feedback","","<div class='respPicDiv'><img src='img/responseButtonOffersNo0_wht.png' class='respPic'></div><div class='trialDiv'><img src='Fruit/bananas.png'><br><font class='baseline'><strong>Banana Bonanza</strong><p><strong><font class='negOutcome'>You LOST</font><p>You bet: 5</strong></font> &nbsp; &nbsp; &nbsp; &nbsp; &nbsp; &nbsp;<font class='negOutcome'>You receive: <strong>0</strong></font></div>","null","13","Banana Bonanza","Fruit/bananas.png","Lost","0.35,0.65","11","0.35","134","38","",""
"html-keyboard-response","124","216076","0.0-11.0-1.38","64015b86a1764cf737326eb7","bdp_rwlrn","Wed Mar 15 2023 23:28:05 GMT-0400 (Eastern Daylight Time)","433802","Trustworthy,Untrustworthy","","2014","","","","decision","","<div class='trialDiv'><img src='Fruit/pears.png'><br><font class='baseline'><strong>Pears Aplenty</strong><p>Choose number of points to bet.</font><div class='respPicDiv'><img src='img/responseButtonOffersNo0L.png' class='respPic'></div></div>","5","13","Pears Aplenty","Fruit/pears.png","Lost","0.65,0.2","9","0.65","139","39","",""
"html-keyboard-response","125","216333","0.0-11.0-2.38","64015b86a1764cf737326eb7","bdp_rwlrn","Wed Mar 15 2023 23:28:05 GMT-0400 (Eastern Daylight Time)","433802","Trustworthy,Untrustworthy","","null","","","","decisionFB","","<div class='trialDiv'><img src='Fruit/pears.png'><br><font class='baseline'><strong>Pears Aplenty</strong><p>Choose number of points to bet.</font><div class='respPicDiv'><img src='img/responseButtonOffersNo0L5.png' class='respPic'></div></div>","null","13","Pears Aplenty","Fruit/pears.png","Lost","0.65,0.2","9","0.65","134","39","",""
"html-keyboard-response","126","217338","0.0-11.0-3.38","64015b86a1764cf737326eb7","bdp_rwlrn","Wed Mar 15 2023 23:28:05 GMT-0400 (Eastern Daylight Time)","433802","Trustworthy,Untrustworthy","","null","","","","feedback","","<div class='respPicDiv'><img src='img/responseButtonOffersNo0_wht.png' class='respPic'></div><div class='trialDiv'><img src='Fruit/pears.png'><br><font class='baseline'><strong>Pears Aplenty</strong><p><strong><font class='negOutcome'>You LOST</font><p>You bet: 5</strong></font> &nbsp; &nbsp; &nbsp; &nbsp; &nbsp; &nbsp;<font class='negOutcome'>You receive: <strong>0</strong></font></div>","null","13","Pears Aplenty","Fruit/pears.png","Lost","0.65,0.2","9","0.65","134","39","",""
"html-keyboard-response","127","217928","0.0-11.0-1.39","64015b86a1764cf737326eb7","bdp_rwlrn","Wed Mar 15 2023 23:28:05 GMT-0400 (Eastern Daylight Time)","433802","Trustworthy,Untrustworthy","","590","","","","decision","","<div class='trialDiv'><img src='Fruit/mango.png'><br><font class='baseline'><strong>Mega Mangos</strong><p>Choose number of points to bet.</font><div class='respPicDiv'><img src='img/responseButtonOffersNo0L.png' class='respPic'></div></div>","5","14","Mega Mangos","Fruit/mango.png","Won","0.35,0.8","14","0.35","139","40","",""
"html-keyboard-response","128","218183","0.0-11.0-2.39","64015b86a1764cf737326eb7","bdp_rwlrn","Wed Mar 15 2023 23:28:05 GMT-0400 (Eastern Daylight Time)","433802","Trustworthy,Untrustworthy","","null","","","","decisionFB","","<div class='trialDiv'><img src='Fruit/mango.png'><br><font class='baseline'><strong>Mega Mangos</strong><p>Choose number of points to bet.</font><div class='respPicDiv'><img src='img/responseButtonOffersNo0L5.png' class='respPic'></div></div>","null","14","Mega Mangos","Fruit/mango.png","Won","0.35,0.8","14","0.35","134","40","",""
"html-keyboard-response","129","219190","0.0-11.0-3.39","64015b86a1764cf737326eb7","bdp_rwlrn","Wed Mar 15 2023 23:28:05 GMT-0400 (Eastern Daylight Time)","433802","Trustworthy,Untrustworthy","","null","","","","feedback","","<div class='respPicDiv'><img src='img/responseButtonOffersNo0_wht.png' class='respPic'></div><div class='trialDiv'><img src='Fruit/mango.png'><br><font class='baseline'><strong>Mega Mangos</strong><p><strong><font class='posOutcome'>You WON</font><p>You bet: 5</strong></font> &nbsp; &nbsp; &nbsp; &nbsp; &nbsp; &nbsp;<font class='posOutcome'>you receive: <strong>10</strong></font></div>","null","14","Mega Mangos","Fruit/mango.png","Won","0.35,0.8","14","0.35","144","40","",""
"html-keyboard-response","130","220424","0.0-11.0-1.40","64015b86a1764cf737326eb7","bdp_rwlrn","Wed Mar 15 2023 23:28:05 GMT-0400 (Eastern Daylight Time)","433802","Trustworthy,Untrustworthy","","1233","","","","decision","","<div class='trialDiv'><img src='Fruit/pears.png'><br><font class='baseline'><strong>Pears Aplenty</strong><p>Choose number of points to bet.</font><div class='respPicDiv'><img src='img/responseButtonOffersNo0L.png' class='respPic'></div></div>","4","14","Pears Aplenty","Fruit/pears.png","Won","0.65,0.2","9","0.65","149","41","",""
"html-keyboard-response","131","220680","0.0-11.0-2.40","64015b86a1764cf737326eb7","bdp_rwlrn","Wed Mar 15 2023 23:28:05 GMT-0400 (Eastern Daylight Time)","433802","Trustworthy,Untrustworthy","","null","","","","decisionFB","","<div class='trialDiv'><img src='Fruit/pears.png'><br><font class='baseline'><strong>Pears Aplenty</strong><p>Choose number of points to bet.</font><div class='respPicDiv'><img src='img/responseButtonOffersNo0L4.png' class='respPic'></div></div>","null","14","Pears Aplenty","Fruit/pears.png","Won","0.65,0.2","9","0.65","145","41","",""
"html-keyboard-response","132","221683","0.0-11.0-3.40","64015b86a1764cf737326eb7","bdp_rwlrn","Wed Mar 15 2023 23:28:05 GMT-0400 (Eastern Daylight Time)","433802","Trustworthy,Untrustworthy","","null","","","","feedback","","<div class='respPicDiv'><img src='img/responseButtonOffersNo0_wht.png' class='respPic'></div><div class='trialDiv'><img src='Fruit/pears.png'><br><font class='baseline'><strong>Pears Aplenty</strong><p><strong><font class='posOutcome'>You WON</font><p>You bet: 4</strong></font> &nbsp; &nbsp; &nbsp; &nbsp; &nbsp; &nbsp;<font class='posOutcome'>you receive: <strong>8</strong></font></div>","null","14","Pears Aplenty","Fruit/pears.png","Won","0.65,0.2","9","0.65","153","41","",""
"html-keyboard-response","133","222333","0.0-11.0-1.41","64015b86a1764cf737326eb7","bdp_rwlrn","Wed Mar 15 2023 23:28:05 GMT-0400 (Eastern Daylight Time)","433802","Trustworthy,Untrustworthy","","649","","","","decision","","<div class='trialDiv'><img src='Fruit/bananas.png'><br><font class='baseline'><strong>Banana Bonanza</strong><p>Choose number of points to bet.</font><div class='respPicDiv'><img src='img/responseButtonOffersNo0L.png' class='respPic'></div></div>","1","14","Banana Bonanza","Fruit/bananas.png","Won","0.35,0.65","11","0.35","158","42","",""
"html-keyboard-response","134","222584","0.0-11.0-2.41","64015b86a1764cf737326eb7","bdp_rwlrn","Wed Mar 15 2023 23:28:05 GMT-0400 (Eastern Daylight Time)","433802","Trustworthy,Untrustworthy","","null","","","","decisionFB","","<div class='trialDiv'><img src='Fruit/bananas.png'><br><font class='baseline'><strong>Banana Bonanza</strong><p>Choose number of points to bet.</font><div class='respPicDiv'><img src='img/responseButtonOffersNo0L1.png' class='respPic'></div></div>","null","14","Banana Bonanza","Fruit/bananas.png","Won","0.35,0.65","11","0.35","157","42","",""
"html-keyboard-response","135","223590","0.0-11.0-3.41","64015b86a1764cf737326eb7","bdp_rwlrn","Wed Mar 15 2023 23:28:05 GMT-0400 (Eastern Daylight Time)","433802","Trustworthy,Untrustworthy","","null","","","","feedback","","<div class='respPicDiv'><img src='img/responseButtonOffersNo0_wht.png' class='respPic'></div><div class='trialDiv'><img src='Fruit/bananas.png'><br><font class='baseline'><strong>Banana Bonanza</strong><p><strong><font class='posOutcome'>You WON</font><p>You bet: 1</strong></font> &nbsp; &nbsp; &nbsp; &nbsp; &nbsp; &nbsp;<font class='posOutcome'>you receive: <strong>2</strong></font></div>","null","14","Banana Bonanza","Fruit/bananas.png","Won","0.35,0.65","11","0.35","159","42","",""
"html-keyboard-response","136","224090","0.0-11.0-1.42","64015b86a1764cf737326eb7","bdp_rwlrn","Wed Mar 15 2023 23:28:05 GMT-0400 (Eastern Daylight Time)","433802","Trustworthy,Untrustworthy","","499","","","","decision","","<div class='trialDiv'><img src='Fruit/mango.png'><br><font class='baseline'><strong>Mega Mangos</strong><p>Choose number of points to bet.</font><div class='respPicDiv'><img src='img/responseButtonOffersNo0L.png' class='respPic'></div></div>","3","15","Mega Mangos","Fruit/mango.png","Won","0.35,0.8","14","0.35","164","43","",""
"html-keyboard-response","137","224345","0.0-11.0-2.42","64015b86a1764cf737326eb7","bdp_rwlrn","Wed Mar 15 2023 23:28:05 GMT-0400 (Eastern Daylight Time)","433802","Trustworthy,Untrustworthy","","null","","","","decisionFB","","<div class='trialDiv'><img src='Fruit/mango.png'><br><font class='baseline'><strong>Mega Mangos</strong><p>Choose number of points to bet.</font><div class='respPicDiv'><img src='img/responseButtonOffersNo0L3.png' class='respPic'></div></div>","null","15","Mega Mangos","Fruit/mango.png","Won","0.35,0.8","14","0.35","161","43","",""
"html-keyboard-response","138","225351","0.0-11.0-3.42","64015b86a1764cf737326eb7","bdp_rwlrn","Wed Mar 15 2023 23:28:05 GMT-0400 (Eastern Daylight Time)","433802","Trustworthy,Untrustworthy","","null","","","","feedback","","<div class='respPicDiv'><img src='img/responseButtonOffersNo0_wht.png' class='respPic'></div><div class='trialDiv'><img src='Fruit/mango.png'><br><font class='baseline'><strong>Mega Mangos</strong><p><strong><font class='posOutcome'>You WON</font><p>You bet: 3</strong></font> &nbsp; &nbsp; &nbsp; &nbsp; &nbsp; &nbsp;<font class='posOutcome'>you receive: <strong>6</strong></font></div>","null","15","Mega Mangos","Fruit/mango.png","Won","0.35,0.8","14","0.35","167","43","",""
"html-keyboard-response","139","225706","0.0-11.0-1.43","64015b86a1764cf737326eb7","bdp_rwlrn","Wed Mar 15 2023 23:28:05 GMT-0400 (Eastern Daylight Time)","433802","Trustworthy,Untrustworthy","","354","","","","decision","","<div class='trialDiv'><img src='Fruit/pears.png'><br><font class='baseline'><strong>Pears Aplenty</strong><p>Choose number of points to bet.</font><div class='respPicDiv'><img src='img/responseButtonOffersNo0L.png' class='respPic'></div></div>","2","15","Pears Aplenty","Fruit/pears.png","Lost","0.65,0.2","9","0.65","172","44","",""
"html-keyboard-response","140","225959","0.0-11.0-2.43","64015b86a1764cf737326eb7","bdp_rwlrn","Wed Mar 15 2023 23:28:05 GMT-0400 (Eastern Daylight Time)","433802","Trustworthy,Untrustworthy","","null","","","","decisionFB","","<div class='trialDiv'><img src='Fruit/pears.png'><br><font class='baseline'><strong>Pears Aplenty</strong><p>Choose number of points to bet.</font><div class='respPicDiv'><img src='img/responseButtonOffersNo0L2.png' class='respPic'></div></div>","null","15","Pears Aplenty","Fruit/pears.png","Lost","0.65,0.2","9","0.65","170","44","",""
"html-keyboard-response","141","226965","0.0-11.0-3.43","64015b86a1764cf737326eb7","bdp_rwlrn","Wed Mar 15 2023 23:28:05 GMT-0400 (Eastern Daylight Time)","433802","Trustworthy,Untrustworthy","","null","","","","feedback","","<div class='respPicDiv'><img src='img/responseButtonOffersNo0_wht.png' class='respPic'></div><div class='trialDiv'><img src='Fruit/pears.png'><br><font class='baseline'><strong>Pears Aplenty</strong><p><strong><font class='negOutcome'>You LOST</font><p>You bet: 2</strong></font> &nbsp; &nbsp; &nbsp; &nbsp; &nbsp; &nbsp;<font class='negOutcome'>You receive: <strong>0</strong></font></div>","null","15","Pears Aplenty","Fruit/pears.png","Lost","0.65,0.2","9","0.65","170","44","",""
"html-keyboard-response","142","227705","0.0-11.0-1.44","64015b86a1764cf737326eb7","bdp_rwlrn","Wed Mar 15 2023 23:28:05 GMT-0400 (Eastern Daylight Time)","433802","Trustworthy,Untrustworthy","","739","","","","decision","","<div class='trialDiv'><img src='Fruit/bananas.png'><br><font class='baseline'><strong>Banana Bonanza</strong><p>Choose number of points to bet.</font><div class='respPicDiv'><img src='img/responseButtonOffersNo0L.png' class='respPic'></div></div>","4","15","Banana Bonanza","Fruit/bananas.png","Won","0.35,0.65","11","0.35","175","45","",""
"html-keyboard-response","143","227961","0.0-11.0-2.44","64015b86a1764cf737326eb7","bdp_rwlrn","Wed Mar 15 2023 23:28:05 GMT-0400 (Eastern Daylight Time)","433802","Trustworthy,Untrustworthy","","null","","","","decisionFB","","<div class='trialDiv'><img src='Fruit/bananas.png'><br><font class='baseline'><strong>Banana Bonanza</strong><p>Choose number of points to bet.</font><div class='respPicDiv'><img src='img/responseButtonOffersNo0L4.png' class='respPic'></div></div>","null","15","Banana Bonanza","Fruit/bananas.png","Won","0.35,0.65","11","0.35","171","45","",""
"html-keyboard-response","144","228968","0.0-11.0-3.44","64015b86a1764cf737326eb7","bdp_rwlrn","Wed Mar 15 2023 23:28:05 GMT-0400 (Eastern Daylight Time)","433802","Trustworthy,Untrustworthy","","null","","","","feedback","","<div class='respPicDiv'><img src='img/responseButtonOffersNo0_wht.png' class='respPic'></div><div class='trialDiv'><img src='Fruit/bananas.png'><br><font class='baseline'><strong>Banana Bonanza</strong><p><strong><font class='posOutcome'>You WON</font><p>You bet: 4</strong></font> &nbsp; &nbsp; &nbsp; &nbsp; &nbsp; &nbsp;<font class='posOutcome'>you receive: <strong>8</strong></font></div>","null","15","Banana Bonanza","Fruit/bananas.png","Won","0.35,0.65","11","0.35","179","45","",""
"html-keyboard-response","145","229215","0.0-11.0-1.45","64015b86a1764cf737326eb7","bdp_rwlrn","Wed Mar 15 2023 23:28:05 GMT-0400 (Eastern Daylight Time)","433802","Trustworthy,Untrustworthy","","247","","","","decision","","<div class='trialDiv'><img src='Fruit/mango.png'><br><font class='baseline'><strong>Mega Mangos</strong><p>Choose number of points to bet.</font><div class='respPicDiv'><img src='img/responseButtonOffersNo0L.png' class='respPic'></div></div>","5","16","Mega Mangos","Fruit/mango.png","Lost","0.35,0.8","14","0.35","184","46","",""
"html-keyboard-response","146","229466","0.0-11.0-2.45","64015b86a1764cf737326eb7","bdp_rwlrn","Wed Mar 15 2023 23:28:05 GMT-0400 (Eastern Daylight Time)","433802","Trustworthy,Untrustworthy","","null","","","","decisionFB","","<div class='trialDiv'><img src='Fruit/mango.png'><br><font class='baseline'><strong>Mega Mangos</strong><p>Choose number of points to bet.</font><div class='respPicDiv'><img src='img/responseButtonOffersNo0L5.png' class='respPic'></div></div>","null","16","Mega Mangos","Fruit/mango.png","Lost","0.35,0.8","14","0.35","179","46","",""
"html-keyboard-response","147","230473","0.0-11.0-3.45","64015b86a1764cf737326eb7","bdp_rwlrn","Wed Mar 15 2023 23:28:05 GMT-0400 (Eastern Daylight Time)","433802","Trustworthy,Untrustworthy","","null","","","","feedback","","<div class='respPicDiv'><img src='img/responseButtonOffersNo0_wht.png' class='respPic'></div><div class='trialDiv'><img src='Fruit/mango.png'><br><font class='baseline'><strong>Mega Mangos</strong><p><strong><font class='negOutcome'>You LOST</font><p>You bet: 5</strong></font> &nbsp; &nbsp; &nbsp; &nbsp; &nbsp; &nbsp;<font class='negOutcome'>You receive: <strong>0</strong></font></div>","null","16","Mega Mangos","Fruit/mango.png","Lost","0.35,0.8","14","0.35","179","46","",""
"html-keyboard-response","148","230786","0.0-11.0-1.46","64015b86a1764cf737326eb7","bdp_rwlrn","Wed Mar 15 2023 23:28:05 GMT-0400 (Eastern Daylight Time)","433802","Trustworthy,Untrustworthy","","311","","","","decision","","<div class='trialDiv'><img src='Fruit/bananas.png'><br><font class='baseline'><strong>Banana Bonanza</strong><p>Choose number of points to bet.</font><div class='respPicDiv'><img src='img/responseButtonOffersNo0L.png' class='respPic'></div></div>","5","16","Banana Bonanza","Fruit/bananas.png","Won","0.35,0.65","11","0.35","184","47","",""
"html-keyboard-response","149","231040","0.0-11.0-2.46","64015b86a1764cf737326eb7","bdp_rwlrn","Wed Mar 15 2023 23:28:05 GMT-0400 (Eastern Daylight Time)","433802","Trustworthy,Untrustworthy","","null","","","","decisionFB","","<div class='trialDiv'><img src='Fruit/bananas.png'><br><font class='baseline'><strong>Banana Bonanza</strong><p>Choose number of points to bet.</font><div class='respPicDiv'><img src='img/responseButtonOffersNo0L5.png' class='respPic'></div></div>","null","16","Banana Bonanza","Fruit/bananas.png","Won","0.35,0.65","11","0.35","179","47","",""
"html-keyboard-response","150","232047","0.0-11.0-3.46","64015b86a1764cf737326eb7","bdp_rwlrn","Wed Mar 15 2023 23:28:05 GMT-0400 (Eastern Daylight Time)","433802","Trustworthy,Untrustworthy","","null","","","","feedback","","<div class='respPicDiv'><img src='img/responseButtonOffersNo0_wht.png' class='respPic'></div><div class='trialDiv'><img src='Fruit/bananas.png'><br><font class='baseline'><strong>Banana Bonanza</strong><p><strong><font class='posOutcome'>You WON</font><p>You bet: 5</strong></font> &nbsp; &nbsp; &nbsp; &nbsp; &nbsp; &nbsp;<font class='posOutcome'>you receive: <strong>10</strong></font></div>","null","16","Banana Bonanza","Fruit/bananas.png","Won","0.35,0.65","11","0.35","189","47","",""
"html-keyboard-response","151","233298","0.0-11.0-1.47","64015b86a1764cf737326eb7","bdp_rwlrn","Wed Mar 15 2023 23:28:05 GMT-0400 (Eastern Daylight Time)","433802","Trustworthy,Untrustworthy","","1250","","","","decision","","<div class='trialDiv'><img src='Fruit/pears.png'><br><font class='baseline'><strong>Pears Aplenty</strong><p>Choose number of points to bet.</font><div class='respPicDiv'><img src='img/responseButtonOffersNo0L.png' class='respPic'></div></div>","2","16","Pears Aplenty","Fruit/pears.png","Lost","0.65,0.2","9","0.65","194","48","",""
"html-keyboard-response","152","233549","0.0-11.0-2.47","64015b86a1764cf737326eb7","bdp_rwlrn","Wed Mar 15 2023 23:28:05 GMT-0400 (Eastern Daylight Time)","433802","Trustworthy,Untrustworthy","","null","","","","decisionFB","","<div class='trialDiv'><img src='Fruit/pears.png'><br><font class='baseline'><strong>Pears Aplenty</strong><p>Choose number of points to bet.</font><div class='respPicDiv'><img src='img/responseButtonOffersNo0L2.png' class='respPic'></div></div>","null","16","Pears Aplenty","Fruit/pears.png","Lost","0.65,0.2","9","0.65","192","48","",""
"html-keyboard-response","153","234554","0.0-11.0-3.47","64015b86a1764cf737326eb7","bdp_rwlrn","Wed Mar 15 2023 23:28:05 GMT-0400 (Eastern Daylight Time)","433802","Trustworthy,Untrustworthy","","null","","","","feedback","","<div class='respPicDiv'><img src='img/responseButtonOffersNo0_wht.png' class='respPic'></div><div class='trialDiv'><img src='Fruit/pears.png'><br><font class='baseline'><strong>Pears Aplenty</strong><p><strong><font class='negOutcome'>You LOST</font><p>You bet: 2</strong></font> &nbsp; &nbsp; &nbsp; &nbsp; &nbsp; &nbsp;<font class='negOutcome'>You receive: <strong>0</strong></font></div>","null","16","Pears Aplenty","Fruit/pears.png","Lost","0.65,0.2","9","0.65","192","48","",""
"html-keyboard-response","154","235049","0.0-11.0-1.48","64015b86a1764cf737326eb7","bdp_rwlrn","Wed Mar 15 2023 23:28:05 GMT-0400 (Eastern Daylight Time)","433802","Trustworthy,Untrustworthy","","494","","","","decision","","<div class='trialDiv'><img src='Fruit/mango.png'><br><font class='baseline'><strong>Mega Mangos</strong><p>Choose number of points to bet.</font><div class='respPicDiv'><img src='img/responseButtonOffersNo0L.png' class='respPic'></div></div>","1","17","Mega Mangos","Fruit/mango.png","Won","0.35,0.8","14","0.35","197","49","",""
"html-keyboard-response","155","235302","0.0-11.0-2.48","64015b86a1764cf737326eb7","bdp_rwlrn","Wed Mar 15 2023 23:28:05 GMT-0400 (Eastern Daylight Time)","433802","Trustworthy,Untrustworthy","","null","","","","decisionFB","","<div class='trialDiv'><img src='Fruit/mango.png'><br><font class='baseline'><strong>Mega Mangos</strong><p>Choose number of points to bet.</font><div class='respPicDiv'><img src='img/responseButtonOffersNo0L1.png' class='respPic'></div></div>","null","17","Mega Mangos","Fruit/mango.png","Won","0.35,0.8","14","0.35","196","49","",""
"html-keyboard-response","156","236306","0.0-11.0-3.48","64015b86a1764cf737326eb7","bdp_rwlrn","Wed Mar 15 2023 23:28:05 GMT-0400 (Eastern Daylight Time)","433802","Trustworthy,Untrustworthy","","null","","","","feedback","","<div class='respPicDiv'><img src='img/responseButtonOffersNo0_wht.png' class='respPic'></div><div class='trialDiv'><img src='Fruit/mango.png'><br><font class='baseline'><strong>Mega Mangos</strong><p><strong><font class='posOutcome'>You WON</font><p>You bet: 1</strong></font> &nbsp; &nbsp; &nbsp; &nbsp; &nbsp; &nbsp;<font class='posOutcome'>you receive: <strong>2</strong></font></div>","null","17","Mega Mangos","Fruit/mango.png","Won","0.35,0.8","14","0.35","198","49","",""
"html-keyboard-response","157","236788","0.0-11.0-1.49","64015b86a1764cf737326eb7","bdp_rwlrn","Wed Mar 15 2023 23:28:05 GMT-0400 (Eastern Daylight Time)","433802","Trustworthy,Untrustworthy","","481","","","","decision","","<div class='trialDiv'><img src='Fruit/bananas.png'><br><font class='baseline'><strong>Banana Bonanza</strong><p>Choose number of points to bet.</font><div class='respPicDiv'><img src='img/responseButtonOffersNo0L.png' class='respPic'></div></div>","3","17","Banana Bonanza","Fruit/bananas.png","Won","0.35,0.65","11","0.35","203","50","",""
"html-keyboard-response","158","237040","0.0-11.0-2.49","64015b86a1764cf737326eb7","bdp_rwlrn","Wed Mar 15 2023 23:28:05 GMT-0400 (Eastern Daylight Time)","433802","Trustworthy,Untrustworthy","","null","","","","decisionFB","","<div class='trialDiv'><img src='Fruit/bananas.png'><br><font class='baseline'><strong>Banana Bonanza</strong><p>Choose number of points to bet.</font><div class='respPicDiv'><img src='img/responseButtonOffersNo0L3.png' class='respPic'></div></div>","null","17","Banana Bonanza","Fruit/bananas.png","Won","0.35,0.65","11","0.35","200","50","",""
"html-keyboard-response","159","238046","0.0-11.0-3.49","64015b86a1764cf737326eb7","bdp_rwlrn","Wed Mar 15 2023 23:28:05 GMT-0400 (Eastern Daylight Time)","433802","Trustworthy,Untrustworthy","","null","","","","feedback","","<div class='respPicDiv'><img src='img/responseButtonOffersNo0_wht.png' class='respPic'></div><div class='trialDiv'><img src='Fruit/bananas.png'><br><font class='baseline'><strong>Banana Bonanza</strong><p><strong><font class='posOutcome'>You WON</font><p>You bet: 3</strong></font> &nbsp; &nbsp; &nbsp; &nbsp; &nbsp; &nbsp;<font class='posOutcome'>you receive: <strong>6</strong></font></div>","null","17","Banana Bonanza","Fruit/bananas.png","Won","0.35,0.65","11","0.35","206","50","",""
"html-keyboard-response","160","238419","0.0-11.0-1.50","64015b86a1764cf737326eb7","bdp_rwlrn","Wed Mar 15 2023 23:28:05 GMT-0400 (Eastern Daylight Time)","433802","Trustworthy,Untrustworthy","","372","","","","decision","","<div class='trialDiv'><img src='Fruit/pears.png'><br><font class='baseline'><strong>Pears Aplenty</strong><p>Choose number of points to bet.</font><div class='respPicDiv'><img src='img/responseButtonOffersNo0L.png' class='respPic'></div></div>","1","17","Pears Aplenty","Fruit/pears.png","Lost","0.65,0.2","9","0.65","211","51","",""
"html-keyboard-response","161","238671","0.0-11.0-2.50","64015b86a1764cf737326eb7","bdp_rwlrn","Wed Mar 15 2023 23:28:05 GMT-0400 (Eastern Daylight Time)","433802","Trustworthy,Untrustworthy","","null","","","","decisionFB","","<div class='trialDiv'><img src='Fruit/pears.png'><br><font class='baseline'><strong>Pears Aplenty</strong><p>Choose number of points to bet.</font><div class='respPicDiv'><img src='img/responseButtonOffersNo0L1.png' class='respPic'></div></div>","null","17","Pears Aplenty","Fruit/pears.png","Lost","0.65,0.2","9","0.65","210","51","",""
"html-keyboard-response","162","239674","0.0-11.0-3.50","64015b86a1764cf737326eb7","bdp_rwlrn","Wed Mar 15 2023 23:28:05 GMT-0400 (Eastern Daylight Time)","433802","Trustworthy,Untrustworthy","","null","","","","feedback","","<div class='respPicDiv'><img src='img/responseButtonOffersNo0_wht.png' class='respPic'></div><div class='trialDiv'><img src='Fruit/pears.png'><br><font class='baseline'><strong>Pears Aplenty</strong><p><strong><font class='negOutcome'>You LOST</font><p>You bet: 1</strong></font> &nbsp; &nbsp; &nbsp; &nbsp; &nbsp; &nbsp;<font class='negOutcome'>You receive: <strong>0</strong></font></div>","null","17","Pears Aplenty","Fruit/pears.png","Lost","0.65,0.2","9","0.65","210","51","",""
"html-keyboard-response","163","240154","0.0-11.0-1.51","64015b86a1764cf737326eb7","bdp_rwlrn","Wed Mar 15 2023 23:28:05 GMT-0400 (Eastern Daylight Time)","433802","Trustworthy,Untrustworthy","","478","","","","decision","","<div class='trialDiv'><img src='Fruit/bananas.png'><br><font class='baseline'><strong>Banana Bonanza</strong><p>Choose number of points to bet.</font><div class='respPicDiv'><img src='img/responseButtonOffersNo0L.png' class='respPic'></div></div>","1","18","Banana Bonanza","Fruit/bananas.png","Won","0.35,0.65","11","0.35","215","52","",""
