"trial_type","trial_index","time_elapsed","internal_node_id","subject_id","task","startTime","totalTime","labels","view_history","rt","event","trial","time","trialtype","success","stimulus","key_press","ltround","name","fileID","outcome","lottotype","lottoswpt","lottocurrpshare","point_total","round","faceID","face"
"pavlovia","0","2","0.0-0.0","6108cd48a97ffccb0e7e518c","bdp_rwlrn","Wed Mar 15 2023 14:49:12 GMT-0400 (Eastern Daylight Time)","570882","Trustworthy,Untrustworthy","","","","","","","","","","","","","","","","","","","",""
"instructions","1","3491","0.0-1.0","6108cd48a97ffccb0e7e518c","bdp_rwlrn","Wed Mar 15 2023 14:49:12 GMT-0400 (Eastern Daylight Time)","570882","Trustworthy,Untrustworthy","[{""page_index"":0,""viewing_time"":3487}]","3487","","","","","","","","","","","","","","","","","",""
"","","","","6108cd48a97ffccb0e7e518c","bdp_rwlrn","Wed Mar 15 2023 14:49:12 GMT-0400 (Eastern Daylight Time)","570882","Trustworthy,Untrustworthy","","","fullscreenenter","2","7224","fullscreenenter","","","","","","","","","","","","","",""
"fullscreen","2","8223","0.0-2.0","6108cd48a97ffccb0e7e518c","bdp_rwlrn","Wed Mar 15 2023 14:49:12 GMT-0400 (Eastern Daylight Time)","570882","Trustworthy,Untrustworthy","","","","","","","true","","","","","","","","","","","","",""
"instructions","3","134035","0.0-4.0","6108cd48a97ffccb0e7e518c","bdp_rwlrn","Wed Mar 15 2023 14:49:12 GMT-0400 (Eastern Daylight Time)","570882","Trustworthy,Untrustworthy","[{""page_index"":0,""viewing_time"":19165},{""page_index"":1,""viewing_time"":16041},{""page_index"":2,""viewing_time"":13727},{""page_index"":3,""viewing_time"":37166},{""page_index"":4,""viewing_time"":28162},{""page_index"":5,""viewing_time"":11547}]","125809","","","","","","","","","","","","","","","","","",""
"html-keyboard-response","4","137878","0.0-5.0","6108cd48a97ffccb0e7e518c","bdp_rwlrn","Wed Mar 15 2023 14:49:12 GMT-0400 (Eastern Daylight Time)","570882","Trustworthy,Untrustworthy","","3840","","","","","","<div class='header' style='text-align:left; position: absolute; top: 5%; left: 5%;'><small>Task 1 of 5</small></div><div class='instruxDiv'><p><strong>1) What is the maximum number of points you can choose to bet on a lottery?</strong></p><p>a) 0</p><p>b) 1</p><p>c) 5</p>","C","","","","","","","","","","",""
"html-keyboard-response","5","139963","0.0-6.0","6108cd48a97ffccb0e7e518c","bdp_rwlrn","Wed Mar 15 2023 14:49:12 GMT-0400 (Eastern Daylight Time)","570882","Trustworthy,Untrustworthy","","1982","","","","","","<div class='header' style='text-align:left; position: absolute; top: 5%; left: 5%;'><small>Task 1 of 5</small></div><div class='instruxDiv'><p><strong>1) What is the maximum number of points you can choose to bet on a lottery?</strong></p><p>a) 1</p><p>b) 1</p><p style='color:#00FF00'>c) 5</p><h3 style='color:#00FF00'>Correct!</h3><h3 class='center-content'>The correct response is c).</h3><h3 class='center-content'>The maximum number of points you can choose to bet on a lottery is 5 points.</h3><p><em>Press SPACEBAR to continue</em></p></div>"," ","","","","","","","","","","",""
"html-keyboard-response","6","143910","0.0-7.0","6108cd48a97ffccb0e7e518c","bdp_rwlrn","Wed Mar 15 2023 14:49:12 GMT-0400 (Eastern Daylight Time)","570882","Trustworthy,Untrustworthy","","3840","","","","","","<div class='header' style='text-align:left; position: absolute; top: 5%; left: 5%;'><small>Task 1 of 5</small></div><div class='instruxDiv'><p><strong>2) How many points can you win each round?</strong></p><p>a) 10 points</p><p>b) Double what you bet</p><p>c) Quadruple what you bet</p>","B","","","","","","","","","","",""
"html-keyboard-response","7","145016","0.0-8.0","6108cd48a97ffccb0e7e518c","bdp_rwlrn","Wed Mar 15 2023 14:49:12 GMT-0400 (Eastern Daylight Time)","570882","Trustworthy,Untrustworthy","","1002","","","","","","<div class='header' style='text-align:left; position: absolute; top: 5%; left: 5%;'><small>Task 1 of 5</small></div><div class='instruxDiv'><p><strong>2) How many points can you win each round?</strong></p><p>a) 10 points</p><p style='color:#00FF00'>b) Double what you bet</p><p>c) Quadruple what you bet</p><h3 style='color:#00FF00'>Correct!</h3><h3 class='center-content'>The correct response is b).</h3><h3 class='center-content'>You can win double the amount of points you bet.</h3><p><em>Press SPACEBAR to continue</em></p></div>"," ","","","","","","","","","","",""
"html-keyboard-response","8","150136","0.0-9.0","6108cd48a97ffccb0e7e518c","bdp_rwlrn","Wed Mar 15 2023 14:49:12 GMT-0400 (Eastern Daylight Time)","570882","Trustworthy,Untrustworthy","","null","","","","","","<div class='header' style='text-align:left; position: absolute; top: 5%; left: 5%;'><small>Task 1 of 5</small></div><div class='instruxDiv'><p>Thank you for completing the quiz<p>These are the actual lotteries you will be playing in the next block:<p><div class='tc' align='center'><img class='introPic' src='Fruit/watermelon.png'><br><strong>Watermelon Win$</strong></div><div class='bl' align='center'><img class='introPic' src='Fruit/papayas.png'><br><strong>Papaya Payday</strong></div><div class='br' align='center'><img class='introPic' src='Fruit/mango.png'><br><strong>Mega Mangos</strong></div></div><p>Across <strong>66 rounds</strong> you will play each lottery <strong>22 times</strong> (in random order).<p style='align:center; color:white'><font <em>Press SPACEBAR to continue</em></p>","null","","","","","","","","","","",""
"instructions","9","156930","0.0-10.0","6108cd48a97ffccb0e7e518c","bdp_rwlrn","Wed Mar 15 2023 14:49:12 GMT-0400 (Eastern Daylight Time)","570882","Trustworthy,Untrustworthy","[{""page_index"":0,""viewing_time"":4465},{""page_index"":1,""viewing_time"":2327}]","6793","","","","","","","","","","","","","","","","","",""
"html-keyboard-response","10","162776","0.0-11.0-1.0","6108cd48a97ffccb0e7e518c","bdp_rwlrn","Wed Mar 15 2023 14:49:12 GMT-0400 (Eastern Daylight Time)","570882","Trustworthy,Untrustworthy","","5734","","","","decision","","<div class='trialDiv'><img src='Fruit/papayas.png'><br><font class='baseline'><strong>Papaya Payday</strong><p>Choose number of points to bet.</font><div class='respPicDiv'><img src='img/responseButtonOffersNo0L.png' class='respPic'></div></div>","1","1","Papaya Payday","Fruit/papayas.png","Won","0.65,0.2","11","0.65","5","1","",""
"html-keyboard-response","11","163039","0.0-11.0-2.0","6108cd48a97ffccb0e7e518c","bdp_rwlrn","Wed Mar 15 2023 14:49:12 GMT-0400 (Eastern Daylight Time)","570882","Trustworthy,Untrustworthy","","null","","","","decisionFB","","<div class='trialDiv'><img src='Fruit/papayas.png'><br><font class='baseline'><strong>Papaya Payday</strong><p>Choose number of points to bet.</font><div class='respPicDiv'><img src='img/responseButtonOffersNo0L1.png' class='respPic'></div></div>","null","1","Papaya Payday","Fruit/papayas.png","Won","0.65,0.2","11","0.65","4","1","",""
"html-keyboard-response","12","164043","0.0-11.0-3.0","6108cd48a97ffccb0e7e518c","bdp_rwlrn","Wed Mar 15 2023 14:49:12 GMT-0400 (Eastern Daylight Time)","570882","Trustworthy,Untrustworthy","","null","","","","feedback","","<div class='respPicDiv'><img src='img/responseButtonOffersNo0_wht.png' class='respPic'></div><div class='trialDiv'><img src='Fruit/papayas.png'><br><font class='baseline'><strong>Papaya Payday</strong><p><strong><font class='posOutcome'>You WON</font><p>You bet: 1</strong></font> &nbsp; &nbsp; &nbsp; &nbsp; &nbsp; &nbsp;<font class='posOutcome'>you receive: <strong>2</strong></font></div>","null","1","Papaya Payday","Fruit/papayas.png","Won","0.65,0.2","11","0.65","6","1","",""
"html-keyboard-response","13","166147","0.0-11.0-1.1","6108cd48a97ffccb0e7e518c","bdp_rwlrn","Wed Mar 15 2023 14:49:12 GMT-0400 (Eastern Daylight Time)","570882","Trustworthy,Untrustworthy","","2102","","","","decision","","<div class='trialDiv'><img src='Fruit/watermelon.png'><br><font class='baseline'><strong>Watermelon Win$</strong><p>Choose number of points to bet.</font><div class='respPicDiv'><img src='img/responseButtonOffersNo0L.png' class='respPic'></div></div>","2","1","Watermelon Win$","Fruit/watermelon.png","Lost","0.35,0.8","12","0.35","11","2","",""
"html-keyboard-response","14","166407","0.0-11.0-2.1","6108cd48a97ffccb0e7e518c","bdp_rwlrn","Wed Mar 15 2023 14:49:12 GMT-0400 (Eastern Daylight Time)","570882","Trustworthy,Untrustworthy","","null","","","","decisionFB","","<div class='trialDiv'><img src='Fruit/watermelon.png'><br><font class='baseline'><strong>Watermelon Win$</strong><p>Choose number of points to bet.</font><div class='respPicDiv'><img src='img/responseButtonOffersNo0L2.png' class='respPic'></div></div>","null","1","Watermelon Win$","Fruit/watermelon.png","Lost","0.35,0.8","12","0.35","9","2","",""
"html-keyboard-response","15","167415","0.0-11.0-3.1","6108cd48a97ffccb0e7e518c","bdp_rwlrn","Wed Mar 15 2023 14:49:12 GMT-0400 (Eastern Daylight Time)","570882","Trustworthy,Untrustworthy","","null","","","","feedback","","<div class='respPicDiv'><img src='img/responseButtonOffersNo0_wht.png' class='respPic'></div><div class='trialDiv'><img src='Fruit/watermelon.png'><br><font class='baseline'><strong>Watermelon Win$</strong><p><strong><font class='negOutcome'>You LOST</font><p>You bet: 2</strong></font> &nbsp; &nbsp; &nbsp; &nbsp; &nbsp; &nbsp;<font class='negOutcome'>You receive: <strong>0</strong></font></div>","null","1","Watermelon Win$","Fruit/watermelon.png","Lost","0.35,0.8","12","0.35","9","2","",""
"html-keyboard-response","16","169113","0.0-11.0-1.2","6108cd48a97ffccb0e7e518c","bdp_rwlrn","Wed Mar 15 2023 14:49:12 GMT-0400 (Eastern Daylight Time)","570882","Trustworthy,Untrustworthy","","1695","","","","decision","","<div class='trialDiv'><img src='Fruit/mango.png'><br><font class='baseline'><strong>Mega Mangos</strong><p>Choose number of points to bet.</font><div class='respPicDiv'><img src='img/responseButtonOffersNo0L.png' class='respPic'></div></div>","1","1","Mega Mangos","Fruit/mango.png","Won","0.35,0.65","14","0.35","14","3","",""
"html-keyboard-response","17","169375","0.0-11.0-2.2","6108cd48a97ffccb0e7e518c","bdp_rwlrn","Wed Mar 15 2023 14:49:12 GMT-0400 (Eastern Daylight Time)","570882","Trustworthy,Untrustworthy","","null","","","","decisionFB","","<div class='trialDiv'><img src='Fruit/mango.png'><br><font class='baseline'><strong>Mega Mangos</strong><p>Choose number of points to bet.</font><div class='respPicDiv'><img src='img/responseButtonOffersNo0L1.png' class='respPic'></div></div>","null","1","Mega Mangos","Fruit/mango.png","Won","0.35,0.65","14","0.35","13","3","",""
"html-keyboard-response","18","170383","0.0-11.0-3.2","6108cd48a97ffccb0e7e518c","bdp_rwlrn","Wed Mar 15 2023 14:49:12 GMT-0400 (Eastern Daylight Time)","570882","Trustworthy,Untrustworthy","","null","","","","feedback","","<div class='respPicDiv'><img src='img/responseButtonOffersNo0_wht.png' class='respPic'></div><div class='trialDiv'><img src='Fruit/mango.png'><br><font class='baseline'><strong>Mega Mangos</strong><p><strong><font class='posOutcome'>You WON</font><p>You bet: 1</strong></font> &nbsp; &nbsp; &nbsp; &nbsp; &nbsp; &nbsp;<font class='posOutcome'>you receive: <strong>2</strong></font></div>","null","1","Mega Mangos","Fruit/mango.png","Won","0.35,0.65","14","0.35","15","3","",""
"html-keyboard-response","19","171929","0.0-11.0-1.3","6108cd48a97ffccb0e7e518c","bdp_rwlrn","Wed Mar 15 2023 14:49:12 GMT-0400 (Eastern Daylight Time)","570882","Trustworthy,Untrustworthy","","1544","","","","decision","","<div class='trialDiv'><img src='Fruit/watermelon.png'><br><font class='baseline'><strong>Watermelon Win$</strong><p>Choose number of points to bet.</font><div class='respPicDiv'><img src='img/responseButtonOffersNo0L.png' class='respPic'></div></div>","4","2","Watermelon Win$","Fruit/watermelon.png","Won","0.35,0.8","12","0.35","20","4","",""
"html-keyboard-response","20","172183","0.0-11.0-2.3","6108cd48a97ffccb0e7e518c","bdp_rwlrn","Wed Mar 15 2023 14:49:12 GMT-0400 (Eastern Daylight Time)","570882","Trustworthy,Untrustworthy","","null","","","","decisionFB","","<div class='trialDiv'><img src='Fruit/watermelon.png'><br><font class='baseline'><strong>Watermelon Win$</strong><p>Choose number of points to bet.</font><div class='respPicDiv'><img src='img/responseButtonOffersNo0L4.png' class='respPic'></div></div>","null","2","Watermelon Win$","Fruit/watermelon.png","Won","0.35,0.8","12","0.35","16","4","",""
"html-keyboard-response","21","173191","0.0-11.0-3.3","6108cd48a97ffccb0e7e518c","bdp_rwlrn","Wed Mar 15 2023 14:49:12 GMT-0400 (Eastern Daylight Time)","570882","Trustworthy,Untrustworthy","","null","","","","feedback","","<div class='respPicDiv'><img src='img/responseButtonOffersNo0_wht.png' class='respPic'></div><div class='trialDiv'><img src='Fruit/watermelon.png'><br><font class='baseline'><strong>Watermelon Win$</strong><p><strong><font class='posOutcome'>You WON</font><p>You bet: 4</strong></font> &nbsp; &nbsp; &nbsp; &nbsp; &nbsp; &nbsp;<font class='posOutcome'>you receive: <strong>8</strong></font></div>","null","2","Watermelon Win$","Fruit/watermelon.png","Won","0.35,0.8","12","0.35","24","4","",""
"html-keyboard-response","22","176607","0.0-11.0-1.4","6108cd48a97ffccb0e7e518c","bdp_rwlrn","Wed Mar 15 2023 14:49:12 GMT-0400 (Eastern Daylight Time)","570882","Trustworthy,Untrustworthy","","3414","","","","decision","","<div class='trialDiv'><img src='Fruit/mango.png'><br><font class='baseline'><strong>Mega Mangos</strong><p>Choose number of points to bet.</font><div class='respPicDiv'><img src='img/responseButtonOffersNo0L.png' class='respPic'></div></div>","5","2","Mega Mangos","Fruit/mango.png","Lost","0.35,0.65","14","0.35","29","5","",""
"html-keyboard-response","23","176870","0.0-11.0-2.4","6108cd48a97ffccb0e7e518c","bdp_rwlrn","Wed Mar 15 2023 14:49:12 GMT-0400 (Eastern Daylight Time)","570882","Trustworthy,Untrustworthy","","null","","","","decisionFB","","<div class='trialDiv'><img src='Fruit/mango.png'><br><font class='baseline'><strong>Mega Mangos</strong><p>Choose number of points to bet.</font><div class='respPicDiv'><img src='img/responseButtonOffersNo0L5.png' class='respPic'></div></div>","null","2","Mega Mangos","Fruit/mango.png","Lost","0.35,0.65","14","0.35","24","5","",""
"html-keyboard-response","24","177875","0.0-11.0-3.4","6108cd48a97ffccb0e7e518c","bdp_rwlrn","Wed Mar 15 2023 14:49:12 GMT-0400 (Eastern Daylight Time)","570882","Trustworthy,Untrustworthy","","null","","","","feedback","","<div class='respPicDiv'><img src='img/responseButtonOffersNo0_wht.png' class='respPic'></div><div class='trialDiv'><img src='Fruit/mango.png'><br><font class='baseline'><strong>Mega Mangos</strong><p><strong><font class='negOutcome'>You LOST</font><p>You bet: 5</strong></font> &nbsp; &nbsp; &nbsp; &nbsp; &nbsp; &nbsp;<font class='negOutcome'>You receive: <strong>0</strong></font></div>","null","2","Mega Mangos","Fruit/mango.png","Lost","0.35,0.65","14","0.35","24","5","",""
"html-keyboard-response","25","179423","0.0-11.0-1.5","6108cd48a97ffccb0e7e518c","bdp_rwlrn","Wed Mar 15 2023 14:49:12 GMT-0400 (Eastern Daylight Time)","570882","Trustworthy,Untrustworthy","","1546","","","","decision","","<div class='trialDiv'><img src='Fruit/papayas.png'><br><font class='baseline'><strong>Papaya Payday</strong><p>Choose number of points to bet.</font><div class='respPicDiv'><img src='img/responseButtonOffersNo0L.png' class='respPic'></div></div>","5","2","Papaya Payday","Fruit/papayas.png","Won","0.65,0.2","11","0.65","29","6","",""
"html-keyboard-response","26","179686","0.0-11.0-2.5","6108cd48a97ffccb0e7e518c","bdp_rwlrn","Wed Mar 15 2023 14:49:12 GMT-0400 (Eastern Daylight Time)","570882","Trustworthy,Untrustworthy","","null","","","","decisionFB","","<div class='trialDiv'><img src='Fruit/papayas.png'><br><font class='baseline'><strong>Papaya Payday</strong><p>Choose number of points to bet.</font><div class='respPicDiv'><img src='img/responseButtonOffersNo0L5.png' class='respPic'></div></div>","null","2","Papaya Payday","Fruit/papayas.png","Won","0.65,0.2","11","0.65","24","6","",""
"html-keyboard-response","27","180694","0.0-11.0-3.5","6108cd48a97ffccb0e7e518c","bdp_rwlrn","Wed Mar 15 2023 14:49:12 GMT-0400 (Eastern Daylight Time)","570882","Trustworthy,Untrustworthy","","null","","","","feedback","","<div class='respPicDiv'><img src='img/responseButtonOffersNo0_wht.png' class='respPic'></div><div class='trialDiv'><img src='Fruit/papayas.png'><br><font class='baseline'><strong>Papaya Payday</strong><p><strong><font class='posOutcome'>You WON</font><p>You bet: 5</strong></font> &nbsp; &nbsp; &nbsp; &nbsp; &nbsp; &nbsp;<font class='posOutcome'>you receive: <strong>10</strong></font></div>","null","2","Papaya Payday","Fruit/papayas.png","Won","0.65,0.2","11","0.65","34","6","",""
"html-keyboard-response","28","183437","0.0-11.0-1.6","6108cd48a97ffccb0e7e518c","bdp_rwlrn","Wed Mar 15 2023 14:49:12 GMT-0400 (Eastern Daylight Time)","570882","Trustworthy,Untrustworthy","","2740","","","","decision","","<div class='trialDiv'><img src='Fruit/mango.png'><br><font class='baseline'><strong>Mega Mangos</strong><p>Choose number of points to bet.</font><div class='respPicDiv'><img src='img/responseButtonOffersNo0L.png' class='respPic'></div></div>","5","3","Mega Mangos","Fruit/mango.png","Lost","0.35,0.65","14","0.35","39","7","",""
"html-keyboard-response","29","183702","0.0-11.0-2.6","6108cd48a97ffccb0e7e518c","bdp_rwlrn","Wed Mar 15 2023 14:49:12 GMT-0400 (Eastern Daylight Time)","570882","Trustworthy,Untrustworthy","","null","","","","decisionFB","","<div class='trialDiv'><img src='Fruit/mango.png'><br><font class='baseline'><strong>Mega Mangos</strong><p>Choose number of points to bet.</font><div class='respPicDiv'><img src='img/responseButtonOffersNo0L5.png' class='respPic'></div></div>","null","3","Mega Mangos","Fruit/mango.png","Lost","0.35,0.65","14","0.35","34","7","",""
"html-keyboard-response","30","184710","0.0-11.0-3.6","6108cd48a97ffccb0e7e518c","bdp_rwlrn","Wed Mar 15 2023 14:49:12 GMT-0400 (Eastern Daylight Time)","570882","Trustworthy,Untrustworthy","","null","","","","feedback","","<div class='respPicDiv'><img src='img/responseButtonOffersNo0_wht.png' class='respPic'></div><div class='trialDiv'><img src='Fruit/mango.png'><br><font class='baseline'><strong>Mega Mangos</strong><p><strong><font class='negOutcome'>You LOST</font><p>You bet: 5</strong></font> &nbsp; &nbsp; &nbsp; &nbsp; &nbsp; &nbsp;<font class='negOutcome'>You receive: <strong>0</strong></font></div>","null","3","Mega Mangos","Fruit/mango.png","Lost","0.35,0.65","14","0.35","34","7","",""
"html-keyboard-response","31","185167","0.0-11.0-1.7","6108cd48a97ffccb0e7e518c","bdp_rwlrn","Wed Mar 15 2023 14:49:12 GMT-0400 (Eastern Daylight Time)","570882","Trustworthy,Untrustworthy","","455","","","","decision","","<div class='trialDiv'><img src='Fruit/papayas.png'><br><font class='baseline'><strong>Papaya Payday</strong><p>Choose number of points to bet.</font><div class='respPicDiv'><img src='img/responseButtonOffersNo0L.png' class='respPic'></div></div>","5","3","Papaya Payday","Fruit/papayas.png","Lost","0.65,0.2","11","0.65","39","8","",""
"html-keyboard-response","32","185430","0.0-11.0-2.7","6108cd48a97ffccb0e7e518c","bdp_rwlrn","Wed Mar 15 2023 14:49:12 GMT-0400 (Eastern Daylight Time)","570882","Trustworthy,Untrustworthy","","null","","","","decisionFB","","<div class='trialDiv'><img src='Fruit/papayas.png'><br><font class='baseline'><strong>Papaya Payday</strong><p>Choose number of points to bet.</font><div class='respPicDiv'><img src='img/responseButtonOffersNo0L5.png' class='respPic'></div></div>","null","3","Papaya Payday","Fruit/papayas.png","Lost","0.65,0.2","11","0.65","34","8","",""
"html-keyboard-response","33","186438","0.0-11.0-3.7","6108cd48a97ffccb0e7e518c","bdp_rwlrn","Wed Mar 15 2023 14:49:12 GMT-0400 (Eastern Daylight Time)","570882","Trustworthy,Untrustworthy","","null","","","","feedback","","<div class='respPicDiv'><img src='img/responseButtonOffersNo0_wht.png' class='respPic'></div><div class='trialDiv'><img src='Fruit/papayas.png'><br><font class='baseline'><strong>Papaya Payday</strong><p><strong><font class='negOutcome'>You LOST</font><p>You bet: 5</strong></font> &nbsp; &nbsp; &nbsp; &nbsp; &nbsp; &nbsp;<font class='negOutcome'>You receive: <strong>0</strong></font></div>","null","3","Papaya Payday","Fruit/papayas.png","Lost","0.65,0.2","11","0.65","34","8","",""
"html-keyboard-response","34","186773","0.0-11.0-1.8","6108cd48a97ffccb0e7e518c","bdp_rwlrn","Wed Mar 15 2023 14:49:12 GMT-0400 (Eastern Daylight Time)","570882","Trustworthy,Untrustworthy","","333","","","","decision","","<div class='trialDiv'><img src='Fruit/watermelon.png'><br><font class='baseline'><strong>Watermelon Win$</strong><p>Choose number of points to bet.</font><div class='respPicDiv'><img src='img/responseButtonOffersNo0L.png' class='respPic'></div></div>","5","3","Watermelon Win$","Fruit/watermelon.png","Lost","0.35,0.8","12","0.35","39","9","",""
"html-keyboard-response","35","187035","0.0-11.0-2.8","6108cd48a97ffccb0e7e518c","bdp_rwlrn","Wed Mar 15 2023 14:49:12 GMT-0400 (Eastern Daylight Time)","570882","Trustworthy,Untrustworthy","","null","","","","decisionFB","","<div class='trialDiv'><img src='Fruit/watermelon.png'><br><font class='baseline'><strong>Watermelon Win$</strong><p>Choose number of points to bet.</font><div class='respPicDiv'><img src='img/responseButtonOffersNo0L5.png' class='respPic'></div></div>","null","3","Watermelon Win$","Fruit/watermelon.png","Lost","0.35,0.8","12","0.35","34","9","",""
"html-keyboard-response","36","188046","0.0-11.0-3.8","6108cd48a97ffccb0e7e518c","bdp_rwlrn","Wed Mar 15 2023 14:49:12 GMT-0400 (Eastern Daylight Time)","570882","Trustworthy,Untrustworthy","","null","","","","feedback","","<div class='respPicDiv'><img src='img/responseButtonOffersNo0_wht.png' class='respPic'></div><div class='trialDiv'><img src='Fruit/watermelon.png'><br><font class='baseline'><strong>Watermelon Win$</strong><p><strong><font class='negOutcome'>You LOST</font><p>You bet: 5</strong></font> &nbsp; &nbsp; &nbsp; &nbsp; &nbsp; &nbsp;<font class='negOutcome'>You receive: <strong>0</strong></font></div>","null","3","Watermelon Win$","Fruit/watermelon.png","Lost","0.35,0.8","12","0.35","34","9","",""
"html-keyboard-response","37","188705","0.0-11.0-1.9","6108cd48a97ffccb0e7e518c","bdp_rwlrn","Wed Mar 15 2023 14:49:12 GMT-0400 (Eastern Daylight Time)","570882","Trustworthy,Untrustworthy","","656","","","","decision","","<div class='trialDiv'><img src='Fruit/mango.png'><br><font class='baseline'><strong>Mega Mangos</strong><p>Choose number of points to bet.</font><div class='respPicDiv'><img src='img/responseButtonOffersNo0L.png' class='respPic'></div></div>","4","4","Mega Mangos","Fruit/mango.png","Lost","0.35,0.65","14","0.35","39","10","",""
"html-keyboard-response","38","188964","0.0-11.0-2.9","6108cd48a97ffccb0e7e518c","bdp_rwlrn","Wed Mar 15 2023 14:49:12 GMT-0400 (Eastern Daylight Time)","570882","Trustworthy,Untrustworthy","","null","","","","decisionFB","","<div class='trialDiv'><img src='Fruit/mango.png'><br><font class='baseline'><strong>Mega Mangos</strong><p>Choose number of points to bet.</font><div class='respPicDiv'><img src='img/responseButtonOffersNo0L4.png' class='respPic'></div></div>","null","4","Mega Mangos","Fruit/mango.png","Lost","0.35,0.65","14","0.35","35","10","",""
"html-keyboard-response","39","189974","0.0-11.0-3.9","6108cd48a97ffccb0e7e518c","bdp_rwlrn","Wed Mar 15 2023 14:49:12 GMT-0400 (Eastern Daylight Time)","570882","Trustworthy,Untrustworthy","","null","","","","feedback","","<div class='respPicDiv'><img src='img/responseButtonOffersNo0_wht.png' class='respPic'></div><div class='trialDiv'><img src='Fruit/mango.png'><br><font class='baseline'><strong>Mega Mangos</strong><p><strong><font class='negOutcome'>You LOST</font><p>You bet: 4</strong></font> &nbsp; &nbsp; &nbsp; &nbsp; &nbsp; &nbsp;<font class='negOutcome'>You receive: <strong>0</strong></font></div>","null","4","Mega Mangos","Fruit/mango.png","Lost","0.35,0.65","14","0.35","35","10","",""
"html-keyboard-response","40","190505","0.0-11.0-1.10","6108cd48a97ffccb0e7e518c","bdp_rwlrn","Wed Mar 15 2023 14:49:12 GMT-0400 (Eastern Daylight Time)","570882","Trustworthy,Untrustworthy","","529","","","","decision","","<div class='trialDiv'><img src='Fruit/papayas.png'><br><font class='baseline'><strong>Papaya Payday</strong><p>Choose number of points to bet.</font><div class='respPicDiv'><img src='img/responseButtonOffersNo0L.png' class='respPic'></div></div>","3","4","Papaya Payday","Fruit/papayas.png","Won","0.65,0.2","11","0.65","40","11","",""
"html-keyboard-response","41","190766","0.0-11.0-2.10","6108cd48a97ffccb0e7e518c","bdp_rwlrn","Wed Mar 15 2023 14:49:12 GMT-0400 (Eastern Daylight Time)","570882","Trustworthy,Untrustworthy","","null","","","","decisionFB","","<div class='trialDiv'><img src='Fruit/papayas.png'><br><font class='baseline'><strong>Papaya Payday</strong><p>Choose number of points to bet.</font><div class='respPicDiv'><img src='img/responseButtonOffersNo0L3.png' class='respPic'></div></div>","null","4","Papaya Payday","Fruit/papayas.png","Won","0.65,0.2","11","0.65","37","11","",""
"html-keyboard-response","42","191774","0.0-11.0-3.10","6108cd48a97ffccb0e7e518c","bdp_rwlrn","Wed Mar 15 2023 14:49:12 GMT-0400 (Eastern Daylight Time)","570882","Trustworthy,Untrustworthy","","null","","","","feedback","","<div class='respPicDiv'><img src='img/responseButtonOffersNo0_wht.png' class='respPic'></div><div class='trialDiv'><img src='Fruit/papayas.png'><br><font class='baseline'><strong>Papaya Payday</strong><p><strong><font class='posOutcome'>You WON</font><p>You bet: 3</strong></font> &nbsp; &nbsp; &nbsp; &nbsp; &nbsp; &nbsp;<font class='posOutcome'>you receive: <strong>6</strong></font></div>","null","4","Papaya Payday","Fruit/papayas.png","Won","0.65,0.2","11","0.65","43","11","",""
"html-keyboard-response","43","192906","0.0-11.0-1.11","6108cd48a97ffccb0e7e518c","bdp_rwlrn","Wed Mar 15 2023 14:49:12 GMT-0400 (Eastern Daylight Time)","570882","Trustworthy,Untrustworthy","","1131","","","","decision","","<div class='trialDiv'><img src='Fruit/watermelon.png'><br><font class='baseline'><strong>Watermelon Win$</strong><p>Choose number of points to bet.</font><div class='respPicDiv'><img src='img/responseButtonOffersNo0L.png' class='respPic'></div></div>","2","4","Watermelon Win$","Fruit/watermelon.png","Won","0.35,0.8","12","0.35","48","12","",""
"html-keyboard-response","44","193165","0.0-11.0-2.11","6108cd48a97ffccb0e7e518c","bdp_rwlrn","Wed Mar 15 2023 14:49:12 GMT-0400 (Eastern Daylight Time)","570882","Trustworthy,Untrustworthy","","null","","","","decisionFB","","<div class='trialDiv'><img src='Fruit/watermelon.png'><br><font class='baseline'><strong>Watermelon Win$</strong><p>Choose number of points to bet.</font><div class='respPicDiv'><img src='img/responseButtonOffersNo0L2.png' class='respPic'></div></div>","null","4","Watermelon Win$","Fruit/watermelon.png","Won","0.35,0.8","12","0.35","46","12","",""
"html-keyboard-response","45","194173","0.0-11.0-3.11","6108cd48a97ffccb0e7e518c","bdp_rwlrn","Wed Mar 15 2023 14:49:12 GMT-0400 (Eastern Daylight Time)","570882","Trustworthy,Untrustworthy","","null","","","","feedback","","<div class='respPicDiv'><img src='img/responseButtonOffersNo0_wht.png' class='respPic'></div><div class='trialDiv'><img src='Fruit/watermelon.png'><br><font class='baseline'><strong>Watermelon Win$</strong><p><strong><font class='posOutcome'>You WON</font><p>You bet: 2</strong></font> &nbsp; &nbsp; &nbsp; &nbsp; &nbsp; &nbsp;<font class='posOutcome'>you receive: <strong>4</strong></font></div>","null","4","Watermelon Win$","Fruit/watermelon.png","Won","0.35,0.8","12","0.35","50","12","",""
"html-keyboard-response","46","194569","0.0-11.0-1.12","6108cd48a97ffccb0e7e518c","bdp_rwlrn","Wed Mar 15 2023 14:49:12 GMT-0400 (Eastern Daylight Time)","570882","Trustworthy,Untrustworthy","","393","","","","decision","","<div class='trialDiv'><img src='Fruit/mango.png'><br><font class='baseline'><strong>Mega Mangos</strong><p>Choose number of points to bet.</font><div class='respPicDiv'><img src='img/responseButtonOffersNo0L.png' class='respPic'></div></div>","5","5","Mega Mangos","Fruit/mango.png","Lost","0.35,0.65","14","0.35","55","13","",""
"html-keyboard-response","47","194829","0.0-11.0-2.12","6108cd48a97ffccb0e7e518c","bdp_rwlrn","Wed Mar 15 2023 14:49:12 GMT-0400 (Eastern Daylight Time)","570882","Trustworthy,Untrustworthy","","null","","","","decisionFB","","<div class='trialDiv'><img src='Fruit/mango.png'><br><font class='baseline'><strong>Mega Mangos</strong><p>Choose number of points to bet.</font><div class='respPicDiv'><img src='img/responseButtonOffersNo0L5.png' class='respPic'></div></div>","null","5","Mega Mangos","Fruit/mango.png","Lost","0.35,0.65","14","0.35","50","13","",""
"html-keyboard-response","48","195837","0.0-11.0-3.12","6108cd48a97ffccb0e7e518c","bdp_rwlrn","Wed Mar 15 2023 14:49:12 GMT-0400 (Eastern Daylight Time)","570882","Trustworthy,Untrustworthy","","null","","","","feedback","","<div class='respPicDiv'><img src='img/responseButtonOffersNo0_wht.png' class='respPic'></div><div class='trialDiv'><img src='Fruit/mango.png'><br><font class='baseline'><strong>Mega Mangos</strong><p><strong><font class='negOutcome'>You LOST</font><p>You bet: 5</strong></font> &nbsp; &nbsp; &nbsp; &nbsp; &nbsp; &nbsp;<font class='negOutcome'>You receive: <strong>0</strong></font></div>","null","5","Mega Mangos","Fruit/mango.png","Lost","0.35,0.65","14","0.35","50","13","",""
"html-keyboard-response","49","196664","0.0-11.0-1.13","6108cd48a97ffccb0e7e518c","bdp_rwlrn","Wed Mar 15 2023 14:49:12 GMT-0400 (Eastern Daylight Time)","570882","Trustworthy,Untrustworthy","","825","","","","decision","","<div class='trialDiv'><img src='Fruit/watermelon.png'><br><font class='baseline'><strong>Watermelon Win$</strong><p>Choose number of points to bet.</font><div class='respPicDiv'><img src='img/responseButtonOffersNo0L.png' class='respPic'></div></div>","3","5","Watermelon Win$","Fruit/watermelon.png","Won","0.35,0.8","12","0.35","55","14","",""
"html-keyboard-response","50","196925","0.0-11.0-2.13","6108cd48a97ffccb0e7e518c","bdp_rwlrn","Wed Mar 15 2023 14:49:12 GMT-0400 (Eastern Daylight Time)","570882","Trustworthy,Untrustworthy","","null","","","","decisionFB","","<div class='trialDiv'><img src='Fruit/watermelon.png'><br><font class='baseline'><strong>Watermelon Win$</strong><p>Choose number of points to bet.</font><div class='respPicDiv'><img src='img/responseButtonOffersNo0L3.png' class='respPic'></div></div>","null","5","Watermelon Win$","Fruit/watermelon.png","Won","0.35,0.8","12","0.35","52","14","",""
"html-keyboard-response","51","197933","0.0-11.0-3.13","6108cd48a97ffccb0e7e518c","bdp_rwlrn","Wed Mar 15 2023 14:49:12 GMT-0400 (Eastern Daylight Time)","570882","Trustworthy,Untrustworthy","","null","","","","feedback","","<div class='respPicDiv'><img src='img/responseButtonOffersNo0_wht.png' class='respPic'></div><div class='trialDiv'><img src='Fruit/watermelon.png'><br><font class='baseline'><strong>Watermelon Win$</strong><p><strong><font class='posOutcome'>You WON</font><p>You bet: 3</strong></font> &nbsp; &nbsp; &nbsp; &nbsp; &nbsp; &nbsp;<font class='posOutcome'>you receive: <strong>6</strong></font></div>","null","5","Watermelon Win$","Fruit/watermelon.png","Won","0.35,0.8","12","0.35","58","14","",""
"html-keyboard-response","52","198792","0.0-11.0-1.14","6108cd48a97ffccb0e7e518c","bdp_rwlrn","Wed Mar 15 2023 14:49:12 GMT-0400 (Eastern Daylight Time)","570882","Trustworthy,Untrustworthy","","857","","","","decision","","<div class='trialDiv'><img src='Fruit/papayas.png'><br><font class='baseline'><strong>Papaya Payday</strong><p>Choose number of points to bet.</font><div class='respPicDiv'><img src='img/responseButtonOffersNo0L.png' class='respPic'></div></div>","3","5","Papaya Payday","Fruit/papayas.png","Lost","0.65,0.2","11","0.65","63","15","",""
"html-keyboard-response","53","199053","0.0-11.0-2.14","6108cd48a97ffccb0e7e518c","bdp_rwlrn","Wed Mar 15 2023 14:49:12 GMT-0400 (Eastern Daylight Time)","570882","Trustworthy,Untrustworthy","","null","","","","decisionFB","","<div class='trialDiv'><img src='Fruit/papayas.png'><br><font class='baseline'><strong>Papaya Payday</strong><p>Choose number of points to bet.</font><div class='respPicDiv'><img src='img/responseButtonOffersNo0L3.png' class='respPic'></div></div>","null","5","Papaya Payday","Fruit/papayas.png","Lost","0.65,0.2","11","0.65","60","15","",""
"html-keyboard-response","54","200061","0.0-11.0-3.14","6108cd48a97ffccb0e7e518c","bdp_rwlrn","Wed Mar 15 2023 14:49:12 GMT-0400 (Eastern Daylight Time)","570882","Trustworthy,Untrustworthy","","null","","","","feedback","","<div class='respPicDiv'><img src='img/responseButtonOffersNo0_wht.png' class='respPic'></div><div class='trialDiv'><img src='Fruit/papayas.png'><br><font class='baseline'><strong>Papaya Payday</strong><p><strong><font class='negOutcome'>You LOST</font><p>You bet: 3</strong></font> &nbsp; &nbsp; &nbsp; &nbsp; &nbsp; &nbsp;<font class='negOutcome'>You receive: <strong>0</strong></font></div>","null","5","Papaya Payday","Fruit/papayas.png","Lost","0.65,0.2","11","0.65","60","15","",""
"html-keyboard-response","55","201306","0.0-11.0-1.15","6108cd48a97ffccb0e7e518c","bdp_rwlrn","Wed Mar 15 2023 14:49:12 GMT-0400 (Eastern Daylight Time)","570882","Trustworthy,Untrustworthy","","1242","","","","decision","","<div class='trialDiv'><img src='Fruit/mango.png'><br><font class='baseline'><strong>Mega Mangos</strong><p>Choose number of points to bet.</font><div class='respPicDiv'><img src='img/responseButtonOffersNo0L.png' class='respPic'></div></div>","4","6","Mega Mangos","Fruit/mango.png","Lost","0.35,0.65","14","0.35","65","16","",""
"html-keyboard-response","56","201565","0.0-11.0-2.15","6108cd48a97ffccb0e7e518c","bdp_rwlrn","Wed Mar 15 2023 14:49:12 GMT-0400 (Eastern Daylight Time)","570882","Trustworthy,Untrustworthy","","null","","","","decisionFB","","<div class='trialDiv'><img src='Fruit/mango.png'><br><font class='baseline'><strong>Mega Mangos</strong><p>Choose number of points to bet.</font><div class='respPicDiv'><img src='img/responseButtonOffersNo0L4.png' class='respPic'></div></div>","null","6","Mega Mangos","Fruit/mango.png","Lost","0.35,0.65","14","0.35","61","16","",""
"html-keyboard-response","57","202569","0.0-11.0-3.15","6108cd48a97ffccb0e7e518c","bdp_rwlrn","Wed Mar 15 2023 14:49:12 GMT-0400 (Eastern Daylight Time)","570882","Trustworthy,Untrustworthy","","null","","","","feedback","","<div class='respPicDiv'><img src='img/responseButtonOffersNo0_wht.png' class='respPic'></div><div class='trialDiv'><img src='Fruit/mango.png'><br><font class='baseline'><strong>Mega Mangos</strong><p><strong><font class='negOutcome'>You LOST</font><p>You bet: 4</strong></font> &nbsp; &nbsp; &nbsp; &nbsp; &nbsp; &nbsp;<font class='negOutcome'>You receive: <strong>0</strong></font></div>","null","6","Mega Mangos","Fruit/mango.png","Lost","0.35,0.65","14","0.35","61","16","",""
"html-keyboard-response","58","203041","0.0-11.0-1.16","6108cd48a97ffccb0e7e518c","bdp_rwlrn","Wed Mar 15 2023 14:49:12 GMT-0400 (Eastern Daylight Time)","570882","Trustworthy,Untrustworthy","","469","","","","decision","","<div class='trialDiv'><img src='Fruit/watermelon.png'><br><font class='baseline'><strong>Watermelon Win$</strong><p>Choose number of points to bet.</font><div class='respPicDiv'><img src='img/responseButtonOffersNo0L.png' class='respPic'></div></div>","3","6","Watermelon Win$","Fruit/watermelon.png","Won","0.35,0.8","12","0.35","66","17","",""
"html-keyboard-response","59","203297","0.0-11.0-2.16","6108cd48a97ffccb0e7e518c","bdp_rwlrn","Wed Mar 15 2023 14:49:12 GMT-0400 (Eastern Daylight Time)","570882","Trustworthy,Untrustworthy","","null","","","","decisionFB","","<div class='trialDiv'><img src='Fruit/watermelon.png'><br><font class='baseline'><strong>Watermelon Win$</strong><p>Choose number of points to bet.</font><div class='respPicDiv'><img src='img/responseButtonOffersNo0L3.png' class='respPic'></div></div>","null","6","Watermelon Win$","Fruit/watermelon.png","Won","0.35,0.8","12","0.35","63","17","",""
"html-keyboard-response","60","204309","0.0-11.0-3.16","6108cd48a97ffccb0e7e518c","bdp_rwlrn","Wed Mar 15 2023 14:49:12 GMT-0400 (Eastern Daylight Time)","570882","Trustworthy,Untrustworthy","","null","","","","feedback","","<div class='respPicDiv'><img src='img/responseButtonOffersNo0_wht.png' class='respPic'></div><div class='trialDiv'><img src='Fruit/watermelon.png'><br><font class='baseline'><strong>Watermelon Win$</strong><p><strong><font class='posOutcome'>You WON</font><p>You bet: 3</strong></font> &nbsp; &nbsp; &nbsp; &nbsp; &nbsp; &nbsp;<font class='posOutcome'>you receive: <strong>6</strong></font></div>","null","6","Watermelon Win$","Fruit/watermelon.png","Won","0.35,0.8","12","0.35","69","17","",""
"html-keyboard-response","61","206962","0.0-11.0-1.17","6108cd48a97ffccb0e7e518c","bdp_rwlrn","Wed Mar 15 2023 14:49:12 GMT-0400 (Eastern Daylight Time)","570882","Trustworthy,Untrustworthy","","2652","","","","decision","","<div class='trialDiv'><img src='Fruit/papayas.png'><br><font class='baseline'><strong>Papaya Payday</strong><p>Choose number of points to bet.</font><div class='respPicDiv'><img src='img/responseButtonOffersNo0L.png' class='respPic'></div></div>","5","6","Papaya Payday","Fruit/papayas.png","Won","0.65,0.2","11","0.65","74","18","",""
"html-keyboard-response","62","207221","0.0-11.0-2.17","6108cd48a97ffccb0e7e518c","bdp_rwlrn","Wed Mar 15 2023 14:49:12 GMT-0400 (Eastern Daylight Time)","570882","Trustworthy,Untrustworthy","","null","","","","decisionFB","","<div class='trialDiv'><img src='Fruit/papayas.png'><br><font class='baseline'><strong>Papaya Payday</strong><p>Choose number of points to bet.</font><div class='respPicDiv'><img src='img/responseButtonOffersNo0L5.png' class='respPic'></div></div>","null","6","Papaya Payday","Fruit/papayas.png","Won","0.65,0.2","11","0.65","69","18","",""
"html-keyboard-response","63","208229","0.0-11.0-3.17","6108cd48a97ffccb0e7e518c","bdp_rwlrn","Wed Mar 15 2023 14:49:12 GMT-0400 (Eastern Daylight Time)","570882","Trustworthy,Untrustworthy","","null","","","","feedback","","<div class='respPicDiv'><img src='img/responseButtonOffersNo0_wht.png' class='respPic'></div><div class='trialDiv'><img src='Fruit/papayas.png'><br><font class='baseline'><strong>Papaya Payday</strong><p><strong><font class='posOutcome'>You WON</font><p>You bet: 5</strong></font> &nbsp; &nbsp; &nbsp; &nbsp; &nbsp; &nbsp;<font class='posOutcome'>you receive: <strong>10</strong></font></div>","null","6","Papaya Payday","Fruit/papayas.png","Won","0.65,0.2","11","0.65","79","18","",""
"html-keyboard-response","64","209897","0.0-11.0-1.18","6108cd48a97ffccb0e7e518c","bdp_rwlrn","Wed Mar 15 2023 14:49:12 GMT-0400 (Eastern Daylight Time)","570882","Trustworthy,Untrustworthy","","1666","","","","decision","","<div class='trialDiv'><img src='Fruit/watermelon.png'><br><font class='baseline'><strong>Watermelon Win$</strong><p>Choose number of points to bet.</font><div class='respPicDiv'><img src='img/responseButtonOffersNo0L.png' class='respPic'></div></div>","3","7","Watermelon Win$","Fruit/watermelon.png","Lost","0.35,0.8","12","0.35","84","19","",""
"html-keyboard-response","65","210157","0.0-11.0-2.18","6108cd48a97ffccb0e7e518c","bdp_rwlrn","Wed Mar 15 2023 14:49:12 GMT-0400 (Eastern Daylight Time)","570882","Trustworthy,Untrustworthy","","null","","","","decisionFB","","<div class='trialDiv'><img src='Fruit/watermelon.png'><br><font class='baseline'><strong>Watermelon Win$</strong><p>Choose number of points to bet.</font><div class='respPicDiv'><img src='img/responseButtonOffersNo0L3.png' class='respPic'></div></div>","null","7","Watermelon Win$","Fruit/watermelon.png","Lost","0.35,0.8","12","0.35","81","19","",""
"html-keyboard-response","66","211165","0.0-11.0-3.18","6108cd48a97ffccb0e7e518c","bdp_rwlrn","Wed Mar 15 2023 14:49:12 GMT-0400 (Eastern Daylight Time)","570882","Trustworthy,Untrustworthy","","null","","","","feedback","","<div class='respPicDiv'><img src='img/responseButtonOffersNo0_wht.png' class='respPic'></div><div class='trialDiv'><img src='Fruit/watermelon.png'><br><font class='baseline'><strong>Watermelon Win$</strong><p><strong><font class='negOutcome'>You LOST</font><p>You bet: 3</strong></font> &nbsp; &nbsp; &nbsp; &nbsp; &nbsp; &nbsp;<font class='negOutcome'>You receive: <strong>0</strong></font></div>","null","7","Watermelon Win$","Fruit/watermelon.png","Lost","0.35,0.8","12","0.35","81","19","",""
"html-keyboard-response","67","211891","0.0-11.0-1.19","6108cd48a97ffccb0e7e518c","bdp_rwlrn","Wed Mar 15 2023 14:49:12 GMT-0400 (Eastern Daylight Time)","570882","Trustworthy,Untrustworthy","","725","","","","decision","","<div class='trialDiv'><img src='Fruit/papayas.png'><br><font class='baseline'><strong>Papaya Payday</strong><p>Choose number of points to bet.</font><div class='respPicDiv'><img src='img/responseButtonOffersNo0L.png' class='respPic'></div></div>","5","7","Papaya Payday","Fruit/papayas.png","Lost","0.65,0.2","11","0.65","86","20","",""
"html-keyboard-response","68","212148","0.0-11.0-2.19","6108cd48a97ffccb0e7e518c","bdp_rwlrn","Wed Mar 15 2023 14:49:12 GMT-0400 (Eastern Daylight Time)","570882","Trustworthy,Untrustworthy","","null","","","","decisionFB","","<div class='trialDiv'><img src='Fruit/papayas.png'><br><font class='baseline'><strong>Papaya Payday</strong><p>Choose number of points to bet.</font><div class='respPicDiv'><img src='img/responseButtonOffersNo0L5.png' class='respPic'></div></div>","null","7","Papaya Payday","Fruit/papayas.png","Lost","0.65,0.2","11","0.65","81","20","",""
"html-keyboard-response","69","213155","0.0-11.0-3.19","6108cd48a97ffccb0e7e518c","bdp_rwlrn","Wed Mar 15 2023 14:49:12 GMT-0400 (Eastern Daylight Time)","570882","Trustworthy,Untrustworthy","","null","","","","feedback","","<div class='respPicDiv'><img src='img/responseButtonOffersNo0_wht.png' class='respPic'></div><div class='trialDiv'><img src='Fruit/papayas.png'><br><font class='baseline'><strong>Papaya Payday</strong><p><strong><font class='negOutcome'>You LOST</font><p>You bet: 5</strong></font> &nbsp; &nbsp; &nbsp; &nbsp; &nbsp; &nbsp;<font class='negOutcome'>You receive: <strong>0</strong></font></div>","null","7","Papaya Payday","Fruit/papayas.png","Lost","0.65,0.2","11","0.65","81","20","",""
"html-keyboard-response","70","214762","0.0-11.0-1.20","6108cd48a97ffccb0e7e518c","bdp_rwlrn","Wed Mar 15 2023 14:49:12 GMT-0400 (Eastern Daylight Time)","570882","Trustworthy,Untrustworthy","","1605","","","","decision","","<div class='trialDiv'><img src='Fruit/mango.png'><br><font class='baseline'><strong>Mega Mangos</strong><p>Choose number of points to bet.</font><div class='respPicDiv'><img src='img/responseButtonOffersNo0L.png' class='respPic'></div></div>","4","7","Mega Mangos","Fruit/mango.png","Won","0.35,0.65","14","0.35","86","21","",""
"html-keyboard-response","71","215018","0.0-11.0-2.20","6108cd48a97ffccb0e7e518c","bdp_rwlrn","Wed Mar 15 2023 14:49:12 GMT-0400 (Eastern Daylight Time)","570882","Trustworthy,Untrustworthy","","null","","","","decisionFB","","<div class='trialDiv'><img src='Fruit/mango.png'><br><font class='baseline'><strong>Mega Mangos</strong><p>Choose number of points to bet.</font><div class='respPicDiv'><img src='img/responseButtonOffersNo0L4.png' class='respPic'></div></div>","null","7","Mega Mangos","Fruit/mango.png","Won","0.35,0.65","14","0.35","82","21","",""
"html-keyboard-response","72","216027","0.0-11.0-3.20","6108cd48a97ffccb0e7e518c","bdp_rwlrn","Wed Mar 15 2023 14:49:12 GMT-0400 (Eastern Daylight Time)","570882","Trustworthy,Untrustworthy","","null","","","","feedback","","<div class='respPicDiv'><img src='img/responseButtonOffersNo0_wht.png' class='respPic'></div><div class='trialDiv'><img src='Fruit/mango.png'><br><font class='baseline'><strong>Mega Mangos</strong><p><strong><font class='posOutcome'>You WON</font><p>You bet: 4</strong></font> &nbsp; &nbsp; &nbsp; &nbsp; &nbsp; &nbsp;<font class='posOutcome'>you receive: <strong>8</strong></font></div>","null","7","Mega Mangos","Fruit/mango.png","Won","0.35,0.65","14","0.35","90","21","",""
"html-keyboard-response","73","220157","0.0-11.0-1.21","6108cd48a97ffccb0e7e518c","bdp_rwlrn","Wed Mar 15 2023 14:49:12 GMT-0400 (Eastern Daylight Time)","570882","Trustworthy,Untrustworthy","","4128","","","","decision","","<div class='trialDiv'><img src='Fruit/papayas.png'><br><font class='baseline'><strong>Papaya Payday</strong><p>Choose number of points to bet.</font><div class='respPicDiv'><img src='img/responseButtonOffersNo0L.png' class='respPic'></div></div>","3","8","Papaya Payday","Fruit/papayas.png","Won","0.65,0.2","11","0.65","95","22","",""
"html-keyboard-response","74","220420","0.0-11.0-2.21","6108cd48a97ffccb0e7e518c","bdp_rwlrn","Wed Mar 15 2023 14:49:12 GMT-0400 (Eastern Daylight Time)","570882","Trustworthy,Untrustworthy","","null","","","","decisionFB","","<div class='trialDiv'><img src='Fruit/papayas.png'><br><font class='baseline'><strong>Papaya Payday</strong><p>Choose number of points to bet.</font><div class='respPicDiv'><img src='img/responseButtonOffersNo0L3.png' class='respPic'></div></div>","null","8","Papaya Payday","Fruit/papayas.png","Won","0.65,0.2","11","0.65","92","22","",""
"html-keyboard-response","75","221428","0.0-11.0-3.21","6108cd48a97ffccb0e7e518c","bdp_rwlrn","Wed Mar 15 2023 14:49:12 GMT-0400 (Eastern Daylight Time)","570882","Trustworthy,Untrustworthy","","null","","","","feedback","","<div class='respPicDiv'><img src='img/responseButtonOffersNo0_wht.png' class='respPic'></div><div class='trialDiv'><img src='Fruit/papayas.png'><br><font class='baseline'><strong>Papaya Payday</strong><p><strong><font class='posOutcome'>You WON</font><p>You bet: 3</strong></font> &nbsp; &nbsp; &nbsp; &nbsp; &nbsp; &nbsp;<font class='posOutcome'>you receive: <strong>6</strong></font></div>","null","8","Papaya Payday","Fruit/papayas.png","Won","0.65,0.2","11","0.65","98","22","",""
"html-keyboard-response","76","223175","0.0-11.0-1.22","6108cd48a97ffccb0e7e518c","bdp_rwlrn","Wed Mar 15 2023 14:49:12 GMT-0400 (Eastern Daylight Time)","570882","Trustworthy,Untrustworthy","","1745","","","","decision","","<div class='trialDiv'><img src='Fruit/watermelon.png'><br><font class='baseline'><strong>Watermelon Win$</strong><p>Choose number of points to bet.</font><div class='respPicDiv'><img src='img/responseButtonOffersNo0L.png' class='respPic'></div></div>","4","8","Watermelon Win$","Fruit/watermelon.png","Lost","0.35,0.8","12","0.35","103","23","",""
"html-keyboard-response","77","223436","0.0-11.0-2.22","6108cd48a97ffccb0e7e518c","bdp_rwlrn","Wed Mar 15 2023 14:49:12 GMT-0400 (Eastern Daylight Time)","570882","Trustworthy,Untrustworthy","","null","","","","decisionFB","","<div class='trialDiv'><img src='Fruit/watermelon.png'><br><font class='baseline'><strong>Watermelon Win$</strong><p>Choose number of points to bet.</font><div class='respPicDiv'><img src='img/responseButtonOffersNo0L4.png' class='respPic'></div></div>","null","8","Watermelon Win$","Fruit/watermelon.png","Lost","0.35,0.8","12","0.35","99","23","",""
"html-keyboard-response","78","224440","0.0-11.0-3.22","6108cd48a97ffccb0e7e518c","bdp_rwlrn","Wed Mar 15 2023 14:49:12 GMT-0400 (Eastern Daylight Time)","570882","Trustworthy,Untrustworthy","","null","","","","feedback","","<div class='respPicDiv'><img src='img/responseButtonOffersNo0_wht.png' class='respPic'></div><div class='trialDiv'><img src='Fruit/watermelon.png'><br><font class='baseline'><strong>Watermelon Win$</strong><p><strong><font class='negOutcome'>You LOST</font><p>You bet: 4</strong></font> &nbsp; &nbsp; &nbsp; &nbsp; &nbsp; &nbsp;<font class='negOutcome'>You receive: <strong>0</strong></font></div>","null","8","Watermelon Win$","Fruit/watermelon.png","Lost","0.35,0.8","12","0.35","99","23","",""
"html-keyboard-response","79","226232","0.0-11.0-1.23","6108cd48a97ffccb0e7e518c","bdp_rwlrn","Wed Mar 15 2023 14:49:12 GMT-0400 (Eastern Daylight Time)","570882","Trustworthy,Untrustworthy","","1791","","","","decision","","<div class='trialDiv'><img src='Fruit/mango.png'><br><font class='baseline'><strong>Mega Mangos</strong><p>Choose number of points to bet.</font><div class='respPicDiv'><img src='img/responseButtonOffersNo0L.png' class='respPic'></div></div>","2","8","Mega Mangos","Fruit/mango.png","Lost","0.35,0.65","14","0.35","104","24","",""
"html-keyboard-response","80","226488","0.0-11.0-2.23","6108cd48a97ffccb0e7e518c","bdp_rwlrn","Wed Mar 15 2023 14:49:12 GMT-0400 (Eastern Daylight Time)","570882","Trustworthy,Untrustworthy","","null","","","","decisionFB","","<div class='trialDiv'><img src='Fruit/mango.png'><br><font class='baseline'><strong>Mega Mangos</strong><p>Choose number of points to bet.</font><div class='respPicDiv'><img src='img/responseButtonOffersNo0L2.png' class='respPic'></div></div>","null","8","Mega Mangos","Fruit/mango.png","Lost","0.35,0.65","14","0.35","102","24","",""
"html-keyboard-response","81","227499","0.0-11.0-3.23","6108cd48a97ffccb0e7e518c","bdp_rwlrn","Wed Mar 15 2023 14:49:12 GMT-0400 (Eastern Daylight Time)","570882","Trustworthy,Untrustworthy","","null","","","","feedback","","<div class='respPicDiv'><img src='img/responseButtonOffersNo0_wht.png' class='respPic'></div><div class='trialDiv'><img src='Fruit/mango.png'><br><font class='baseline'><strong>Mega Mangos</strong><p><strong><font class='negOutcome'>You LOST</font><p>You bet: 2</strong></font> &nbsp; &nbsp; &nbsp; &nbsp; &nbsp; &nbsp;<font class='negOutcome'>You receive: <strong>0</strong></font></div>","null","8","Mega Mangos","Fruit/mango.png","Lost","0.35,0.65","14","0.35","102","24","",""
"html-keyboard-response","82","228581","0.0-11.0-1.24","6108cd48a97ffccb0e7e518c","bdp_rwlrn","Wed Mar 15 2023 14:49:12 GMT-0400 (Eastern Daylight Time)","570882","Trustworthy,Untrustworthy","","1081","","","","decision","","<div class='trialDiv'><img src='Fruit/watermelon.png'><br><font class='baseline'><strong>Watermelon Win$</strong><p>Choose number of points to bet.</font><div class='respPicDiv'><img src='img/responseButtonOffersNo0L.png' class='respPic'></div></div>","5","9","Watermelon Win$","Fruit/watermelon.png","Lost","0.35,0.8","12","0.35","107","25","",""
"html-keyboard-response","83","228844","0.0-11.0-2.24","6108cd48a97ffccb0e7e518c","bdp_rwlrn","Wed Mar 15 2023 14:49:12 GMT-0400 (Eastern Daylight Time)","570882","Trustworthy,Untrustworthy","","null","","","","decisionFB","","<div class='trialDiv'><img src='Fruit/watermelon.png'><br><font class='baseline'><strong>Watermelon Win$</strong><p>Choose number of points to bet.</font><div class='respPicDiv'><img src='img/responseButtonOffersNo0L5.png' class='respPic'></div></div>","null","9","Watermelon Win$","Fruit/watermelon.png","Lost","0.35,0.8","12","0.35","102","25","",""
"html-keyboard-response","84","229852","0.0-11.0-3.24","6108cd48a97ffccb0e7e518c","bdp_rwlrn","Wed Mar 15 2023 14:49:12 GMT-0400 (Eastern Daylight Time)","570882","Trustworthy,Untrustworthy","","null","","","","feedback","","<div class='respPicDiv'><img src='img/responseButtonOffersNo0_wht.png' class='respPic'></div><div class='trialDiv'><img src='Fruit/watermelon.png'><br><font class='baseline'><strong>Watermelon Win$</strong><p><strong><font class='negOutcome'>You LOST</font><p>You bet: 5</strong></font> &nbsp; &nbsp; &nbsp; &nbsp; &nbsp; &nbsp;<font class='negOutcome'>You receive: <strong>0</strong></font></div>","null","9","Watermelon Win$","Fruit/watermelon.png","Lost","0.35,0.8","12","0.35","102","25","",""
"html-keyboard-response","85","231571","0.0-11.0-1.25","6108cd48a97ffccb0e7e518c","bdp_rwlrn","Wed Mar 15 2023 14:49:12 GMT-0400 (Eastern Daylight Time)","570882","Trustworthy,Untrustworthy","","1718","","","","decision","","<div class='trialDiv'><img src='Fruit/papayas.png'><br><font class='baseline'><strong>Papaya Payday</strong><p>Choose number of points to bet.</font><div class='respPicDiv'><img src='img/responseButtonOffersNo0L.png' class='respPic'></div></div>","4","9","Papaya Payday","Fruit/papayas.png","Lost","0.65,0.2","11","0.65","107","26","",""
"html-keyboard-response","86","231823","0.0-11.0-2.25","6108cd48a97ffccb0e7e518c","bdp_rwlrn","Wed Mar 15 2023 14:49:12 GMT-0400 (Eastern Daylight Time)","570882","Trustworthy,Untrustworthy","","null","","","","decisionFB","","<div class='trialDiv'><img src='Fruit/papayas.png'><br><font class='baseline'><strong>Papaya Payday</strong><p>Choose number of points to bet.</font><div class='respPicDiv'><img src='img/responseButtonOffersNo0L4.png' class='respPic'></div></div>","null","9","Papaya Payday","Fruit/papayas.png","Lost","0.65,0.2","11","0.65","103","26","",""
"html-keyboard-response","87","232834","0.0-11.0-3.25","6108cd48a97ffccb0e7e518c","bdp_rwlrn","Wed Mar 15 2023 14:49:12 GMT-0400 (Eastern Daylight Time)","570882","Trustworthy,Untrustworthy","","null","","","","feedback","","<div class='respPicDiv'><img src='img/responseButtonOffersNo0_wht.png' class='respPic'></div><div class='trialDiv'><img src='Fruit/papayas.png'><br><font class='baseline'><strong>Papaya Payday</strong><p><strong><font class='negOutcome'>You LOST</font><p>You bet: 4</strong></font> &nbsp; &nbsp; &nbsp; &nbsp; &nbsp; &nbsp;<font class='negOutcome'>You receive: <strong>0</strong></font></div>","null","9","Papaya Payday","Fruit/papayas.png","Lost","0.65,0.2","11","0.65","103","26","",""
"html-keyboard-response","88","236598","0.0-11.0-1.26","6108cd48a97ffccb0e7e518c","bdp_rwlrn","Wed Mar 15 2023 14:49:12 GMT-0400 (Eastern Daylight Time)","570882","Trustworthy,Untrustworthy","","3762","","","","decision","","<div class='trialDiv'><img src='Fruit/mango.png'><br><font class='baseline'><strong>Mega Mangos</strong><p>Choose number of points to bet.</font><div class='respPicDiv'><img src='img/responseButtonOffersNo0L.png' class='respPic'></div></div>","4","9","Mega Mangos","Fruit/mango.png","Won","0.35,0.65","14","0.35","108","27","",""
"html-keyboard-response","89","236859","0.0-11.0-2.26","6108cd48a97ffccb0e7e518c","bdp_rwlrn","Wed Mar 15 2023 14:49:12 GMT-0400 (Eastern Daylight Time)","570882","Trustworthy,Untrustworthy","","null","","","","decisionFB","","<div class='trialDiv'><img src='Fruit/mango.png'><br><font class='baseline'><strong>Mega Mangos</strong><p>Choose number of points to bet.</font><div class='respPicDiv'><img src='img/responseButtonOffersNo0L4.png' class='respPic'></div></div>","null","9","Mega Mangos","Fruit/mango.png","Won","0.35,0.65","14","0.35","104","27","",""
"html-keyboard-response","90","237862","0.0-11.0-3.26","6108cd48a97ffccb0e7e518c","bdp_rwlrn","Wed Mar 15 2023 14:49:12 GMT-0400 (Eastern Daylight Time)","570882","Trustworthy,Untrustworthy","","null","","","","feedback","","<div class='respPicDiv'><img src='img/responseButtonOffersNo0_wht.png' class='respPic'></div><div class='trialDiv'><img src='Fruit/mango.png'><br><font class='baseline'><strong>Mega Mangos</strong><p><strong><font class='posOutcome'>You WON</font><p>You bet: 4</strong></font> &nbsp; &nbsp; &nbsp; &nbsp; &nbsp; &nbsp;<font class='posOutcome'>you receive: <strong>8</strong></font></div>","null","9","Mega Mangos","Fruit/mango.png","Won","0.35,0.65","14","0.35","112","27","",""
"html-keyboard-response","91","241508","0.0-11.0-1.27","6108cd48a97ffccb0e7e518c","bdp_rwlrn","Wed Mar 15 2023 14:49:12 GMT-0400 (Eastern Daylight Time)","570882","Trustworthy,Untrustworthy","","3643","","","","decision","","<div class='trialDiv'><img src='Fruit/watermelon.png'><br><font class='baseline'><strong>Watermelon Win$</strong><p>Choose number of points to bet.</font><div class='respPicDiv'><img src='img/responseButtonOffersNo0L.png' class='respPic'></div></div>","2","10","Watermelon Win$","Fruit/watermelon.png","Lost","0.35,0.8","12","0.35","117","28","",""
"html-keyboard-response","92","241771","0.0-11.0-2.27","6108cd48a97ffccb0e7e518c","bdp_rwlrn","Wed Mar 15 2023 14:49:12 GMT-0400 (Eastern Daylight Time)","570882","Trustworthy,Untrustworthy","","null","","","","decisionFB","","<div class='trialDiv'><img src='Fruit/watermelon.png'><br><font class='baseline'><strong>Watermelon Win$</strong><p>Choose number of points to bet.</font><div class='respPicDiv'><img src='img/responseButtonOffersNo0L2.png' class='respPic'></div></div>","null","10","Watermelon Win$","Fruit/watermelon.png","Lost","0.35,0.8","12","0.35","115","28","",""
"html-keyboard-response","93","242779","0.0-11.0-3.27","6108cd48a97ffccb0e7e518c","bdp_rwlrn","Wed Mar 15 2023 14:49:12 GMT-0400 (Eastern Daylight Time)","570882","Trustworthy,Untrustworthy","","null","","","","feedback","","<div class='respPicDiv'><img src='img/responseButtonOffersNo0_wht.png' class='respPic'></div><div class='trialDiv'><img src='Fruit/watermelon.png'><br><font class='baseline'><strong>Watermelon Win$</strong><p><strong><font class='negOutcome'>You LOST</font><p>You bet: 2</strong></font> &nbsp; &nbsp; &nbsp; &nbsp; &nbsp; &nbsp;<font class='negOutcome'>You receive: <strong>0</strong></font></div>","null","10","Watermelon Win$","Fruit/watermelon.png","Lost","0.35,0.8","12","0.35","115","28","",""
"html-keyboard-response","94","243338","0.0-11.0-1.28","6108cd48a97ffccb0e7e518c","bdp_rwlrn","Wed Mar 15 2023 14:49:12 GMT-0400 (Eastern Daylight Time)","570882","Trustworthy,Untrustworthy","","556","","","","decision","","<div class='trialDiv'><img src='Fruit/papayas.png'><br><font class='baseline'><strong>Papaya Payday</strong><p>Choose number of points to bet.</font><div class='respPicDiv'><img src='img/responseButtonOffersNo0L.png' class='respPic'></div></div>","1","10","Papaya Payday","Fruit/papayas.png","Won","0.65,0.2","11","0.65","120","29","",""
"html-keyboard-response","95","243591","0.0-11.0-2.28","6108cd48a97ffccb0e7e518c","bdp_rwlrn","Wed Mar 15 2023 14:49:12 GMT-0400 (Eastern Daylight Time)","570882","Trustworthy,Untrustworthy","","null","","","","decisionFB","","<div class='trialDiv'><img src='Fruit/papayas.png'><br><font class='baseline'><strong>Papaya Payday</strong><p>Choose number of points to bet.</font><div class='respPicDiv'><img src='img/responseButtonOffersNo0L1.png' class='respPic'></div></div>","null","10","Papaya Payday","Fruit/papayas.png","Won","0.65,0.2","11","0.65","119","29","",""
"html-keyboard-response","96","244601","0.0-11.0-3.28","6108cd48a97ffccb0e7e518c","bdp_rwlrn","Wed Mar 15 2023 14:49:12 GMT-0400 (Eastern Daylight Time)","570882","Trustworthy,Untrustworthy","","null","","","","feedback","","<div class='respPicDiv'><img src='img/responseButtonOffersNo0_wht.png' class='respPic'></div><div class='trialDiv'><img src='Fruit/papayas.png'><br><font class='baseline'><strong>Papaya Payday</strong><p><strong><font class='posOutcome'>You WON</font><p>You bet: 1</strong></font> &nbsp; &nbsp; &nbsp; &nbsp; &nbsp; &nbsp;<font class='posOutcome'>you receive: <strong>2</strong></font></div>","null","10","Papaya Payday","Fruit/papayas.png","Won","0.65,0.2","11","0.65","121","29","",""
"html-keyboard-response","97","247682","0.0-11.0-1.29","6108cd48a97ffccb0e7e518c","bdp_rwlrn","Wed Mar 15 2023 14:49:12 GMT-0400 (Eastern Daylight Time)","570882","Trustworthy,Untrustworthy","","3080","","","","decision","","<div class='trialDiv'><img src='Fruit/mango.png'><br><font class='baseline'><strong>Mega Mangos</strong><p>Choose number of points to bet.</font><div class='respPicDiv'><img src='img/responseButtonOffersNo0L.png' class='respPic'></div></div>","3","10","Mega Mangos","Fruit/mango.png","Lost","0.35,0.65","14","0.35","126","30","",""
"html-keyboard-response","98","247943","0.0-11.0-2.29","6108cd48a97ffccb0e7e518c","bdp_rwlrn","Wed Mar 15 2023 14:49:12 GMT-0400 (Eastern Daylight Time)","570882","Trustworthy,Untrustworthy","","null","","","","decisionFB","","<div class='trialDiv'><img src='Fruit/mango.png'><br><font class='baseline'><strong>Mega Mangos</strong><p>Choose number of points to bet.</font><div class='respPicDiv'><img src='img/responseButtonOffersNo0L3.png' class='respPic'></div></div>","null","10","Mega Mangos","Fruit/mango.png","Lost","0.35,0.65","14","0.35","123","30","",""
"html-keyboard-response","99","248955","0.0-11.0-3.29","6108cd48a97ffccb0e7e518c","bdp_rwlrn","Wed Mar 15 2023 14:49:12 GMT-0400 (Eastern Daylight Time)","570882","Trustworthy,Untrustworthy","","null","","","","feedback","","<div class='respPicDiv'><img src='img/responseButtonOffersNo0_wht.png' class='respPic'></div><div class='trialDiv'><img src='Fruit/mango.png'><br><font class='baseline'><strong>Mega Mangos</strong><p><strong><font class='negOutcome'>You LOST</font><p>You bet: 3</strong></font> &nbsp; &nbsp; &nbsp; &nbsp; &nbsp; &nbsp;<font class='negOutcome'>You receive: <strong>0</strong></font></div>","null","10","Mega Mangos","Fruit/mango.png","Lost","0.35,0.65","14","0.35","123","30","",""
"html-keyboard-response","100","249967","0.0-11.0-1.30","6108cd48a97ffccb0e7e518c","bdp_rwlrn","Wed Mar 15 2023 14:49:12 GMT-0400 (Eastern Daylight Time)","570882","Trustworthy,Untrustworthy","","1010","","","","decision","","<div class='trialDiv'><img src='Fruit/papayas.png'><br><font class='baseline'><strong>Papaya Payday</strong><p>Choose number of points to bet.</font><div class='respPicDiv'><img src='img/responseButtonOffersNo0L.png' class='respPic'></div></div>","2","11","Papaya Payday","Fruit/papayas.png","Won","0.65,0.2","11","0.65","128","31","",""
"html-keyboard-response","101","250226","0.0-11.0-2.30","6108cd48a97ffccb0e7e518c","bdp_rwlrn","Wed Mar 15 2023 14:49:12 GMT-0400 (Eastern Daylight Time)","570882","Trustworthy,Untrustworthy","","null","","","","decisionFB","","<div class='trialDiv'><img src='Fruit/papayas.png'><br><font class='baseline'><strong>Papaya Payday</strong><p>Choose number of points to bet.</font><div class='respPicDiv'><img src='img/responseButtonOffersNo0L2.png' class='respPic'></div></div>","null","11","Papaya Payday","Fruit/papayas.png","Won","0.65,0.2","11","0.65","126","31","",""
"html-keyboard-response","102","251235","0.0-11.0-3.30","6108cd48a97ffccb0e7e518c","bdp_rwlrn","Wed Mar 15 2023 14:49:12 GMT-0400 (Eastern Daylight Time)","570882","Trustworthy,Untrustworthy","","null","","","","feedback","","<div class='respPicDiv'><img src='img/responseButtonOffersNo0_wht.png' class='respPic'></div><div class='trialDiv'><img src='Fruit/papayas.png'><br><font class='baseline'><strong>Papaya Payday</strong><p><strong><font class='posOutcome'>You WON</font><p>You bet: 2</strong></font> &nbsp; &nbsp; &nbsp; &nbsp; &nbsp; &nbsp;<font class='posOutcome'>you receive: <strong>4</strong></font></div>","null","11","Papaya Payday","Fruit/papayas.png","Won","0.65,0.2","11","0.65","130","31","",""
"html-keyboard-response","103","252767","0.0-11.0-1.31","6108cd48a97ffccb0e7e518c","bdp_rwlrn","Wed Mar 15 2023 14:49:12 GMT-0400 (Eastern Daylight Time)","570882","Trustworthy,Untrustworthy","","1530","","","","decision","","<div class='trialDiv'><img src='Fruit/mango.png'><br><font class='baseline'><strong>Mega Mangos</strong><p>Choose number of points to bet.</font><div class='respPicDiv'><img src='img/responseButtonOffersNo0L.png' class='respPic'></div></div>","4","11","Mega Mangos","Fruit/mango.png","Won","0.35,0.65","14","0.35","135","32","",""
"html-keyboard-response","104","253026","0.0-11.0-2.31","6108cd48a97ffccb0e7e518c","bdp_rwlrn","Wed Mar 15 2023 14:49:12 GMT-0400 (Eastern Daylight Time)","570882","Trustworthy,Untrustworthy","","null","","","","decisionFB","","<div class='trialDiv'><img src='Fruit/mango.png'><br><font class='baseline'><strong>Mega Mangos</strong><p>Choose number of points to bet.</font><div class='respPicDiv'><img src='img/responseButtonOffersNo0L4.png' class='respPic'></div></div>","null","11","Mega Mangos","Fruit/mango.png","Won","0.35,0.65","14","0.35","131","32","",""
"html-keyboard-response","105","254032","0.0-11.0-3.31","6108cd48a97ffccb0e7e518c","bdp_rwlrn","Wed Mar 15 2023 14:49:12 GMT-0400 (Eastern Daylight Time)","570882","Trustworthy,Untrustworthy","","null","","","","feedback","","<div class='respPicDiv'><img src='img/responseButtonOffersNo0_wht.png' class='respPic'></div><div class='trialDiv'><img src='Fruit/mango.png'><br><font class='baseline'><strong>Mega Mangos</strong><p><strong><font class='posOutcome'>You WON</font><p>You bet: 4</strong></font> &nbsp; &nbsp; &nbsp; &nbsp; &nbsp; &nbsp;<font class='posOutcome'>you receive: <strong>8</strong></font></div>","null","11","Mega Mangos","Fruit/mango.png","Won","0.35,0.65","14","0.35","139","32","",""
"html-keyboard-response","106","254547","0.0-11.0-1.32","6108cd48a97ffccb0e7e518c","bdp_rwlrn","Wed Mar 15 2023 14:49:12 GMT-0400 (Eastern Daylight Time)","570882","Trustworthy,Untrustworthy","","514","","","","decision","","<div class='trialDiv'><img src='Fruit/watermelon.png'><br><font class='baseline'><strong>Watermelon Win$</strong><p>Choose number of points to bet.</font><div class='respPicDiv'><img src='img/responseButtonOffersNo0L.png' class='respPic'></div></div>","5","11","Watermelon Win$","Fruit/watermelon.png","Lost","0.35,0.8","12","0.35","144","33","",""
"html-keyboard-response","107","254806","0.0-11.0-2.32","6108cd48a97ffccb0e7e518c","bdp_rwlrn","Wed Mar 15 2023 14:49:12 GMT-0400 (Eastern Daylight Time)","570882","Trustworthy,Untrustworthy","","null","","","","decisionFB","","<div class='trialDiv'><img src='Fruit/watermelon.png'><br><font class='baseline'><strong>Watermelon Win$</strong><p>Choose number of points to bet.</font><div class='respPicDiv'><img src='img/responseButtonOffersNo0L5.png' class='respPic'></div></div>","null","11","Watermelon Win$","Fruit/watermelon.png","Lost","0.35,0.8","12","0.35","139","33","",""
"html-keyboard-response","108","255818","0.0-11.0-3.32","6108cd48a97ffccb0e7e518c","bdp_rwlrn","Wed Mar 15 2023 14:49:12 GMT-0400 (Eastern Daylight Time)","570882","Trustworthy,Untrustworthy","","null","","","","feedback","","<div class='respPicDiv'><img src='img/responseButtonOffersNo0_wht.png' class='respPic'></div><div class='trialDiv'><img src='Fruit/watermelon.png'><br><font class='baseline'><strong>Watermelon Win$</strong><p><strong><font class='negOutcome'>You LOST</font><p>You bet: 5</strong></font> &nbsp; &nbsp; &nbsp; &nbsp; &nbsp; &nbsp;<font class='negOutcome'>You receive: <strong>0</strong></font></div>","null","11","Watermelon Win$","Fruit/watermelon.png","Lost","0.35,0.8","12","0.35","139","33","",""
"html-keyboard-response","109","255981","0.0-11.0-1.33","6108cd48a97ffccb0e7e518c","bdp_rwlrn","Wed Mar 15 2023 14:49:12 GMT-0400 (Eastern Daylight Time)","570882","Trustworthy,Untrustworthy","","161","","","","decision","","<div class='trialDiv'><img src='Fruit/papayas.png'><br><font class='baseline'><strong>Papaya Payday</strong><p>Choose number of points to bet.</font><div class='respPicDiv'><img src='img/responseButtonOffersNo0L.png' class='respPic'></div></div>","3","12","Papaya Payday","Fruit/papayas.png","Lost","0.65,0.2","11","0.65","144","34","",""
"html-keyboard-response","110","256240","0.0-11.0-2.33","6108cd48a97ffccb0e7e518c","bdp_rwlrn","Wed Mar 15 2023 14:49:12 GMT-0400 (Eastern Daylight Time)","570882","Trustworthy,Untrustworthy","","null","","","","decisionFB","","<div class='trialDiv'><img src='Fruit/papayas.png'><br><font class='baseline'><strong>Papaya Payday</strong><p>Choose number of points to bet.</font><div class='respPicDiv'><img src='img/responseButtonOffersNo0L3.png' class='respPic'></div></div>","null","12","Papaya Payday","Fruit/papayas.png","Lost","0.65,0.2","11","0.65","141","34","",""
"html-keyboard-response","111","257250","0.0-11.0-3.33","6108cd48a97ffccb0e7e518c","bdp_rwlrn","Wed Mar 15 2023 14:49:12 GMT-0400 (Eastern Daylight Time)","570882","Trustworthy,Untrustworthy","","null","","","","feedback","","<div class='respPicDiv'><img src='img/responseButtonOffersNo0_wht.png' class='respPic'></div><div class='trialDiv'><img src='Fruit/papayas.png'><br><font class='baseline'><strong>Papaya Payday</strong><p><strong><font class='negOutcome'>You LOST</font><p>You bet: 3</strong></font> &nbsp; &nbsp; &nbsp; &nbsp; &nbsp; &nbsp;<font class='negOutcome'>You receive: <strong>0</strong></font></div>","null","12","Papaya Payday","Fruit/papayas.png","Lost","0.65,0.2","11","0.65","141","34","",""
"html-keyboard-response","112","257690","0.0-11.0-1.34","6108cd48a97ffccb0e7e518c","bdp_rwlrn","Wed Mar 15 2023 14:49:12 GMT-0400 (Eastern Daylight Time)","570882","Trustworthy,Untrustworthy","","438","","","","decision","","<div class='trialDiv'><img src='Fruit/watermelon.png'><br><font class='baseline'><strong>Watermelon Win$</strong><p>Choose number of points to bet.</font><div class='respPicDiv'><img src='img/responseButtonOffersNo0L.png' class='respPic'></div></div>","4","12","Watermelon Win$","Fruit/watermelon.png","Won","0.35,0.8","12","0.35","146","35","",""
"html-keyboard-response","113","257949","0.0-11.0-2.34","6108cd48a97ffccb0e7e518c","bdp_rwlrn","Wed Mar 15 2023 14:49:12 GMT-0400 (Eastern Daylight Time)","570882","Trustworthy,Untrustworthy","","null","","","","decisionFB","","<div class='trialDiv'><img src='Fruit/watermelon.png'><br><font class='baseline'><strong>Watermelon Win$</strong><p>Choose number of points to bet.</font><div class='respPicDiv'><img src='img/responseButtonOffersNo0L4.png' class='respPic'></div></div>","null","12","Watermelon Win$","Fruit/watermelon.png","Won","0.35,0.8","12","0.35","142","35","",""
"html-keyboard-response","114","258962","0.0-11.0-3.34","6108cd48a97ffccb0e7e518c","bdp_rwlrn","Wed Mar 15 2023 14:49:12 GMT-0400 (Eastern Daylight Time)","570882","Trustworthy,Untrustworthy","","null","","","","feedback","","<div class='respPicDiv'><img src='img/responseButtonOffersNo0_wht.png' class='respPic'></div><div class='trialDiv'><img src='Fruit/watermelon.png'><br><font class='baseline'><strong>Watermelon Win$</strong><p><strong><font class='posOutcome'>You WON</font><p>You bet: 4</strong></font> &nbsp; &nbsp; &nbsp; &nbsp; &nbsp; &nbsp;<font class='posOutcome'>you receive: <strong>8</strong></font></div>","null","12","Watermelon Win$","Fruit/watermelon.png","Won","0.35,0.8","12","0.35","150","35","",""
"html-keyboard-response","115","259310","0.0-11.0-1.35","6108cd48a97ffccb0e7e518c","bdp_rwlrn","Wed Mar 15 2023 14:49:12 GMT-0400 (Eastern Daylight Time)","570882","Trustworthy,Untrustworthy","","348","","","","decision","","<div class='trialDiv'><img src='Fruit/mango.png'><br><font class='baseline'><strong>Mega Mangos</strong><p>Choose number of points to bet.</font><div class='respPicDiv'><img src='img/responseButtonOffersNo0L.png' class='respPic'></div></div>","4","12","Mega Mangos","Fruit/mango.png","Lost","0.35,0.65","14","0.35","155","36","",""
"html-keyboard-response","116","259570","0.0-11.0-2.35","6108cd48a97ffccb0e7e518c","bdp_rwlrn","Wed Mar 15 2023 14:49:12 GMT-0400 (Eastern Daylight Time)","570882","Trustworthy,Untrustworthy","","null","","","","decisionFB","","<div class='trialDiv'><img src='Fruit/mango.png'><br><font class='baseline'><strong>Mega Mangos</strong><p>Choose number of points to bet.</font><div class='respPicDiv'><img src='img/responseButtonOffersNo0L4.png' class='respPic'></div></div>","null","12","Mega Mangos","Fruit/mango.png","Lost","0.35,0.65","14","0.35","151","36","",""
"html-keyboard-response","117","260575","0.0-11.0-3.35","6108cd48a97ffccb0e7e518c","bdp_rwlrn","Wed Mar 15 2023 14:49:12 GMT-0400 (Eastern Daylight Time)","570882","Trustworthy,Untrustworthy","","null","","","","feedback","","<div class='respPicDiv'><img src='img/responseButtonOffersNo0_wht.png' class='respPic'></div><div class='trialDiv'><img src='Fruit/mango.png'><br><font class='baseline'><strong>Mega Mangos</strong><p><strong><font class='negOutcome'>You LOST</font><p>You bet: 4</strong></font> &nbsp; &nbsp; &nbsp; &nbsp; &nbsp; &nbsp;<font class='negOutcome'>You receive: <strong>0</strong></font></div>","null","12","Mega Mangos","Fruit/mango.png","Lost","0.35,0.65","14","0.35","151","36","",""
"html-keyboard-response","118","261897","0.0-11.0-1.36","6108cd48a97ffccb0e7e518c","bdp_rwlrn","Wed Mar 15 2023 14:49:12 GMT-0400 (Eastern Daylight Time)","570882","Trustworthy,Untrustworthy","","1321","","","","decision","","<div class='trialDiv'><img src='Fruit/papayas.png'><br><font class='baseline'><strong>Papaya Payday</strong><p>Choose number of points to bet.</font><div class='respPicDiv'><img src='img/responseButtonOffersNo0L.png' class='respPic'></div></div>","1","13","Papaya Payday","Fruit/papayas.png","Won","0.65,0.2","11","0.65","156","37","",""
"html-keyboard-response","119","262159","0.0-11.0-2.36","6108cd48a97ffccb0e7e518c","bdp_rwlrn","Wed Mar 15 2023 14:49:12 GMT-0400 (Eastern Daylight Time)","570882","Trustworthy,Untrustworthy","","null","","","","decisionFB","","<div class='trialDiv'><img src='Fruit/papayas.png'><br><font class='baseline'><strong>Papaya Payday</strong><p>Choose number of points to bet.</font><div class='respPicDiv'><img src='img/responseButtonOffersNo0L1.png' class='respPic'></div></div>","null","13","Papaya Payday","Fruit/papayas.png","Won","0.65,0.2","11","0.65","155","37","",""
"html-keyboard-response","120","263168","0.0-11.0-3.36","6108cd48a97ffccb0e7e518c","bdp_rwlrn","Wed Mar 15 2023 14:49:12 GMT-0400 (Eastern Daylight Time)","570882","Trustworthy,Untrustworthy","","null","","","","feedback","","<div class='respPicDiv'><img src='img/responseButtonOffersNo0_wht.png' class='respPic'></div><div class='trialDiv'><img src='Fruit/papayas.png'><br><font class='baseline'><strong>Papaya Payday</strong><p><strong><font class='posOutcome'>You WON</font><p>You bet: 1</strong></font> &nbsp; &nbsp; &nbsp; &nbsp; &nbsp; &nbsp;<font class='posOutcome'>you receive: <strong>2</strong></font></div>","null","13","Papaya Payday","Fruit/papayas.png","Won","0.65,0.2","11","0.65","157","37","",""
"html-keyboard-response","121","264792","0.0-11.0-1.37","6108cd48a97ffccb0e7e518c","bdp_rwlrn","Wed Mar 15 2023 14:49:12 GMT-0400 (Eastern Daylight Time)","570882","Trustworthy,Untrustworthy","","1622","","","","decision","","<div class='trialDiv'><img src='Fruit/mango.png'><br><font class='baseline'><strong>Mega Mangos</strong><p>Choose number of points to bet.</font><div class='respPicDiv'><img src='img/responseButtonOffersNo0L.png' class='respPic'></div></div>","3","13","Mega Mangos","Fruit/mango.png","Lost","0.35,0.65","14","0.35","162","38","",""
"html-keyboard-response","122","265050","0.0-11.0-2.37","6108cd48a97ffccb0e7e518c","bdp_rwlrn","Wed Mar 15 2023 14:49:12 GMT-0400 (Eastern Daylight Time)","570882","Trustworthy,Untrustworthy","","null","","","","decisionFB","","<div class='trialDiv'><img src='Fruit/mango.png'><br><font class='baseline'><strong>Mega Mangos</strong><p>Choose number of points to bet.</font><div class='respPicDiv'><img src='img/responseButtonOffersNo0L3.png' class='respPic'></div></div>","null","13","Mega Mangos","Fruit/mango.png","Lost","0.35,0.65","14","0.35","159","38","",""
"html-keyboard-response","123","266058","0.0-11.0-3.37","6108cd48a97ffccb0e7e518c","bdp_rwlrn","Wed Mar 15 2023 14:49:12 GMT-0400 (Eastern Daylight Time)","570882","Trustworthy,Untrustworthy","","null","","","","feedback","","<div class='respPicDiv'><img src='img/responseButtonOffersNo0_wht.png' class='respPic'></div><div class='trialDiv'><img src='Fruit/mango.png'><br><font class='baseline'><strong>Mega Mangos</strong><p><strong><font class='negOutcome'>You LOST</font><p>You bet: 3</strong></font> &nbsp; &nbsp; &nbsp; &nbsp; &nbsp; &nbsp;<font class='negOutcome'>You receive: <strong>0</strong></font></div>","null","13","Mega Mangos","Fruit/mango.png","Lost","0.35,0.65","14","0.35","159","38","",""
"html-keyboard-response","124","266957","0.0-11.0-1.38","6108cd48a97ffccb0e7e518c","bdp_rwlrn","Wed Mar 15 2023 14:49:12 GMT-0400 (Eastern Daylight Time)","570882","Trustworthy,Untrustworthy","","898","","","","decision","","<div class='trialDiv'><img src='Fruit/watermelon.png'><br><font class='baseline'><strong>Watermelon Win$</strong><p>Choose number of points to bet.</font><div class='respPicDiv'><img src='img/responseButtonOffersNo0L.png' class='respPic'></div></div>","1","13","Watermelon Win$","Fruit/watermelon.png","Won","0.35,0.8","12","0.35","164","39","",""
"html-keyboard-response","125","267217","0.0-11.0-2.38","6108cd48a97ffccb0e7e518c","bdp_rwlrn","Wed Mar 15 2023 14:49:12 GMT-0400 (Eastern Daylight Time)","570882","Trustworthy,Untrustworthy","","null","","","","decisionFB","","<div class='trialDiv'><img src='Fruit/watermelon.png'><br><font class='baseline'><strong>Watermelon Win$</strong><p>Choose number of points to bet.</font><div class='respPicDiv'><img src='img/responseButtonOffersNo0L1.png' class='respPic'></div></div>","null","13","Watermelon Win$","Fruit/watermelon.png","Won","0.35,0.8","12","0.35","163","39","",""
"html-keyboard-response","126","268222","0.0-11.0-3.38","6108cd48a97ffccb0e7e518c","bdp_rwlrn","Wed Mar 15 2023 14:49:12 GMT-0400 (Eastern Daylight Time)","570882","Trustworthy,Untrustworthy","","null","","","","feedback","","<div class='respPicDiv'><img src='img/responseButtonOffersNo0_wht.png' class='respPic'></div><div class='trialDiv'><img src='Fruit/watermelon.png'><br><font class='baseline'><strong>Watermelon Win$</strong><p><strong><font class='posOutcome'>You WON</font><p>You bet: 1</strong></font> &nbsp; &nbsp; &nbsp; &nbsp; &nbsp; &nbsp;<font class='posOutcome'>you receive: <strong>2</strong></font></div>","null","13","Watermelon Win$","Fruit/watermelon.png","Won","0.35,0.8","12","0.35","165","39","",""
"html-keyboard-response","127","268950","0.0-11.0-1.39","6108cd48a97ffccb0e7e518c","bdp_rwlrn","Wed Mar 15 2023 14:49:12 GMT-0400 (Eastern Daylight Time)","570882","Trustworthy,Untrustworthy","","727","","","","decision","","<div class='trialDiv'><img src='Fruit/mango.png'><br><font class='baseline'><strong>Mega Mangos</strong><p>Choose number of points to bet.</font><div class='respPicDiv'><img src='img/responseButtonOffersNo0L.png' class='respPic'></div></div>","1","14","Mega Mangos","Fruit/mango.png","Won","0.35,0.65","14","0.35","170","40","",""
"html-keyboard-response","128","269208","0.0-11.0-2.39","6108cd48a97ffccb0e7e518c","bdp_rwlrn","Wed Mar 15 2023 14:49:12 GMT-0400 (Eastern Daylight Time)","570882","Trustworthy,Untrustworthy","","null","","","","decisionFB","","<div class='trialDiv'><img src='Fruit/mango.png'><br><font class='baseline'><strong>Mega Mangos</strong><p>Choose number of points to bet.</font><div class='respPicDiv'><img src='img/responseButtonOffersNo0L1.png' class='respPic'></div></div>","null","14","Mega Mangos","Fruit/mango.png","Won","0.35,0.65","14","0.35","169","40","",""
"html-keyboard-response","129","270218","0.0-11.0-3.39","6108cd48a97ffccb0e7e518c","bdp_rwlrn","Wed Mar 15 2023 14:49:12 GMT-0400 (Eastern Daylight Time)","570882","Trustworthy,Untrustworthy","","null","","","","feedback","","<div class='respPicDiv'><img src='img/responseButtonOffersNo0_wht.png' class='respPic'></div><div class='trialDiv'><img src='Fruit/mango.png'><br><font class='baseline'><strong>Mega Mangos</strong><p><strong><font class='posOutcome'>You WON</font><p>You bet: 1</strong></font> &nbsp; &nbsp; &nbsp; &nbsp; &nbsp; &nbsp;<font class='posOutcome'>you receive: <strong>2</strong></font></div>","null","14","Mega Mangos","Fruit/mango.png","Won","0.35,0.65","14","0.35","171","40","",""
"html-keyboard-response","130","270820","0.0-11.0-1.40","6108cd48a97ffccb0e7e518c","bdp_rwlrn","Wed Mar 15 2023 14:49:12 GMT-0400 (Eastern Daylight Time)","570882","Trustworthy,Untrustworthy","","600","","","","decision","","<div class='trialDiv'><img src='Fruit/watermelon.png'><br><font class='baseline'><strong>Watermelon Win$</strong><p>Choose number of points to bet.</font><div class='respPicDiv'><img src='img/responseButtonOffersNo0L.png' class='respPic'></div></div>","1","14","Watermelon Win$","Fruit/watermelon.png","Won","0.35,0.8","12","0.35","176","41","",""
"html-keyboard-response","131","271080","0.0-11.0-2.40","6108cd48a97ffccb0e7e518c","bdp_rwlrn","Wed Mar 15 2023 14:49:12 GMT-0400 (Eastern Daylight Time)","570882","Trustworthy,Untrustworthy","","null","","","","decisionFB","","<div class='trialDiv'><img src='Fruit/watermelon.png'><br><font class='baseline'><strong>Watermelon Win$</strong><p>Choose number of points to bet.</font><div class='respPicDiv'><img src='img/responseButtonOffersNo0L1.png' class='respPic'></div></div>","null","14","Watermelon Win$","Fruit/watermelon.png","Won","0.35,0.8","12","0.35","175","41","",""
"html-keyboard-response","132","272089","0.0-11.0-3.40","6108cd48a97ffccb0e7e518c","bdp_rwlrn","Wed Mar 15 2023 14:49:12 GMT-0400 (Eastern Daylight Time)","570882","Trustworthy,Untrustworthy","","null","","","","feedback","","<div class='respPicDiv'><img src='img/responseButtonOffersNo0_wht.png' class='respPic'></div><div class='trialDiv'><img src='Fruit/watermelon.png'><br><font class='baseline'><strong>Watermelon Win$</strong><p><strong><font class='posOutcome'>You WON</font><p>You bet: 1</strong></font> &nbsp; &nbsp; &nbsp; &nbsp; &nbsp; &nbsp;<font class='posOutcome'>you receive: <strong>2</strong></font></div>","null","14","Watermelon Win$","Fruit/watermelon.png","Won","0.35,0.8","12","0.35","177","41","",""
"html-keyboard-response","133","272435","0.0-11.0-1.41","6108cd48a97ffccb0e7e518c","bdp_rwlrn","Wed Mar 15 2023 14:49:12 GMT-0400 (Eastern Daylight Time)","570882","Trustworthy,Untrustworthy","","344","","","","decision","","<div class='trialDiv'><img src='Fruit/papayas.png'><br><font class='baseline'><strong>Papaya Payday</strong><p>Choose number of points to bet.</font><div class='respPicDiv'><img src='img/responseButtonOffersNo0L.png' class='respPic'></div></div>","1","14","Papaya Payday","Fruit/papayas.png","Lost","0.65,0.2","11","0.65","182","42","",""
"html-keyboard-response","134","272693","0.0-11.0-2.41","6108cd48a97ffccb0e7e518c","bdp_rwlrn","Wed Mar 15 2023 14:49:12 GMT-0400 (Eastern Daylight Time)","570882","Trustworthy,Untrustworthy","","null","","","","decisionFB","","<div class='trialDiv'><img src='Fruit/papayas.png'><br><font class='baseline'><strong>Papaya Payday</strong><p>Choose number of points to bet.</font><div class='respPicDiv'><img src='img/responseButtonOffersNo0L1.png' class='respPic'></div></div>","null","14","Papaya Payday","Fruit/papayas.png","Lost","0.65,0.2","11","0.65","181","42","",""
"html-keyboard-response","135","273705","0.0-11.0-3.41","6108cd48a97ffccb0e7e518c","bdp_rwlrn","Wed Mar 15 2023 14:49:12 GMT-0400 (Eastern Daylight Time)","570882","Trustworthy,Untrustworthy","","null","","","","feedback","","<div class='respPicDiv'><img src='img/responseButtonOffersNo0_wht.png' class='respPic'></div><div class='trialDiv'><img src='Fruit/papayas.png'><br><font class='baseline'><strong>Papaya Payday</strong><p><strong><font class='negOutcome'>You LOST</font><p>You bet: 1</strong></font> &nbsp; &nbsp; &nbsp; &nbsp; &nbsp; &nbsp;<font class='negOutcome'>You receive: <strong>0</strong></font></div>","null","14","Papaya Payday","Fruit/papayas.png","Lost","0.65,0.2","11","0.65","181","42","",""
"html-keyboard-response","136","274457","0.0-11.0-1.42","6108cd48a97ffccb0e7e518c","bdp_rwlrn","Wed Mar 15 2023 14:49:12 GMT-0400 (Eastern Daylight Time)","570882","Trustworthy,Untrustworthy","","750","","","","decision","","<div class='trialDiv'><img src='Fruit/mango.png'><br><font class='baseline'><strong>Mega Mangos</strong><p>Choose number of points to bet.</font><div class='respPicDiv'><img src='img/responseButtonOffersNo0L.png' class='respPic'></div></div>","1","15","Mega Mangos","Fruit/mango.png","Lost","0.35,0.65","14","0.35","186","43","",""
"html-keyboard-response","137","274719","0.0-11.0-2.42","6108cd48a97ffccb0e7e518c","bdp_rwlrn","Wed Mar 15 2023 14:49:12 GMT-0400 (Eastern Daylight Time)","570882","Trustworthy,Untrustworthy","","null","","","","decisionFB","","<div class='trialDiv'><img src='Fruit/mango.png'><br><font class='baseline'><strong>Mega Mangos</strong><p>Choose number of points to bet.</font><div class='respPicDiv'><img src='img/responseButtonOffersNo0L1.png' class='respPic'></div></div>","null","15","Mega Mangos","Fruit/mango.png","Lost","0.35,0.65","14","0.35","185","43","",""
"html-keyboard-response","138","275729","0.0-11.0-3.42","6108cd48a97ffccb0e7e518c","bdp_rwlrn","Wed Mar 15 2023 14:49:12 GMT-0400 (Eastern Daylight Time)","570882","Trustworthy,Untrustworthy","","null","","","","feedback","","<div class='respPicDiv'><img src='img/responseButtonOffersNo0_wht.png' class='respPic'></div><div class='trialDiv'><img src='Fruit/mango.png'><br><font class='baseline'><strong>Mega Mangos</strong><p><strong><font class='negOutcome'>You LOST</font><p>You bet: 1</strong></font> &nbsp; &nbsp; &nbsp; &nbsp; &nbsp; &nbsp;<font class='negOutcome'>You receive: <strong>0</strong></font></div>","null","15","Mega Mangos","Fruit/mango.png","Lost","0.35,0.65","14","0.35","185","43","",""
"html-keyboard-response","139","276944","0.0-11.0-1.43","6108cd48a97ffccb0e7e518c","bdp_rwlrn","Wed Mar 15 2023 14:49:12 GMT-0400 (Eastern Daylight Time)","570882","Trustworthy,Untrustworthy","","1214","","","","decision","","<div class='trialDiv'><img src='Fruit/watermelon.png'><br><font class='baseline'><strong>Watermelon Win$</strong><p>Choose number of points to bet.</font><div class='respPicDiv'><img src='img/responseButtonOffersNo0L.png' class='respPic'></div></div>","4","15","Watermelon Win$","Fruit/watermelon.png","Won","0.35,0.8","12","0.35","190","44","",""
"html-keyboard-response","140","277209","0.0-11.0-2.43","6108cd48a97ffccb0e7e518c","bdp_rwlrn","Wed Mar 15 2023 14:49:12 GMT-0400 (Eastern Daylight Time)","570882","Trustworthy,Untrustworthy","","null","","","","decisionFB","","<div class='trialDiv'><img src='Fruit/watermelon.png'><br><font class='baseline'><strong>Watermelon Win$</strong><p>Choose number of points to bet.</font><div class='respPicDiv'><img src='img/responseButtonOffersNo0L4.png' class='respPic'></div></div>","null","15","Watermelon Win$","Fruit/watermelon.png","Won","0.35,0.8","12","0.35","186","44","",""
"html-keyboard-response","141","278214","0.0-11.0-3.43","6108cd48a97ffccb0e7e518c","bdp_rwlrn","Wed Mar 15 2023 14:49:12 GMT-0400 (Eastern Daylight Time)","570882","Trustworthy,Untrustworthy","","null","","","","feedback","","<div class='respPicDiv'><img src='img/responseButtonOffersNo0_wht.png' class='respPic'></div><div class='trialDiv'><img src='Fruit/watermelon.png'><br><font class='baseline'><strong>Watermelon Win$</strong><p><strong><font class='posOutcome'>You WON</font><p>You bet: 4</strong></font> &nbsp; &nbsp; &nbsp; &nbsp; &nbsp; &nbsp;<font class='posOutcome'>you receive: <strong>8</strong></font></div>","null","15","Watermelon Win$","Fruit/watermelon.png","Won","0.35,0.8","12","0.35","194","44","",""
"html-keyboard-response","142","278680","0.0-11.0-1.44","6108cd48a97ffccb0e7e518c","bdp_rwlrn","Wed Mar 15 2023 14:49:12 GMT-0400 (Eastern Daylight Time)","570882","Trustworthy,Untrustworthy","","464","","","","decision","","<div class='trialDiv'><img src='Fruit/papayas.png'><br><font class='baseline'><strong>Papaya Payday</strong><p>Choose number of points to bet.</font><div class='respPicDiv'><img src='img/responseButtonOffersNo0L.png' class='respPic'></div></div>","5","15","Papaya Payday","Fruit/papayas.png","Lost","0.65,0.2","11","0.65","199","45","",""
"html-keyboard-response","143","278932","0.0-11.0-2.44","6108cd48a97ffccb0e7e518c","bdp_rwlrn","Wed Mar 15 2023 14:49:12 GMT-0400 (Eastern Daylight Time)","570882","Trustworthy,Untrustworthy","","null","","","","decisionFB","","<div class='trialDiv'><img src='Fruit/papayas.png'><br><font class='baseline'><strong>Papaya Payday</strong><p>Choose number of points to bet.</font><div class='respPicDiv'><img src='img/responseButtonOffersNo0L5.png' class='respPic'></div></div>","null","15","Papaya Payday","Fruit/papayas.png","Lost","0.65,0.2","11","0.65","194","45","",""
"html-keyboard-response","144","279941","0.0-11.0-3.44","6108cd48a97ffccb0e7e518c","bdp_rwlrn","Wed Mar 15 2023 14:49:12 GMT-0400 (Eastern Daylight Time)","570882","Trustworthy,Untrustworthy","","null","","","","feedback","","<div class='respPicDiv'><img src='img/responseButtonOffersNo0_wht.png' class='respPic'></div><div class='trialDiv'><img src='Fruit/papayas.png'><br><font class='baseline'><strong>Papaya Payday</strong><p><strong><font class='negOutcome'>You LOST</font><p>You bet: 5</strong></font> &nbsp; &nbsp; &nbsp; &nbsp; &nbsp; &nbsp;<font class='negOutcome'>You receive: <strong>0</strong></font></div>","null","15","Papaya Payday","Fruit/papayas.png","Lost","0.65,0.2","11","0.65","194","45","",""
"html-keyboard-response","145","280153","0.0-11.0-1.45","6108cd48a97ffccb0e7e518c","bdp_rwlrn","Wed Mar 15 2023 14:49:12 GMT-0400 (Eastern Daylight Time)","570882","Trustworthy,Untrustworthy","","210","","","","decision","","<div class='trialDiv'><img src='Fruit/mango.png'><br><font class='baseline'><strong>Mega Mangos</strong><p>Choose number of points to bet.</font><div class='respPicDiv'><img src='img/responseButtonOffersNo0L.png' class='respPic'></div></div>","5","16","Mega Mangos","Fruit/mango.png","Lost","0.35,0.65","14","0.35","199","46","",""
"html-keyboard-response","146","280414","0.0-11.0-2.45","6108cd48a97ffccb0e7e518c","bdp_rwlrn","Wed Mar 15 2023 14:49:12 GMT-0400 (Eastern Daylight Time)","570882","Trustworthy,Untrustworthy","","null","","","","decisionFB","","<div class='trialDiv'><img src='Fruit/mango.png'><br><font class='baseline'><strong>Mega Mangos</strong><p>Choose number of points to bet.</font><div class='respPicDiv'><img src='img/responseButtonOffersNo0L5.png' class='respPic'></div></div>","null","16","Mega Mangos","Fruit/mango.png","Lost","0.35,0.65","14","0.35","194","46","",""
"html-keyboard-response","147","281423","0.0-11.0-3.45","6108cd48a97ffccb0e7e518c","bdp_rwlrn","Wed Mar 15 2023 14:49:12 GMT-0400 (Eastern Daylight Time)","570882","Trustworthy,Untrustworthy","","null","","","","feedback","","<div class='respPicDiv'><img src='img/responseButtonOffersNo0_wht.png' class='respPic'></div><div class='trialDiv'><img src='Fruit/mango.png'><br><font class='baseline'><strong>Mega Mangos</strong><p><strong><font class='negOutcome'>You LOST</font><p>You bet: 5</strong></font> &nbsp; &nbsp; &nbsp; &nbsp; &nbsp; &nbsp;<font class='negOutcome'>You receive: <strong>0</strong></font></div>","null","16","Mega Mangos","Fruit/mango.png","Lost","0.35,0.65","14","0.35","194","46","",""
"html-keyboard-response","148","281479","0.0-11.0-1.46","6108cd48a97ffccb0e7e518c","bdp_rwlrn","Wed Mar 15 2023 14:49:12 GMT-0400 (Eastern Daylight Time)","570882","Trustworthy,Untrustworthy","","55","","","","decision","","<div class='trialDiv'><img src='Fruit/watermelon.png'><br><font class='baseline'><strong>Watermelon Win$</strong><p>Choose number of points to bet.</font><div class='respPicDiv'><img src='img/responseButtonOffersNo0L.png' class='respPic'></div></div>","5","16","Watermelon Win$","Fruit/watermelon.png","Won","0.35,0.8","12","0.35","199","47","",""
"html-keyboard-response","149","281733","0.0-11.0-2.46","6108cd48a97ffccb0e7e518c","bdp_rwlrn","Wed Mar 15 2023 14:49:12 GMT-0400 (Eastern Daylight Time)","570882","Trustworthy,Untrustworthy","","null","","","","decisionFB","","<div class='trialDiv'><img src='Fruit/watermelon.png'><br><font class='baseline'><strong>Watermelon Win$</strong><p>Choose number of points to bet.</font><div class='respPicDiv'><img src='img/responseButtonOffersNo0L5.png' class='respPic'></div></div>","null","16","Watermelon Win$","Fruit/watermelon.png","Won","0.35,0.8","12","0.35","194","47","",""
"html-keyboard-response","150","282745","0.0-11.0-3.46","6108cd48a97ffccb0e7e518c","bdp_rwlrn","Wed Mar 15 2023 14:49:12 GMT-0400 (Eastern Daylight Time)","570882","Trustworthy,Untrustworthy","","null","","","","feedback","","<div class='respPicDiv'><img src='img/responseButtonOffersNo0_wht.png' class='respPic'></div><div class='trialDiv'><img src='Fruit/watermelon.png'><br><font class='baseline'><strong>Watermelon Win$</strong><p><strong><font class='posOutcome'>You WON</font><p>You bet: 5</strong></font> &nbsp; &nbsp; &nbsp; &nbsp; &nbsp; &nbsp;<font class='posOutcome'>you receive: <strong>10</strong></font></div>","null","16","Watermelon Win$","Fruit/watermelon.png","Won","0.35,0.8","12","0.35","204","47","",""
"html-keyboard-response","151","284209","0.0-11.0-1.47","6108cd48a97ffccb0e7e518c","bdp_rwlrn","Wed Mar 15 2023 14:49:12 GMT-0400 (Eastern Daylight Time)","570882","Trustworthy,Untrustworthy","","1463","","","","decision","","<div class='trialDiv'><img src='Fruit/papayas.png'><br><font class='baseline'><strong>Papaya Payday</strong><p>Choose number of points to bet.</font><div class='respPicDiv'><img src='img/responseButtonOffersNo0L.png' class='respPic'></div></div>","3","16","Papaya Payday","Fruit/papayas.png","Won","0.65,0.2","11","0.65","209","48","",""
"html-keyboard-response","152","284473","0.0-11.0-2.47","6108cd48a97ffccb0e7e518c","bdp_rwlrn","Wed Mar 15 2023 14:49:12 GMT-0400 (Eastern Daylight Time)","570882","Trustworthy,Untrustworthy","","null","","","","decisionFB","","<div class='trialDiv'><img src='Fruit/papayas.png'><br><font class='baseline'><strong>Papaya Payday</strong><p>Choose number of points to bet.</font><div class='respPicDiv'><img src='img/responseButtonOffersNo0L3.png' class='respPic'></div></div>","null","16","Papaya Payday","Fruit/papayas.png","Won","0.65,0.2","11","0.65","206","48","",""
"html-keyboard-response","153","285477","0.0-11.0-3.47","6108cd48a97ffccb0e7e518c","bdp_rwlrn","Wed Mar 15 2023 14:49:12 GMT-0400 (Eastern Daylight Time)","570882","Trustworthy,Untrustworthy","","null","","","","feedback","","<div class='respPicDiv'><img src='img/responseButtonOffersNo0_wht.png' class='respPic'></div><div class='trialDiv'><img src='Fruit/papayas.png'><br><font class='baseline'><strong>Papaya Payday</strong><p><strong><font class='posOutcome'>You WON</font><p>You bet: 3</strong></font> &nbsp; &nbsp; &nbsp; &nbsp; &nbsp; &nbsp;<font class='posOutcome'>you receive: <strong>6</strong></font></div>","null","16","Papaya Payday","Fruit/papayas.png","Won","0.65,0.2","11","0.65","212","48","",""
"html-keyboard-response","154","287697","0.0-11.0-1.48","6108cd48a97ffccb0e7e518c","bdp_rwlrn","Wed Mar 15 2023 14:49:12 GMT-0400 (Eastern Daylight Time)","570882","Trustworthy,Untrustworthy","","2218","","","","decision","","<div class='trialDiv'><img src='Fruit/watermelon.png'><br><font class='baseline'><strong>Watermelon Win$</strong><p>Choose number of points to bet.</font><div class='respPicDiv'><img src='img/responseButtonOffersNo0L.png' class='respPic'></div></div>","3","17","Watermelon Win$","Fruit/watermelon.png","Won","0.35,0.8","12","0.35","217","49","",""
"html-keyboard-response","155","287953","0.0-11.0-2.48","6108cd48a97ffccb0e7e518c","bdp_rwlrn","Wed Mar 15 2023 14:49:12 GMT-0400 (Eastern Daylight Time)","570882","Trustworthy,Untrustworthy","","null","","","","decisionFB","","<div class='trialDiv'><img src='Fruit/watermelon.png'><br><font class='baseline'><strong>Watermelon Win$</strong><p>Choose number of points to bet.</font><div class='respPicDiv'><img src='img/responseButtonOffersNo0L3.png' class='respPic'></div></div>","null","17","Watermelon Win$","Fruit/watermelon.png","Won","0.35,0.8","12","0.35","214","49","",""
"html-keyboard-response","156","288960","0.0-11.0-3.48","6108cd48a97ffccb0e7e518c","bdp_rwlrn","Wed Mar 15 2023 14:49:12 GMT-0400 (Eastern Daylight Time)","570882","Trustworthy,Untrustworthy","","null","","","","feedback","","<div class='respPicDiv'><img src='img/responseButtonOffersNo0_wht.png' class='respPic'></div><div class='trialDiv'><img src='Fruit/watermelon.png'><br><font class='baseline'><strong>Watermelon Win$</strong><p><strong><font class='posOutcome'>You WON</font><p>You bet: 3</strong></font> &nbsp; &nbsp; &nbsp; &nbsp; &nbsp; &nbsp;<font class='posOutcome'>you receive: <strong>6</strong></font></div>","null","17","Watermelon Win$","Fruit/watermelon.png","Won","0.35,0.8","12","0.35","220","49","",""
"html-keyboard-response","157","290291","0.0-11.0-1.49","6108cd48a97ffccb0e7e518c","bdp_rwlrn","Wed Mar 15 2023 14:49:12 GMT-0400 (Eastern Daylight Time)","570882","Trustworthy,Untrustworthy","","1329","","","","decision","","<div class='trialDiv'><img src='Fruit/papayas.png'><br><font class='baseline'><strong>Papaya Payday</strong><p>Choose number of points to bet.</font><div class='respPicDiv'><img src='img/responseButtonOffersNo0L.png' class='respPic'></div></div>","4","17","Papaya Payday","Fruit/papayas.png","Lost","0.65,0.2","11","0.65","225","50","",""
"html-keyboard-response","158","290552","0.0-11.0-2.49","6108cd48a97ffccb0e7e518c","bdp_rwlrn","Wed Mar 15 2023 14:49:12 GMT-0400 (Eastern Daylight Time)","570882","Trustworthy,Untrustworthy","","null","","","","decisionFB","","<div class='trialDiv'><img src='Fruit/papayas.png'><br><font class='baseline'><strong>Papaya Payday</strong><p>Choose number of points to bet.</font><div class='respPicDiv'><img src='img/responseButtonOffersNo0L4.png' class='respPic'></div></div>","null","17","Papaya Payday","Fruit/papayas.png","Lost","0.65,0.2","11","0.65","221","50","",""
"html-keyboard-response","159","291558","0.0-11.0-3.49","6108cd48a97ffccb0e7e518c","bdp_rwlrn","Wed Mar 15 2023 14:49:12 GMT-0400 (Eastern Daylight Time)","570882","Trustworthy,Untrustworthy","","null","","","","feedback","","<div class='respPicDiv'><img src='img/responseButtonOffersNo0_wht.png' class='respPic'></div><div class='trialDiv'><img src='Fruit/papayas.png'><br><font class='baseline'><strong>Papaya Payday</strong><p><strong><font class='negOutcome'>You LOST</font><p>You bet: 4</strong></font> &nbsp; &nbsp; &nbsp; &nbsp; &nbsp; &nbsp;<font class='negOutcome'>You receive: <strong>0</strong></font></div>","null","17","Papaya Payday","Fruit/papayas.png","Lost","0.65,0.2","11","0.65","221","50","",""
"html-keyboard-response","160","292000","0.0-11.0-1.50","6108cd48a97ffccb0e7e518c","bdp_rwlrn","Wed Mar 15 2023 14:49:12 GMT-0400 (Eastern Daylight Time)","570882","Trustworthy,Untrustworthy","","440","","","","decision","","<div class='trialDiv'><img src='Fruit/mango.png'><br><font class='baseline'><strong>Mega Mangos</strong><p>Choose number of points to bet.</font><div class='respPicDiv'><img src='img/responseButtonOffersNo0L.png' class='respPic'></div></div>","5","17","Mega Mangos","Fruit/mango.png","Won","0.35,0.65","14","0.35","226","51","",""
"html-keyboard-response","161","292264","0.0-11.0-2.50","6108cd48a97ffccb0e7e518c","bdp_rwlrn","Wed Mar 15 2023 14:49:12 GMT-0400 (Eastern Daylight Time)","570882","Trustworthy,Untrustworthy","","null","","","","decisionFB","","<div class='trialDiv'><img src='Fruit/mango.png'><br><font class='baseline'><strong>Mega Mangos</strong><p>Choose number of points to bet.</font><div class='respPicDiv'><img src='img/responseButtonOffersNo0L5.png' class='respPic'></div></div>","null","17","Mega Mangos","Fruit/mango.png","Won","0.35,0.65","14","0.35","221","51","",""
"html-keyboard-response","162","293272","0.0-11.0-3.50","6108cd48a97ffccb0e7e518c","bdp_rwlrn","Wed Mar 15 2023 14:49:12 GMT-0400 (Eastern Daylight Time)","570882","Trustworthy,Untrustworthy","","null","","","","feedback","","<div class='respPicDiv'><img src='img/responseButtonOffersNo0_wht.png' class='respPic'></div><div class='trialDiv'><img src='Fruit/mango.png'><br><font class='baseline'><strong>Mega Mangos</strong><p><strong><font class='posOutcome'>You WON</font><p>You bet: 5</strong></font> &nbsp; &nbsp; &nbsp; &nbsp; &nbsp; &nbsp;<font class='posOutcome'>you receive: <strong>10</strong></font></div>","null","17","Mega Mangos","Fruit/mango.png","Won","0.35,0.65","14","0.35","231","51","",""
