"trial_type","trial_index","time_elapsed","internal_node_id","subject_id","task","startTime","totalTime","labels","view_history","rt","event","trial","time","trialtype","success","stimulus","key_press","ltround","name","fileID","outcome","lottotype","lottoswpt","lottocurrpshare","point_total","round","faceID","face"
"pavlovia","0","3","0.0-0.0","610189e61b2d3520eea21de6","bdp_rwlrn","Mon Mar 13 2023 14:28:02 GMT-0400 (Eastern Daylight Time)","401780","Untrustworthy,Trustworthy","","","","","","","","","","","","","","","","","","","",""
"instructions","1","3428","0.0-1.0","610189e61b2d3520eea21de6","bdp_rwlrn","Mon Mar 13 2023 14:28:02 GMT-0400 (Eastern Daylight Time)","401780","Untrustworthy,Trustworthy","[{""page_index"":0,""viewing_time"":3424}]","3425","","","","","","","","","","","","","","","","","",""
"","","","","610189e61b2d3520eea21de6","bdp_rwlrn","Mon Mar 13 2023 14:28:02 GMT-0400 (Eastern Daylight Time)","401780","Untrustworthy,Trustworthy","","","fullscreenenter","2","6267","fullscreenenter","","","","","","","","","","","","","",""
"fullscreen","2","7224","0.0-2.0","610189e61b2d3520eea21de6","bdp_rwlrn","Mon Mar 13 2023 14:28:02 GMT-0400 (Eastern Daylight Time)","401780","Untrustworthy,Trustworthy","","","","","","","true","","","","","","","","","","","","",""
"instructions","3","68264","0.0-4.0","610189e61b2d3520eea21de6","bdp_rwlrn","Mon Mar 13 2023 14:28:02 GMT-0400 (Eastern Daylight Time)","401780","Untrustworthy,Trustworthy","[{""page_index"":0,""viewing_time"":11791},{""page_index"":1,""viewing_time"":13129},{""page_index"":2,""viewing_time"":8061},{""page_index"":3,""viewing_time"":5569},{""page_index"":4,""viewing_time"":20040},{""page_index"":5,""viewing_time"":2447}]","61037","","","","","","","","","","","","","","","","","",""
"html-keyboard-response","4","71533","0.0-5.0","610189e61b2d3520eea21de6","bdp_rwlrn","Mon Mar 13 2023 14:28:02 GMT-0400 (Eastern Daylight Time)","401780","Untrustworthy,Trustworthy","","3266","","","","","","<div class='header' style='text-align:left; position: absolute; top: 5%; left: 5%;'><small>Task 3 of 5</small></div><div class='instruxDiv'><p><strong>1) What is the maximum number of points you can choose to bet on a lottery?</strong></p><p>a) 0</p><p>b) 1</p><p>c) 5</p>","C","","","","","","","","","","",""
"html-keyboard-response","5","73208","0.0-6.0","610189e61b2d3520eea21de6","bdp_rwlrn","Mon Mar 13 2023 14:28:02 GMT-0400 (Eastern Daylight Time)","401780","Untrustworthy,Trustworthy","","1572","","","","","","<div class='header' style='text-align:left; position: absolute; top: 5%; left: 5%;'><small>Task 3 of 5</small></div><div class='instruxDiv'><p><strong>1) What is the maximum number of points you can choose to bet on a lottery?</strong></p><p>a) 1</p><p>b) 1</p><p style='color:#00FF00'>c) 5</p><h3 style='color:#00FF00'>Correct!</h3><h3 class='center-content'>The correct response is c).</h3><h3 class='center-content'>The maximum number of points you can choose to bet on a lottery is 5 points.</h3><p><em>Press SPACEBAR to continue</em></p></div>"," ","","","","","","","","","","",""
"html-keyboard-response","6","76858","0.0-7.0","610189e61b2d3520eea21de6","bdp_rwlrn","Mon Mar 13 2023 14:28:02 GMT-0400 (Eastern Daylight Time)","401780","Untrustworthy,Trustworthy","","3549","","","","","","<div class='header' style='text-align:left; position: absolute; top: 5%; left: 5%;'><small>Task 3 of 5</small></div><div class='instruxDiv'><p><strong>2) How many points can you win each round?</strong></p><p>a) 10 points</p><p>b) Double what you bet</p><p>c) Quadruple what you bet</p>","B","","","","","","","","","","",""
"html-keyboard-response","7","78192","0.0-8.0","610189e61b2d3520eea21de6","bdp_rwlrn","Mon Mar 13 2023 14:28:02 GMT-0400 (Eastern Daylight Time)","401780","Untrustworthy,Trustworthy","","1232","","","","","","<div class='header' style='text-align:left; position: absolute; top: 5%; left: 5%;'><small>Task 3 of 5</small></div><div class='instruxDiv'><p><strong>2) How many points can you win each round?</strong></p><p>a) 10 points</p><p style='color:#00FF00'>b) Double what you bet</p><p>c) Quadruple what you bet</p><h3 style='color:#00FF00'>Correct!</h3><h3 class='center-content'>The correct response is b).</h3><h3 class='center-content'>You can win double the amount of points you bet.</h3><p><em>Press SPACEBAR to continue</em></p></div>"," ","","","","","","","","","","",""
"html-keyboard-response","8","83298","0.0-9.0","610189e61b2d3520eea21de6","bdp_rwlrn","Mon Mar 13 2023 14:28:02 GMT-0400 (Eastern Daylight Time)","401780","Untrustworthy,Trustworthy","","null","","","","","","<div class='header' style='text-align:left; position: absolute; top: 5%; left: 5%;'><small>Task 3 of 5</small></div><div class='instruxDiv'><p>Thank you for completing the quiz<p>These are the actual lotteries you will be playing in the next block:<p><div class='tc' align='center'><img class='introPic' src='Fruit/papayas.png'><br><strong>Papaya Payday</strong></div><div class='bl' align='center'><img class='introPic' src='Fruit/lemon.png'><br><strong>Lucky Lemons</strong></div><div class='br' align='center'><img class='introPic' src='Fruit/melon.png'><br><strong>Melon Millions</strong></div></div><p>Across <strong>66 rounds</strong> you will play each lottery <strong>22 times</strong> (in random order).<p style='align:center; color:white'><font <em>Press SPACEBAR to continue</em></p>","null","","","","","","","","","","",""
"instructions","9","95329","0.0-10.0","610189e61b2d3520eea21de6","bdp_rwlrn","Mon Mar 13 2023 14:28:02 GMT-0400 (Eastern Daylight Time)","401780","Untrustworthy,Trustworthy","[{""page_index"":0,""viewing_time"":8784},{""page_index"":1,""viewing_time"":3245}]","12029","","","","","","","","","","","","","","","","","",""
"html-keyboard-response","10","97594","0.0-11.0-1.0","610189e61b2d3520eea21de6","bdp_rwlrn","Mon Mar 13 2023 14:28:02 GMT-0400 (Eastern Daylight Time)","401780","Untrustworthy,Trustworthy","","2160","","","","decision","","<div class='trialDiv'><img src='Fruit/lemon.png'><br><font class='baseline'><strong>Lucky Lemons</strong><p>Choose number of points to bet.</font><div class='respPicDiv'><img src='img/responseButtonOffersNo0L.png' class='respPic'></div></div>","5","1","Lucky Lemons","Fruit/lemon.png","Won","0.8,0.2","13","0.8","5","1","",""
"html-keyboard-response","11","97847","0.0-11.0-2.0","610189e61b2d3520eea21de6","bdp_rwlrn","Mon Mar 13 2023 14:28:02 GMT-0400 (Eastern Daylight Time)","401780","Untrustworthy,Trustworthy","","null","","","","decisionFB","","<div class='trialDiv'><img src='Fruit/lemon.png'><br><font class='baseline'><strong>Lucky Lemons</strong><p>Choose number of points to bet.</font><div class='respPicDiv'><img src='img/responseButtonOffersNo0L5.png' class='respPic'></div></div>","null","1","Lucky Lemons","Fruit/lemon.png","Won","0.8,0.2","13","0.8","0","1","",""
"html-keyboard-response","12","98851","0.0-11.0-3.0","610189e61b2d3520eea21de6","bdp_rwlrn","Mon Mar 13 2023 14:28:02 GMT-0400 (Eastern Daylight Time)","401780","Untrustworthy,Trustworthy","","null","","","","feedback","","<div class='respPicDiv'><img src='img/responseButtonOffersNo0_wht.png' class='respPic'></div><div class='trialDiv'><img src='Fruit/lemon.png'><br><font class='baseline'><strong>Lucky Lemons</strong><p><strong><font class='posOutcome'>You WON</font><p>You bet: 5</strong></font> &nbsp; &nbsp; &nbsp; &nbsp; &nbsp; &nbsp;<font class='posOutcome'>you receive: <strong>10</strong></font></div>","null","1","Lucky Lemons","Fruit/lemon.png","Won","0.8,0.2","13","0.8","10","1","",""
"html-keyboard-response","13","99922","0.0-11.0-1.1","610189e61b2d3520eea21de6","bdp_rwlrn","Mon Mar 13 2023 14:28:02 GMT-0400 (Eastern Daylight Time)","401780","Untrustworthy,Trustworthy","","1068","","","","decision","","<div class='trialDiv'><img src='Fruit/papayas.png'><br><font class='baseline'><strong>Papaya Payday</strong><p>Choose number of points to bet.</font><div class='respPicDiv'><img src='img/responseButtonOffersNo0L.png' class='respPic'></div></div>","5","1","Papaya Payday","Fruit/papayas.png","Lost","0.2,0.65","11","0.2","15","2","",""
"html-keyboard-response","14","100175","0.0-11.0-2.1","610189e61b2d3520eea21de6","bdp_rwlrn","Mon Mar 13 2023 14:28:02 GMT-0400 (Eastern Daylight Time)","401780","Untrustworthy,Trustworthy","","null","","","","decisionFB","","<div class='trialDiv'><img src='Fruit/papayas.png'><br><font class='baseline'><strong>Papaya Payday</strong><p>Choose number of points to bet.</font><div class='respPicDiv'><img src='img/responseButtonOffersNo0L5.png' class='respPic'></div></div>","null","1","Papaya Payday","Fruit/papayas.png","Lost","0.2,0.65","11","0.2","10","2","",""
"html-keyboard-response","15","101179","0.0-11.0-3.1","610189e61b2d3520eea21de6","bdp_rwlrn","Mon Mar 13 2023 14:28:02 GMT-0400 (Eastern Daylight Time)","401780","Untrustworthy,Trustworthy","","null","","","","feedback","","<div class='respPicDiv'><img src='img/responseButtonOffersNo0_wht.png' class='respPic'></div><div class='trialDiv'><img src='Fruit/papayas.png'><br><font class='baseline'><strong>Papaya Payday</strong><p><strong><font class='negOutcome'>You LOST</font><p>You bet: 5</strong></font> &nbsp; &nbsp; &nbsp; &nbsp; &nbsp; &nbsp;<font class='negOutcome'>You receive: <strong>0</strong></font></div>","null","1","Papaya Payday","Fruit/papayas.png","Lost","0.2,0.65","11","0.2","10","2","",""
"html-keyboard-response","16","101881","0.0-11.0-1.2","610189e61b2d3520eea21de6","bdp_rwlrn","Mon Mar 13 2023 14:28:02 GMT-0400 (Eastern Daylight Time)","401780","Untrustworthy,Trustworthy","","699","","","","decision","","<div class='trialDiv'><img src='Fruit/melon.png'><br><font class='baseline'><strong>Melon Millions</strong><p>Choose number of points to bet.</font><div class='respPicDiv'><img src='img/responseButtonOffersNo0L.png' class='respPic'></div></div>","5","1","Melon Millions","Fruit/melon.png","Won","0.65,0.2","9","0.65","15","3","",""
"html-keyboard-response","17","102134","0.0-11.0-2.2","610189e61b2d3520eea21de6","bdp_rwlrn","Mon Mar 13 2023 14:28:02 GMT-0400 (Eastern Daylight Time)","401780","Untrustworthy,Trustworthy","","null","","","","decisionFB","","<div class='trialDiv'><img src='Fruit/melon.png'><br><font class='baseline'><strong>Melon Millions</strong><p>Choose number of points to bet.</font><div class='respPicDiv'><img src='img/responseButtonOffersNo0L5.png' class='respPic'></div></div>","null","1","Melon Millions","Fruit/melon.png","Won","0.65,0.2","9","0.65","10","3","",""
"html-keyboard-response","18","103136","0.0-11.0-3.2","610189e61b2d3520eea21de6","bdp_rwlrn","Mon Mar 13 2023 14:28:02 GMT-0400 (Eastern Daylight Time)","401780","Untrustworthy,Trustworthy","","null","","","","feedback","","<div class='respPicDiv'><img src='img/responseButtonOffersNo0_wht.png' class='respPic'></div><div class='trialDiv'><img src='Fruit/melon.png'><br><font class='baseline'><strong>Melon Millions</strong><p><strong><font class='posOutcome'>You WON</font><p>You bet: 5</strong></font> &nbsp; &nbsp; &nbsp; &nbsp; &nbsp; &nbsp;<font class='posOutcome'>you receive: <strong>10</strong></font></div>","null","1","Melon Millions","Fruit/melon.png","Won","0.65,0.2","9","0.65","20","3","",""
"html-keyboard-response","19","105257","0.0-11.0-1.3","610189e61b2d3520eea21de6","bdp_rwlrn","Mon Mar 13 2023 14:28:02 GMT-0400 (Eastern Daylight Time)","401780","Untrustworthy,Trustworthy","","2119","","","","decision","","<div class='trialDiv'><img src='Fruit/papayas.png'><br><font class='baseline'><strong>Papaya Payday</strong><p>Choose number of points to bet.</font><div class='respPicDiv'><img src='img/responseButtonOffersNo0L.png' class='respPic'></div></div>","5","2","Papaya Payday","Fruit/papayas.png","Won","0.2,0.65","11","0.2","25","4","",""
"html-keyboard-response","20","105509","0.0-11.0-2.3","610189e61b2d3520eea21de6","bdp_rwlrn","Mon Mar 13 2023 14:28:02 GMT-0400 (Eastern Daylight Time)","401780","Untrustworthy,Trustworthy","","null","","","","decisionFB","","<div class='trialDiv'><img src='Fruit/papayas.png'><br><font class='baseline'><strong>Papaya Payday</strong><p>Choose number of points to bet.</font><div class='respPicDiv'><img src='img/responseButtonOffersNo0L5.png' class='respPic'></div></div>","null","2","Papaya Payday","Fruit/papayas.png","Won","0.2,0.65","11","0.2","20","4","",""
"html-keyboard-response","21","106512","0.0-11.0-3.3","610189e61b2d3520eea21de6","bdp_rwlrn","Mon Mar 13 2023 14:28:02 GMT-0400 (Eastern Daylight Time)","401780","Untrustworthy,Trustworthy","","null","","","","feedback","","<div class='respPicDiv'><img src='img/responseButtonOffersNo0_wht.png' class='respPic'></div><div class='trialDiv'><img src='Fruit/papayas.png'><br><font class='baseline'><strong>Papaya Payday</strong><p><strong><font class='posOutcome'>You WON</font><p>You bet: 5</strong></font> &nbsp; &nbsp; &nbsp; &nbsp; &nbsp; &nbsp;<font class='posOutcome'>you receive: <strong>10</strong></font></div>","null","2","Papaya Payday","Fruit/papayas.png","Won","0.2,0.65","11","0.2","30","4","",""
"html-keyboard-response","22","107575","0.0-11.0-1.4","610189e61b2d3520eea21de6","bdp_rwlrn","Mon Mar 13 2023 14:28:02 GMT-0400 (Eastern Daylight Time)","401780","Untrustworthy,Trustworthy","","1062","","","","decision","","<div class='trialDiv'><img src='Fruit/melon.png'><br><font class='baseline'><strong>Melon Millions</strong><p>Choose number of points to bet.</font><div class='respPicDiv'><img src='img/responseButtonOffersNo0L.png' class='respPic'></div></div>","5","2","Melon Millions","Fruit/melon.png","Lost","0.65,0.2","9","0.65","35","5","",""
"html-keyboard-response","23","107826","0.0-11.0-2.4","610189e61b2d3520eea21de6","bdp_rwlrn","Mon Mar 13 2023 14:28:02 GMT-0400 (Eastern Daylight Time)","401780","Untrustworthy,Trustworthy","","null","","","","decisionFB","","<div class='trialDiv'><img src='Fruit/melon.png'><br><font class='baseline'><strong>Melon Millions</strong><p>Choose number of points to bet.</font><div class='respPicDiv'><img src='img/responseButtonOffersNo0L5.png' class='respPic'></div></div>","null","2","Melon Millions","Fruit/melon.png","Lost","0.65,0.2","9","0.65","30","5","",""
"html-keyboard-response","24","108830","0.0-11.0-3.4","610189e61b2d3520eea21de6","bdp_rwlrn","Mon Mar 13 2023 14:28:02 GMT-0400 (Eastern Daylight Time)","401780","Untrustworthy,Trustworthy","","null","","","","feedback","","<div class='respPicDiv'><img src='img/responseButtonOffersNo0_wht.png' class='respPic'></div><div class='trialDiv'><img src='Fruit/melon.png'><br><font class='baseline'><strong>Melon Millions</strong><p><strong><font class='negOutcome'>You LOST</font><p>You bet: 5</strong></font> &nbsp; &nbsp; &nbsp; &nbsp; &nbsp; &nbsp;<font class='negOutcome'>You receive: <strong>0</strong></font></div>","null","2","Melon Millions","Fruit/melon.png","Lost","0.65,0.2","9","0.65","30","5","",""
"html-keyboard-response","25","109923","0.0-11.0-1.5","610189e61b2d3520eea21de6","bdp_rwlrn","Mon Mar 13 2023 14:28:02 GMT-0400 (Eastern Daylight Time)","401780","Untrustworthy,Trustworthy","","1092","","","","decision","","<div class='trialDiv'><img src='Fruit/lemon.png'><br><font class='baseline'><strong>Lucky Lemons</strong><p>Choose number of points to bet.</font><div class='respPicDiv'><img src='img/responseButtonOffersNo0L.png' class='respPic'></div></div>","5","2","Lucky Lemons","Fruit/lemon.png","Lost","0.8,0.2","13","0.8","35","6","",""
"html-keyboard-response","26","110176","0.0-11.0-2.5","610189e61b2d3520eea21de6","bdp_rwlrn","Mon Mar 13 2023 14:28:02 GMT-0400 (Eastern Daylight Time)","401780","Untrustworthy,Trustworthy","","null","","","","decisionFB","","<div class='trialDiv'><img src='Fruit/lemon.png'><br><font class='baseline'><strong>Lucky Lemons</strong><p>Choose number of points to bet.</font><div class='respPicDiv'><img src='img/responseButtonOffersNo0L5.png' class='respPic'></div></div>","null","2","Lucky Lemons","Fruit/lemon.png","Lost","0.8,0.2","13","0.8","30","6","",""
"html-keyboard-response","27","111179","0.0-11.0-3.5","610189e61b2d3520eea21de6","bdp_rwlrn","Mon Mar 13 2023 14:28:02 GMT-0400 (Eastern Daylight Time)","401780","Untrustworthy,Trustworthy","","null","","","","feedback","","<div class='respPicDiv'><img src='img/responseButtonOffersNo0_wht.png' class='respPic'></div><div class='trialDiv'><img src='Fruit/lemon.png'><br><font class='baseline'><strong>Lucky Lemons</strong><p><strong><font class='negOutcome'>You LOST</font><p>You bet: 5</strong></font> &nbsp; &nbsp; &nbsp; &nbsp; &nbsp; &nbsp;<font class='negOutcome'>You receive: <strong>0</strong></font></div>","null","2","Lucky Lemons","Fruit/lemon.png","Lost","0.8,0.2","13","0.8","30","6","",""
"html-keyboard-response","28","112281","0.0-11.0-1.6","610189e61b2d3520eea21de6","bdp_rwlrn","Mon Mar 13 2023 14:28:02 GMT-0400 (Eastern Daylight Time)","401780","Untrustworthy,Trustworthy","","1100","","","","decision","","<div class='trialDiv'><img src='Fruit/papayas.png'><br><font class='baseline'><strong>Papaya Payday</strong><p>Choose number of points to bet.</font><div class='respPicDiv'><img src='img/responseButtonOffersNo0L.png' class='respPic'></div></div>","5","3","Papaya Payday","Fruit/papayas.png","Won","0.2,0.65","11","0.2","35","7","",""
"html-keyboard-response","29","112534","0.0-11.0-2.6","610189e61b2d3520eea21de6","bdp_rwlrn","Mon Mar 13 2023 14:28:02 GMT-0400 (Eastern Daylight Time)","401780","Untrustworthy,Trustworthy","","null","","","","decisionFB","","<div class='trialDiv'><img src='Fruit/papayas.png'><br><font class='baseline'><strong>Papaya Payday</strong><p>Choose number of points to bet.</font><div class='respPicDiv'><img src='img/responseButtonOffersNo0L5.png' class='respPic'></div></div>","null","3","Papaya Payday","Fruit/papayas.png","Won","0.2,0.65","11","0.2","30","7","",""
"html-keyboard-response","30","113537","0.0-11.0-3.6","610189e61b2d3520eea21de6","bdp_rwlrn","Mon Mar 13 2023 14:28:02 GMT-0400 (Eastern Daylight Time)","401780","Untrustworthy,Trustworthy","","null","","","","feedback","","<div class='respPicDiv'><img src='img/responseButtonOffersNo0_wht.png' class='respPic'></div><div class='trialDiv'><img src='Fruit/papayas.png'><br><font class='baseline'><strong>Papaya Payday</strong><p><strong><font class='posOutcome'>You WON</font><p>You bet: 5</strong></font> &nbsp; &nbsp; &nbsp; &nbsp; &nbsp; &nbsp;<font class='posOutcome'>you receive: <strong>10</strong></font></div>","null","3","Papaya Payday","Fruit/papayas.png","Won","0.2,0.65","11","0.2","40","7","",""
"html-keyboard-response","31","115457","0.0-11.0-1.7","610189e61b2d3520eea21de6","bdp_rwlrn","Mon Mar 13 2023 14:28:02 GMT-0400 (Eastern Daylight Time)","401780","Untrustworthy,Trustworthy","","1918","","","","decision","","<div class='trialDiv'><img src='Fruit/lemon.png'><br><font class='baseline'><strong>Lucky Lemons</strong><p>Choose number of points to bet.</font><div class='respPicDiv'><img src='img/responseButtonOffersNo0L.png' class='respPic'></div></div>","5","3","Lucky Lemons","Fruit/lemon.png","Won","0.8,0.2","13","0.8","45","8","",""
"html-keyboard-response","32","115708","0.0-11.0-2.7","610189e61b2d3520eea21de6","bdp_rwlrn","Mon Mar 13 2023 14:28:02 GMT-0400 (Eastern Daylight Time)","401780","Untrustworthy,Trustworthy","","null","","","","decisionFB","","<div class='trialDiv'><img src='Fruit/lemon.png'><br><font class='baseline'><strong>Lucky Lemons</strong><p>Choose number of points to bet.</font><div class='respPicDiv'><img src='img/responseButtonOffersNo0L5.png' class='respPic'></div></div>","null","3","Lucky Lemons","Fruit/lemon.png","Won","0.8,0.2","13","0.8","40","8","",""
"html-keyboard-response","33","116711","0.0-11.0-3.7","610189e61b2d3520eea21de6","bdp_rwlrn","Mon Mar 13 2023 14:28:02 GMT-0400 (Eastern Daylight Time)","401780","Untrustworthy,Trustworthy","","null","","","","feedback","","<div class='respPicDiv'><img src='img/responseButtonOffersNo0_wht.png' class='respPic'></div><div class='trialDiv'><img src='Fruit/lemon.png'><br><font class='baseline'><strong>Lucky Lemons</strong><p><strong><font class='posOutcome'>You WON</font><p>You bet: 5</strong></font> &nbsp; &nbsp; &nbsp; &nbsp; &nbsp; &nbsp;<font class='posOutcome'>you receive: <strong>10</strong></font></div>","null","3","Lucky Lemons","Fruit/lemon.png","Won","0.8,0.2","13","0.8","50","8","",""
"html-keyboard-response","34","117375","0.0-11.0-1.8","610189e61b2d3520eea21de6","bdp_rwlrn","Mon Mar 13 2023 14:28:02 GMT-0400 (Eastern Daylight Time)","401780","Untrustworthy,Trustworthy","","661","","","","decision","","<div class='trialDiv'><img src='Fruit/melon.png'><br><font class='baseline'><strong>Melon Millions</strong><p>Choose number of points to bet.</font><div class='respPicDiv'><img src='img/responseButtonOffersNo0L.png' class='respPic'></div></div>","5","3","Melon Millions","Fruit/melon.png","Won","0.65,0.2","9","0.65","55","9","",""
"html-keyboard-response","35","117626","0.0-11.0-2.8","610189e61b2d3520eea21de6","bdp_rwlrn","Mon Mar 13 2023 14:28:02 GMT-0400 (Eastern Daylight Time)","401780","Untrustworthy,Trustworthy","","null","","","","decisionFB","","<div class='trialDiv'><img src='Fruit/melon.png'><br><font class='baseline'><strong>Melon Millions</strong><p>Choose number of points to bet.</font><div class='respPicDiv'><img src='img/responseButtonOffersNo0L5.png' class='respPic'></div></div>","null","3","Melon Millions","Fruit/melon.png","Won","0.65,0.2","9","0.65","50","9","",""
"html-keyboard-response","36","118629","0.0-11.0-3.8","610189e61b2d3520eea21de6","bdp_rwlrn","Mon Mar 13 2023 14:28:02 GMT-0400 (Eastern Daylight Time)","401780","Untrustworthy,Trustworthy","","null","","","","feedback","","<div class='respPicDiv'><img src='img/responseButtonOffersNo0_wht.png' class='respPic'></div><div class='trialDiv'><img src='Fruit/melon.png'><br><font class='baseline'><strong>Melon Millions</strong><p><strong><font class='posOutcome'>You WON</font><p>You bet: 5</strong></font> &nbsp; &nbsp; &nbsp; &nbsp; &nbsp; &nbsp;<font class='posOutcome'>you receive: <strong>10</strong></font></div>","null","3","Melon Millions","Fruit/melon.png","Won","0.65,0.2","9","0.65","60","9","",""
"html-keyboard-response","37","119401","0.0-11.0-1.9","610189e61b2d3520eea21de6","bdp_rwlrn","Mon Mar 13 2023 14:28:02 GMT-0400 (Eastern Daylight Time)","401780","Untrustworthy,Trustworthy","","770","","","","decision","","<div class='trialDiv'><img src='Fruit/lemon.png'><br><font class='baseline'><strong>Lucky Lemons</strong><p>Choose number of points to bet.</font><div class='respPicDiv'><img src='img/responseButtonOffersNo0L.png' class='respPic'></div></div>","5","4","Lucky Lemons","Fruit/lemon.png","Lost","0.8,0.2","13","0.8","65","10","",""
"html-keyboard-response","38","119655","0.0-11.0-2.9","610189e61b2d3520eea21de6","bdp_rwlrn","Mon Mar 13 2023 14:28:02 GMT-0400 (Eastern Daylight Time)","401780","Untrustworthy,Trustworthy","","null","","","","decisionFB","","<div class='trialDiv'><img src='Fruit/lemon.png'><br><font class='baseline'><strong>Lucky Lemons</strong><p>Choose number of points to bet.</font><div class='respPicDiv'><img src='img/responseButtonOffersNo0L5.png' class='respPic'></div></div>","null","4","Lucky Lemons","Fruit/lemon.png","Lost","0.8,0.2","13","0.8","60","10","",""
"html-keyboard-response","39","120659","0.0-11.0-3.9","610189e61b2d3520eea21de6","bdp_rwlrn","Mon Mar 13 2023 14:28:02 GMT-0400 (Eastern Daylight Time)","401780","Untrustworthy,Trustworthy","","null","","","","feedback","","<div class='respPicDiv'><img src='img/responseButtonOffersNo0_wht.png' class='respPic'></div><div class='trialDiv'><img src='Fruit/lemon.png'><br><font class='baseline'><strong>Lucky Lemons</strong><p><strong><font class='negOutcome'>You LOST</font><p>You bet: 5</strong></font> &nbsp; &nbsp; &nbsp; &nbsp; &nbsp; &nbsp;<font class='negOutcome'>You receive: <strong>0</strong></font></div>","null","4","Lucky Lemons","Fruit/lemon.png","Lost","0.8,0.2","13","0.8","60","10","",""
"html-keyboard-response","40","121425","0.0-11.0-1.10","610189e61b2d3520eea21de6","bdp_rwlrn","Mon Mar 13 2023 14:28:02 GMT-0400 (Eastern Daylight Time)","401780","Untrustworthy,Trustworthy","","765","","","","decision","","<div class='trialDiv'><img src='Fruit/papayas.png'><br><font class='baseline'><strong>Papaya Payday</strong><p>Choose number of points to bet.</font><div class='respPicDiv'><img src='img/responseButtonOffersNo0L.png' class='respPic'></div></div>","5","4","Papaya Payday","Fruit/papayas.png","Lost","0.2,0.65","11","0.2","65","11","",""
"html-keyboard-response","41","121678","0.0-11.0-2.10","610189e61b2d3520eea21de6","bdp_rwlrn","Mon Mar 13 2023 14:28:02 GMT-0400 (Eastern Daylight Time)","401780","Untrustworthy,Trustworthy","","null","","","","decisionFB","","<div class='trialDiv'><img src='Fruit/papayas.png'><br><font class='baseline'><strong>Papaya Payday</strong><p>Choose number of points to bet.</font><div class='respPicDiv'><img src='img/responseButtonOffersNo0L5.png' class='respPic'></div></div>","null","4","Papaya Payday","Fruit/papayas.png","Lost","0.2,0.65","11","0.2","60","11","",""
"html-keyboard-response","42","122681","0.0-11.0-3.10","610189e61b2d3520eea21de6","bdp_rwlrn","Mon Mar 13 2023 14:28:02 GMT-0400 (Eastern Daylight Time)","401780","Untrustworthy,Trustworthy","","null","","","","feedback","","<div class='respPicDiv'><img src='img/responseButtonOffersNo0_wht.png' class='respPic'></div><div class='trialDiv'><img src='Fruit/papayas.png'><br><font class='baseline'><strong>Papaya Payday</strong><p><strong><font class='negOutcome'>You LOST</font><p>You bet: 5</strong></font> &nbsp; &nbsp; &nbsp; &nbsp; &nbsp; &nbsp;<font class='negOutcome'>You receive: <strong>0</strong></font></div>","null","4","Papaya Payday","Fruit/papayas.png","Lost","0.2,0.65","11","0.2","60","11","",""
"html-keyboard-response","43","123209","0.0-11.0-1.11","610189e61b2d3520eea21de6","bdp_rwlrn","Mon Mar 13 2023 14:28:02 GMT-0400 (Eastern Daylight Time)","401780","Untrustworthy,Trustworthy","","526","","","","decision","","<div class='trialDiv'><img src='Fruit/melon.png'><br><font class='baseline'><strong>Melon Millions</strong><p>Choose number of points to bet.</font><div class='respPicDiv'><img src='img/responseButtonOffersNo0L.png' class='respPic'></div></div>","5","4","Melon Millions","Fruit/melon.png","Won","0.65,0.2","9","0.65","65","12","",""
"html-keyboard-response","44","123462","0.0-11.0-2.11","610189e61b2d3520eea21de6","bdp_rwlrn","Mon Mar 13 2023 14:28:02 GMT-0400 (Eastern Daylight Time)","401780","Untrustworthy,Trustworthy","","null","","","","decisionFB","","<div class='trialDiv'><img src='Fruit/melon.png'><br><font class='baseline'><strong>Melon Millions</strong><p>Choose number of points to bet.</font><div class='respPicDiv'><img src='img/responseButtonOffersNo0L5.png' class='respPic'></div></div>","null","4","Melon Millions","Fruit/melon.png","Won","0.65,0.2","9","0.65","60","12","",""
"html-keyboard-response","45","124465","0.0-11.0-3.11","610189e61b2d3520eea21de6","bdp_rwlrn","Mon Mar 13 2023 14:28:02 GMT-0400 (Eastern Daylight Time)","401780","Untrustworthy,Trustworthy","","null","","","","feedback","","<div class='respPicDiv'><img src='img/responseButtonOffersNo0_wht.png' class='respPic'></div><div class='trialDiv'><img src='Fruit/melon.png'><br><font class='baseline'><strong>Melon Millions</strong><p><strong><font class='posOutcome'>You WON</font><p>You bet: 5</strong></font> &nbsp; &nbsp; &nbsp; &nbsp; &nbsp; &nbsp;<font class='posOutcome'>you receive: <strong>10</strong></font></div>","null","4","Melon Millions","Fruit/melon.png","Won","0.65,0.2","9","0.65","70","12","",""
"html-keyboard-response","46","125915","0.0-11.0-1.12","610189e61b2d3520eea21de6","bdp_rwlrn","Mon Mar 13 2023 14:28:02 GMT-0400 (Eastern Daylight Time)","401780","Untrustworthy,Trustworthy","","1449","","","","decision","","<div class='trialDiv'><img src='Fruit/lemon.png'><br><font class='baseline'><strong>Lucky Lemons</strong><p>Choose number of points to bet.</font><div class='respPicDiv'><img src='img/responseButtonOffersNo0L.png' class='respPic'></div></div>","5","5","Lucky Lemons","Fruit/lemon.png","Won","0.8,0.2","13","0.8","75","13","",""
"html-keyboard-response","47","126169","0.0-11.0-2.12","610189e61b2d3520eea21de6","bdp_rwlrn","Mon Mar 13 2023 14:28:02 GMT-0400 (Eastern Daylight Time)","401780","Untrustworthy,Trustworthy","","null","","","","decisionFB","","<div class='trialDiv'><img src='Fruit/lemon.png'><br><font class='baseline'><strong>Lucky Lemons</strong><p>Choose number of points to bet.</font><div class='respPicDiv'><img src='img/responseButtonOffersNo0L5.png' class='respPic'></div></div>","null","5","Lucky Lemons","Fruit/lemon.png","Won","0.8,0.2","13","0.8","70","13","",""
"html-keyboard-response","48","127171","0.0-11.0-3.12","610189e61b2d3520eea21de6","bdp_rwlrn","Mon Mar 13 2023 14:28:02 GMT-0400 (Eastern Daylight Time)","401780","Untrustworthy,Trustworthy","","null","","","","feedback","","<div class='respPicDiv'><img src='img/responseButtonOffersNo0_wht.png' class='respPic'></div><div class='trialDiv'><img src='Fruit/lemon.png'><br><font class='baseline'><strong>Lucky Lemons</strong><p><strong><font class='posOutcome'>You WON</font><p>You bet: 5</strong></font> &nbsp; &nbsp; &nbsp; &nbsp; &nbsp; &nbsp;<font class='posOutcome'>you receive: <strong>10</strong></font></div>","null","5","Lucky Lemons","Fruit/lemon.png","Won","0.8,0.2","13","0.8","80","13","",""
"html-keyboard-response","49","127871","0.0-11.0-1.13","610189e61b2d3520eea21de6","bdp_rwlrn","Mon Mar 13 2023 14:28:02 GMT-0400 (Eastern Daylight Time)","401780","Untrustworthy,Trustworthy","","698","","","","decision","","<div class='trialDiv'><img src='Fruit/papayas.png'><br><font class='baseline'><strong>Papaya Payday</strong><p>Choose number of points to bet.</font><div class='respPicDiv'><img src='img/responseButtonOffersNo0L.png' class='respPic'></div></div>","5","5","Papaya Payday","Fruit/papayas.png","Lost","0.2,0.65","11","0.2","85","14","",""
"html-keyboard-response","50","128122","0.0-11.0-2.13","610189e61b2d3520eea21de6","bdp_rwlrn","Mon Mar 13 2023 14:28:02 GMT-0400 (Eastern Daylight Time)","401780","Untrustworthy,Trustworthy","","null","","","","decisionFB","","<div class='trialDiv'><img src='Fruit/papayas.png'><br><font class='baseline'><strong>Papaya Payday</strong><p>Choose number of points to bet.</font><div class='respPicDiv'><img src='img/responseButtonOffersNo0L5.png' class='respPic'></div></div>","null","5","Papaya Payday","Fruit/papayas.png","Lost","0.2,0.65","11","0.2","80","14","",""
"html-keyboard-response","51","129124","0.0-11.0-3.13","610189e61b2d3520eea21de6","bdp_rwlrn","Mon Mar 13 2023 14:28:02 GMT-0400 (Eastern Daylight Time)","401780","Untrustworthy,Trustworthy","","null","","","","feedback","","<div class='respPicDiv'><img src='img/responseButtonOffersNo0_wht.png' class='respPic'></div><div class='trialDiv'><img src='Fruit/papayas.png'><br><font class='baseline'><strong>Papaya Payday</strong><p><strong><font class='negOutcome'>You LOST</font><p>You bet: 5</strong></font> &nbsp; &nbsp; &nbsp; &nbsp; &nbsp; &nbsp;<font class='negOutcome'>You receive: <strong>0</strong></font></div>","null","5","Papaya Payday","Fruit/papayas.png","Lost","0.2,0.65","11","0.2","80","14","",""
"html-keyboard-response","52","129673","0.0-11.0-1.14","610189e61b2d3520eea21de6","bdp_rwlrn","Mon Mar 13 2023 14:28:02 GMT-0400 (Eastern Daylight Time)","401780","Untrustworthy,Trustworthy","","547","","","","decision","","<div class='trialDiv'><img src='Fruit/melon.png'><br><font class='baseline'><strong>Melon Millions</strong><p>Choose number of points to bet.</font><div class='respPicDiv'><img src='img/responseButtonOffersNo0L.png' class='respPic'></div></div>","5","5","Melon Millions","Fruit/melon.png","Won","0.65,0.2","9","0.65","85","15","",""
"html-keyboard-response","53","129925","0.0-11.0-2.14","610189e61b2d3520eea21de6","bdp_rwlrn","Mon Mar 13 2023 14:28:02 GMT-0400 (Eastern Daylight Time)","401780","Untrustworthy,Trustworthy","","null","","","","decisionFB","","<div class='trialDiv'><img src='Fruit/melon.png'><br><font class='baseline'><strong>Melon Millions</strong><p>Choose number of points to bet.</font><div class='respPicDiv'><img src='img/responseButtonOffersNo0L5.png' class='respPic'></div></div>","null","5","Melon Millions","Fruit/melon.png","Won","0.65,0.2","9","0.65","80","15","",""
"html-keyboard-response","54","130928","0.0-11.0-3.14","610189e61b2d3520eea21de6","bdp_rwlrn","Mon Mar 13 2023 14:28:02 GMT-0400 (Eastern Daylight Time)","401780","Untrustworthy,Trustworthy","","null","","","","feedback","","<div class='respPicDiv'><img src='img/responseButtonOffersNo0_wht.png' class='respPic'></div><div class='trialDiv'><img src='Fruit/melon.png'><br><font class='baseline'><strong>Melon Millions</strong><p><strong><font class='posOutcome'>You WON</font><p>You bet: 5</strong></font> &nbsp; &nbsp; &nbsp; &nbsp; &nbsp; &nbsp;<font class='posOutcome'>you receive: <strong>10</strong></font></div>","null","5","Melon Millions","Fruit/melon.png","Won","0.65,0.2","9","0.65","90","15","",""
"html-keyboard-response","55","132106","0.0-11.0-1.15","610189e61b2d3520eea21de6","bdp_rwlrn","Mon Mar 13 2023 14:28:02 GMT-0400 (Eastern Daylight Time)","401780","Untrustworthy,Trustworthy","","1176","","","","decision","","<div class='trialDiv'><img src='Fruit/papayas.png'><br><font class='baseline'><strong>Papaya Payday</strong><p>Choose number of points to bet.</font><div class='respPicDiv'><img src='img/responseButtonOffersNo0L.png' class='respPic'></div></div>","5","6","Papaya Payday","Fruit/papayas.png","Lost","0.2,0.65","11","0.2","95","16","",""
"html-keyboard-response","56","132359","0.0-11.0-2.15","610189e61b2d3520eea21de6","bdp_rwlrn","Mon Mar 13 2023 14:28:02 GMT-0400 (Eastern Daylight Time)","401780","Untrustworthy,Trustworthy","","null","","","","decisionFB","","<div class='trialDiv'><img src='Fruit/papayas.png'><br><font class='baseline'><strong>Papaya Payday</strong><p>Choose number of points to bet.</font><div class='respPicDiv'><img src='img/responseButtonOffersNo0L5.png' class='respPic'></div></div>","null","6","Papaya Payday","Fruit/papayas.png","Lost","0.2,0.65","11","0.2","90","16","",""
"html-keyboard-response","57","133361","0.0-11.0-3.15","610189e61b2d3520eea21de6","bdp_rwlrn","Mon Mar 13 2023 14:28:02 GMT-0400 (Eastern Daylight Time)","401780","Untrustworthy,Trustworthy","","null","","","","feedback","","<div class='respPicDiv'><img src='img/responseButtonOffersNo0_wht.png' class='respPic'></div><div class='trialDiv'><img src='Fruit/papayas.png'><br><font class='baseline'><strong>Papaya Payday</strong><p><strong><font class='negOutcome'>You LOST</font><p>You bet: 5</strong></font> &nbsp; &nbsp; &nbsp; &nbsp; &nbsp; &nbsp;<font class='negOutcome'>You receive: <strong>0</strong></font></div>","null","6","Papaya Payday","Fruit/papayas.png","Lost","0.2,0.65","11","0.2","90","16","",""
"html-keyboard-response","58","133745","0.0-11.0-1.16","610189e61b2d3520eea21de6","bdp_rwlrn","Mon Mar 13 2023 14:28:02 GMT-0400 (Eastern Daylight Time)","401780","Untrustworthy,Trustworthy","","383","","","","decision","","<div class='trialDiv'><img src='Fruit/melon.png'><br><font class='baseline'><strong>Melon Millions</strong><p>Choose number of points to bet.</font><div class='respPicDiv'><img src='img/responseButtonOffersNo0L.png' class='respPic'></div></div>","5","6","Melon Millions","Fruit/melon.png","Won","0.65,0.2","9","0.65","95","17","",""
"html-keyboard-response","59","133997","0.0-11.0-2.16","610189e61b2d3520eea21de6","bdp_rwlrn","Mon Mar 13 2023 14:28:02 GMT-0400 (Eastern Daylight Time)","401780","Untrustworthy,Trustworthy","","null","","","","decisionFB","","<div class='trialDiv'><img src='Fruit/melon.png'><br><font class='baseline'><strong>Melon Millions</strong><p>Choose number of points to bet.</font><div class='respPicDiv'><img src='img/responseButtonOffersNo0L5.png' class='respPic'></div></div>","null","6","Melon Millions","Fruit/melon.png","Won","0.65,0.2","9","0.65","90","17","",""
"html-keyboard-response","60","135013","0.0-11.0-3.16","610189e61b2d3520eea21de6","bdp_rwlrn","Mon Mar 13 2023 14:28:02 GMT-0400 (Eastern Daylight Time)","401780","Untrustworthy,Trustworthy","","null","","","","feedback","","<div class='respPicDiv'><img src='img/responseButtonOffersNo0_wht.png' class='respPic'></div><div class='trialDiv'><img src='Fruit/melon.png'><br><font class='baseline'><strong>Melon Millions</strong><p><strong><font class='posOutcome'>You WON</font><p>You bet: 5</strong></font> &nbsp; &nbsp; &nbsp; &nbsp; &nbsp; &nbsp;<font class='posOutcome'>you receive: <strong>10</strong></font></div>","null","6","Melon Millions","Fruit/melon.png","Won","0.65,0.2","9","0.65","100","17","",""
"html-keyboard-response","61","135744","0.0-11.0-1.17","610189e61b2d3520eea21de6","bdp_rwlrn","Mon Mar 13 2023 14:28:02 GMT-0400 (Eastern Daylight Time)","401780","Untrustworthy,Trustworthy","","729","","","","decision","","<div class='trialDiv'><img src='Fruit/lemon.png'><br><font class='baseline'><strong>Lucky Lemons</strong><p>Choose number of points to bet.</font><div class='respPicDiv'><img src='img/responseButtonOffersNo0L.png' class='respPic'></div></div>","5","6","Lucky Lemons","Fruit/lemon.png","Won","0.8,0.2","13","0.8","105","18","",""
"html-keyboard-response","62","135998","0.0-11.0-2.17","610189e61b2d3520eea21de6","bdp_rwlrn","Mon Mar 13 2023 14:28:02 GMT-0400 (Eastern Daylight Time)","401780","Untrustworthy,Trustworthy","","null","","","","decisionFB","","<div class='trialDiv'><img src='Fruit/lemon.png'><br><font class='baseline'><strong>Lucky Lemons</strong><p>Choose number of points to bet.</font><div class='respPicDiv'><img src='img/responseButtonOffersNo0L5.png' class='respPic'></div></div>","null","6","Lucky Lemons","Fruit/lemon.png","Won","0.8,0.2","13","0.8","100","18","",""
"html-keyboard-response","63","137001","0.0-11.0-3.17","610189e61b2d3520eea21de6","bdp_rwlrn","Mon Mar 13 2023 14:28:02 GMT-0400 (Eastern Daylight Time)","401780","Untrustworthy,Trustworthy","","null","","","","feedback","","<div class='respPicDiv'><img src='img/responseButtonOffersNo0_wht.png' class='respPic'></div><div class='trialDiv'><img src='Fruit/lemon.png'><br><font class='baseline'><strong>Lucky Lemons</strong><p><strong><font class='posOutcome'>You WON</font><p>You bet: 5</strong></font> &nbsp; &nbsp; &nbsp; &nbsp; &nbsp; &nbsp;<font class='posOutcome'>you receive: <strong>10</strong></font></div>","null","6","Lucky Lemons","Fruit/lemon.png","Won","0.8,0.2","13","0.8","110","18","",""
"html-keyboard-response","64","137916","0.0-11.0-1.18","610189e61b2d3520eea21de6","bdp_rwlrn","Mon Mar 13 2023 14:28:02 GMT-0400 (Eastern Daylight Time)","401780","Untrustworthy,Trustworthy","","915","","","","decision","","<div class='trialDiv'><img src='Fruit/melon.png'><br><font class='baseline'><strong>Melon Millions</strong><p>Choose number of points to bet.</font><div class='respPicDiv'><img src='img/responseButtonOffersNo0L.png' class='respPic'></div></div>","5","7","Melon Millions","Fruit/melon.png","Won","0.65,0.2","9","0.65","115","19","",""
"html-keyboard-response","65","138173","0.0-11.0-2.18","610189e61b2d3520eea21de6","bdp_rwlrn","Mon Mar 13 2023 14:28:02 GMT-0400 (Eastern Daylight Time)","401780","Untrustworthy,Trustworthy","","null","","","","decisionFB","","<div class='trialDiv'><img src='Fruit/melon.png'><br><font class='baseline'><strong>Melon Millions</strong><p>Choose number of points to bet.</font><div class='respPicDiv'><img src='img/responseButtonOffersNo0L5.png' class='respPic'></div></div>","null","7","Melon Millions","Fruit/melon.png","Won","0.65,0.2","9","0.65","110","19","",""
"html-keyboard-response","66","139176","0.0-11.0-3.18","610189e61b2d3520eea21de6","bdp_rwlrn","Mon Mar 13 2023 14:28:02 GMT-0400 (Eastern Daylight Time)","401780","Untrustworthy,Trustworthy","","null","","","","feedback","","<div class='respPicDiv'><img src='img/responseButtonOffersNo0_wht.png' class='respPic'></div><div class='trialDiv'><img src='Fruit/melon.png'><br><font class='baseline'><strong>Melon Millions</strong><p><strong><font class='posOutcome'>You WON</font><p>You bet: 5</strong></font> &nbsp; &nbsp; &nbsp; &nbsp; &nbsp; &nbsp;<font class='posOutcome'>you receive: <strong>10</strong></font></div>","null","7","Melon Millions","Fruit/melon.png","Won","0.65,0.2","9","0.65","120","19","",""
"html-keyboard-response","67","140009","0.0-11.0-1.19","610189e61b2d3520eea21de6","bdp_rwlrn","Mon Mar 13 2023 14:28:02 GMT-0400 (Eastern Daylight Time)","401780","Untrustworthy,Trustworthy","","832","","","","decision","","<div class='trialDiv'><img src='Fruit/lemon.png'><br><font class='baseline'><strong>Lucky Lemons</strong><p>Choose number of points to bet.</font><div class='respPicDiv'><img src='img/responseButtonOffersNo0L.png' class='respPic'></div></div>","5","7","Lucky Lemons","Fruit/lemon.png","Won","0.8,0.2","13","0.8","125","20","",""
"html-keyboard-response","68","140265","0.0-11.0-2.19","610189e61b2d3520eea21de6","bdp_rwlrn","Mon Mar 13 2023 14:28:02 GMT-0400 (Eastern Daylight Time)","401780","Untrustworthy,Trustworthy","","null","","","","decisionFB","","<div class='trialDiv'><img src='Fruit/lemon.png'><br><font class='baseline'><strong>Lucky Lemons</strong><p>Choose number of points to bet.</font><div class='respPicDiv'><img src='img/responseButtonOffersNo0L5.png' class='respPic'></div></div>","null","7","Lucky Lemons","Fruit/lemon.png","Won","0.8,0.2","13","0.8","120","20","",""
"html-keyboard-response","69","141268","0.0-11.0-3.19","610189e61b2d3520eea21de6","bdp_rwlrn","Mon Mar 13 2023 14:28:02 GMT-0400 (Eastern Daylight Time)","401780","Untrustworthy,Trustworthy","","null","","","","feedback","","<div class='respPicDiv'><img src='img/responseButtonOffersNo0_wht.png' class='respPic'></div><div class='trialDiv'><img src='Fruit/lemon.png'><br><font class='baseline'><strong>Lucky Lemons</strong><p><strong><font class='posOutcome'>You WON</font><p>You bet: 5</strong></font> &nbsp; &nbsp; &nbsp; &nbsp; &nbsp; &nbsp;<font class='posOutcome'>you receive: <strong>10</strong></font></div>","null","7","Lucky Lemons","Fruit/lemon.png","Won","0.8,0.2","13","0.8","130","20","",""
"html-keyboard-response","70","142137","0.0-11.0-1.20","610189e61b2d3520eea21de6","bdp_rwlrn","Mon Mar 13 2023 14:28:02 GMT-0400 (Eastern Daylight Time)","401780","Untrustworthy,Trustworthy","","868","","","","decision","","<div class='trialDiv'><img src='Fruit/papayas.png'><br><font class='baseline'><strong>Papaya Payday</strong><p>Choose number of points to bet.</font><div class='respPicDiv'><img src='img/responseButtonOffersNo0L.png' class='respPic'></div></div>","1","7","Papaya Payday","Fruit/papayas.png","Lost","0.2,0.65","11","0.2","135","21","",""
"html-keyboard-response","71","142389","0.0-11.0-2.20","610189e61b2d3520eea21de6","bdp_rwlrn","Mon Mar 13 2023 14:28:02 GMT-0400 (Eastern Daylight Time)","401780","Untrustworthy,Trustworthy","","null","","","","decisionFB","","<div class='trialDiv'><img src='Fruit/papayas.png'><br><font class='baseline'><strong>Papaya Payday</strong><p>Choose number of points to bet.</font><div class='respPicDiv'><img src='img/responseButtonOffersNo0L1.png' class='respPic'></div></div>","null","7","Papaya Payday","Fruit/papayas.png","Lost","0.2,0.65","11","0.2","134","21","",""
"html-keyboard-response","72","143392","0.0-11.0-3.20","610189e61b2d3520eea21de6","bdp_rwlrn","Mon Mar 13 2023 14:28:02 GMT-0400 (Eastern Daylight Time)","401780","Untrustworthy,Trustworthy","","null","","","","feedback","","<div class='respPicDiv'><img src='img/responseButtonOffersNo0_wht.png' class='respPic'></div><div class='trialDiv'><img src='Fruit/papayas.png'><br><font class='baseline'><strong>Papaya Payday</strong><p><strong><font class='negOutcome'>You LOST</font><p>You bet: 1</strong></font> &nbsp; &nbsp; &nbsp; &nbsp; &nbsp; &nbsp;<font class='negOutcome'>You receive: <strong>0</strong></font></div>","null","7","Papaya Payday","Fruit/papayas.png","Lost","0.2,0.65","11","0.2","134","21","",""
"html-keyboard-response","73","144529","0.0-11.0-1.21","610189e61b2d3520eea21de6","bdp_rwlrn","Mon Mar 13 2023 14:28:02 GMT-0400 (Eastern Daylight Time)","401780","Untrustworthy,Trustworthy","","1135","","","","decision","","<div class='trialDiv'><img src='Fruit/lemon.png'><br><font class='baseline'><strong>Lucky Lemons</strong><p>Choose number of points to bet.</font><div class='respPicDiv'><img src='img/responseButtonOffersNo0L.png' class='respPic'></div></div>","5","8","Lucky Lemons","Fruit/lemon.png","Won","0.8,0.2","13","0.8","139","22","",""
"html-keyboard-response","74","144781","0.0-11.0-2.21","610189e61b2d3520eea21de6","bdp_rwlrn","Mon Mar 13 2023 14:28:02 GMT-0400 (Eastern Daylight Time)","401780","Untrustworthy,Trustworthy","","null","","","","decisionFB","","<div class='trialDiv'><img src='Fruit/lemon.png'><br><font class='baseline'><strong>Lucky Lemons</strong><p>Choose number of points to bet.</font><div class='respPicDiv'><img src='img/responseButtonOffersNo0L5.png' class='respPic'></div></div>","null","8","Lucky Lemons","Fruit/lemon.png","Won","0.8,0.2","13","0.8","134","22","",""
"html-keyboard-response","75","145782","0.0-11.0-3.21","610189e61b2d3520eea21de6","bdp_rwlrn","Mon Mar 13 2023 14:28:02 GMT-0400 (Eastern Daylight Time)","401780","Untrustworthy,Trustworthy","","null","","","","feedback","","<div class='respPicDiv'><img src='img/responseButtonOffersNo0_wht.png' class='respPic'></div><div class='trialDiv'><img src='Fruit/lemon.png'><br><font class='baseline'><strong>Lucky Lemons</strong><p><strong><font class='posOutcome'>You WON</font><p>You bet: 5</strong></font> &nbsp; &nbsp; &nbsp; &nbsp; &nbsp; &nbsp;<font class='posOutcome'>you receive: <strong>10</strong></font></div>","null","8","Lucky Lemons","Fruit/lemon.png","Won","0.8,0.2","13","0.8","144","22","",""
"html-keyboard-response","76","146577","0.0-11.0-1.22","610189e61b2d3520eea21de6","bdp_rwlrn","Mon Mar 13 2023 14:28:02 GMT-0400 (Eastern Daylight Time)","401780","Untrustworthy,Trustworthy","","793","","","","decision","","<div class='trialDiv'><img src='Fruit/papayas.png'><br><font class='baseline'><strong>Papaya Payday</strong><p>Choose number of points to bet.</font><div class='respPicDiv'><img src='img/responseButtonOffersNo0L.png' class='respPic'></div></div>","2","8","Papaya Payday","Fruit/papayas.png","Won","0.2,0.65","11","0.2","149","23","",""
"html-keyboard-response","77","146828","0.0-11.0-2.22","610189e61b2d3520eea21de6","bdp_rwlrn","Mon Mar 13 2023 14:28:02 GMT-0400 (Eastern Daylight Time)","401780","Untrustworthy,Trustworthy","","null","","","","decisionFB","","<div class='trialDiv'><img src='Fruit/papayas.png'><br><font class='baseline'><strong>Papaya Payday</strong><p>Choose number of points to bet.</font><div class='respPicDiv'><img src='img/responseButtonOffersNo0L2.png' class='respPic'></div></div>","null","8","Papaya Payday","Fruit/papayas.png","Won","0.2,0.65","11","0.2","147","23","",""
"html-keyboard-response","78","147831","0.0-11.0-3.22","610189e61b2d3520eea21de6","bdp_rwlrn","Mon Mar 13 2023 14:28:02 GMT-0400 (Eastern Daylight Time)","401780","Untrustworthy,Trustworthy","","null","","","","feedback","","<div class='respPicDiv'><img src='img/responseButtonOffersNo0_wht.png' class='respPic'></div><div class='trialDiv'><img src='Fruit/papayas.png'><br><font class='baseline'><strong>Papaya Payday</strong><p><strong><font class='posOutcome'>You WON</font><p>You bet: 2</strong></font> &nbsp; &nbsp; &nbsp; &nbsp; &nbsp; &nbsp;<font class='posOutcome'>you receive: <strong>4</strong></font></div>","null","8","Papaya Payday","Fruit/papayas.png","Won","0.2,0.65","11","0.2","151","23","",""
"html-keyboard-response","79","148578","0.0-11.0-1.23","610189e61b2d3520eea21de6","bdp_rwlrn","Mon Mar 13 2023 14:28:02 GMT-0400 (Eastern Daylight Time)","401780","Untrustworthy,Trustworthy","","744","","","","decision","","<div class='trialDiv'><img src='Fruit/melon.png'><br><font class='baseline'><strong>Melon Millions</strong><p>Choose number of points to bet.</font><div class='respPicDiv'><img src='img/responseButtonOffersNo0L.png' class='respPic'></div></div>","5","8","Melon Millions","Fruit/melon.png","Won","0.65,0.2","9","0.65","156","24","",""
"html-keyboard-response","80","148830","0.0-11.0-2.23","610189e61b2d3520eea21de6","bdp_rwlrn","Mon Mar 13 2023 14:28:02 GMT-0400 (Eastern Daylight Time)","401780","Untrustworthy,Trustworthy","","null","","","","decisionFB","","<div class='trialDiv'><img src='Fruit/melon.png'><br><font class='baseline'><strong>Melon Millions</strong><p>Choose number of points to bet.</font><div class='respPicDiv'><img src='img/responseButtonOffersNo0L5.png' class='respPic'></div></div>","null","8","Melon Millions","Fruit/melon.png","Won","0.65,0.2","9","0.65","151","24","",""
"html-keyboard-response","81","149833","0.0-11.0-3.23","610189e61b2d3520eea21de6","bdp_rwlrn","Mon Mar 13 2023 14:28:02 GMT-0400 (Eastern Daylight Time)","401780","Untrustworthy,Trustworthy","","null","","","","feedback","","<div class='respPicDiv'><img src='img/responseButtonOffersNo0_wht.png' class='respPic'></div><div class='trialDiv'><img src='Fruit/melon.png'><br><font class='baseline'><strong>Melon Millions</strong><p><strong><font class='posOutcome'>You WON</font><p>You bet: 5</strong></font> &nbsp; &nbsp; &nbsp; &nbsp; &nbsp; &nbsp;<font class='posOutcome'>you receive: <strong>10</strong></font></div>","null","8","Melon Millions","Fruit/melon.png","Won","0.65,0.2","9","0.65","161","24","",""
"html-keyboard-response","82","151001","0.0-11.0-1.24","610189e61b2d3520eea21de6","bdp_rwlrn","Mon Mar 13 2023 14:28:02 GMT-0400 (Eastern Daylight Time)","401780","Untrustworthy,Trustworthy","","1167","","","","decision","","<div class='trialDiv'><img src='Fruit/lemon.png'><br><font class='baseline'><strong>Lucky Lemons</strong><p>Choose number of points to bet.</font><div class='respPicDiv'><img src='img/responseButtonOffersNo0L.png' class='respPic'></div></div>","5","9","Lucky Lemons","Fruit/lemon.png","Won","0.8,0.2","13","0.8","166","25","",""
"html-keyboard-response","83","151254","0.0-11.0-2.24","610189e61b2d3520eea21de6","bdp_rwlrn","Mon Mar 13 2023 14:28:02 GMT-0400 (Eastern Daylight Time)","401780","Untrustworthy,Trustworthy","","null","","","","decisionFB","","<div class='trialDiv'><img src='Fruit/lemon.png'><br><font class='baseline'><strong>Lucky Lemons</strong><p>Choose number of points to bet.</font><div class='respPicDiv'><img src='img/responseButtonOffersNo0L5.png' class='respPic'></div></div>","null","9","Lucky Lemons","Fruit/lemon.png","Won","0.8,0.2","13","0.8","161","25","",""
"html-keyboard-response","84","152258","0.0-11.0-3.24","610189e61b2d3520eea21de6","bdp_rwlrn","Mon Mar 13 2023 14:28:02 GMT-0400 (Eastern Daylight Time)","401780","Untrustworthy,Trustworthy","","null","","","","feedback","","<div class='respPicDiv'><img src='img/responseButtonOffersNo0_wht.png' class='respPic'></div><div class='trialDiv'><img src='Fruit/lemon.png'><br><font class='baseline'><strong>Lucky Lemons</strong><p><strong><font class='posOutcome'>You WON</font><p>You bet: 5</strong></font> &nbsp; &nbsp; &nbsp; &nbsp; &nbsp; &nbsp;<font class='posOutcome'>you receive: <strong>10</strong></font></div>","null","9","Lucky Lemons","Fruit/lemon.png","Won","0.8,0.2","13","0.8","171","25","",""
"html-keyboard-response","85","152977","0.0-11.0-1.25","610189e61b2d3520eea21de6","bdp_rwlrn","Mon Mar 13 2023 14:28:02 GMT-0400 (Eastern Daylight Time)","401780","Untrustworthy,Trustworthy","","717","","","","decision","","<div class='trialDiv'><img src='Fruit/melon.png'><br><font class='baseline'><strong>Melon Millions</strong><p>Choose number of points to bet.</font><div class='respPicDiv'><img src='img/responseButtonOffersNo0L.png' class='respPic'></div></div>","5","9","Melon Millions","Fruit/melon.png","Won","0.65,0.2","9","0.65","176","26","",""
"html-keyboard-response","86","153229","0.0-11.0-2.25","610189e61b2d3520eea21de6","bdp_rwlrn","Mon Mar 13 2023 14:28:02 GMT-0400 (Eastern Daylight Time)","401780","Untrustworthy,Trustworthy","","null","","","","decisionFB","","<div class='trialDiv'><img src='Fruit/melon.png'><br><font class='baseline'><strong>Melon Millions</strong><p>Choose number of points to bet.</font><div class='respPicDiv'><img src='img/responseButtonOffersNo0L5.png' class='respPic'></div></div>","null","9","Melon Millions","Fruit/melon.png","Won","0.65,0.2","9","0.65","171","26","",""
"html-keyboard-response","87","154237","0.0-11.0-3.25","610189e61b2d3520eea21de6","bdp_rwlrn","Mon Mar 13 2023 14:28:02 GMT-0400 (Eastern Daylight Time)","401780","Untrustworthy,Trustworthy","","null","","","","feedback","","<div class='respPicDiv'><img src='img/responseButtonOffersNo0_wht.png' class='respPic'></div><div class='trialDiv'><img src='Fruit/melon.png'><br><font class='baseline'><strong>Melon Millions</strong><p><strong><font class='posOutcome'>You WON</font><p>You bet: 5</strong></font> &nbsp; &nbsp; &nbsp; &nbsp; &nbsp; &nbsp;<font class='posOutcome'>you receive: <strong>10</strong></font></div>","null","9","Melon Millions","Fruit/melon.png","Won","0.65,0.2","9","0.65","181","26","",""
"html-keyboard-response","88","154960","0.0-11.0-1.26","610189e61b2d3520eea21de6","bdp_rwlrn","Mon Mar 13 2023 14:28:02 GMT-0400 (Eastern Daylight Time)","401780","Untrustworthy,Trustworthy","","721","","","","decision","","<div class='trialDiv'><img src='Fruit/papayas.png'><br><font class='baseline'><strong>Papaya Payday</strong><p>Choose number of points to bet.</font><div class='respPicDiv'><img src='img/responseButtonOffersNo0L.png' class='respPic'></div></div>","3","9","Papaya Payday","Fruit/papayas.png","Lost","0.2,0.65","11","0.2","186","27","",""
"html-keyboard-response","89","155212","0.0-11.0-2.26","610189e61b2d3520eea21de6","bdp_rwlrn","Mon Mar 13 2023 14:28:02 GMT-0400 (Eastern Daylight Time)","401780","Untrustworthy,Trustworthy","","null","","","","decisionFB","","<div class='trialDiv'><img src='Fruit/papayas.png'><br><font class='baseline'><strong>Papaya Payday</strong><p>Choose number of points to bet.</font><div class='respPicDiv'><img src='img/responseButtonOffersNo0L3.png' class='respPic'></div></div>","null","9","Papaya Payday","Fruit/papayas.png","Lost","0.2,0.65","11","0.2","183","27","",""
"html-keyboard-response","90","156216","0.0-11.0-3.26","610189e61b2d3520eea21de6","bdp_rwlrn","Mon Mar 13 2023 14:28:02 GMT-0400 (Eastern Daylight Time)","401780","Untrustworthy,Trustworthy","","null","","","","feedback","","<div class='respPicDiv'><img src='img/responseButtonOffersNo0_wht.png' class='respPic'></div><div class='trialDiv'><img src='Fruit/papayas.png'><br><font class='baseline'><strong>Papaya Payday</strong><p><strong><font class='negOutcome'>You LOST</font><p>You bet: 3</strong></font> &nbsp; &nbsp; &nbsp; &nbsp; &nbsp; &nbsp;<font class='negOutcome'>You receive: <strong>0</strong></font></div>","null","9","Papaya Payday","Fruit/papayas.png","Lost","0.2,0.65","11","0.2","183","27","",""
"html-keyboard-response","91","156721","0.0-11.0-1.27","610189e61b2d3520eea21de6","bdp_rwlrn","Mon Mar 13 2023 14:28:02 GMT-0400 (Eastern Daylight Time)","401780","Untrustworthy,Trustworthy","","503","","","","decision","","<div class='trialDiv'><img src='Fruit/melon.png'><br><font class='baseline'><strong>Melon Millions</strong><p>Choose number of points to bet.</font><div class='respPicDiv'><img src='img/responseButtonOffersNo0L.png' class='respPic'></div></div>","5","10","Melon Millions","Fruit/melon.png","Lost","0.65,0.2","9","0.65","188","28","",""
"html-keyboard-response","92","156973","0.0-11.0-2.27","610189e61b2d3520eea21de6","bdp_rwlrn","Mon Mar 13 2023 14:28:02 GMT-0400 (Eastern Daylight Time)","401780","Untrustworthy,Trustworthy","","null","","","","decisionFB","","<div class='trialDiv'><img src='Fruit/melon.png'><br><font class='baseline'><strong>Melon Millions</strong><p>Choose number of points to bet.</font><div class='respPicDiv'><img src='img/responseButtonOffersNo0L5.png' class='respPic'></div></div>","null","10","Melon Millions","Fruit/melon.png","Lost","0.65,0.2","9","0.65","183","28","",""
"html-keyboard-response","93","157976","0.0-11.0-3.27","610189e61b2d3520eea21de6","bdp_rwlrn","Mon Mar 13 2023 14:28:02 GMT-0400 (Eastern Daylight Time)","401780","Untrustworthy,Trustworthy","","null","","","","feedback","","<div class='respPicDiv'><img src='img/responseButtonOffersNo0_wht.png' class='respPic'></div><div class='trialDiv'><img src='Fruit/melon.png'><br><font class='baseline'><strong>Melon Millions</strong><p><strong><font class='negOutcome'>You LOST</font><p>You bet: 5</strong></font> &nbsp; &nbsp; &nbsp; &nbsp; &nbsp; &nbsp;<font class='negOutcome'>You receive: <strong>0</strong></font></div>","null","10","Melon Millions","Fruit/melon.png","Lost","0.65,0.2","9","0.65","183","28","",""
"html-keyboard-response","94","158408","0.0-11.0-1.28","610189e61b2d3520eea21de6","bdp_rwlrn","Mon Mar 13 2023 14:28:02 GMT-0400 (Eastern Daylight Time)","401780","Untrustworthy,Trustworthy","","430","","","","decision","","<div class='trialDiv'><img src='Fruit/papayas.png'><br><font class='baseline'><strong>Papaya Payday</strong><p>Choose number of points to bet.</font><div class='respPicDiv'><img src='img/responseButtonOffersNo0L.png' class='respPic'></div></div>","5","10","Papaya Payday","Fruit/papayas.png","Lost","0.2,0.65","11","0.2","188","29","",""
"html-keyboard-response","95","158661","0.0-11.0-2.28","610189e61b2d3520eea21de6","bdp_rwlrn","Mon Mar 13 2023 14:28:02 GMT-0400 (Eastern Daylight Time)","401780","Untrustworthy,Trustworthy","","null","","","","decisionFB","","<div class='trialDiv'><img src='Fruit/papayas.png'><br><font class='baseline'><strong>Papaya Payday</strong><p>Choose number of points to bet.</font><div class='respPicDiv'><img src='img/responseButtonOffersNo0L5.png' class='respPic'></div></div>","null","10","Papaya Payday","Fruit/papayas.png","Lost","0.2,0.65","11","0.2","183","29","",""
"html-keyboard-response","96","159664","0.0-11.0-3.28","610189e61b2d3520eea21de6","bdp_rwlrn","Mon Mar 13 2023 14:28:02 GMT-0400 (Eastern Daylight Time)","401780","Untrustworthy,Trustworthy","","null","","","","feedback","","<div class='respPicDiv'><img src='img/responseButtonOffersNo0_wht.png' class='respPic'></div><div class='trialDiv'><img src='Fruit/papayas.png'><br><font class='baseline'><strong>Papaya Payday</strong><p><strong><font class='negOutcome'>You LOST</font><p>You bet: 5</strong></font> &nbsp; &nbsp; &nbsp; &nbsp; &nbsp; &nbsp;<font class='negOutcome'>You receive: <strong>0</strong></font></div>","null","10","Papaya Payday","Fruit/papayas.png","Lost","0.2,0.65","11","0.2","183","29","",""
"html-keyboard-response","97","160010","0.0-11.0-1.29","610189e61b2d3520eea21de6","bdp_rwlrn","Mon Mar 13 2023 14:28:02 GMT-0400 (Eastern Daylight Time)","401780","Untrustworthy,Trustworthy","","344","","","","decision","","<div class='trialDiv'><img src='Fruit/lemon.png'><br><font class='baseline'><strong>Lucky Lemons</strong><p>Choose number of points to bet.</font><div class='respPicDiv'><img src='img/responseButtonOffersNo0L.png' class='respPic'></div></div>","5","10","Lucky Lemons","Fruit/lemon.png","Lost","0.8,0.2","13","0.8","188","30","",""
"html-keyboard-response","98","160263","0.0-11.0-2.29","610189e61b2d3520eea21de6","bdp_rwlrn","Mon Mar 13 2023 14:28:02 GMT-0400 (Eastern Daylight Time)","401780","Untrustworthy,Trustworthy","","null","","","","decisionFB","","<div class='trialDiv'><img src='Fruit/lemon.png'><br><font class='baseline'><strong>Lucky Lemons</strong><p>Choose number of points to bet.</font><div class='respPicDiv'><img src='img/responseButtonOffersNo0L5.png' class='respPic'></div></div>","null","10","Lucky Lemons","Fruit/lemon.png","Lost","0.8,0.2","13","0.8","183","30","",""
"html-keyboard-response","99","161265","0.0-11.0-3.29","610189e61b2d3520eea21de6","bdp_rwlrn","Mon Mar 13 2023 14:28:02 GMT-0400 (Eastern Daylight Time)","401780","Untrustworthy,Trustworthy","","null","","","","feedback","","<div class='respPicDiv'><img src='img/responseButtonOffersNo0_wht.png' class='respPic'></div><div class='trialDiv'><img src='Fruit/lemon.png'><br><font class='baseline'><strong>Lucky Lemons</strong><p><strong><font class='negOutcome'>You LOST</font><p>You bet: 5</strong></font> &nbsp; &nbsp; &nbsp; &nbsp; &nbsp; &nbsp;<font class='negOutcome'>You receive: <strong>0</strong></font></div>","null","10","Lucky Lemons","Fruit/lemon.png","Lost","0.8,0.2","13","0.8","183","30","",""
"html-keyboard-response","100","162739","0.0-11.0-1.30","610189e61b2d3520eea21de6","bdp_rwlrn","Mon Mar 13 2023 14:28:02 GMT-0400 (Eastern Daylight Time)","401780","Untrustworthy,Trustworthy","","1472","","","","decision","","<div class='trialDiv'><img src='Fruit/papayas.png'><br><font class='baseline'><strong>Papaya Payday</strong><p>Choose number of points to bet.</font><div class='respPicDiv'><img src='img/responseButtonOffersNo0L.png' class='respPic'></div></div>","5","11","Papaya Payday","Fruit/papayas.png","Won","0.2,0.65","11","0.2","188","31","",""
"html-keyboard-response","101","162992","0.0-11.0-2.30","610189e61b2d3520eea21de6","bdp_rwlrn","Mon Mar 13 2023 14:28:02 GMT-0400 (Eastern Daylight Time)","401780","Untrustworthy,Trustworthy","","null","","","","decisionFB","","<div class='trialDiv'><img src='Fruit/papayas.png'><br><font class='baseline'><strong>Papaya Payday</strong><p>Choose number of points to bet.</font><div class='respPicDiv'><img src='img/responseButtonOffersNo0L5.png' class='respPic'></div></div>","null","11","Papaya Payday","Fruit/papayas.png","Won","0.2,0.65","11","0.2","183","31","",""
"html-keyboard-response","102","163995","0.0-11.0-3.30","610189e61b2d3520eea21de6","bdp_rwlrn","Mon Mar 13 2023 14:28:02 GMT-0400 (Eastern Daylight Time)","401780","Untrustworthy,Trustworthy","","null","","","","feedback","","<div class='respPicDiv'><img src='img/responseButtonOffersNo0_wht.png' class='respPic'></div><div class='trialDiv'><img src='Fruit/papayas.png'><br><font class='baseline'><strong>Papaya Payday</strong><p><strong><font class='posOutcome'>You WON</font><p>You bet: 5</strong></font> &nbsp; &nbsp; &nbsp; &nbsp; &nbsp; &nbsp;<font class='posOutcome'>you receive: <strong>10</strong></font></div>","null","11","Papaya Payday","Fruit/papayas.png","Won","0.2,0.65","11","0.2","193","31","",""
"html-keyboard-response","103","165377","0.0-11.0-1.31","610189e61b2d3520eea21de6","bdp_rwlrn","Mon Mar 13 2023 14:28:02 GMT-0400 (Eastern Daylight Time)","401780","Untrustworthy,Trustworthy","","1380","","","","decision","","<div class='trialDiv'><img src='Fruit/lemon.png'><br><font class='baseline'><strong>Lucky Lemons</strong><p>Choose number of points to bet.</font><div class='respPicDiv'><img src='img/responseButtonOffersNo0L.png' class='respPic'></div></div>","5","11","Lucky Lemons","Fruit/lemon.png","Lost","0.8,0.2","13","0.8","198","32","",""
"html-keyboard-response","104","165630","0.0-11.0-2.31","610189e61b2d3520eea21de6","bdp_rwlrn","Mon Mar 13 2023 14:28:02 GMT-0400 (Eastern Daylight Time)","401780","Untrustworthy,Trustworthy","","null","","","","decisionFB","","<div class='trialDiv'><img src='Fruit/lemon.png'><br><font class='baseline'><strong>Lucky Lemons</strong><p>Choose number of points to bet.</font><div class='respPicDiv'><img src='img/responseButtonOffersNo0L5.png' class='respPic'></div></div>","null","11","Lucky Lemons","Fruit/lemon.png","Lost","0.8,0.2","13","0.8","193","32","",""
"html-keyboard-response","105","166634","0.0-11.0-3.31","610189e61b2d3520eea21de6","bdp_rwlrn","Mon Mar 13 2023 14:28:02 GMT-0400 (Eastern Daylight Time)","401780","Untrustworthy,Trustworthy","","null","","","","feedback","","<div class='respPicDiv'><img src='img/responseButtonOffersNo0_wht.png' class='respPic'></div><div class='trialDiv'><img src='Fruit/lemon.png'><br><font class='baseline'><strong>Lucky Lemons</strong><p><strong><font class='negOutcome'>You LOST</font><p>You bet: 5</strong></font> &nbsp; &nbsp; &nbsp; &nbsp; &nbsp; &nbsp;<font class='negOutcome'>You receive: <strong>0</strong></font></div>","null","11","Lucky Lemons","Fruit/lemon.png","Lost","0.8,0.2","13","0.8","193","32","",""
"html-keyboard-response","106","167113","0.0-11.0-1.32","610189e61b2d3520eea21de6","bdp_rwlrn","Mon Mar 13 2023 14:28:02 GMT-0400 (Eastern Daylight Time)","401780","Untrustworthy,Trustworthy","","477","","","","decision","","<div class='trialDiv'><img src='Fruit/melon.png'><br><font class='baseline'><strong>Melon Millions</strong><p>Choose number of points to bet.</font><div class='respPicDiv'><img src='img/responseButtonOffersNo0L.png' class='respPic'></div></div>","5","11","Melon Millions","Fruit/melon.png","Lost","0.65,0.2","9","0.65","198","33","",""
"html-keyboard-response","107","167366","0.0-11.0-2.32","610189e61b2d3520eea21de6","bdp_rwlrn","Mon Mar 13 2023 14:28:02 GMT-0400 (Eastern Daylight Time)","401780","Untrustworthy,Trustworthy","","null","","","","decisionFB","","<div class='trialDiv'><img src='Fruit/melon.png'><br><font class='baseline'><strong>Melon Millions</strong><p>Choose number of points to bet.</font><div class='respPicDiv'><img src='img/responseButtonOffersNo0L5.png' class='respPic'></div></div>","null","11","Melon Millions","Fruit/melon.png","Lost","0.65,0.2","9","0.65","193","33","",""
"html-keyboard-response","108","168369","0.0-11.0-3.32","610189e61b2d3520eea21de6","bdp_rwlrn","Mon Mar 13 2023 14:28:02 GMT-0400 (Eastern Daylight Time)","401780","Untrustworthy,Trustworthy","","null","","","","feedback","","<div class='respPicDiv'><img src='img/responseButtonOffersNo0_wht.png' class='respPic'></div><div class='trialDiv'><img src='Fruit/melon.png'><br><font class='baseline'><strong>Melon Millions</strong><p><strong><font class='negOutcome'>You LOST</font><p>You bet: 5</strong></font> &nbsp; &nbsp; &nbsp; &nbsp; &nbsp; &nbsp;<font class='negOutcome'>You receive: <strong>0</strong></font></div>","null","11","Melon Millions","Fruit/melon.png","Lost","0.65,0.2","9","0.65","193","33","",""
"html-keyboard-response","109","169960","0.0-11.0-1.33","610189e61b2d3520eea21de6","bdp_rwlrn","Mon Mar 13 2023 14:28:02 GMT-0400 (Eastern Daylight Time)","401780","Untrustworthy,Trustworthy","","1590","","","","decision","","<div class='trialDiv'><img src='Fruit/lemon.png'><br><font class='baseline'><strong>Lucky Lemons</strong><p>Choose number of points to bet.</font><div class='respPicDiv'><img src='img/responseButtonOffersNo0L.png' class='respPic'></div></div>","5","12","Lucky Lemons","Fruit/lemon.png","Won","0.8,0.2","13","0.8","198","34","",""
"html-keyboard-response","110","170214","0.0-11.0-2.33","610189e61b2d3520eea21de6","bdp_rwlrn","Mon Mar 13 2023 14:28:02 GMT-0400 (Eastern Daylight Time)","401780","Untrustworthy,Trustworthy","","null","","","","decisionFB","","<div class='trialDiv'><img src='Fruit/lemon.png'><br><font class='baseline'><strong>Lucky Lemons</strong><p>Choose number of points to bet.</font><div class='respPicDiv'><img src='img/responseButtonOffersNo0L5.png' class='respPic'></div></div>","null","12","Lucky Lemons","Fruit/lemon.png","Won","0.8,0.2","13","0.8","193","34","",""
"html-keyboard-response","111","171216","0.0-11.0-3.33","610189e61b2d3520eea21de6","bdp_rwlrn","Mon Mar 13 2023 14:28:02 GMT-0400 (Eastern Daylight Time)","401780","Untrustworthy,Trustworthy","","null","","","","feedback","","<div class='respPicDiv'><img src='img/responseButtonOffersNo0_wht.png' class='respPic'></div><div class='trialDiv'><img src='Fruit/lemon.png'><br><font class='baseline'><strong>Lucky Lemons</strong><p><strong><font class='posOutcome'>You WON</font><p>You bet: 5</strong></font> &nbsp; &nbsp; &nbsp; &nbsp; &nbsp; &nbsp;<font class='posOutcome'>you receive: <strong>10</strong></font></div>","null","12","Lucky Lemons","Fruit/lemon.png","Won","0.8,0.2","13","0.8","203","34","",""
"html-keyboard-response","112","172170","0.0-11.0-1.34","610189e61b2d3520eea21de6","bdp_rwlrn","Mon Mar 13 2023 14:28:02 GMT-0400 (Eastern Daylight Time)","401780","Untrustworthy,Trustworthy","","952","","","","decision","","<div class='trialDiv'><img src='Fruit/papayas.png'><br><font class='baseline'><strong>Papaya Payday</strong><p>Choose number of points to bet.</font><div class='respPicDiv'><img src='img/responseButtonOffersNo0L.png' class='respPic'></div></div>","2","12","Papaya Payday","Fruit/papayas.png","Won","0.2,0.65","11","0.2","208","35","",""
"html-keyboard-response","113","172422","0.0-11.0-2.34","610189e61b2d3520eea21de6","bdp_rwlrn","Mon Mar 13 2023 14:28:02 GMT-0400 (Eastern Daylight Time)","401780","Untrustworthy,Trustworthy","","null","","","","decisionFB","","<div class='trialDiv'><img src='Fruit/papayas.png'><br><font class='baseline'><strong>Papaya Payday</strong><p>Choose number of points to bet.</font><div class='respPicDiv'><img src='img/responseButtonOffersNo0L2.png' class='respPic'></div></div>","null","12","Papaya Payday","Fruit/papayas.png","Won","0.2,0.65","11","0.2","206","35","",""
"html-keyboard-response","114","173426","0.0-11.0-3.34","610189e61b2d3520eea21de6","bdp_rwlrn","Mon Mar 13 2023 14:28:02 GMT-0400 (Eastern Daylight Time)","401780","Untrustworthy,Trustworthy","","null","","","","feedback","","<div class='respPicDiv'><img src='img/responseButtonOffersNo0_wht.png' class='respPic'></div><div class='trialDiv'><img src='Fruit/papayas.png'><br><font class='baseline'><strong>Papaya Payday</strong><p><strong><font class='posOutcome'>You WON</font><p>You bet: 2</strong></font> &nbsp; &nbsp; &nbsp; &nbsp; &nbsp; &nbsp;<font class='posOutcome'>you receive: <strong>4</strong></font></div>","null","12","Papaya Payday","Fruit/papayas.png","Won","0.2,0.65","11","0.2","210","35","",""
"html-keyboard-response","115","174113","0.0-11.0-1.35","610189e61b2d3520eea21de6","bdp_rwlrn","Mon Mar 13 2023 14:28:02 GMT-0400 (Eastern Daylight Time)","401780","Untrustworthy,Trustworthy","","685","","","","decision","","<div class='trialDiv'><img src='Fruit/melon.png'><br><font class='baseline'><strong>Melon Millions</strong><p>Choose number of points to bet.</font><div class='respPicDiv'><img src='img/responseButtonOffersNo0L.png' class='respPic'></div></div>","5","12","Melon Millions","Fruit/melon.png","Lost","0.65,0.2","9","0.65","215","36","",""
"html-keyboard-response","116","174366","0.0-11.0-2.35","610189e61b2d3520eea21de6","bdp_rwlrn","Mon Mar 13 2023 14:28:02 GMT-0400 (Eastern Daylight Time)","401780","Untrustworthy,Trustworthy","","null","","","","decisionFB","","<div class='trialDiv'><img src='Fruit/melon.png'><br><font class='baseline'><strong>Melon Millions</strong><p>Choose number of points to bet.</font><div class='respPicDiv'><img src='img/responseButtonOffersNo0L5.png' class='respPic'></div></div>","null","12","Melon Millions","Fruit/melon.png","Lost","0.65,0.2","9","0.65","210","36","",""
"html-keyboard-response","117","175369","0.0-11.0-3.35","610189e61b2d3520eea21de6","bdp_rwlrn","Mon Mar 13 2023 14:28:02 GMT-0400 (Eastern Daylight Time)","401780","Untrustworthy,Trustworthy","","null","","","","feedback","","<div class='respPicDiv'><img src='img/responseButtonOffersNo0_wht.png' class='respPic'></div><div class='trialDiv'><img src='Fruit/melon.png'><br><font class='baseline'><strong>Melon Millions</strong><p><strong><font class='negOutcome'>You LOST</font><p>You bet: 5</strong></font> &nbsp; &nbsp; &nbsp; &nbsp; &nbsp; &nbsp;<font class='negOutcome'>You receive: <strong>0</strong></font></div>","null","12","Melon Millions","Fruit/melon.png","Lost","0.65,0.2","9","0.65","210","36","",""
"html-keyboard-response","118","176344","0.0-11.0-1.36","610189e61b2d3520eea21de6","bdp_rwlrn","Mon Mar 13 2023 14:28:02 GMT-0400 (Eastern Daylight Time)","401780","Untrustworthy,Trustworthy","","974","","","","decision","","<div class='trialDiv'><img src='Fruit/papayas.png'><br><font class='baseline'><strong>Papaya Payday</strong><p>Choose number of points to bet.</font><div class='respPicDiv'><img src='img/responseButtonOffersNo0L.png' class='respPic'></div></div>","2","13","Papaya Payday","Fruit/papayas.png","Lost","0.2,0.65","11","0.2","215","37","",""
"html-keyboard-response","119","176597","0.0-11.0-2.36","610189e61b2d3520eea21de6","bdp_rwlrn","Mon Mar 13 2023 14:28:02 GMT-0400 (Eastern Daylight Time)","401780","Untrustworthy,Trustworthy","","null","","","","decisionFB","","<div class='trialDiv'><img src='Fruit/papayas.png'><br><font class='baseline'><strong>Papaya Payday</strong><p>Choose number of points to bet.</font><div class='respPicDiv'><img src='img/responseButtonOffersNo0L2.png' class='respPic'></div></div>","null","13","Papaya Payday","Fruit/papayas.png","Lost","0.2,0.65","11","0.2","213","37","",""
"html-keyboard-response","120","177600","0.0-11.0-3.36","610189e61b2d3520eea21de6","bdp_rwlrn","Mon Mar 13 2023 14:28:02 GMT-0400 (Eastern Daylight Time)","401780","Untrustworthy,Trustworthy","","null","","","","feedback","","<div class='respPicDiv'><img src='img/responseButtonOffersNo0_wht.png' class='respPic'></div><div class='trialDiv'><img src='Fruit/papayas.png'><br><font class='baseline'><strong>Papaya Payday</strong><p><strong><font class='negOutcome'>You LOST</font><p>You bet: 2</strong></font> &nbsp; &nbsp; &nbsp; &nbsp; &nbsp; &nbsp;<font class='negOutcome'>You receive: <strong>0</strong></font></div>","null","13","Papaya Payday","Fruit/papayas.png","Lost","0.2,0.65","11","0.2","213","37","",""
"html-keyboard-response","121","178305","0.0-11.0-1.37","610189e61b2d3520eea21de6","bdp_rwlrn","Mon Mar 13 2023 14:28:02 GMT-0400 (Eastern Daylight Time)","401780","Untrustworthy,Trustworthy","","703","","","","decision","","<div class='trialDiv'><img src='Fruit/lemon.png'><br><font class='baseline'><strong>Lucky Lemons</strong><p>Choose number of points to bet.</font><div class='respPicDiv'><img src='img/responseButtonOffersNo0L.png' class='respPic'></div></div>","5","13","Lucky Lemons","Fruit/lemon.png","Lost","0.8,0.2","13","0.8","218","38","",""
"html-keyboard-response","122","178559","0.0-11.0-2.37","610189e61b2d3520eea21de6","bdp_rwlrn","Mon Mar 13 2023 14:28:02 GMT-0400 (Eastern Daylight Time)","401780","Untrustworthy,Trustworthy","","null","","","","decisionFB","","<div class='trialDiv'><img src='Fruit/lemon.png'><br><font class='baseline'><strong>Lucky Lemons</strong><p>Choose number of points to bet.</font><div class='respPicDiv'><img src='img/responseButtonOffersNo0L5.png' class='respPic'></div></div>","null","13","Lucky Lemons","Fruit/lemon.png","Lost","0.8,0.2","13","0.8","213","38","",""
"html-keyboard-response","123","179561","0.0-11.0-3.37","610189e61b2d3520eea21de6","bdp_rwlrn","Mon Mar 13 2023 14:28:02 GMT-0400 (Eastern Daylight Time)","401780","Untrustworthy,Trustworthy","","null","","","","feedback","","<div class='respPicDiv'><img src='img/responseButtonOffersNo0_wht.png' class='respPic'></div><div class='trialDiv'><img src='Fruit/lemon.png'><br><font class='baseline'><strong>Lucky Lemons</strong><p><strong><font class='negOutcome'>You LOST</font><p>You bet: 5</strong></font> &nbsp; &nbsp; &nbsp; &nbsp; &nbsp; &nbsp;<font class='negOutcome'>You receive: <strong>0</strong></font></div>","null","13","Lucky Lemons","Fruit/lemon.png","Lost","0.8,0.2","13","0.8","213","38","",""
"html-keyboard-response","124","180000","0.0-11.0-1.38","610189e61b2d3520eea21de6","bdp_rwlrn","Mon Mar 13 2023 14:28:02 GMT-0400 (Eastern Daylight Time)","401780","Untrustworthy,Trustworthy","","437","","","","decision","","<div class='trialDiv'><img src='Fruit/melon.png'><br><font class='baseline'><strong>Melon Millions</strong><p>Choose number of points to bet.</font><div class='respPicDiv'><img src='img/responseButtonOffersNo0L.png' class='respPic'></div></div>","5","13","Melon Millions","Fruit/melon.png","Lost","0.65,0.2","9","0.65","218","39","",""
"html-keyboard-response","125","180253","0.0-11.0-2.38","610189e61b2d3520eea21de6","bdp_rwlrn","Mon Mar 13 2023 14:28:02 GMT-0400 (Eastern Daylight Time)","401780","Untrustworthy,Trustworthy","","null","","","","decisionFB","","<div class='trialDiv'><img src='Fruit/melon.png'><br><font class='baseline'><strong>Melon Millions</strong><p>Choose number of points to bet.</font><div class='respPicDiv'><img src='img/responseButtonOffersNo0L5.png' class='respPic'></div></div>","null","13","Melon Millions","Fruit/melon.png","Lost","0.65,0.2","9","0.65","213","39","",""
"html-keyboard-response","126","181255","0.0-11.0-3.38","610189e61b2d3520eea21de6","bdp_rwlrn","Mon Mar 13 2023 14:28:02 GMT-0400 (Eastern Daylight Time)","401780","Untrustworthy,Trustworthy","","null","","","","feedback","","<div class='respPicDiv'><img src='img/responseButtonOffersNo0_wht.png' class='respPic'></div><div class='trialDiv'><img src='Fruit/melon.png'><br><font class='baseline'><strong>Melon Millions</strong><p><strong><font class='negOutcome'>You LOST</font><p>You bet: 5</strong></font> &nbsp; &nbsp; &nbsp; &nbsp; &nbsp; &nbsp;<font class='negOutcome'>You receive: <strong>0</strong></font></div>","null","13","Melon Millions","Fruit/melon.png","Lost","0.65,0.2","9","0.65","213","39","",""
"html-keyboard-response","127","182241","0.0-11.0-1.39","610189e61b2d3520eea21de6","bdp_rwlrn","Mon Mar 13 2023 14:28:02 GMT-0400 (Eastern Daylight Time)","401780","Untrustworthy,Trustworthy","","984","","","","decision","","<div class='trialDiv'><img src='Fruit/lemon.png'><br><font class='baseline'><strong>Lucky Lemons</strong><p>Choose number of points to bet.</font><div class='respPicDiv'><img src='img/responseButtonOffersNo0L.png' class='respPic'></div></div>","5","14","Lucky Lemons","Fruit/lemon.png","Lost","0.8,0.2","13","0.8","218","40","",""
"html-keyboard-response","128","182494","0.0-11.0-2.39","610189e61b2d3520eea21de6","bdp_rwlrn","Mon Mar 13 2023 14:28:02 GMT-0400 (Eastern Daylight Time)","401780","Untrustworthy,Trustworthy","","null","","","","decisionFB","","<div class='trialDiv'><img src='Fruit/lemon.png'><br><font class='baseline'><strong>Lucky Lemons</strong><p>Choose number of points to bet.</font><div class='respPicDiv'><img src='img/responseButtonOffersNo0L5.png' class='respPic'></div></div>","null","14","Lucky Lemons","Fruit/lemon.png","Lost","0.8,0.2","13","0.8","213","40","",""
"html-keyboard-response","129","183497","0.0-11.0-3.39","610189e61b2d3520eea21de6","bdp_rwlrn","Mon Mar 13 2023 14:28:02 GMT-0400 (Eastern Daylight Time)","401780","Untrustworthy,Trustworthy","","null","","","","feedback","","<div class='respPicDiv'><img src='img/responseButtonOffersNo0_wht.png' class='respPic'></div><div class='trialDiv'><img src='Fruit/lemon.png'><br><font class='baseline'><strong>Lucky Lemons</strong><p><strong><font class='negOutcome'>You LOST</font><p>You bet: 5</strong></font> &nbsp; &nbsp; &nbsp; &nbsp; &nbsp; &nbsp;<font class='negOutcome'>You receive: <strong>0</strong></font></div>","null","14","Lucky Lemons","Fruit/lemon.png","Lost","0.8,0.2","13","0.8","213","40","",""
"html-keyboard-response","130","184455","0.0-11.0-1.40","610189e61b2d3520eea21de6","bdp_rwlrn","Mon Mar 13 2023 14:28:02 GMT-0400 (Eastern Daylight Time)","401780","Untrustworthy,Trustworthy","","956","","","","decision","","<div class='trialDiv'><img src='Fruit/papayas.png'><br><font class='baseline'><strong>Papaya Payday</strong><p>Choose number of points to bet.</font><div class='respPicDiv'><img src='img/responseButtonOffersNo0L.png' class='respPic'></div></div>","2","14","Papaya Payday","Fruit/papayas.png","Lost","0.2,0.65","11","0.2","218","41","",""
"html-keyboard-response","131","184718","0.0-11.0-2.40","610189e61b2d3520eea21de6","bdp_rwlrn","Mon Mar 13 2023 14:28:02 GMT-0400 (Eastern Daylight Time)","401780","Untrustworthy,Trustworthy","","null","","","","decisionFB","","<div class='trialDiv'><img src='Fruit/papayas.png'><br><font class='baseline'><strong>Papaya Payday</strong><p>Choose number of points to bet.</font><div class='respPicDiv'><img src='img/responseButtonOffersNo0L2.png' class='respPic'></div></div>","null","14","Papaya Payday","Fruit/papayas.png","Lost","0.2,0.65","11","0.2","216","41","",""
"html-keyboard-response","132","185720","0.0-11.0-3.40","610189e61b2d3520eea21de6","bdp_rwlrn","Mon Mar 13 2023 14:28:02 GMT-0400 (Eastern Daylight Time)","401780","Untrustworthy,Trustworthy","","null","","","","feedback","","<div class='respPicDiv'><img src='img/responseButtonOffersNo0_wht.png' class='respPic'></div><div class='trialDiv'><img src='Fruit/papayas.png'><br><font class='baseline'><strong>Papaya Payday</strong><p><strong><font class='negOutcome'>You LOST</font><p>You bet: 2</strong></font> &nbsp; &nbsp; &nbsp; &nbsp; &nbsp; &nbsp;<font class='negOutcome'>You receive: <strong>0</strong></font></div>","null","14","Papaya Payday","Fruit/papayas.png","Lost","0.2,0.65","11","0.2","216","41","",""
"html-keyboard-response","133","185737","0.0-11.0-1.41","610189e61b2d3520eea21de6","bdp_rwlrn","Mon Mar 13 2023 14:28:02 GMT-0400 (Eastern Daylight Time)","401780","Untrustworthy,Trustworthy","","14","","","","decision","","<div class='trialDiv'><img src='Fruit/melon.png'><br><font class='baseline'><strong>Melon Millions</strong><p>Choose number of points to bet.</font><div class='respPicDiv'><img src='img/responseButtonOffersNo0L.png' class='respPic'></div></div>","5","14","Melon Millions","Fruit/melon.png","Won","0.65,0.2","9","0.65","221","42","",""
"html-keyboard-response","134","185996","0.0-11.0-2.41","610189e61b2d3520eea21de6","bdp_rwlrn","Mon Mar 13 2023 14:28:02 GMT-0400 (Eastern Daylight Time)","401780","Untrustworthy,Trustworthy","","null","","","","decisionFB","","<div class='trialDiv'><img src='Fruit/melon.png'><br><font class='baseline'><strong>Melon Millions</strong><p>Choose number of points to bet.</font><div class='respPicDiv'><img src='img/responseButtonOffersNo0L5.png' class='respPic'></div></div>","null","14","Melon Millions","Fruit/melon.png","Won","0.65,0.2","9","0.65","216","42","",""
"html-keyboard-response","135","187011","0.0-11.0-3.41","610189e61b2d3520eea21de6","bdp_rwlrn","Mon Mar 13 2023 14:28:02 GMT-0400 (Eastern Daylight Time)","401780","Untrustworthy,Trustworthy","","null","","","","feedback","","<div class='respPicDiv'><img src='img/responseButtonOffersNo0_wht.png' class='respPic'></div><div class='trialDiv'><img src='Fruit/melon.png'><br><font class='baseline'><strong>Melon Millions</strong><p><strong><font class='posOutcome'>You WON</font><p>You bet: 5</strong></font> &nbsp; &nbsp; &nbsp; &nbsp; &nbsp; &nbsp;<font class='posOutcome'>you receive: <strong>10</strong></font></div>","null","14","Melon Millions","Fruit/melon.png","Won","0.65,0.2","9","0.65","226","42","",""
"html-keyboard-response","136","188481","0.0-11.0-1.42","610189e61b2d3520eea21de6","bdp_rwlrn","Mon Mar 13 2023 14:28:02 GMT-0400 (Eastern Daylight Time)","401780","Untrustworthy,Trustworthy","","1469","","","","decision","","<div class='trialDiv'><img src='Fruit/lemon.png'><br><font class='baseline'><strong>Lucky Lemons</strong><p>Choose number of points to bet.</font><div class='respPicDiv'><img src='img/responseButtonOffersNo0L.png' class='respPic'></div></div>","5","15","Lucky Lemons","Fruit/lemon.png","Lost","0.8,0.2","13","0.8","231","43","",""
"html-keyboard-response","137","188734","0.0-11.0-2.42","610189e61b2d3520eea21de6","bdp_rwlrn","Mon Mar 13 2023 14:28:02 GMT-0400 (Eastern Daylight Time)","401780","Untrustworthy,Trustworthy","","null","","","","decisionFB","","<div class='trialDiv'><img src='Fruit/lemon.png'><br><font class='baseline'><strong>Lucky Lemons</strong><p>Choose number of points to bet.</font><div class='respPicDiv'><img src='img/responseButtonOffersNo0L5.png' class='respPic'></div></div>","null","15","Lucky Lemons","Fruit/lemon.png","Lost","0.8,0.2","13","0.8","226","43","",""
"html-keyboard-response","138","189738","0.0-11.0-3.42","610189e61b2d3520eea21de6","bdp_rwlrn","Mon Mar 13 2023 14:28:02 GMT-0400 (Eastern Daylight Time)","401780","Untrustworthy,Trustworthy","","null","","","","feedback","","<div class='respPicDiv'><img src='img/responseButtonOffersNo0_wht.png' class='respPic'></div><div class='trialDiv'><img src='Fruit/lemon.png'><br><font class='baseline'><strong>Lucky Lemons</strong><p><strong><font class='negOutcome'>You LOST</font><p>You bet: 5</strong></font> &nbsp; &nbsp; &nbsp; &nbsp; &nbsp; &nbsp;<font class='negOutcome'>You receive: <strong>0</strong></font></div>","null","15","Lucky Lemons","Fruit/lemon.png","Lost","0.8,0.2","13","0.8","226","43","",""
"html-keyboard-response","139","190928","0.0-11.0-1.43","610189e61b2d3520eea21de6","bdp_rwlrn","Mon Mar 13 2023 14:28:02 GMT-0400 (Eastern Daylight Time)","401780","Untrustworthy,Trustworthy","","1189","","","","decision","","<div class='trialDiv'><img src='Fruit/papayas.png'><br><font class='baseline'><strong>Papaya Payday</strong><p>Choose number of points to bet.</font><div class='respPicDiv'><img src='img/responseButtonOffersNo0L.png' class='respPic'></div></div>","2","15","Papaya Payday","Fruit/papayas.png","Won","0.2,0.65","11","0.2","231","44","",""
"html-keyboard-response","140","191181","0.0-11.0-2.43","610189e61b2d3520eea21de6","bdp_rwlrn","Mon Mar 13 2023 14:28:02 GMT-0400 (Eastern Daylight Time)","401780","Untrustworthy,Trustworthy","","null","","","","decisionFB","","<div class='trialDiv'><img src='Fruit/papayas.png'><br><font class='baseline'><strong>Papaya Payday</strong><p>Choose number of points to bet.</font><div class='respPicDiv'><img src='img/responseButtonOffersNo0L2.png' class='respPic'></div></div>","null","15","Papaya Payday","Fruit/papayas.png","Won","0.2,0.65","11","0.2","229","44","",""
"html-keyboard-response","141","192183","0.0-11.0-3.43","610189e61b2d3520eea21de6","bdp_rwlrn","Mon Mar 13 2023 14:28:02 GMT-0400 (Eastern Daylight Time)","401780","Untrustworthy,Trustworthy","","null","","","","feedback","","<div class='respPicDiv'><img src='img/responseButtonOffersNo0_wht.png' class='respPic'></div><div class='trialDiv'><img src='Fruit/papayas.png'><br><font class='baseline'><strong>Papaya Payday</strong><p><strong><font class='posOutcome'>You WON</font><p>You bet: 2</strong></font> &nbsp; &nbsp; &nbsp; &nbsp; &nbsp; &nbsp;<font class='posOutcome'>you receive: <strong>4</strong></font></div>","null","15","Papaya Payday","Fruit/papayas.png","Won","0.2,0.65","11","0.2","233","44","",""
"html-keyboard-response","142","192207","0.0-11.0-1.44","610189e61b2d3520eea21de6","bdp_rwlrn","Mon Mar 13 2023 14:28:02 GMT-0400 (Eastern Daylight Time)","401780","Untrustworthy,Trustworthy","","22","","","","decision","","<div class='trialDiv'><img src='Fruit/melon.png'><br><font class='baseline'><strong>Melon Millions</strong><p>Choose number of points to bet.</font><div class='respPicDiv'><img src='img/responseButtonOffersNo0L.png' class='respPic'></div></div>","5","15","Melon Millions","Fruit/melon.png","Lost","0.65,0.2","9","0.65","238","45","",""
"html-keyboard-response","143","192458","0.0-11.0-2.44","610189e61b2d3520eea21de6","bdp_rwlrn","Mon Mar 13 2023 14:28:02 GMT-0400 (Eastern Daylight Time)","401780","Untrustworthy,Trustworthy","","null","","","","decisionFB","","<div class='trialDiv'><img src='Fruit/melon.png'><br><font class='baseline'><strong>Melon Millions</strong><p>Choose number of points to bet.</font><div class='respPicDiv'><img src='img/responseButtonOffersNo0L5.png' class='respPic'></div></div>","null","15","Melon Millions","Fruit/melon.png","Lost","0.65,0.2","9","0.65","233","45","",""
"html-keyboard-response","144","193461","0.0-11.0-3.44","610189e61b2d3520eea21de6","bdp_rwlrn","Mon Mar 13 2023 14:28:02 GMT-0400 (Eastern Daylight Time)","401780","Untrustworthy,Trustworthy","","null","","","","feedback","","<div class='respPicDiv'><img src='img/responseButtonOffersNo0_wht.png' class='respPic'></div><div class='trialDiv'><img src='Fruit/melon.png'><br><font class='baseline'><strong>Melon Millions</strong><p><strong><font class='negOutcome'>You LOST</font><p>You bet: 5</strong></font> &nbsp; &nbsp; &nbsp; &nbsp; &nbsp; &nbsp;<font class='negOutcome'>You receive: <strong>0</strong></font></div>","null","15","Melon Millions","Fruit/melon.png","Lost","0.65,0.2","9","0.65","233","45","",""
"html-keyboard-response","145","194138","0.0-11.0-1.45","610189e61b2d3520eea21de6","bdp_rwlrn","Mon Mar 13 2023 14:28:02 GMT-0400 (Eastern Daylight Time)","401780","Untrustworthy,Trustworthy","","674","","","","decision","","<div class='trialDiv'><img src='Fruit/lemon.png'><br><font class='baseline'><strong>Lucky Lemons</strong><p>Choose number of points to bet.</font><div class='respPicDiv'><img src='img/responseButtonOffersNo0L.png' class='respPic'></div></div>","5","16","Lucky Lemons","Fruit/lemon.png","Lost","0.8,0.2","13","0.8","238","46","",""
"html-keyboard-response","146","194391","0.0-11.0-2.45","610189e61b2d3520eea21de6","bdp_rwlrn","Mon Mar 13 2023 14:28:02 GMT-0400 (Eastern Daylight Time)","401780","Untrustworthy,Trustworthy","","null","","","","decisionFB","","<div class='trialDiv'><img src='Fruit/lemon.png'><br><font class='baseline'><strong>Lucky Lemons</strong><p>Choose number of points to bet.</font><div class='respPicDiv'><img src='img/responseButtonOffersNo0L5.png' class='respPic'></div></div>","null","16","Lucky Lemons","Fruit/lemon.png","Lost","0.8,0.2","13","0.8","233","46","",""
"html-keyboard-response","147","195393","0.0-11.0-3.45","610189e61b2d3520eea21de6","bdp_rwlrn","Mon Mar 13 2023 14:28:02 GMT-0400 (Eastern Daylight Time)","401780","Untrustworthy,Trustworthy","","null","","","","feedback","","<div class='respPicDiv'><img src='img/responseButtonOffersNo0_wht.png' class='respPic'></div><div class='trialDiv'><img src='Fruit/lemon.png'><br><font class='baseline'><strong>Lucky Lemons</strong><p><strong><font class='negOutcome'>You LOST</font><p>You bet: 5</strong></font> &nbsp; &nbsp; &nbsp; &nbsp; &nbsp; &nbsp;<font class='negOutcome'>You receive: <strong>0</strong></font></div>","null","16","Lucky Lemons","Fruit/lemon.png","Lost","0.8,0.2","13","0.8","233","46","",""
"html-keyboard-response","148","195929","0.0-11.0-1.46","610189e61b2d3520eea21de6","bdp_rwlrn","Mon Mar 13 2023 14:28:02 GMT-0400 (Eastern Daylight Time)","401780","Untrustworthy,Trustworthy","","536","","","","decision","","<div class='trialDiv'><img src='Fruit/papayas.png'><br><font class='baseline'><strong>Papaya Payday</strong><p>Choose number of points to bet.</font><div class='respPicDiv'><img src='img/responseButtonOffersNo0L.png' class='respPic'></div></div>","5","16","Papaya Payday","Fruit/papayas.png","Won","0.2,0.65","11","0.2","238","47","",""
"html-keyboard-response","149","196182","0.0-11.0-2.46","610189e61b2d3520eea21de6","bdp_rwlrn","Mon Mar 13 2023 14:28:02 GMT-0400 (Eastern Daylight Time)","401780","Untrustworthy,Trustworthy","","null","","","","decisionFB","","<div class='trialDiv'><img src='Fruit/papayas.png'><br><font class='baseline'><strong>Papaya Payday</strong><p>Choose number of points to bet.</font><div class='respPicDiv'><img src='img/responseButtonOffersNo0L5.png' class='respPic'></div></div>","null","16","Papaya Payday","Fruit/papayas.png","Won","0.2,0.65","11","0.2","233","47","",""
"html-keyboard-response","150","197185","0.0-11.0-3.46","610189e61b2d3520eea21de6","bdp_rwlrn","Mon Mar 13 2023 14:28:02 GMT-0400 (Eastern Daylight Time)","401780","Untrustworthy,Trustworthy","","null","","","","feedback","","<div class='respPicDiv'><img src='img/responseButtonOffersNo0_wht.png' class='respPic'></div><div class='trialDiv'><img src='Fruit/papayas.png'><br><font class='baseline'><strong>Papaya Payday</strong><p><strong><font class='posOutcome'>You WON</font><p>You bet: 5</strong></font> &nbsp; &nbsp; &nbsp; &nbsp; &nbsp; &nbsp;<font class='posOutcome'>you receive: <strong>10</strong></font></div>","null","16","Papaya Payday","Fruit/papayas.png","Won","0.2,0.65","11","0.2","243","47","",""
"html-keyboard-response","151","197784","0.0-11.0-1.47","610189e61b2d3520eea21de6","bdp_rwlrn","Mon Mar 13 2023 14:28:02 GMT-0400 (Eastern Daylight Time)","401780","Untrustworthy,Trustworthy","","596","","","","decision","","<div class='trialDiv'><img src='Fruit/melon.png'><br><font class='baseline'><strong>Melon Millions</strong><p>Choose number of points to bet.</font><div class='respPicDiv'><img src='img/responseButtonOffersNo0L.png' class='respPic'></div></div>","5","16","Melon Millions","Fruit/melon.png","Lost","0.65,0.2","9","0.65","248","48","",""
"html-keyboard-response","152","198036","0.0-11.0-2.47","610189e61b2d3520eea21de6","bdp_rwlrn","Mon Mar 13 2023 14:28:02 GMT-0400 (Eastern Daylight Time)","401780","Untrustworthy,Trustworthy","","null","","","","decisionFB","","<div class='trialDiv'><img src='Fruit/melon.png'><br><font class='baseline'><strong>Melon Millions</strong><p>Choose number of points to bet.</font><div class='respPicDiv'><img src='img/responseButtonOffersNo0L5.png' class='respPic'></div></div>","null","16","Melon Millions","Fruit/melon.png","Lost","0.65,0.2","9","0.65","243","48","",""
"html-keyboard-response","153","199039","0.0-11.0-3.47","610189e61b2d3520eea21de6","bdp_rwlrn","Mon Mar 13 2023 14:28:02 GMT-0400 (Eastern Daylight Time)","401780","Untrustworthy,Trustworthy","","null","","","","feedback","","<div class='respPicDiv'><img src='img/responseButtonOffersNo0_wht.png' class='respPic'></div><div class='trialDiv'><img src='Fruit/melon.png'><br><font class='baseline'><strong>Melon Millions</strong><p><strong><font class='negOutcome'>You LOST</font><p>You bet: 5</strong></font> &nbsp; &nbsp; &nbsp; &nbsp; &nbsp; &nbsp;<font class='negOutcome'>You receive: <strong>0</strong></font></div>","null","16","Melon Millions","Fruit/melon.png","Lost","0.65,0.2","9","0.65","243","48","",""
"html-keyboard-response","154","199416","0.0-11.0-1.48","610189e61b2d3520eea21de6","bdp_rwlrn","Mon Mar 13 2023 14:28:02 GMT-0400 (Eastern Daylight Time)","401780","Untrustworthy,Trustworthy","","376","","","","decision","","<div class='trialDiv'><img src='Fruit/papayas.png'><br><font class='baseline'><strong>Papaya Payday</strong><p>Choose number of points to bet.</font><div class='respPicDiv'><img src='img/responseButtonOffersNo0L.png' class='respPic'></div></div>","5","17","Papaya Payday","Fruit/papayas.png","Won","0.2,0.65","11","0.2","248","49","",""
"html-keyboard-response","155","199669","0.0-11.0-2.48","610189e61b2d3520eea21de6","bdp_rwlrn","Mon Mar 13 2023 14:28:02 GMT-0400 (Eastern Daylight Time)","401780","Untrustworthy,Trustworthy","","null","","","","decisionFB","","<div class='trialDiv'><img src='Fruit/papayas.png'><br><font class='baseline'><strong>Papaya Payday</strong><p>Choose number of points to bet.</font><div class='respPicDiv'><img src='img/responseButtonOffersNo0L5.png' class='respPic'></div></div>","null","17","Papaya Payday","Fruit/papayas.png","Won","0.2,0.65","11","0.2","243","49","",""
"html-keyboard-response","156","200673","0.0-11.0-3.48","610189e61b2d3520eea21de6","bdp_rwlrn","Mon Mar 13 2023 14:28:02 GMT-0400 (Eastern Daylight Time)","401780","Untrustworthy,Trustworthy","","null","","","","feedback","","<div class='respPicDiv'><img src='img/responseButtonOffersNo0_wht.png' class='respPic'></div><div class='trialDiv'><img src='Fruit/papayas.png'><br><font class='baseline'><strong>Papaya Payday</strong><p><strong><font class='posOutcome'>You WON</font><p>You bet: 5</strong></font> &nbsp; &nbsp; &nbsp; &nbsp; &nbsp; &nbsp;<font class='posOutcome'>you receive: <strong>10</strong></font></div>","null","17","Papaya Payday","Fruit/papayas.png","Won","0.2,0.65","11","0.2","253","49","",""
"html-keyboard-response","157","202001","0.0-11.0-1.49","610189e61b2d3520eea21de6","bdp_rwlrn","Mon Mar 13 2023 14:28:02 GMT-0400 (Eastern Daylight Time)","401780","Untrustworthy,Trustworthy","","1326","","","","decision","","<div class='trialDiv'><img src='Fruit/lemon.png'><br><font class='baseline'><strong>Lucky Lemons</strong><p>Choose number of points to bet.</font><div class='respPicDiv'><img src='img/responseButtonOffersNo0L.png' class='respPic'></div></div>","5","17","Lucky Lemons","Fruit/lemon.png","Lost","0.8,0.2","13","0.8","258","50","",""
"html-keyboard-response","158","202254","0.0-11.0-2.49","610189e61b2d3520eea21de6","bdp_rwlrn","Mon Mar 13 2023 14:28:02 GMT-0400 (Eastern Daylight Time)","401780","Untrustworthy,Trustworthy","","null","","","","decisionFB","","<div class='trialDiv'><img src='Fruit/lemon.png'><br><font class='baseline'><strong>Lucky Lemons</strong><p>Choose number of points to bet.</font><div class='respPicDiv'><img src='img/responseButtonOffersNo0L5.png' class='respPic'></div></div>","null","17","Lucky Lemons","Fruit/lemon.png","Lost","0.8,0.2","13","0.8","253","50","",""
"html-keyboard-response","159","203256","0.0-11.0-3.49","610189e61b2d3520eea21de6","bdp_rwlrn","Mon Mar 13 2023 14:28:02 GMT-0400 (Eastern Daylight Time)","401780","Untrustworthy,Trustworthy","","null","","","","feedback","","<div class='respPicDiv'><img src='img/responseButtonOffersNo0_wht.png' class='respPic'></div><div class='trialDiv'><img src='Fruit/lemon.png'><br><font class='baseline'><strong>Lucky Lemons</strong><p><strong><font class='negOutcome'>You LOST</font><p>You bet: 5</strong></font> &nbsp; &nbsp; &nbsp; &nbsp; &nbsp; &nbsp;<font class='negOutcome'>You receive: <strong>0</strong></font></div>","null","17","Lucky Lemons","Fruit/lemon.png","Lost","0.8,0.2","13","0.8","253","50","",""
"html-keyboard-response","160","204033","0.0-11.0-1.50","610189e61b2d3520eea21de6","bdp_rwlrn","Mon Mar 13 2023 14:28:02 GMT-0400 (Eastern Daylight Time)","401780","Untrustworthy,Trustworthy","","774","","","","decision","","<div class='trialDiv'><img src='Fruit/melon.png'><br><font class='baseline'><strong>Melon Millions</strong><p>Choose number of points to bet.</font><div class='respPicDiv'><img src='img/responseButtonOffersNo0L.png' class='respPic'></div></div>","5","17","Melon Millions","Fruit/melon.png","Lost","0.65,0.2","9","0.65","258","51","",""
"html-keyboard-response","161","204285","0.0-11.0-2.50","610189e61b2d3520eea21de6","bdp_rwlrn","Mon Mar 13 2023 14:28:02 GMT-0400 (Eastern Daylight Time)","401780","Untrustworthy,Trustworthy","","null","","","","decisionFB","","<div class='trialDiv'><img src='Fruit/melon.png'><br><font class='baseline'><strong>Melon Millions</strong><p>Choose number of points to bet.</font><div class='respPicDiv'><img src='img/responseButtonOffersNo0L5.png' class='respPic'></div></div>","null","17","Melon Millions","Fruit/melon.png","Lost","0.65,0.2","9","0.65","253","51","",""
"html-keyboard-response","162","205288","0.0-11.0-3.50","610189e61b2d3520eea21de6","bdp_rwlrn","Mon Mar 13 2023 14:28:02 GMT-0400 (Eastern Daylight Time)","401780","Untrustworthy,Trustworthy","","null","","","","feedback","","<div class='respPicDiv'><img src='img/responseButtonOffersNo0_wht.png' class='respPic'></div><div class='trialDiv'><img src='Fruit/melon.png'><br><font class='baseline'><strong>Melon Millions</strong><p><strong><font class='negOutcome'>You LOST</font><p>You bet: 5</strong></font> &nbsp; &nbsp; &nbsp; &nbsp; &nbsp; &nbsp;<font class='negOutcome'>You receive: <strong>0</strong></font></div>","null","17","Melon Millions","Fruit/melon.png","Lost","0.65,0.2","9","0.65","253","51","",""
"html-keyboard-response","163","205721","0.0-11.0-1.51","610189e61b2d3520eea21de6","bdp_rwlrn","Mon Mar 13 2023 14:28:02 GMT-0400 (Eastern Daylight Time)","401780","Untrustworthy,Trustworthy","","431","","","","decision","","<div class='trialDiv'><img src='Fruit/papayas.png'><br><font class='baseline'><strong>Papaya Payday</strong><p>Choose number of points to bet.</font><div class='respPicDiv'><img src='img/responseButtonOffersNo0L.png' class='respPic'></div></div>","5","18","Papaya Payday","Fruit/papayas.png","Won","0.2,0.65","11","0.2","258","52","",""
