"trial_type","trial_index","time_elapsed","internal_node_id","subject_id","task","startTime","totalTime","labels","view_history","rt","event","trial","time","trialtype","success","stimulus","key_press","ltround","name","fileID","outcome","lottotype","lottoswpt","lottocurrpshare","point_total","round","faceID","face"
"pavlovia","0","1","0.0-0.0","60fcf7102d7c9907d95a0920","bdp_rwlrn","Sat Apr 08 2023 09:56:54 GMT-0700 (PDT)","371530","Untrustworthy,Trustworthy","","","","","","","","","","","","","","","","","","","",""
"instructions","1","2808","0.0-1.0","60fcf7102d7c9907d95a0920","bdp_rwlrn","Sat Apr 08 2023 09:56:54 GMT-0700 (PDT)","371530","Untrustworthy,Trustworthy","[{""page_index"":0,""viewing_time"":2805}]","2806","","","","","","","","","","","","","","","","","",""
"","","","","60fcf7102d7c9907d95a0920","bdp_rwlrn","Sat Apr 08 2023 09:56:54 GMT-0700 (PDT)","371530","Untrustworthy,Trustworthy","","","fullscreenenter","2","4513","fullscreenenter","","","","","","","","","","","","","",""
"fullscreen","2","5432","0.0-2.0","60fcf7102d7c9907d95a0920","bdp_rwlrn","Sat Apr 08 2023 09:56:54 GMT-0700 (PDT)","371530","Untrustworthy,Trustworthy","","","","","","","true","","","","","","","","","","","","",""
"instructions","3","45410","0.0-4.0","60fcf7102d7c9907d95a0920","bdp_rwlrn","Sat Apr 08 2023 09:56:54 GMT-0700 (PDT)","371530","Untrustworthy,Trustworthy","[{""page_index"":0,""viewing_time"":7020},{""page_index"":1,""viewing_time"":8620},{""page_index"":2,""viewing_time"":3769},{""page_index"":3,""viewing_time"":5234},{""page_index"":4,""viewing_time"":13413},{""page_index"":5,""viewing_time"":1911}]","39974","","","","","","","","","","","","","","","","","",""
"html-keyboard-response","4","48182","0.0-5.0","60fcf7102d7c9907d95a0920","bdp_rwlrn","Sat Apr 08 2023 09:56:54 GMT-0700 (PDT)","371530","Untrustworthy,Trustworthy","","2769","","","","","","<div class='header' style='text-align:left; position: absolute; top: 5%; left: 5%;'><small>Task 3 of 5</small></div><div class='instruxDiv'><p><strong>1) What is the maximum number of points you can choose to bet on a lottery?</strong></p><p>a) 0</p><p>b) 1</p><p>c) 5</p>","C","","","","","","","","","","",""
"html-keyboard-response","5","48986","0.0-6.0","60fcf7102d7c9907d95a0920","bdp_rwlrn","Sat Apr 08 2023 09:56:54 GMT-0700 (PDT)","371530","Untrustworthy,Trustworthy","","701","","","","","","<div class='header' style='text-align:left; position: absolute; top: 5%; left: 5%;'><small>Task 3 of 5</small></div><div class='instruxDiv'><p><strong>1) What is the maximum number of points you can choose to bet on a lottery?</strong></p><p>a) 1</p><p>b) 1</p><p style='color:#00FF00'>c) 5</p><h3 style='color:#00FF00'>Correct!</h3><h3 class='center-content'>The correct response is c).</h3><h3 class='center-content'>The maximum number of points you can choose to bet on a lottery is 5 points.</h3><p><em>Press SPACEBAR to continue</em></p></div>"," ","","","","","","","","","","",""
"html-keyboard-response","6","51812","0.0-7.0","60fcf7102d7c9907d95a0920","bdp_rwlrn","Sat Apr 08 2023 09:56:54 GMT-0700 (PDT)","371530","Untrustworthy,Trustworthy","","2723","","","","","","<div class='header' style='text-align:left; position: absolute; top: 5%; left: 5%;'><small>Task 3 of 5</small></div><div class='instruxDiv'><p><strong>2) How many points can you win each round?</strong></p><p>a) 10 points</p><p>b) Double what you bet</p><p>c) Quadruple what you bet</p>","B","","","","","","","","","","",""
"html-keyboard-response","7","52577","0.0-8.0","60fcf7102d7c9907d95a0920","bdp_rwlrn","Sat Apr 08 2023 09:56:54 GMT-0700 (PDT)","371530","Untrustworthy,Trustworthy","","662","","","","","","<div class='header' style='text-align:left; position: absolute; top: 5%; left: 5%;'><small>Task 3 of 5</small></div><div class='instruxDiv'><p><strong>2) How many points can you win each round?</strong></p><p>a) 10 points</p><p style='color:#00FF00'>b) Double what you bet</p><p>c) Quadruple what you bet</p><h3 style='color:#00FF00'>Correct!</h3><h3 class='center-content'>The correct response is b).</h3><h3 class='center-content'>You can win double the amount of points you bet.</h3><p><em>Press SPACEBAR to continue</em></p></div>"," ","","","","","","","","","","",""
"html-keyboard-response","8","57680","0.0-9.0","60fcf7102d7c9907d95a0920","bdp_rwlrn","Sat Apr 08 2023 09:56:54 GMT-0700 (PDT)","371530","Untrustworthy,Trustworthy","","null","","","","","","<div class='header' style='text-align:left; position: absolute; top: 5%; left: 5%;'><small>Task 3 of 5</small></div><div class='instruxDiv'><p>Thank you for completing the quiz<p>These are the actual lotteries you will be playing in the next block:<p><div class='tc' align='center'><img class='introPic' src='Fruit/pineapple.png'><br><strong>Primo Pineapple</strong></div><div class='bl' align='center'><img class='introPic' src='Fruit/grapes.png'><br><strong>Great Grapes</strong></div><div class='br' align='center'><img class='introPic' src='Fruit/orange.png'><br><strong>Odds are Orange</strong></div></div><p>Across <strong>66 rounds</strong> you will play each lottery <strong>22 times</strong> (in random order).<p style='align:center; color:white'><font <em>Press SPACEBAR to continue</em></p>","null","","","","","","","","","","",""
"instructions","9","59462","0.0-10.0","60fcf7102d7c9907d95a0920","bdp_rwlrn","Sat Apr 08 2023 09:56:54 GMT-0700 (PDT)","371530","Untrustworthy,Trustworthy","[{""page_index"":0,""viewing_time"":475},{""page_index"":1,""viewing_time"":1306}]","1781","","","","","","","","","","","","","","","","","",""
"html-keyboard-response","10","61882","0.0-11.0-1.0","60fcf7102d7c9907d95a0920","bdp_rwlrn","Sat Apr 08 2023 09:56:54 GMT-0700 (PDT)","371530","Untrustworthy,Trustworthy","","2316","","","","decision","","<div class='trialDiv'><img src='Fruit/pineapple.png'><br><font class='baseline'><strong>Primo Pineapple</strong><p>Choose number of points to bet.</font><div class='respPicDiv'><img src='img/responseButtonOffersNo0L.png' class='respPic'></div></div>","4","1","Primo Pineapple","Fruit/pineapple.png","Lost","0.65,0.2","13","0.65","5","1","",""
"html-keyboard-response","11","62136","0.0-11.0-2.0","60fcf7102d7c9907d95a0920","bdp_rwlrn","Sat Apr 08 2023 09:56:54 GMT-0700 (PDT)","371530","Untrustworthy,Trustworthy","","null","","","","decisionFB","","<div class='trialDiv'><img src='Fruit/pineapple.png'><br><font class='baseline'><strong>Primo Pineapple</strong><p>Choose number of points to bet.</font><div class='respPicDiv'><img src='img/responseButtonOffersNo0L4.png' class='respPic'></div></div>","null","1","Primo Pineapple","Fruit/pineapple.png","Lost","0.65,0.2","13","0.65","1","1","",""
"html-keyboard-response","12","63138","0.0-11.0-3.0","60fcf7102d7c9907d95a0920","bdp_rwlrn","Sat Apr 08 2023 09:56:54 GMT-0700 (PDT)","371530","Untrustworthy,Trustworthy","","null","","","","feedback","","<div class='respPicDiv'><img src='img/responseButtonOffersNo0_wht.png' class='respPic'></div><div class='trialDiv'><img src='Fruit/pineapple.png'><br><font class='baseline'><strong>Primo Pineapple</strong><p><strong><font class='negOutcome'>You LOST</font><p>You bet: 4</strong></font> &nbsp; &nbsp; &nbsp; &nbsp; &nbsp; &nbsp;<font class='negOutcome'>You receive: <strong>0</strong></font></div>","null","1","Primo Pineapple","Fruit/pineapple.png","Lost","0.65,0.2","13","0.65","1","1","",""
"html-keyboard-response","13","65421","0.0-11.0-1.1","60fcf7102d7c9907d95a0920","bdp_rwlrn","Sat Apr 08 2023 09:56:54 GMT-0700 (PDT)","371530","Untrustworthy,Trustworthy","","2282","","","","decision","","<div class='trialDiv'><img src='Fruit/grapes.png'><br><font class='baseline'><strong>Great Grapes</strong><p>Choose number of points to bet.</font><div class='respPicDiv'><img src='img/responseButtonOffersNo0L.png' class='respPic'></div></div>","2","1","Great Grapes","Fruit/grapes.png","Won","0.35,0.8","8","0.35","6","2","",""
"html-keyboard-response","14","65678","0.0-11.0-2.1","60fcf7102d7c9907d95a0920","bdp_rwlrn","Sat Apr 08 2023 09:56:54 GMT-0700 (PDT)","371530","Untrustworthy,Trustworthy","","null","","","","decisionFB","","<div class='trialDiv'><img src='Fruit/grapes.png'><br><font class='baseline'><strong>Great Grapes</strong><p>Choose number of points to bet.</font><div class='respPicDiv'><img src='img/responseButtonOffersNo0L2.png' class='respPic'></div></div>","null","1","Great Grapes","Fruit/grapes.png","Won","0.35,0.8","8","0.35","4","2","",""
"html-keyboard-response","15","66681","0.0-11.0-3.1","60fcf7102d7c9907d95a0920","bdp_rwlrn","Sat Apr 08 2023 09:56:54 GMT-0700 (PDT)","371530","Untrustworthy,Trustworthy","","null","","","","feedback","","<div class='respPicDiv'><img src='img/responseButtonOffersNo0_wht.png' class='respPic'></div><div class='trialDiv'><img src='Fruit/grapes.png'><br><font class='baseline'><strong>Great Grapes</strong><p><strong><font class='posOutcome'>You WON</font><p>You bet: 2</strong></font> &nbsp; &nbsp; &nbsp; &nbsp; &nbsp; &nbsp;<font class='posOutcome'>you receive: <strong>4</strong></font></div>","null","1","Great Grapes","Fruit/grapes.png","Won","0.35,0.8","8","0.35","8","2","",""
"html-keyboard-response","16","68064","0.0-11.0-1.2","60fcf7102d7c9907d95a0920","bdp_rwlrn","Sat Apr 08 2023 09:56:54 GMT-0700 (PDT)","371530","Untrustworthy,Trustworthy","","1380","","","","decision","","<div class='trialDiv'><img src='Fruit/orange.png'><br><font class='baseline'><strong>Odds are Orange</strong><p>Choose number of points to bet.</font><div class='respPicDiv'><img src='img/responseButtonOffersNo0L.png' class='respPic'></div></div>","4","1","Odds are Orange","Fruit/orange.png","Lost","0.2,0.8","12","0.2","13","3","",""
"html-keyboard-response","17","68316","0.0-11.0-2.2","60fcf7102d7c9907d95a0920","bdp_rwlrn","Sat Apr 08 2023 09:56:54 GMT-0700 (PDT)","371530","Untrustworthy,Trustworthy","","null","","","","decisionFB","","<div class='trialDiv'><img src='Fruit/orange.png'><br><font class='baseline'><strong>Odds are Orange</strong><p>Choose number of points to bet.</font><div class='respPicDiv'><img src='img/responseButtonOffersNo0L4.png' class='respPic'></div></div>","null","1","Odds are Orange","Fruit/orange.png","Lost","0.2,0.8","12","0.2","9","3","",""
"html-keyboard-response","18","69319","0.0-11.0-3.2","60fcf7102d7c9907d95a0920","bdp_rwlrn","Sat Apr 08 2023 09:56:54 GMT-0700 (PDT)","371530","Untrustworthy,Trustworthy","","null","","","","feedback","","<div class='respPicDiv'><img src='img/responseButtonOffersNo0_wht.png' class='respPic'></div><div class='trialDiv'><img src='Fruit/orange.png'><br><font class='baseline'><strong>Odds are Orange</strong><p><strong><font class='negOutcome'>You LOST</font><p>You bet: 4</strong></font> &nbsp; &nbsp; &nbsp; &nbsp; &nbsp; &nbsp;<font class='negOutcome'>You receive: <strong>0</strong></font></div>","null","1","Odds are Orange","Fruit/orange.png","Lost","0.2,0.8","12","0.2","9","3","",""
"html-keyboard-response","19","70940","0.0-11.0-1.3","60fcf7102d7c9907d95a0920","bdp_rwlrn","Sat Apr 08 2023 09:56:54 GMT-0700 (PDT)","371530","Untrustworthy,Trustworthy","","1620","","","","decision","","<div class='trialDiv'><img src='Fruit/pineapple.png'><br><font class='baseline'><strong>Primo Pineapple</strong><p>Choose number of points to bet.</font><div class='respPicDiv'><img src='img/responseButtonOffersNo0L.png' class='respPic'></div></div>","1","2","Primo Pineapple","Fruit/pineapple.png","Lost","0.65,0.2","13","0.65","14","4","",""
"html-keyboard-response","20","71193","0.0-11.0-2.3","60fcf7102d7c9907d95a0920","bdp_rwlrn","Sat Apr 08 2023 09:56:54 GMT-0700 (PDT)","371530","Untrustworthy,Trustworthy","","null","","","","decisionFB","","<div class='trialDiv'><img src='Fruit/pineapple.png'><br><font class='baseline'><strong>Primo Pineapple</strong><p>Choose number of points to bet.</font><div class='respPicDiv'><img src='img/responseButtonOffersNo0L1.png' class='respPic'></div></div>","null","2","Primo Pineapple","Fruit/pineapple.png","Lost","0.65,0.2","13","0.65","13","4","",""
"html-keyboard-response","21","72195","0.0-11.0-3.3","60fcf7102d7c9907d95a0920","bdp_rwlrn","Sat Apr 08 2023 09:56:54 GMT-0700 (PDT)","371530","Untrustworthy,Trustworthy","","null","","","","feedback","","<div class='respPicDiv'><img src='img/responseButtonOffersNo0_wht.png' class='respPic'></div><div class='trialDiv'><img src='Fruit/pineapple.png'><br><font class='baseline'><strong>Primo Pineapple</strong><p><strong><font class='negOutcome'>You LOST</font><p>You bet: 1</strong></font> &nbsp; &nbsp; &nbsp; &nbsp; &nbsp; &nbsp;<font class='negOutcome'>You receive: <strong>0</strong></font></div>","null","2","Primo Pineapple","Fruit/pineapple.png","Lost","0.65,0.2","13","0.65","13","4","",""
"html-keyboard-response","22","73659","0.0-11.0-1.4","60fcf7102d7c9907d95a0920","bdp_rwlrn","Sat Apr 08 2023 09:56:54 GMT-0700 (PDT)","371530","Untrustworthy,Trustworthy","","1463","","","","decision","","<div class='trialDiv'><img src='Fruit/orange.png'><br><font class='baseline'><strong>Odds are Orange</strong><p>Choose number of points to bet.</font><div class='respPicDiv'><img src='img/responseButtonOffersNo0L.png' class='respPic'></div></div>","5","2","Odds are Orange","Fruit/orange.png","Lost","0.2,0.8","12","0.2","18","5","",""
"html-keyboard-response","23","73912","0.0-11.0-2.4","60fcf7102d7c9907d95a0920","bdp_rwlrn","Sat Apr 08 2023 09:56:54 GMT-0700 (PDT)","371530","Untrustworthy,Trustworthy","","null","","","","decisionFB","","<div class='trialDiv'><img src='Fruit/orange.png'><br><font class='baseline'><strong>Odds are Orange</strong><p>Choose number of points to bet.</font><div class='respPicDiv'><img src='img/responseButtonOffersNo0L5.png' class='respPic'></div></div>","null","2","Odds are Orange","Fruit/orange.png","Lost","0.2,0.8","12","0.2","13","5","",""
"html-keyboard-response","24","74914","0.0-11.0-3.4","60fcf7102d7c9907d95a0920","bdp_rwlrn","Sat Apr 08 2023 09:56:54 GMT-0700 (PDT)","371530","Untrustworthy,Trustworthy","","null","","","","feedback","","<div class='respPicDiv'><img src='img/responseButtonOffersNo0_wht.png' class='respPic'></div><div class='trialDiv'><img src='Fruit/orange.png'><br><font class='baseline'><strong>Odds are Orange</strong><p><strong><font class='negOutcome'>You LOST</font><p>You bet: 5</strong></font> &nbsp; &nbsp; &nbsp; &nbsp; &nbsp; &nbsp;<font class='negOutcome'>You receive: <strong>0</strong></font></div>","null","2","Odds are Orange","Fruit/orange.png","Lost","0.2,0.8","12","0.2","13","5","",""
"html-keyboard-response","25","75879","0.0-11.0-1.5","60fcf7102d7c9907d95a0920","bdp_rwlrn","Sat Apr 08 2023 09:56:54 GMT-0700 (PDT)","371530","Untrustworthy,Trustworthy","","964","","","","decision","","<div class='trialDiv'><img src='Fruit/grapes.png'><br><font class='baseline'><strong>Great Grapes</strong><p>Choose number of points to bet.</font><div class='respPicDiv'><img src='img/responseButtonOffersNo0L.png' class='respPic'></div></div>","5","2","Great Grapes","Fruit/grapes.png","Lost","0.35,0.8","8","0.35","18","6","",""
"html-keyboard-response","26","76131","0.0-11.0-2.5","60fcf7102d7c9907d95a0920","bdp_rwlrn","Sat Apr 08 2023 09:56:54 GMT-0700 (PDT)","371530","Untrustworthy,Trustworthy","","null","","","","decisionFB","","<div class='trialDiv'><img src='Fruit/grapes.png'><br><font class='baseline'><strong>Great Grapes</strong><p>Choose number of points to bet.</font><div class='respPicDiv'><img src='img/responseButtonOffersNo0L5.png' class='respPic'></div></div>","null","2","Great Grapes","Fruit/grapes.png","Lost","0.35,0.8","8","0.35","13","6","",""
"html-keyboard-response","27","77134","0.0-11.0-3.5","60fcf7102d7c9907d95a0920","bdp_rwlrn","Sat Apr 08 2023 09:56:54 GMT-0700 (PDT)","371530","Untrustworthy,Trustworthy","","null","","","","feedback","","<div class='respPicDiv'><img src='img/responseButtonOffersNo0_wht.png' class='respPic'></div><div class='trialDiv'><img src='Fruit/grapes.png'><br><font class='baseline'><strong>Great Grapes</strong><p><strong><font class='negOutcome'>You LOST</font><p>You bet: 5</strong></font> &nbsp; &nbsp; &nbsp; &nbsp; &nbsp; &nbsp;<font class='negOutcome'>You receive: <strong>0</strong></font></div>","null","2","Great Grapes","Fruit/grapes.png","Lost","0.35,0.8","8","0.35","13","6","",""
"html-keyboard-response","28","78455","0.0-11.0-1.6","60fcf7102d7c9907d95a0920","bdp_rwlrn","Sat Apr 08 2023 09:56:54 GMT-0700 (PDT)","371530","Untrustworthy,Trustworthy","","1319","","","","decision","","<div class='trialDiv'><img src='Fruit/pineapple.png'><br><font class='baseline'><strong>Primo Pineapple</strong><p>Choose number of points to bet.</font><div class='respPicDiv'><img src='img/responseButtonOffersNo0L.png' class='respPic'></div></div>","1","3","Primo Pineapple","Fruit/pineapple.png","Lost","0.65,0.2","13","0.65","18","7","",""
"html-keyboard-response","29","78707","0.0-11.0-2.6","60fcf7102d7c9907d95a0920","bdp_rwlrn","Sat Apr 08 2023 09:56:54 GMT-0700 (PDT)","371530","Untrustworthy,Trustworthy","","null","","","","decisionFB","","<div class='trialDiv'><img src='Fruit/pineapple.png'><br><font class='baseline'><strong>Primo Pineapple</strong><p>Choose number of points to bet.</font><div class='respPicDiv'><img src='img/responseButtonOffersNo0L1.png' class='respPic'></div></div>","null","3","Primo Pineapple","Fruit/pineapple.png","Lost","0.65,0.2","13","0.65","17","7","",""
"html-keyboard-response","30","79709","0.0-11.0-3.6","60fcf7102d7c9907d95a0920","bdp_rwlrn","Sat Apr 08 2023 09:56:54 GMT-0700 (PDT)","371530","Untrustworthy,Trustworthy","","null","","","","feedback","","<div class='respPicDiv'><img src='img/responseButtonOffersNo0_wht.png' class='respPic'></div><div class='trialDiv'><img src='Fruit/pineapple.png'><br><font class='baseline'><strong>Primo Pineapple</strong><p><strong><font class='negOutcome'>You LOST</font><p>You bet: 1</strong></font> &nbsp; &nbsp; &nbsp; &nbsp; &nbsp; &nbsp;<font class='negOutcome'>You receive: <strong>0</strong></font></div>","null","3","Primo Pineapple","Fruit/pineapple.png","Lost","0.65,0.2","13","0.65","17","7","",""
"html-keyboard-response","31","82197","0.0-11.0-1.7","60fcf7102d7c9907d95a0920","bdp_rwlrn","Sat Apr 08 2023 09:56:54 GMT-0700 (PDT)","371530","Untrustworthy,Trustworthy","","2486","","","","decision","","<div class='trialDiv'><img src='Fruit/orange.png'><br><font class='baseline'><strong>Odds are Orange</strong><p>Choose number of points to bet.</font><div class='respPicDiv'><img src='img/responseButtonOffersNo0L.png' class='respPic'></div></div>","1","3","Odds are Orange","Fruit/orange.png","Lost","0.2,0.8","12","0.2","22","8","",""
"html-keyboard-response","32","82449","0.0-11.0-2.7","60fcf7102d7c9907d95a0920","bdp_rwlrn","Sat Apr 08 2023 09:56:54 GMT-0700 (PDT)","371530","Untrustworthy,Trustworthy","","null","","","","decisionFB","","<div class='trialDiv'><img src='Fruit/orange.png'><br><font class='baseline'><strong>Odds are Orange</strong><p>Choose number of points to bet.</font><div class='respPicDiv'><img src='img/responseButtonOffersNo0L1.png' class='respPic'></div></div>","null","3","Odds are Orange","Fruit/orange.png","Lost","0.2,0.8","12","0.2","21","8","",""
"html-keyboard-response","33","83452","0.0-11.0-3.7","60fcf7102d7c9907d95a0920","bdp_rwlrn","Sat Apr 08 2023 09:56:54 GMT-0700 (PDT)","371530","Untrustworthy,Trustworthy","","null","","","","feedback","","<div class='respPicDiv'><img src='img/responseButtonOffersNo0_wht.png' class='respPic'></div><div class='trialDiv'><img src='Fruit/orange.png'><br><font class='baseline'><strong>Odds are Orange</strong><p><strong><font class='negOutcome'>You LOST</font><p>You bet: 1</strong></font> &nbsp; &nbsp; &nbsp; &nbsp; &nbsp; &nbsp;<font class='negOutcome'>You receive: <strong>0</strong></font></div>","null","3","Odds are Orange","Fruit/orange.png","Lost","0.2,0.8","12","0.2","21","8","",""
"html-keyboard-response","34","84091","0.0-11.0-1.8","60fcf7102d7c9907d95a0920","bdp_rwlrn","Sat Apr 08 2023 09:56:54 GMT-0700 (PDT)","371530","Untrustworthy,Trustworthy","","636","","","","decision","","<div class='trialDiv'><img src='Fruit/grapes.png'><br><font class='baseline'><strong>Great Grapes</strong><p>Choose number of points to bet.</font><div class='respPicDiv'><img src='img/responseButtonOffersNo0L.png' class='respPic'></div></div>","1","3","Great Grapes","Fruit/grapes.png","Lost","0.35,0.8","8","0.35","26","9","",""
"html-keyboard-response","35","84342","0.0-11.0-2.8","60fcf7102d7c9907d95a0920","bdp_rwlrn","Sat Apr 08 2023 09:56:54 GMT-0700 (PDT)","371530","Untrustworthy,Trustworthy","","null","","","","decisionFB","","<div class='trialDiv'><img src='Fruit/grapes.png'><br><font class='baseline'><strong>Great Grapes</strong><p>Choose number of points to bet.</font><div class='respPicDiv'><img src='img/responseButtonOffersNo0L1.png' class='respPic'></div></div>","null","3","Great Grapes","Fruit/grapes.png","Lost","0.35,0.8","8","0.35","25","9","",""
"html-keyboard-response","36","85344","0.0-11.0-3.8","60fcf7102d7c9907d95a0920","bdp_rwlrn","Sat Apr 08 2023 09:56:54 GMT-0700 (PDT)","371530","Untrustworthy,Trustworthy","","null","","","","feedback","","<div class='respPicDiv'><img src='img/responseButtonOffersNo0_wht.png' class='respPic'></div><div class='trialDiv'><img src='Fruit/grapes.png'><br><font class='baseline'><strong>Great Grapes</strong><p><strong><font class='negOutcome'>You LOST</font><p>You bet: 1</strong></font> &nbsp; &nbsp; &nbsp; &nbsp; &nbsp; &nbsp;<font class='negOutcome'>You receive: <strong>0</strong></font></div>","null","3","Great Grapes","Fruit/grapes.png","Lost","0.35,0.8","8","0.35","25","9","",""
"html-keyboard-response","37","85835","0.0-11.0-1.9","60fcf7102d7c9907d95a0920","bdp_rwlrn","Sat Apr 08 2023 09:56:54 GMT-0700 (PDT)","371530","Untrustworthy,Trustworthy","","489","","","","decision","","<div class='trialDiv'><img src='Fruit/orange.png'><br><font class='baseline'><strong>Odds are Orange</strong><p>Choose number of points to bet.</font><div class='respPicDiv'><img src='img/responseButtonOffersNo0L.png' class='respPic'></div></div>","1","4","Odds are Orange","Fruit/orange.png","Won","0.2,0.8","12","0.2","30","10","",""
"html-keyboard-response","38","86086","0.0-11.0-2.9","60fcf7102d7c9907d95a0920","bdp_rwlrn","Sat Apr 08 2023 09:56:54 GMT-0700 (PDT)","371530","Untrustworthy,Trustworthy","","null","","","","decisionFB","","<div class='trialDiv'><img src='Fruit/orange.png'><br><font class='baseline'><strong>Odds are Orange</strong><p>Choose number of points to bet.</font><div class='respPicDiv'><img src='img/responseButtonOffersNo0L1.png' class='respPic'></div></div>","null","4","Odds are Orange","Fruit/orange.png","Won","0.2,0.8","12","0.2","29","10","",""
"html-keyboard-response","39","87089","0.0-11.0-3.9","60fcf7102d7c9907d95a0920","bdp_rwlrn","Sat Apr 08 2023 09:56:54 GMT-0700 (PDT)","371530","Untrustworthy,Trustworthy","","null","","","","feedback","","<div class='respPicDiv'><img src='img/responseButtonOffersNo0_wht.png' class='respPic'></div><div class='trialDiv'><img src='Fruit/orange.png'><br><font class='baseline'><strong>Odds are Orange</strong><p><strong><font class='posOutcome'>You WON</font><p>You bet: 1</strong></font> &nbsp; &nbsp; &nbsp; &nbsp; &nbsp; &nbsp;<font class='posOutcome'>you receive: <strong>2</strong></font></div>","null","4","Odds are Orange","Fruit/orange.png","Won","0.2,0.8","12","0.2","31","10","",""
"html-keyboard-response","40","88275","0.0-11.0-1.10","60fcf7102d7c9907d95a0920","bdp_rwlrn","Sat Apr 08 2023 09:56:54 GMT-0700 (PDT)","371530","Untrustworthy,Trustworthy","","1184","","","","decision","","<div class='trialDiv'><img src='Fruit/pineapple.png'><br><font class='baseline'><strong>Primo Pineapple</strong><p>Choose number of points to bet.</font><div class='respPicDiv'><img src='img/responseButtonOffersNo0L.png' class='respPic'></div></div>","1","4","Primo Pineapple","Fruit/pineapple.png","Won","0.65,0.2","13","0.65","36","11","",""
"html-keyboard-response","41","88526","0.0-11.0-2.10","60fcf7102d7c9907d95a0920","bdp_rwlrn","Sat Apr 08 2023 09:56:54 GMT-0700 (PDT)","371530","Untrustworthy,Trustworthy","","null","","","","decisionFB","","<div class='trialDiv'><img src='Fruit/pineapple.png'><br><font class='baseline'><strong>Primo Pineapple</strong><p>Choose number of points to bet.</font><div class='respPicDiv'><img src='img/responseButtonOffersNo0L1.png' class='respPic'></div></div>","null","4","Primo Pineapple","Fruit/pineapple.png","Won","0.65,0.2","13","0.65","35","11","",""
"html-keyboard-response","42","89528","0.0-11.0-3.10","60fcf7102d7c9907d95a0920","bdp_rwlrn","Sat Apr 08 2023 09:56:54 GMT-0700 (PDT)","371530","Untrustworthy,Trustworthy","","null","","","","feedback","","<div class='respPicDiv'><img src='img/responseButtonOffersNo0_wht.png' class='respPic'></div><div class='trialDiv'><img src='Fruit/pineapple.png'><br><font class='baseline'><strong>Primo Pineapple</strong><p><strong><font class='posOutcome'>You WON</font><p>You bet: 1</strong></font> &nbsp; &nbsp; &nbsp; &nbsp; &nbsp; &nbsp;<font class='posOutcome'>you receive: <strong>2</strong></font></div>","null","4","Primo Pineapple","Fruit/pineapple.png","Won","0.65,0.2","13","0.65","37","11","",""
"html-keyboard-response","43","90237","0.0-11.0-1.11","60fcf7102d7c9907d95a0920","bdp_rwlrn","Sat Apr 08 2023 09:56:54 GMT-0700 (PDT)","371530","Untrustworthy,Trustworthy","","708","","","","decision","","<div class='trialDiv'><img src='Fruit/grapes.png'><br><font class='baseline'><strong>Great Grapes</strong><p>Choose number of points to bet.</font><div class='respPicDiv'><img src='img/responseButtonOffersNo0L.png' class='respPic'></div></div>","1","4","Great Grapes","Fruit/grapes.png","Won","0.35,0.8","8","0.35","42","12","",""
"html-keyboard-response","44","90490","0.0-11.0-2.11","60fcf7102d7c9907d95a0920","bdp_rwlrn","Sat Apr 08 2023 09:56:54 GMT-0700 (PDT)","371530","Untrustworthy,Trustworthy","","null","","","","decisionFB","","<div class='trialDiv'><img src='Fruit/grapes.png'><br><font class='baseline'><strong>Great Grapes</strong><p>Choose number of points to bet.</font><div class='respPicDiv'><img src='img/responseButtonOffersNo0L1.png' class='respPic'></div></div>","null","4","Great Grapes","Fruit/grapes.png","Won","0.35,0.8","8","0.35","41","12","",""
"html-keyboard-response","45","91492","0.0-11.0-3.11","60fcf7102d7c9907d95a0920","bdp_rwlrn","Sat Apr 08 2023 09:56:54 GMT-0700 (PDT)","371530","Untrustworthy,Trustworthy","","null","","","","feedback","","<div class='respPicDiv'><img src='img/responseButtonOffersNo0_wht.png' class='respPic'></div><div class='trialDiv'><img src='Fruit/grapes.png'><br><font class='baseline'><strong>Great Grapes</strong><p><strong><font class='posOutcome'>You WON</font><p>You bet: 1</strong></font> &nbsp; &nbsp; &nbsp; &nbsp; &nbsp; &nbsp;<font class='posOutcome'>you receive: <strong>2</strong></font></div>","null","4","Great Grapes","Fruit/grapes.png","Won","0.35,0.8","8","0.35","43","12","",""
"html-keyboard-response","46","93025","0.0-11.0-1.12","60fcf7102d7c9907d95a0920","bdp_rwlrn","Sat Apr 08 2023 09:56:54 GMT-0700 (PDT)","371530","Untrustworthy,Trustworthy","","1531","","","","decision","","<div class='trialDiv'><img src='Fruit/orange.png'><br><font class='baseline'><strong>Odds are Orange</strong><p>Choose number of points to bet.</font><div class='respPicDiv'><img src='img/responseButtonOffersNo0L.png' class='respPic'></div></div>","4","5","Odds are Orange","Fruit/orange.png","Lost","0.2,0.8","12","0.2","48","13","",""
"html-keyboard-response","47","93277","0.0-11.0-2.12","60fcf7102d7c9907d95a0920","bdp_rwlrn","Sat Apr 08 2023 09:56:54 GMT-0700 (PDT)","371530","Untrustworthy,Trustworthy","","null","","","","decisionFB","","<div class='trialDiv'><img src='Fruit/orange.png'><br><font class='baseline'><strong>Odds are Orange</strong><p>Choose number of points to bet.</font><div class='respPicDiv'><img src='img/responseButtonOffersNo0L4.png' class='respPic'></div></div>","null","5","Odds are Orange","Fruit/orange.png","Lost","0.2,0.8","12","0.2","44","13","",""
"html-keyboard-response","48","94280","0.0-11.0-3.12","60fcf7102d7c9907d95a0920","bdp_rwlrn","Sat Apr 08 2023 09:56:54 GMT-0700 (PDT)","371530","Untrustworthy,Trustworthy","","null","","","","feedback","","<div class='respPicDiv'><img src='img/responseButtonOffersNo0_wht.png' class='respPic'></div><div class='trialDiv'><img src='Fruit/orange.png'><br><font class='baseline'><strong>Odds are Orange</strong><p><strong><font class='negOutcome'>You LOST</font><p>You bet: 4</strong></font> &nbsp; &nbsp; &nbsp; &nbsp; &nbsp; &nbsp;<font class='negOutcome'>You receive: <strong>0</strong></font></div>","null","5","Odds are Orange","Fruit/orange.png","Lost","0.2,0.8","12","0.2","44","13","",""
"html-keyboard-response","49","95123","0.0-11.0-1.13","60fcf7102d7c9907d95a0920","bdp_rwlrn","Sat Apr 08 2023 09:56:54 GMT-0700 (PDT)","371530","Untrustworthy,Trustworthy","","842","","","","decision","","<div class='trialDiv'><img src='Fruit/pineapple.png'><br><font class='baseline'><strong>Primo Pineapple</strong><p>Choose number of points to bet.</font><div class='respPicDiv'><img src='img/responseButtonOffersNo0L.png' class='respPic'></div></div>","3","5","Primo Pineapple","Fruit/pineapple.png","Won","0.65,0.2","13","0.65","49","14","",""
"html-keyboard-response","50","95375","0.0-11.0-2.13","60fcf7102d7c9907d95a0920","bdp_rwlrn","Sat Apr 08 2023 09:56:54 GMT-0700 (PDT)","371530","Untrustworthy,Trustworthy","","null","","","","decisionFB","","<div class='trialDiv'><img src='Fruit/pineapple.png'><br><font class='baseline'><strong>Primo Pineapple</strong><p>Choose number of points to bet.</font><div class='respPicDiv'><img src='img/responseButtonOffersNo0L3.png' class='respPic'></div></div>","null","5","Primo Pineapple","Fruit/pineapple.png","Won","0.65,0.2","13","0.65","46","14","",""
"html-keyboard-response","51","96377","0.0-11.0-3.13","60fcf7102d7c9907d95a0920","bdp_rwlrn","Sat Apr 08 2023 09:56:54 GMT-0700 (PDT)","371530","Untrustworthy,Trustworthy","","null","","","","feedback","","<div class='respPicDiv'><img src='img/responseButtonOffersNo0_wht.png' class='respPic'></div><div class='trialDiv'><img src='Fruit/pineapple.png'><br><font class='baseline'><strong>Primo Pineapple</strong><p><strong><font class='posOutcome'>You WON</font><p>You bet: 3</strong></font> &nbsp; &nbsp; &nbsp; &nbsp; &nbsp; &nbsp;<font class='posOutcome'>you receive: <strong>6</strong></font></div>","null","5","Primo Pineapple","Fruit/pineapple.png","Won","0.65,0.2","13","0.65","52","14","",""
"html-keyboard-response","52","97589","0.0-11.0-1.14","60fcf7102d7c9907d95a0920","bdp_rwlrn","Sat Apr 08 2023 09:56:54 GMT-0700 (PDT)","371530","Untrustworthy,Trustworthy","","1209","","","","decision","","<div class='trialDiv'><img src='Fruit/grapes.png'><br><font class='baseline'><strong>Great Grapes</strong><p>Choose number of points to bet.</font><div class='respPicDiv'><img src='img/responseButtonOffersNo0L.png' class='respPic'></div></div>","2","5","Great Grapes","Fruit/grapes.png","Lost","0.35,0.8","8","0.35","57","15","",""
"html-keyboard-response","53","97842","0.0-11.0-2.14","60fcf7102d7c9907d95a0920","bdp_rwlrn","Sat Apr 08 2023 09:56:54 GMT-0700 (PDT)","371530","Untrustworthy,Trustworthy","","null","","","","decisionFB","","<div class='trialDiv'><img src='Fruit/grapes.png'><br><font class='baseline'><strong>Great Grapes</strong><p>Choose number of points to bet.</font><div class='respPicDiv'><img src='img/responseButtonOffersNo0L2.png' class='respPic'></div></div>","null","5","Great Grapes","Fruit/grapes.png","Lost","0.35,0.8","8","0.35","55","15","",""
"html-keyboard-response","54","98843","0.0-11.0-3.14","60fcf7102d7c9907d95a0920","bdp_rwlrn","Sat Apr 08 2023 09:56:54 GMT-0700 (PDT)","371530","Untrustworthy,Trustworthy","","null","","","","feedback","","<div class='respPicDiv'><img src='img/responseButtonOffersNo0_wht.png' class='respPic'></div><div class='trialDiv'><img src='Fruit/grapes.png'><br><font class='baseline'><strong>Great Grapes</strong><p><strong><font class='negOutcome'>You LOST</font><p>You bet: 2</strong></font> &nbsp; &nbsp; &nbsp; &nbsp; &nbsp; &nbsp;<font class='negOutcome'>You receive: <strong>0</strong></font></div>","null","5","Great Grapes","Fruit/grapes.png","Lost","0.35,0.8","8","0.35","55","15","",""
"html-keyboard-response","55","99861","0.0-11.0-1.15","60fcf7102d7c9907d95a0920","bdp_rwlrn","Sat Apr 08 2023 09:56:54 GMT-0700 (PDT)","371530","Untrustworthy,Trustworthy","","1016","","","","decision","","<div class='trialDiv'><img src='Fruit/pineapple.png'><br><font class='baseline'><strong>Primo Pineapple</strong><p>Choose number of points to bet.</font><div class='respPicDiv'><img src='img/responseButtonOffersNo0L.png' class='respPic'></div></div>","5","6","Primo Pineapple","Fruit/pineapple.png","Won","0.65,0.2","13","0.65","60","16","",""
"html-keyboard-response","56","100113","0.0-11.0-2.15","60fcf7102d7c9907d95a0920","bdp_rwlrn","Sat Apr 08 2023 09:56:54 GMT-0700 (PDT)","371530","Untrustworthy,Trustworthy","","null","","","","decisionFB","","<div class='trialDiv'><img src='Fruit/pineapple.png'><br><font class='baseline'><strong>Primo Pineapple</strong><p>Choose number of points to bet.</font><div class='respPicDiv'><img src='img/responseButtonOffersNo0L5.png' class='respPic'></div></div>","null","6","Primo Pineapple","Fruit/pineapple.png","Won","0.65,0.2","13","0.65","55","16","",""
"html-keyboard-response","57","101118","0.0-11.0-3.15","60fcf7102d7c9907d95a0920","bdp_rwlrn","Sat Apr 08 2023 09:56:54 GMT-0700 (PDT)","371530","Untrustworthy,Trustworthy","","null","","","","feedback","","<div class='respPicDiv'><img src='img/responseButtonOffersNo0_wht.png' class='respPic'></div><div class='trialDiv'><img src='Fruit/pineapple.png'><br><font class='baseline'><strong>Primo Pineapple</strong><p><strong><font class='posOutcome'>You WON</font><p>You bet: 5</strong></font> &nbsp; &nbsp; &nbsp; &nbsp; &nbsp; &nbsp;<font class='posOutcome'>you receive: <strong>10</strong></font></div>","null","6","Primo Pineapple","Fruit/pineapple.png","Won","0.65,0.2","13","0.65","65","16","",""
"html-keyboard-response","58","102539","0.0-11.0-1.16","60fcf7102d7c9907d95a0920","bdp_rwlrn","Sat Apr 08 2023 09:56:54 GMT-0700 (PDT)","371530","Untrustworthy,Trustworthy","","1420","","","","decision","","<div class='trialDiv'><img src='Fruit/grapes.png'><br><font class='baseline'><strong>Great Grapes</strong><p>Choose number of points to bet.</font><div class='respPicDiv'><img src='img/responseButtonOffersNo0L.png' class='respPic'></div></div>","2","6","Great Grapes","Fruit/grapes.png","Won","0.35,0.8","8","0.35","70","17","",""
"html-keyboard-response","59","102791","0.0-11.0-2.16","60fcf7102d7c9907d95a0920","bdp_rwlrn","Sat Apr 08 2023 09:56:54 GMT-0700 (PDT)","371530","Untrustworthy,Trustworthy","","null","","","","decisionFB","","<div class='trialDiv'><img src='Fruit/grapes.png'><br><font class='baseline'><strong>Great Grapes</strong><p>Choose number of points to bet.</font><div class='respPicDiv'><img src='img/responseButtonOffersNo0L2.png' class='respPic'></div></div>","null","6","Great Grapes","Fruit/grapes.png","Won","0.35,0.8","8","0.35","68","17","",""
"html-keyboard-response","60","103794","0.0-11.0-3.16","60fcf7102d7c9907d95a0920","bdp_rwlrn","Sat Apr 08 2023 09:56:54 GMT-0700 (PDT)","371530","Untrustworthy,Trustworthy","","null","","","","feedback","","<div class='respPicDiv'><img src='img/responseButtonOffersNo0_wht.png' class='respPic'></div><div class='trialDiv'><img src='Fruit/grapes.png'><br><font class='baseline'><strong>Great Grapes</strong><p><strong><font class='posOutcome'>You WON</font><p>You bet: 2</strong></font> &nbsp; &nbsp; &nbsp; &nbsp; &nbsp; &nbsp;<font class='posOutcome'>you receive: <strong>4</strong></font></div>","null","6","Great Grapes","Fruit/grapes.png","Won","0.35,0.8","8","0.35","72","17","",""
"html-keyboard-response","61","104272","0.0-11.0-1.17","60fcf7102d7c9907d95a0920","bdp_rwlrn","Sat Apr 08 2023 09:56:54 GMT-0700 (PDT)","371530","Untrustworthy,Trustworthy","","477","","","","decision","","<div class='trialDiv'><img src='Fruit/orange.png'><br><font class='baseline'><strong>Odds are Orange</strong><p>Choose number of points to bet.</font><div class='respPicDiv'><img src='img/responseButtonOffersNo0L.png' class='respPic'></div></div>","2","6","Odds are Orange","Fruit/orange.png","Lost","0.2,0.8","12","0.2","77","18","",""
"html-keyboard-response","62","104524","0.0-11.0-2.17","60fcf7102d7c9907d95a0920","bdp_rwlrn","Sat Apr 08 2023 09:56:54 GMT-0700 (PDT)","371530","Untrustworthy,Trustworthy","","null","","","","decisionFB","","<div class='trialDiv'><img src='Fruit/orange.png'><br><font class='baseline'><strong>Odds are Orange</strong><p>Choose number of points to bet.</font><div class='respPicDiv'><img src='img/responseButtonOffersNo0L2.png' class='respPic'></div></div>","null","6","Odds are Orange","Fruit/orange.png","Lost","0.2,0.8","12","0.2","75","18","",""
"html-keyboard-response","63","105525","0.0-11.0-3.17","60fcf7102d7c9907d95a0920","bdp_rwlrn","Sat Apr 08 2023 09:56:54 GMT-0700 (PDT)","371530","Untrustworthy,Trustworthy","","null","","","","feedback","","<div class='respPicDiv'><img src='img/responseButtonOffersNo0_wht.png' class='respPic'></div><div class='trialDiv'><img src='Fruit/orange.png'><br><font class='baseline'><strong>Odds are Orange</strong><p><strong><font class='negOutcome'>You LOST</font><p>You bet: 2</strong></font> &nbsp; &nbsp; &nbsp; &nbsp; &nbsp; &nbsp;<font class='negOutcome'>You receive: <strong>0</strong></font></div>","null","6","Odds are Orange","Fruit/orange.png","Lost","0.2,0.8","12","0.2","75","18","",""
"html-keyboard-response","64","106492","0.0-11.0-1.18","60fcf7102d7c9907d95a0920","bdp_rwlrn","Sat Apr 08 2023 09:56:54 GMT-0700 (PDT)","371530","Untrustworthy,Trustworthy","","965","","","","decision","","<div class='trialDiv'><img src='Fruit/pineapple.png'><br><font class='baseline'><strong>Primo Pineapple</strong><p>Choose number of points to bet.</font><div class='respPicDiv'><img src='img/responseButtonOffersNo0L.png' class='respPic'></div></div>","5","7","Primo Pineapple","Fruit/pineapple.png","Won","0.65,0.2","13","0.65","80","19","",""
"html-keyboard-response","65","106744","0.0-11.0-2.18","60fcf7102d7c9907d95a0920","bdp_rwlrn","Sat Apr 08 2023 09:56:54 GMT-0700 (PDT)","371530","Untrustworthy,Trustworthy","","null","","","","decisionFB","","<div class='trialDiv'><img src='Fruit/pineapple.png'><br><font class='baseline'><strong>Primo Pineapple</strong><p>Choose number of points to bet.</font><div class='respPicDiv'><img src='img/responseButtonOffersNo0L5.png' class='respPic'></div></div>","null","7","Primo Pineapple","Fruit/pineapple.png","Won","0.65,0.2","13","0.65","75","19","",""
"html-keyboard-response","66","107746","0.0-11.0-3.18","60fcf7102d7c9907d95a0920","bdp_rwlrn","Sat Apr 08 2023 09:56:54 GMT-0700 (PDT)","371530","Untrustworthy,Trustworthy","","null","","","","feedback","","<div class='respPicDiv'><img src='img/responseButtonOffersNo0_wht.png' class='respPic'></div><div class='trialDiv'><img src='Fruit/pineapple.png'><br><font class='baseline'><strong>Primo Pineapple</strong><p><strong><font class='posOutcome'>You WON</font><p>You bet: 5</strong></font> &nbsp; &nbsp; &nbsp; &nbsp; &nbsp; &nbsp;<font class='posOutcome'>you receive: <strong>10</strong></font></div>","null","7","Primo Pineapple","Fruit/pineapple.png","Won","0.65,0.2","13","0.65","85","19","",""
"html-keyboard-response","67","108674","0.0-11.0-1.19","60fcf7102d7c9907d95a0920","bdp_rwlrn","Sat Apr 08 2023 09:56:54 GMT-0700 (PDT)","371530","Untrustworthy,Trustworthy","","927","","","","decision","","<div class='trialDiv'><img src='Fruit/orange.png'><br><font class='baseline'><strong>Odds are Orange</strong><p>Choose number of points to bet.</font><div class='respPicDiv'><img src='img/responseButtonOffersNo0L.png' class='respPic'></div></div>","1","7","Odds are Orange","Fruit/orange.png","Lost","0.2,0.8","12","0.2","90","20","",""
"html-keyboard-response","68","108926","0.0-11.0-2.19","60fcf7102d7c9907d95a0920","bdp_rwlrn","Sat Apr 08 2023 09:56:54 GMT-0700 (PDT)","371530","Untrustworthy,Trustworthy","","null","","","","decisionFB","","<div class='trialDiv'><img src='Fruit/orange.png'><br><font class='baseline'><strong>Odds are Orange</strong><p>Choose number of points to bet.</font><div class='respPicDiv'><img src='img/responseButtonOffersNo0L1.png' class='respPic'></div></div>","null","7","Odds are Orange","Fruit/orange.png","Lost","0.2,0.8","12","0.2","89","20","",""
"html-keyboard-response","69","109929","0.0-11.0-3.19","60fcf7102d7c9907d95a0920","bdp_rwlrn","Sat Apr 08 2023 09:56:54 GMT-0700 (PDT)","371530","Untrustworthy,Trustworthy","","null","","","","feedback","","<div class='respPicDiv'><img src='img/responseButtonOffersNo0_wht.png' class='respPic'></div><div class='trialDiv'><img src='Fruit/orange.png'><br><font class='baseline'><strong>Odds are Orange</strong><p><strong><font class='negOutcome'>You LOST</font><p>You bet: 1</strong></font> &nbsp; &nbsp; &nbsp; &nbsp; &nbsp; &nbsp;<font class='negOutcome'>You receive: <strong>0</strong></font></div>","null","7","Odds are Orange","Fruit/orange.png","Lost","0.2,0.8","12","0.2","89","20","",""
"html-keyboard-response","70","110773","0.0-11.0-1.20","60fcf7102d7c9907d95a0920","bdp_rwlrn","Sat Apr 08 2023 09:56:54 GMT-0700 (PDT)","371530","Untrustworthy,Trustworthy","","842","","","","decision","","<div class='trialDiv'><img src='Fruit/grapes.png'><br><font class='baseline'><strong>Great Grapes</strong><p>Choose number of points to bet.</font><div class='respPicDiv'><img src='img/responseButtonOffersNo0L.png' class='respPic'></div></div>","4","7","Great Grapes","Fruit/grapes.png","Won","0.35,0.8","8","0.35","94","21","",""
"html-keyboard-response","71","111025","0.0-11.0-2.20","60fcf7102d7c9907d95a0920","bdp_rwlrn","Sat Apr 08 2023 09:56:54 GMT-0700 (PDT)","371530","Untrustworthy,Trustworthy","","null","","","","decisionFB","","<div class='trialDiv'><img src='Fruit/grapes.png'><br><font class='baseline'><strong>Great Grapes</strong><p>Choose number of points to bet.</font><div class='respPicDiv'><img src='img/responseButtonOffersNo0L4.png' class='respPic'></div></div>","null","7","Great Grapes","Fruit/grapes.png","Won","0.35,0.8","8","0.35","90","21","",""
"html-keyboard-response","72","112027","0.0-11.0-3.20","60fcf7102d7c9907d95a0920","bdp_rwlrn","Sat Apr 08 2023 09:56:54 GMT-0700 (PDT)","371530","Untrustworthy,Trustworthy","","null","","","","feedback","","<div class='respPicDiv'><img src='img/responseButtonOffersNo0_wht.png' class='respPic'></div><div class='trialDiv'><img src='Fruit/grapes.png'><br><font class='baseline'><strong>Great Grapes</strong><p><strong><font class='posOutcome'>You WON</font><p>You bet: 4</strong></font> &nbsp; &nbsp; &nbsp; &nbsp; &nbsp; &nbsp;<font class='posOutcome'>you receive: <strong>8</strong></font></div>","null","7","Great Grapes","Fruit/grapes.png","Won","0.35,0.8","8","0.35","98","21","",""
"html-keyboard-response","73","112970","0.0-11.0-1.21","60fcf7102d7c9907d95a0920","bdp_rwlrn","Sat Apr 08 2023 09:56:54 GMT-0700 (PDT)","371530","Untrustworthy,Trustworthy","","942","","","","decision","","<div class='trialDiv'><img src='Fruit/orange.png'><br><font class='baseline'><strong>Odds are Orange</strong><p>Choose number of points to bet.</font><div class='respPicDiv'><img src='img/responseButtonOffersNo0L.png' class='respPic'></div></div>","1","8","Odds are Orange","Fruit/orange.png","Lost","0.2,0.8","12","0.2","103","22","",""
"html-keyboard-response","74","113223","0.0-11.0-2.21","60fcf7102d7c9907d95a0920","bdp_rwlrn","Sat Apr 08 2023 09:56:54 GMT-0700 (PDT)","371530","Untrustworthy,Trustworthy","","null","","","","decisionFB","","<div class='trialDiv'><img src='Fruit/orange.png'><br><font class='baseline'><strong>Odds are Orange</strong><p>Choose number of points to bet.</font><div class='respPicDiv'><img src='img/responseButtonOffersNo0L1.png' class='respPic'></div></div>","null","8","Odds are Orange","Fruit/orange.png","Lost","0.2,0.8","12","0.2","102","22","",""
"html-keyboard-response","75","114225","0.0-11.0-3.21","60fcf7102d7c9907d95a0920","bdp_rwlrn","Sat Apr 08 2023 09:56:54 GMT-0700 (PDT)","371530","Untrustworthy,Trustworthy","","null","","","","feedback","","<div class='respPicDiv'><img src='img/responseButtonOffersNo0_wht.png' class='respPic'></div><div class='trialDiv'><img src='Fruit/orange.png'><br><font class='baseline'><strong>Odds are Orange</strong><p><strong><font class='negOutcome'>You LOST</font><p>You bet: 1</strong></font> &nbsp; &nbsp; &nbsp; &nbsp; &nbsp; &nbsp;<font class='negOutcome'>You receive: <strong>0</strong></font></div>","null","8","Odds are Orange","Fruit/orange.png","Lost","0.2,0.8","12","0.2","102","22","",""
"html-keyboard-response","76","114974","0.0-11.0-1.22","60fcf7102d7c9907d95a0920","bdp_rwlrn","Sat Apr 08 2023 09:56:54 GMT-0700 (PDT)","371530","Untrustworthy,Trustworthy","","747","","","","decision","","<div class='trialDiv'><img src='Fruit/pineapple.png'><br><font class='baseline'><strong>Primo Pineapple</strong><p>Choose number of points to bet.</font><div class='respPicDiv'><img src='img/responseButtonOffersNo0L.png' class='respPic'></div></div>","5","8","Primo Pineapple","Fruit/pineapple.png","Lost","0.65,0.2","13","0.65","107","23","",""
"html-keyboard-response","77","115225","0.0-11.0-2.22","60fcf7102d7c9907d95a0920","bdp_rwlrn","Sat Apr 08 2023 09:56:54 GMT-0700 (PDT)","371530","Untrustworthy,Trustworthy","","null","","","","decisionFB","","<div class='trialDiv'><img src='Fruit/pineapple.png'><br><font class='baseline'><strong>Primo Pineapple</strong><p>Choose number of points to bet.</font><div class='respPicDiv'><img src='img/responseButtonOffersNo0L5.png' class='respPic'></div></div>","null","8","Primo Pineapple","Fruit/pineapple.png","Lost","0.65,0.2","13","0.65","102","23","",""
"html-keyboard-response","78","116228","0.0-11.0-3.22","60fcf7102d7c9907d95a0920","bdp_rwlrn","Sat Apr 08 2023 09:56:54 GMT-0700 (PDT)","371530","Untrustworthy,Trustworthy","","null","","","","feedback","","<div class='respPicDiv'><img src='img/responseButtonOffersNo0_wht.png' class='respPic'></div><div class='trialDiv'><img src='Fruit/pineapple.png'><br><font class='baseline'><strong>Primo Pineapple</strong><p><strong><font class='negOutcome'>You LOST</font><p>You bet: 5</strong></font> &nbsp; &nbsp; &nbsp; &nbsp; &nbsp; &nbsp;<font class='negOutcome'>You receive: <strong>0</strong></font></div>","null","8","Primo Pineapple","Fruit/pineapple.png","Lost","0.65,0.2","13","0.65","102","23","",""
"html-keyboard-response","79","117496","0.0-11.0-1.23","60fcf7102d7c9907d95a0920","bdp_rwlrn","Sat Apr 08 2023 09:56:54 GMT-0700 (PDT)","371530","Untrustworthy,Trustworthy","","1266","","","","decision","","<div class='trialDiv'><img src='Fruit/grapes.png'><br><font class='baseline'><strong>Great Grapes</strong><p>Choose number of points to bet.</font><div class='respPicDiv'><img src='img/responseButtonOffersNo0L.png' class='respPic'></div></div>","5","8","Great Grapes","Fruit/grapes.png","Lost","0.35,0.8","8","0.35","107","24","",""
"html-keyboard-response","80","117748","0.0-11.0-2.23","60fcf7102d7c9907d95a0920","bdp_rwlrn","Sat Apr 08 2023 09:56:54 GMT-0700 (PDT)","371530","Untrustworthy,Trustworthy","","null","","","","decisionFB","","<div class='trialDiv'><img src='Fruit/grapes.png'><br><font class='baseline'><strong>Great Grapes</strong><p>Choose number of points to bet.</font><div class='respPicDiv'><img src='img/responseButtonOffersNo0L5.png' class='respPic'></div></div>","null","8","Great Grapes","Fruit/grapes.png","Lost","0.35,0.8","8","0.35","102","24","",""
"html-keyboard-response","81","118750","0.0-11.0-3.23","60fcf7102d7c9907d95a0920","bdp_rwlrn","Sat Apr 08 2023 09:56:54 GMT-0700 (PDT)","371530","Untrustworthy,Trustworthy","","null","","","","feedback","","<div class='respPicDiv'><img src='img/responseButtonOffersNo0_wht.png' class='respPic'></div><div class='trialDiv'><img src='Fruit/grapes.png'><br><font class='baseline'><strong>Great Grapes</strong><p><strong><font class='negOutcome'>You LOST</font><p>You bet: 5</strong></font> &nbsp; &nbsp; &nbsp; &nbsp; &nbsp; &nbsp;<font class='negOutcome'>You receive: <strong>0</strong></font></div>","null","8","Great Grapes","Fruit/grapes.png","Lost","0.35,0.8","8","0.35","102","24","",""
"html-keyboard-response","82","119409","0.0-11.0-1.24","60fcf7102d7c9907d95a0920","bdp_rwlrn","Sat Apr 08 2023 09:56:54 GMT-0700 (PDT)","371530","Untrustworthy,Trustworthy","","658","","","","decision","","<div class='trialDiv'><img src='Fruit/orange.png'><br><font class='baseline'><strong>Odds are Orange</strong><p>Choose number of points to bet.</font><div class='respPicDiv'><img src='img/responseButtonOffersNo0L.png' class='respPic'></div></div>","5","9","Odds are Orange","Fruit/orange.png","Lost","0.2,0.8","12","0.2","107","25","",""
"html-keyboard-response","83","119661","0.0-11.0-2.24","60fcf7102d7c9907d95a0920","bdp_rwlrn","Sat Apr 08 2023 09:56:54 GMT-0700 (PDT)","371530","Untrustworthy,Trustworthy","","null","","","","decisionFB","","<div class='trialDiv'><img src='Fruit/orange.png'><br><font class='baseline'><strong>Odds are Orange</strong><p>Choose number of points to bet.</font><div class='respPicDiv'><img src='img/responseButtonOffersNo0L5.png' class='respPic'></div></div>","null","9","Odds are Orange","Fruit/orange.png","Lost","0.2,0.8","12","0.2","102","25","",""
"html-keyboard-response","84","120664","0.0-11.0-3.24","60fcf7102d7c9907d95a0920","bdp_rwlrn","Sat Apr 08 2023 09:56:54 GMT-0700 (PDT)","371530","Untrustworthy,Trustworthy","","null","","","","feedback","","<div class='respPicDiv'><img src='img/responseButtonOffersNo0_wht.png' class='respPic'></div><div class='trialDiv'><img src='Fruit/orange.png'><br><font class='baseline'><strong>Odds are Orange</strong><p><strong><font class='negOutcome'>You LOST</font><p>You bet: 5</strong></font> &nbsp; &nbsp; &nbsp; &nbsp; &nbsp; &nbsp;<font class='negOutcome'>You receive: <strong>0</strong></font></div>","null","9","Odds are Orange","Fruit/orange.png","Lost","0.2,0.8","12","0.2","102","25","",""
"html-keyboard-response","85","121084","0.0-11.0-1.25","60fcf7102d7c9907d95a0920","bdp_rwlrn","Sat Apr 08 2023 09:56:54 GMT-0700 (PDT)","371530","Untrustworthy,Trustworthy","","418","","","","decision","","<div class='trialDiv'><img src='Fruit/grapes.png'><br><font class='baseline'><strong>Great Grapes</strong><p>Choose number of points to bet.</font><div class='respPicDiv'><img src='img/responseButtonOffersNo0L.png' class='respPic'></div></div>","1","9","Great Grapes","Fruit/grapes.png","Won","0.35,0.8","8","0.35","107","26","",""
"html-keyboard-response","86","121336","0.0-11.0-2.25","60fcf7102d7c9907d95a0920","bdp_rwlrn","Sat Apr 08 2023 09:56:54 GMT-0700 (PDT)","371530","Untrustworthy,Trustworthy","","null","","","","decisionFB","","<div class='trialDiv'><img src='Fruit/grapes.png'><br><font class='baseline'><strong>Great Grapes</strong><p>Choose number of points to bet.</font><div class='respPicDiv'><img src='img/responseButtonOffersNo0L1.png' class='respPic'></div></div>","null","9","Great Grapes","Fruit/grapes.png","Won","0.35,0.8","8","0.35","106","26","",""
"html-keyboard-response","87","122338","0.0-11.0-3.25","60fcf7102d7c9907d95a0920","bdp_rwlrn","Sat Apr 08 2023 09:56:54 GMT-0700 (PDT)","371530","Untrustworthy,Trustworthy","","null","","","","feedback","","<div class='respPicDiv'><img src='img/responseButtonOffersNo0_wht.png' class='respPic'></div><div class='trialDiv'><img src='Fruit/grapes.png'><br><font class='baseline'><strong>Great Grapes</strong><p><strong><font class='posOutcome'>You WON</font><p>You bet: 1</strong></font> &nbsp; &nbsp; &nbsp; &nbsp; &nbsp; &nbsp;<font class='posOutcome'>you receive: <strong>2</strong></font></div>","null","9","Great Grapes","Fruit/grapes.png","Won","0.35,0.8","8","0.35","108","26","",""
"html-keyboard-response","88","123089","0.0-11.0-1.26","60fcf7102d7c9907d95a0920","bdp_rwlrn","Sat Apr 08 2023 09:56:54 GMT-0700 (PDT)","371530","Untrustworthy,Trustworthy","","746","","","","decision","","<div class='trialDiv'><img src='Fruit/pineapple.png'><br><font class='baseline'><strong>Primo Pineapple</strong><p>Choose number of points to bet.</font><div class='respPicDiv'><img src='img/responseButtonOffersNo0L.png' class='respPic'></div></div>","5","9","Primo Pineapple","Fruit/pineapple.png","Lost","0.65,0.2","13","0.65","113","27","",""
"html-keyboard-response","89","123341","0.0-11.0-2.26","60fcf7102d7c9907d95a0920","bdp_rwlrn","Sat Apr 08 2023 09:56:54 GMT-0700 (PDT)","371530","Untrustworthy,Trustworthy","","null","","","","decisionFB","","<div class='trialDiv'><img src='Fruit/pineapple.png'><br><font class='baseline'><strong>Primo Pineapple</strong><p>Choose number of points to bet.</font><div class='respPicDiv'><img src='img/responseButtonOffersNo0L5.png' class='respPic'></div></div>","null","9","Primo Pineapple","Fruit/pineapple.png","Lost","0.65,0.2","13","0.65","108","27","",""
"html-keyboard-response","90","124344","0.0-11.0-3.26","60fcf7102d7c9907d95a0920","bdp_rwlrn","Sat Apr 08 2023 09:56:54 GMT-0700 (PDT)","371530","Untrustworthy,Trustworthy","","null","","","","feedback","","<div class='respPicDiv'><img src='img/responseButtonOffersNo0_wht.png' class='respPic'></div><div class='trialDiv'><img src='Fruit/pineapple.png'><br><font class='baseline'><strong>Primo Pineapple</strong><p><strong><font class='negOutcome'>You LOST</font><p>You bet: 5</strong></font> &nbsp; &nbsp; &nbsp; &nbsp; &nbsp; &nbsp;<font class='negOutcome'>You receive: <strong>0</strong></font></div>","null","9","Primo Pineapple","Fruit/pineapple.png","Lost","0.65,0.2","13","0.65","108","27","",""
"html-keyboard-response","91","125004","0.0-11.0-1.27","60fcf7102d7c9907d95a0920","bdp_rwlrn","Sat Apr 08 2023 09:56:54 GMT-0700 (PDT)","371530","Untrustworthy,Trustworthy","","658","","","","decision","","<div class='trialDiv'><img src='Fruit/grapes.png'><br><font class='baseline'><strong>Great Grapes</strong><p>Choose number of points to bet.</font><div class='respPicDiv'><img src='img/responseButtonOffersNo0L.png' class='respPic'></div></div>","1","10","Great Grapes","Fruit/grapes.png","Won","0.35,0.8","8","0.35","113","28","",""
"html-keyboard-response","92","125255","0.0-11.0-2.27","60fcf7102d7c9907d95a0920","bdp_rwlrn","Sat Apr 08 2023 09:56:54 GMT-0700 (PDT)","371530","Untrustworthy,Trustworthy","","null","","","","decisionFB","","<div class='trialDiv'><img src='Fruit/grapes.png'><br><font class='baseline'><strong>Great Grapes</strong><p>Choose number of points to bet.</font><div class='respPicDiv'><img src='img/responseButtonOffersNo0L1.png' class='respPic'></div></div>","null","10","Great Grapes","Fruit/grapes.png","Won","0.35,0.8","8","0.35","112","28","",""
"html-keyboard-response","93","126257","0.0-11.0-3.27","60fcf7102d7c9907d95a0920","bdp_rwlrn","Sat Apr 08 2023 09:56:54 GMT-0700 (PDT)","371530","Untrustworthy,Trustworthy","","null","","","","feedback","","<div class='respPicDiv'><img src='img/responseButtonOffersNo0_wht.png' class='respPic'></div><div class='trialDiv'><img src='Fruit/grapes.png'><br><font class='baseline'><strong>Great Grapes</strong><p><strong><font class='posOutcome'>You WON</font><p>You bet: 1</strong></font> &nbsp; &nbsp; &nbsp; &nbsp; &nbsp; &nbsp;<font class='posOutcome'>you receive: <strong>2</strong></font></div>","null","10","Great Grapes","Fruit/grapes.png","Won","0.35,0.8","8","0.35","114","28","",""
"html-keyboard-response","94","127080","0.0-11.0-1.28","60fcf7102d7c9907d95a0920","bdp_rwlrn","Sat Apr 08 2023 09:56:54 GMT-0700 (PDT)","371530","Untrustworthy,Trustworthy","","821","","","","decision","","<div class='trialDiv'><img src='Fruit/orange.png'><br><font class='baseline'><strong>Odds are Orange</strong><p>Choose number of points to bet.</font><div class='respPicDiv'><img src='img/responseButtonOffersNo0L.png' class='respPic'></div></div>","1","10","Odds are Orange","Fruit/orange.png","Lost","0.2,0.8","12","0.2","119","29","",""
"html-keyboard-response","95","127333","0.0-11.0-2.28","60fcf7102d7c9907d95a0920","bdp_rwlrn","Sat Apr 08 2023 09:56:54 GMT-0700 (PDT)","371530","Untrustworthy,Trustworthy","","null","","","","decisionFB","","<div class='trialDiv'><img src='Fruit/orange.png'><br><font class='baseline'><strong>Odds are Orange</strong><p>Choose number of points to bet.</font><div class='respPicDiv'><img src='img/responseButtonOffersNo0L1.png' class='respPic'></div></div>","null","10","Odds are Orange","Fruit/orange.png","Lost","0.2,0.8","12","0.2","118","29","",""
"html-keyboard-response","96","128335","0.0-11.0-3.28","60fcf7102d7c9907d95a0920","bdp_rwlrn","Sat Apr 08 2023 09:56:54 GMT-0700 (PDT)","371530","Untrustworthy,Trustworthy","","null","","","","feedback","","<div class='respPicDiv'><img src='img/responseButtonOffersNo0_wht.png' class='respPic'></div><div class='trialDiv'><img src='Fruit/orange.png'><br><font class='baseline'><strong>Odds are Orange</strong><p><strong><font class='negOutcome'>You LOST</font><p>You bet: 1</strong></font> &nbsp; &nbsp; &nbsp; &nbsp; &nbsp; &nbsp;<font class='negOutcome'>You receive: <strong>0</strong></font></div>","null","10","Odds are Orange","Fruit/orange.png","Lost","0.2,0.8","12","0.2","118","29","",""
"html-keyboard-response","97","129200","0.0-11.0-1.29","60fcf7102d7c9907d95a0920","bdp_rwlrn","Sat Apr 08 2023 09:56:54 GMT-0700 (PDT)","371530","Untrustworthy,Trustworthy","","863","","","","decision","","<div class='trialDiv'><img src='Fruit/pineapple.png'><br><font class='baseline'><strong>Primo Pineapple</strong><p>Choose number of points to bet.</font><div class='respPicDiv'><img src='img/responseButtonOffersNo0L.png' class='respPic'></div></div>","1","10","Primo Pineapple","Fruit/pineapple.png","Won","0.65,0.2","13","0.65","123","30","",""
"html-keyboard-response","98","129452","0.0-11.0-2.29","60fcf7102d7c9907d95a0920","bdp_rwlrn","Sat Apr 08 2023 09:56:54 GMT-0700 (PDT)","371530","Untrustworthy,Trustworthy","","null","","","","decisionFB","","<div class='trialDiv'><img src='Fruit/pineapple.png'><br><font class='baseline'><strong>Primo Pineapple</strong><p>Choose number of points to bet.</font><div class='respPicDiv'><img src='img/responseButtonOffersNo0L1.png' class='respPic'></div></div>","null","10","Primo Pineapple","Fruit/pineapple.png","Won","0.65,0.2","13","0.65","122","30","",""
"html-keyboard-response","99","130454","0.0-11.0-3.29","60fcf7102d7c9907d95a0920","bdp_rwlrn","Sat Apr 08 2023 09:56:54 GMT-0700 (PDT)","371530","Untrustworthy,Trustworthy","","null","","","","feedback","","<div class='respPicDiv'><img src='img/responseButtonOffersNo0_wht.png' class='respPic'></div><div class='trialDiv'><img src='Fruit/pineapple.png'><br><font class='baseline'><strong>Primo Pineapple</strong><p><strong><font class='posOutcome'>You WON</font><p>You bet: 1</strong></font> &nbsp; &nbsp; &nbsp; &nbsp; &nbsp; &nbsp;<font class='posOutcome'>you receive: <strong>2</strong></font></div>","null","10","Primo Pineapple","Fruit/pineapple.png","Won","0.65,0.2","13","0.65","124","30","",""
"html-keyboard-response","100","131042","0.0-11.0-1.30","60fcf7102d7c9907d95a0920","bdp_rwlrn","Sat Apr 08 2023 09:56:54 GMT-0700 (PDT)","371530","Untrustworthy,Trustworthy","","586","","","","decision","","<div class='trialDiv'><img src='Fruit/grapes.png'><br><font class='baseline'><strong>Great Grapes</strong><p>Choose number of points to bet.</font><div class='respPicDiv'><img src='img/responseButtonOffersNo0L.png' class='respPic'></div></div>","5","11","Great Grapes","Fruit/grapes.png","Won","0.35,0.8","8","0.35","129","31","",""
"html-keyboard-response","101","131294","0.0-11.0-2.30","60fcf7102d7c9907d95a0920","bdp_rwlrn","Sat Apr 08 2023 09:56:54 GMT-0700 (PDT)","371530","Untrustworthy,Trustworthy","","null","","","","decisionFB","","<div class='trialDiv'><img src='Fruit/grapes.png'><br><font class='baseline'><strong>Great Grapes</strong><p>Choose number of points to bet.</font><div class='respPicDiv'><img src='img/responseButtonOffersNo0L5.png' class='respPic'></div></div>","null","11","Great Grapes","Fruit/grapes.png","Won","0.35,0.8","8","0.35","124","31","",""
"html-keyboard-response","102","132296","0.0-11.0-3.30","60fcf7102d7c9907d95a0920","bdp_rwlrn","Sat Apr 08 2023 09:56:54 GMT-0700 (PDT)","371530","Untrustworthy,Trustworthy","","null","","","","feedback","","<div class='respPicDiv'><img src='img/responseButtonOffersNo0_wht.png' class='respPic'></div><div class='trialDiv'><img src='Fruit/grapes.png'><br><font class='baseline'><strong>Great Grapes</strong><p><strong><font class='posOutcome'>You WON</font><p>You bet: 5</strong></font> &nbsp; &nbsp; &nbsp; &nbsp; &nbsp; &nbsp;<font class='posOutcome'>you receive: <strong>10</strong></font></div>","null","11","Great Grapes","Fruit/grapes.png","Won","0.35,0.8","8","0.35","134","31","",""
"html-keyboard-response","103","132962","0.0-11.0-1.31","60fcf7102d7c9907d95a0920","bdp_rwlrn","Sat Apr 08 2023 09:56:54 GMT-0700 (PDT)","371530","Untrustworthy,Trustworthy","","665","","","","decision","","<div class='trialDiv'><img src='Fruit/orange.png'><br><font class='baseline'><strong>Odds are Orange</strong><p>Choose number of points to bet.</font><div class='respPicDiv'><img src='img/responseButtonOffersNo0L.png' class='respPic'></div></div>","1","11","Odds are Orange","Fruit/orange.png","Lost","0.2,0.8","12","0.2","139","32","",""
"html-keyboard-response","104","133214","0.0-11.0-2.31","60fcf7102d7c9907d95a0920","bdp_rwlrn","Sat Apr 08 2023 09:56:54 GMT-0700 (PDT)","371530","Untrustworthy,Trustworthy","","null","","","","decisionFB","","<div class='trialDiv'><img src='Fruit/orange.png'><br><font class='baseline'><strong>Odds are Orange</strong><p>Choose number of points to bet.</font><div class='respPicDiv'><img src='img/responseButtonOffersNo0L1.png' class='respPic'></div></div>","null","11","Odds are Orange","Fruit/orange.png","Lost","0.2,0.8","12","0.2","138","32","",""
"html-keyboard-response","105","134217","0.0-11.0-3.31","60fcf7102d7c9907d95a0920","bdp_rwlrn","Sat Apr 08 2023 09:56:54 GMT-0700 (PDT)","371530","Untrustworthy,Trustworthy","","null","","","","feedback","","<div class='respPicDiv'><img src='img/responseButtonOffersNo0_wht.png' class='respPic'></div><div class='trialDiv'><img src='Fruit/orange.png'><br><font class='baseline'><strong>Odds are Orange</strong><p><strong><font class='negOutcome'>You LOST</font><p>You bet: 1</strong></font> &nbsp; &nbsp; &nbsp; &nbsp; &nbsp; &nbsp;<font class='negOutcome'>You receive: <strong>0</strong></font></div>","null","11","Odds are Orange","Fruit/orange.png","Lost","0.2,0.8","12","0.2","138","32","",""
"html-keyboard-response","106","134704","0.0-11.0-1.32","60fcf7102d7c9907d95a0920","bdp_rwlrn","Sat Apr 08 2023 09:56:54 GMT-0700 (PDT)","371530","Untrustworthy,Trustworthy","","486","","","","decision","","<div class='trialDiv'><img src='Fruit/pineapple.png'><br><font class='baseline'><strong>Primo Pineapple</strong><p>Choose number of points to bet.</font><div class='respPicDiv'><img src='img/responseButtonOffersNo0L.png' class='respPic'></div></div>","5","11","Primo Pineapple","Fruit/pineapple.png","Won","0.65,0.2","13","0.65","143","33","",""
"html-keyboard-response","107","134957","0.0-11.0-2.32","60fcf7102d7c9907d95a0920","bdp_rwlrn","Sat Apr 08 2023 09:56:54 GMT-0700 (PDT)","371530","Untrustworthy,Trustworthy","","null","","","","decisionFB","","<div class='trialDiv'><img src='Fruit/pineapple.png'><br><font class='baseline'><strong>Primo Pineapple</strong><p>Choose number of points to bet.</font><div class='respPicDiv'><img src='img/responseButtonOffersNo0L5.png' class='respPic'></div></div>","null","11","Primo Pineapple","Fruit/pineapple.png","Won","0.65,0.2","13","0.65","138","33","",""
"html-keyboard-response","108","135959","0.0-11.0-3.32","60fcf7102d7c9907d95a0920","bdp_rwlrn","Sat Apr 08 2023 09:56:54 GMT-0700 (PDT)","371530","Untrustworthy,Trustworthy","","null","","","","feedback","","<div class='respPicDiv'><img src='img/responseButtonOffersNo0_wht.png' class='respPic'></div><div class='trialDiv'><img src='Fruit/pineapple.png'><br><font class='baseline'><strong>Primo Pineapple</strong><p><strong><font class='posOutcome'>You WON</font><p>You bet: 5</strong></font> &nbsp; &nbsp; &nbsp; &nbsp; &nbsp; &nbsp;<font class='posOutcome'>you receive: <strong>10</strong></font></div>","null","11","Primo Pineapple","Fruit/pineapple.png","Won","0.65,0.2","13","0.65","148","33","",""
"html-keyboard-response","109","136994","0.0-11.0-1.33","60fcf7102d7c9907d95a0920","bdp_rwlrn","Sat Apr 08 2023 09:56:54 GMT-0700 (PDT)","371530","Untrustworthy,Trustworthy","","1034","","","","decision","","<div class='trialDiv'><img src='Fruit/orange.png'><br><font class='baseline'><strong>Odds are Orange</strong><p>Choose number of points to bet.</font><div class='respPicDiv'><img src='img/responseButtonOffersNo0L.png' class='respPic'></div></div>","1","12","Odds are Orange","Fruit/orange.png","Won","0.2,0.8","12","0.2","153","34","",""
"html-keyboard-response","110","137247","0.0-11.0-2.33","60fcf7102d7c9907d95a0920","bdp_rwlrn","Sat Apr 08 2023 09:56:54 GMT-0700 (PDT)","371530","Untrustworthy,Trustworthy","","null","","","","decisionFB","","<div class='trialDiv'><img src='Fruit/orange.png'><br><font class='baseline'><strong>Odds are Orange</strong><p>Choose number of points to bet.</font><div class='respPicDiv'><img src='img/responseButtonOffersNo0L1.png' class='respPic'></div></div>","null","12","Odds are Orange","Fruit/orange.png","Won","0.2,0.8","12","0.2","152","34","",""
"html-keyboard-response","111","138249","0.0-11.0-3.33","60fcf7102d7c9907d95a0920","bdp_rwlrn","Sat Apr 08 2023 09:56:54 GMT-0700 (PDT)","371530","Untrustworthy,Trustworthy","","null","","","","feedback","","<div class='respPicDiv'><img src='img/responseButtonOffersNo0_wht.png' class='respPic'></div><div class='trialDiv'><img src='Fruit/orange.png'><br><font class='baseline'><strong>Odds are Orange</strong><p><strong><font class='posOutcome'>You WON</font><p>You bet: 1</strong></font> &nbsp; &nbsp; &nbsp; &nbsp; &nbsp; &nbsp;<font class='posOutcome'>you receive: <strong>2</strong></font></div>","null","12","Odds are Orange","Fruit/orange.png","Won","0.2,0.8","12","0.2","154","34","",""
"html-keyboard-response","112","138962","0.0-11.0-1.34","60fcf7102d7c9907d95a0920","bdp_rwlrn","Sat Apr 08 2023 09:56:54 GMT-0700 (PDT)","371530","Untrustworthy,Trustworthy","","712","","","","decision","","<div class='trialDiv'><img src='Fruit/grapes.png'><br><font class='baseline'><strong>Great Grapes</strong><p>Choose number of points to bet.</font><div class='respPicDiv'><img src='img/responseButtonOffersNo0L.png' class='respPic'></div></div>","5","12","Great Grapes","Fruit/grapes.png","Won","0.35,0.8","8","0.35","159","35","",""
"html-keyboard-response","113","139214","0.0-11.0-2.34","60fcf7102d7c9907d95a0920","bdp_rwlrn","Sat Apr 08 2023 09:56:54 GMT-0700 (PDT)","371530","Untrustworthy,Trustworthy","","null","","","","decisionFB","","<div class='trialDiv'><img src='Fruit/grapes.png'><br><font class='baseline'><strong>Great Grapes</strong><p>Choose number of points to bet.</font><div class='respPicDiv'><img src='img/responseButtonOffersNo0L5.png' class='respPic'></div></div>","null","12","Great Grapes","Fruit/grapes.png","Won","0.35,0.8","8","0.35","154","35","",""
"html-keyboard-response","114","140216","0.0-11.0-3.34","60fcf7102d7c9907d95a0920","bdp_rwlrn","Sat Apr 08 2023 09:56:54 GMT-0700 (PDT)","371530","Untrustworthy,Trustworthy","","null","","","","feedback","","<div class='respPicDiv'><img src='img/responseButtonOffersNo0_wht.png' class='respPic'></div><div class='trialDiv'><img src='Fruit/grapes.png'><br><font class='baseline'><strong>Great Grapes</strong><p><strong><font class='posOutcome'>You WON</font><p>You bet: 5</strong></font> &nbsp; &nbsp; &nbsp; &nbsp; &nbsp; &nbsp;<font class='posOutcome'>you receive: <strong>10</strong></font></div>","null","12","Great Grapes","Fruit/grapes.png","Won","0.35,0.8","8","0.35","164","35","",""
"html-keyboard-response","115","140921","0.0-11.0-1.35","60fcf7102d7c9907d95a0920","bdp_rwlrn","Sat Apr 08 2023 09:56:54 GMT-0700 (PDT)","371530","Untrustworthy,Trustworthy","","704","","","","decision","","<div class='trialDiv'><img src='Fruit/pineapple.png'><br><font class='baseline'><strong>Primo Pineapple</strong><p>Choose number of points to bet.</font><div class='respPicDiv'><img src='img/responseButtonOffersNo0L.png' class='respPic'></div></div>","5","12","Primo Pineapple","Fruit/pineapple.png","Won","0.65,0.2","13","0.65","169","36","",""
"html-keyboard-response","116","141173","0.0-11.0-2.35","60fcf7102d7c9907d95a0920","bdp_rwlrn","Sat Apr 08 2023 09:56:54 GMT-0700 (PDT)","371530","Untrustworthy,Trustworthy","","null","","","","decisionFB","","<div class='trialDiv'><img src='Fruit/pineapple.png'><br><font class='baseline'><strong>Primo Pineapple</strong><p>Choose number of points to bet.</font><div class='respPicDiv'><img src='img/responseButtonOffersNo0L5.png' class='respPic'></div></div>","null","12","Primo Pineapple","Fruit/pineapple.png","Won","0.65,0.2","13","0.65","164","36","",""
"html-keyboard-response","117","142175","0.0-11.0-3.35","60fcf7102d7c9907d95a0920","bdp_rwlrn","Sat Apr 08 2023 09:56:54 GMT-0700 (PDT)","371530","Untrustworthy,Trustworthy","","null","","","","feedback","","<div class='respPicDiv'><img src='img/responseButtonOffersNo0_wht.png' class='respPic'></div><div class='trialDiv'><img src='Fruit/pineapple.png'><br><font class='baseline'><strong>Primo Pineapple</strong><p><strong><font class='posOutcome'>You WON</font><p>You bet: 5</strong></font> &nbsp; &nbsp; &nbsp; &nbsp; &nbsp; &nbsp;<font class='posOutcome'>you receive: <strong>10</strong></font></div>","null","12","Primo Pineapple","Fruit/pineapple.png","Won","0.65,0.2","13","0.65","174","36","",""
"html-keyboard-response","118","143610","0.0-11.0-1.36","60fcf7102d7c9907d95a0920","bdp_rwlrn","Sat Apr 08 2023 09:56:54 GMT-0700 (PDT)","371530","Untrustworthy,Trustworthy","","1433","","","","decision","","<div class='trialDiv'><img src='Fruit/grapes.png'><br><font class='baseline'><strong>Great Grapes</strong><p>Choose number of points to bet.</font><div class='respPicDiv'><img src='img/responseButtonOffersNo0L.png' class='respPic'></div></div>","4","13","Great Grapes","Fruit/grapes.png","Won","0.35,0.8","8","0.35","179","37","",""
"html-keyboard-response","119","143861","0.0-11.0-2.36","60fcf7102d7c9907d95a0920","bdp_rwlrn","Sat Apr 08 2023 09:56:54 GMT-0700 (PDT)","371530","Untrustworthy,Trustworthy","","null","","","","decisionFB","","<div class='trialDiv'><img src='Fruit/grapes.png'><br><font class='baseline'><strong>Great Grapes</strong><p>Choose number of points to bet.</font><div class='respPicDiv'><img src='img/responseButtonOffersNo0L4.png' class='respPic'></div></div>","null","13","Great Grapes","Fruit/grapes.png","Won","0.35,0.8","8","0.35","175","37","",""
"html-keyboard-response","120","144863","0.0-11.0-3.36","60fcf7102d7c9907d95a0920","bdp_rwlrn","Sat Apr 08 2023 09:56:54 GMT-0700 (PDT)","371530","Untrustworthy,Trustworthy","","null","","","","feedback","","<div class='respPicDiv'><img src='img/responseButtonOffersNo0_wht.png' class='respPic'></div><div class='trialDiv'><img src='Fruit/grapes.png'><br><font class='baseline'><strong>Great Grapes</strong><p><strong><font class='posOutcome'>You WON</font><p>You bet: 4</strong></font> &nbsp; &nbsp; &nbsp; &nbsp; &nbsp; &nbsp;<font class='posOutcome'>you receive: <strong>8</strong></font></div>","null","13","Great Grapes","Fruit/grapes.png","Won","0.35,0.8","8","0.35","183","37","",""
"html-keyboard-response","121","145628","0.0-11.0-1.37","60fcf7102d7c9907d95a0920","bdp_rwlrn","Sat Apr 08 2023 09:56:54 GMT-0700 (PDT)","371530","Untrustworthy,Trustworthy","","763","","","","decision","","<div class='trialDiv'><img src='Fruit/pineapple.png'><br><font class='baseline'><strong>Primo Pineapple</strong><p>Choose number of points to bet.</font><div class='respPicDiv'><img src='img/responseButtonOffersNo0L.png' class='respPic'></div></div>","1","13","Primo Pineapple","Fruit/pineapple.png","Lost","0.65,0.2","13","0.65","188","38","",""
"html-keyboard-response","122","145882","0.0-11.0-2.37","60fcf7102d7c9907d95a0920","bdp_rwlrn","Sat Apr 08 2023 09:56:54 GMT-0700 (PDT)","371530","Untrustworthy,Trustworthy","","null","","","","decisionFB","","<div class='trialDiv'><img src='Fruit/pineapple.png'><br><font class='baseline'><strong>Primo Pineapple</strong><p>Choose number of points to bet.</font><div class='respPicDiv'><img src='img/responseButtonOffersNo0L1.png' class='respPic'></div></div>","null","13","Primo Pineapple","Fruit/pineapple.png","Lost","0.65,0.2","13","0.65","187","38","",""
"html-keyboard-response","123","146885","0.0-11.0-3.37","60fcf7102d7c9907d95a0920","bdp_rwlrn","Sat Apr 08 2023 09:56:54 GMT-0700 (PDT)","371530","Untrustworthy,Trustworthy","","null","","","","feedback","","<div class='respPicDiv'><img src='img/responseButtonOffersNo0_wht.png' class='respPic'></div><div class='trialDiv'><img src='Fruit/pineapple.png'><br><font class='baseline'><strong>Primo Pineapple</strong><p><strong><font class='negOutcome'>You LOST</font><p>You bet: 1</strong></font> &nbsp; &nbsp; &nbsp; &nbsp; &nbsp; &nbsp;<font class='negOutcome'>You receive: <strong>0</strong></font></div>","null","13","Primo Pineapple","Fruit/pineapple.png","Lost","0.65,0.2","13","0.65","187","38","",""
"html-keyboard-response","124","147712","0.0-11.0-1.38","60fcf7102d7c9907d95a0920","bdp_rwlrn","Sat Apr 08 2023 09:56:54 GMT-0700 (PDT)","371530","Untrustworthy,Trustworthy","","826","","","","decision","","<div class='trialDiv'><img src='Fruit/orange.png'><br><font class='baseline'><strong>Odds are Orange</strong><p>Choose number of points to bet.</font><div class='respPicDiv'><img src='img/responseButtonOffersNo0L.png' class='respPic'></div></div>","2","13","Odds are Orange","Fruit/orange.png","Lost","0.2,0.8","12","0.2","192","39","",""
"html-keyboard-response","125","147965","0.0-11.0-2.38","60fcf7102d7c9907d95a0920","bdp_rwlrn","Sat Apr 08 2023 09:56:54 GMT-0700 (PDT)","371530","Untrustworthy,Trustworthy","","null","","","","decisionFB","","<div class='trialDiv'><img src='Fruit/orange.png'><br><font class='baseline'><strong>Odds are Orange</strong><p>Choose number of points to bet.</font><div class='respPicDiv'><img src='img/responseButtonOffersNo0L2.png' class='respPic'></div></div>","null","13","Odds are Orange","Fruit/orange.png","Lost","0.2,0.8","12","0.2","190","39","",""
"html-keyboard-response","126","148968","0.0-11.0-3.38","60fcf7102d7c9907d95a0920","bdp_rwlrn","Sat Apr 08 2023 09:56:54 GMT-0700 (PDT)","371530","Untrustworthy,Trustworthy","","null","","","","feedback","","<div class='respPicDiv'><img src='img/responseButtonOffersNo0_wht.png' class='respPic'></div><div class='trialDiv'><img src='Fruit/orange.png'><br><font class='baseline'><strong>Odds are Orange</strong><p><strong><font class='negOutcome'>You LOST</font><p>You bet: 2</strong></font> &nbsp; &nbsp; &nbsp; &nbsp; &nbsp; &nbsp;<font class='negOutcome'>You receive: <strong>0</strong></font></div>","null","13","Odds are Orange","Fruit/orange.png","Lost","0.2,0.8","12","0.2","190","39","",""
"html-keyboard-response","127","155474","0.0-11.0-1.39","60fcf7102d7c9907d95a0920","bdp_rwlrn","Sat Apr 08 2023 09:56:54 GMT-0700 (PDT)","371530","Untrustworthy,Trustworthy","","6505","","","","decision","","<div class='trialDiv'><img src='Fruit/grapes.png'><br><font class='baseline'><strong>Great Grapes</strong><p>Choose number of points to bet.</font><div class='respPicDiv'><img src='img/responseButtonOffersNo0L.png' class='respPic'></div></div>","5","14","Great Grapes","Fruit/grapes.png","Won","0.35,0.8","8","0.35","195","40","",""
"html-keyboard-response","128","155727","0.0-11.0-2.39","60fcf7102d7c9907d95a0920","bdp_rwlrn","Sat Apr 08 2023 09:56:54 GMT-0700 (PDT)","371530","Untrustworthy,Trustworthy","","null","","","","decisionFB","","<div class='trialDiv'><img src='Fruit/grapes.png'><br><font class='baseline'><strong>Great Grapes</strong><p>Choose number of points to bet.</font><div class='respPicDiv'><img src='img/responseButtonOffersNo0L5.png' class='respPic'></div></div>","null","14","Great Grapes","Fruit/grapes.png","Won","0.35,0.8","8","0.35","190","40","",""
"html-keyboard-response","129","156729","0.0-11.0-3.39","60fcf7102d7c9907d95a0920","bdp_rwlrn","Sat Apr 08 2023 09:56:54 GMT-0700 (PDT)","371530","Untrustworthy,Trustworthy","","null","","","","feedback","","<div class='respPicDiv'><img src='img/responseButtonOffersNo0_wht.png' class='respPic'></div><div class='trialDiv'><img src='Fruit/grapes.png'><br><font class='baseline'><strong>Great Grapes</strong><p><strong><font class='posOutcome'>You WON</font><p>You bet: 5</strong></font> &nbsp; &nbsp; &nbsp; &nbsp; &nbsp; &nbsp;<font class='posOutcome'>you receive: <strong>10</strong></font></div>","null","14","Great Grapes","Fruit/grapes.png","Won","0.35,0.8","8","0.35","200","40","",""
"html-keyboard-response","130","157609","0.0-11.0-1.40","60fcf7102d7c9907d95a0920","bdp_rwlrn","Sat Apr 08 2023 09:56:54 GMT-0700 (PDT)","371530","Untrustworthy,Trustworthy","","879","","","","decision","","<div class='trialDiv'><img src='Fruit/orange.png'><br><font class='baseline'><strong>Odds are Orange</strong><p>Choose number of points to bet.</font><div class='respPicDiv'><img src='img/responseButtonOffersNo0L.png' class='respPic'></div></div>","1","14","Odds are Orange","Fruit/orange.png","Won","0.2,0.8","12","0.2","205","41","",""
"html-keyboard-response","131","157864","0.0-11.0-2.40","60fcf7102d7c9907d95a0920","bdp_rwlrn","Sat Apr 08 2023 09:56:54 GMT-0700 (PDT)","371530","Untrustworthy,Trustworthy","","null","","","","decisionFB","","<div class='trialDiv'><img src='Fruit/orange.png'><br><font class='baseline'><strong>Odds are Orange</strong><p>Choose number of points to bet.</font><div class='respPicDiv'><img src='img/responseButtonOffersNo0L1.png' class='respPic'></div></div>","null","14","Odds are Orange","Fruit/orange.png","Won","0.2,0.8","12","0.2","204","41","",""
"html-keyboard-response","132","158867","0.0-11.0-3.40","60fcf7102d7c9907d95a0920","bdp_rwlrn","Sat Apr 08 2023 09:56:54 GMT-0700 (PDT)","371530","Untrustworthy,Trustworthy","","null","","","","feedback","","<div class='respPicDiv'><img src='img/responseButtonOffersNo0_wht.png' class='respPic'></div><div class='trialDiv'><img src='Fruit/orange.png'><br><font class='baseline'><strong>Odds are Orange</strong><p><strong><font class='posOutcome'>You WON</font><p>You bet: 1</strong></font> &nbsp; &nbsp; &nbsp; &nbsp; &nbsp; &nbsp;<font class='posOutcome'>you receive: <strong>2</strong></font></div>","null","14","Odds are Orange","Fruit/orange.png","Won","0.2,0.8","12","0.2","206","41","",""
"html-keyboard-response","133","159561","0.0-11.0-1.41","60fcf7102d7c9907d95a0920","bdp_rwlrn","Sat Apr 08 2023 09:56:54 GMT-0700 (PDT)","371530","Untrustworthy,Trustworthy","","693","","","","decision","","<div class='trialDiv'><img src='Fruit/pineapple.png'><br><font class='baseline'><strong>Primo Pineapple</strong><p>Choose number of points to bet.</font><div class='respPicDiv'><img src='img/responseButtonOffersNo0L.png' class='respPic'></div></div>","5","14","Primo Pineapple","Fruit/pineapple.png","Lost","0.65,0.2","13","0.65","211","42","",""
"html-keyboard-response","134","159813","0.0-11.0-2.41","60fcf7102d7c9907d95a0920","bdp_rwlrn","Sat Apr 08 2023 09:56:54 GMT-0700 (PDT)","371530","Untrustworthy,Trustworthy","","null","","","","decisionFB","","<div class='trialDiv'><img src='Fruit/pineapple.png'><br><font class='baseline'><strong>Primo Pineapple</strong><p>Choose number of points to bet.</font><div class='respPicDiv'><img src='img/responseButtonOffersNo0L5.png' class='respPic'></div></div>","null","14","Primo Pineapple","Fruit/pineapple.png","Lost","0.65,0.2","13","0.65","206","42","",""
"html-keyboard-response","135","160816","0.0-11.0-3.41","60fcf7102d7c9907d95a0920","bdp_rwlrn","Sat Apr 08 2023 09:56:54 GMT-0700 (PDT)","371530","Untrustworthy,Trustworthy","","null","","","","feedback","","<div class='respPicDiv'><img src='img/responseButtonOffersNo0_wht.png' class='respPic'></div><div class='trialDiv'><img src='Fruit/pineapple.png'><br><font class='baseline'><strong>Primo Pineapple</strong><p><strong><font class='negOutcome'>You LOST</font><p>You bet: 5</strong></font> &nbsp; &nbsp; &nbsp; &nbsp; &nbsp; &nbsp;<font class='negOutcome'>You receive: <strong>0</strong></font></div>","null","14","Primo Pineapple","Fruit/pineapple.png","Lost","0.65,0.2","13","0.65","206","42","",""
"html-keyboard-response","136","161863","0.0-11.0-1.42","60fcf7102d7c9907d95a0920","bdp_rwlrn","Sat Apr 08 2023 09:56:54 GMT-0700 (PDT)","371530","Untrustworthy,Trustworthy","","1046","","","","decision","","<div class='trialDiv'><img src='Fruit/orange.png'><br><font class='baseline'><strong>Odds are Orange</strong><p>Choose number of points to bet.</font><div class='respPicDiv'><img src='img/responseButtonOffersNo0L.png' class='respPic'></div></div>","5","15","Odds are Orange","Fruit/orange.png","Won","0.2,0.8","12","0.2","211","43","",""
"html-keyboard-response","137","162115","0.0-11.0-2.42","60fcf7102d7c9907d95a0920","bdp_rwlrn","Sat Apr 08 2023 09:56:54 GMT-0700 (PDT)","371530","Untrustworthy,Trustworthy","","null","","","","decisionFB","","<div class='trialDiv'><img src='Fruit/orange.png'><br><font class='baseline'><strong>Odds are Orange</strong><p>Choose number of points to bet.</font><div class='respPicDiv'><img src='img/responseButtonOffersNo0L5.png' class='respPic'></div></div>","null","15","Odds are Orange","Fruit/orange.png","Won","0.2,0.8","12","0.2","206","43","",""
"html-keyboard-response","138","163118","0.0-11.0-3.42","60fcf7102d7c9907d95a0920","bdp_rwlrn","Sat Apr 08 2023 09:56:54 GMT-0700 (PDT)","371530","Untrustworthy,Trustworthy","","null","","","","feedback","","<div class='respPicDiv'><img src='img/responseButtonOffersNo0_wht.png' class='respPic'></div><div class='trialDiv'><img src='Fruit/orange.png'><br><font class='baseline'><strong>Odds are Orange</strong><p><strong><font class='posOutcome'>You WON</font><p>You bet: 5</strong></font> &nbsp; &nbsp; &nbsp; &nbsp; &nbsp; &nbsp;<font class='posOutcome'>you receive: <strong>10</strong></font></div>","null","15","Odds are Orange","Fruit/orange.png","Won","0.2,0.8","12","0.2","216","43","",""
"html-keyboard-response","139","163714","0.0-11.0-1.43","60fcf7102d7c9907d95a0920","bdp_rwlrn","Sat Apr 08 2023 09:56:54 GMT-0700 (PDT)","371530","Untrustworthy,Trustworthy","","595","","","","decision","","<div class='trialDiv'><img src='Fruit/grapes.png'><br><font class='baseline'><strong>Great Grapes</strong><p>Choose number of points to bet.</font><div class='respPicDiv'><img src='img/responseButtonOffersNo0L.png' class='respPic'></div></div>","5","15","Great Grapes","Fruit/grapes.png","Lost","0.35,0.8","8","0.35","221","44","",""
"html-keyboard-response","140","163967","0.0-11.0-2.43","60fcf7102d7c9907d95a0920","bdp_rwlrn","Sat Apr 08 2023 09:56:54 GMT-0700 (PDT)","371530","Untrustworthy,Trustworthy","","null","","","","decisionFB","","<div class='trialDiv'><img src='Fruit/grapes.png'><br><font class='baseline'><strong>Great Grapes</strong><p>Choose number of points to bet.</font><div class='respPicDiv'><img src='img/responseButtonOffersNo0L5.png' class='respPic'></div></div>","null","15","Great Grapes","Fruit/grapes.png","Lost","0.35,0.8","8","0.35","216","44","",""
"html-keyboard-response","141","164969","0.0-11.0-3.43","60fcf7102d7c9907d95a0920","bdp_rwlrn","Sat Apr 08 2023 09:56:54 GMT-0700 (PDT)","371530","Untrustworthy,Trustworthy","","null","","","","feedback","","<div class='respPicDiv'><img src='img/responseButtonOffersNo0_wht.png' class='respPic'></div><div class='trialDiv'><img src='Fruit/grapes.png'><br><font class='baseline'><strong>Great Grapes</strong><p><strong><font class='negOutcome'>You LOST</font><p>You bet: 5</strong></font> &nbsp; &nbsp; &nbsp; &nbsp; &nbsp; &nbsp;<font class='negOutcome'>You receive: <strong>0</strong></font></div>","null","15","Great Grapes","Fruit/grapes.png","Lost","0.35,0.8","8","0.35","216","44","",""
"html-keyboard-response","142","165737","0.0-11.0-1.44","60fcf7102d7c9907d95a0920","bdp_rwlrn","Sat Apr 08 2023 09:56:54 GMT-0700 (PDT)","371530","Untrustworthy,Trustworthy","","767","","","","decision","","<div class='trialDiv'><img src='Fruit/pineapple.png'><br><font class='baseline'><strong>Primo Pineapple</strong><p>Choose number of points to bet.</font><div class='respPicDiv'><img src='img/responseButtonOffersNo0L.png' class='respPic'></div></div>","1","15","Primo Pineapple","Fruit/pineapple.png","Lost","0.65,0.2","13","0.65","221","45","",""
"html-keyboard-response","143","165989","0.0-11.0-2.44","60fcf7102d7c9907d95a0920","bdp_rwlrn","Sat Apr 08 2023 09:56:54 GMT-0700 (PDT)","371530","Untrustworthy,Trustworthy","","null","","","","decisionFB","","<div class='trialDiv'><img src='Fruit/pineapple.png'><br><font class='baseline'><strong>Primo Pineapple</strong><p>Choose number of points to bet.</font><div class='respPicDiv'><img src='img/responseButtonOffersNo0L1.png' class='respPic'></div></div>","null","15","Primo Pineapple","Fruit/pineapple.png","Lost","0.65,0.2","13","0.65","220","45","",""
"html-keyboard-response","144","166991","0.0-11.0-3.44","60fcf7102d7c9907d95a0920","bdp_rwlrn","Sat Apr 08 2023 09:56:54 GMT-0700 (PDT)","371530","Untrustworthy,Trustworthy","","null","","","","feedback","","<div class='respPicDiv'><img src='img/responseButtonOffersNo0_wht.png' class='respPic'></div><div class='trialDiv'><img src='Fruit/pineapple.png'><br><font class='baseline'><strong>Primo Pineapple</strong><p><strong><font class='negOutcome'>You LOST</font><p>You bet: 1</strong></font> &nbsp; &nbsp; &nbsp; &nbsp; &nbsp; &nbsp;<font class='negOutcome'>You receive: <strong>0</strong></font></div>","null","15","Primo Pineapple","Fruit/pineapple.png","Lost","0.65,0.2","13","0.65","220","45","",""
"html-keyboard-response","145","167482","0.0-11.0-1.45","60fcf7102d7c9907d95a0920","bdp_rwlrn","Sat Apr 08 2023 09:56:54 GMT-0700 (PDT)","371530","Untrustworthy,Trustworthy","","489","","","","decision","","<div class='trialDiv'><img src='Fruit/orange.png'><br><font class='baseline'><strong>Odds are Orange</strong><p>Choose number of points to bet.</font><div class='respPicDiv'><img src='img/responseButtonOffersNo0L.png' class='respPic'></div></div>","5","16","Odds are Orange","Fruit/orange.png","Won","0.2,0.8","12","0.2","225","46","",""
"html-keyboard-response","146","167734","0.0-11.0-2.45","60fcf7102d7c9907d95a0920","bdp_rwlrn","Sat Apr 08 2023 09:56:54 GMT-0700 (PDT)","371530","Untrustworthy,Trustworthy","","null","","","","decisionFB","","<div class='trialDiv'><img src='Fruit/orange.png'><br><font class='baseline'><strong>Odds are Orange</strong><p>Choose number of points to bet.</font><div class='respPicDiv'><img src='img/responseButtonOffersNo0L5.png' class='respPic'></div></div>","null","16","Odds are Orange","Fruit/orange.png","Won","0.2,0.8","12","0.2","220","46","",""
"html-keyboard-response","147","168737","0.0-11.0-3.45","60fcf7102d7c9907d95a0920","bdp_rwlrn","Sat Apr 08 2023 09:56:54 GMT-0700 (PDT)","371530","Untrustworthy,Trustworthy","","null","","","","feedback","","<div class='respPicDiv'><img src='img/responseButtonOffersNo0_wht.png' class='respPic'></div><div class='trialDiv'><img src='Fruit/orange.png'><br><font class='baseline'><strong>Odds are Orange</strong><p><strong><font class='posOutcome'>You WON</font><p>You bet: 5</strong></font> &nbsp; &nbsp; &nbsp; &nbsp; &nbsp; &nbsp;<font class='posOutcome'>you receive: <strong>10</strong></font></div>","null","16","Odds are Orange","Fruit/orange.png","Won","0.2,0.8","12","0.2","230","46","",""
"html-keyboard-response","148","169326","0.0-11.0-1.46","60fcf7102d7c9907d95a0920","bdp_rwlrn","Sat Apr 08 2023 09:56:54 GMT-0700 (PDT)","371530","Untrustworthy,Trustworthy","","587","","","","decision","","<div class='trialDiv'><img src='Fruit/pineapple.png'><br><font class='baseline'><strong>Primo Pineapple</strong><p>Choose number of points to bet.</font><div class='respPicDiv'><img src='img/responseButtonOffersNo0L.png' class='respPic'></div></div>","1","16","Primo Pineapple","Fruit/pineapple.png","Lost","0.65,0.2","13","0.65","235","47","",""
"html-keyboard-response","149","169581","0.0-11.0-2.46","60fcf7102d7c9907d95a0920","bdp_rwlrn","Sat Apr 08 2023 09:56:54 GMT-0700 (PDT)","371530","Untrustworthy,Trustworthy","","null","","","","decisionFB","","<div class='trialDiv'><img src='Fruit/pineapple.png'><br><font class='baseline'><strong>Primo Pineapple</strong><p>Choose number of points to bet.</font><div class='respPicDiv'><img src='img/responseButtonOffersNo0L1.png' class='respPic'></div></div>","null","16","Primo Pineapple","Fruit/pineapple.png","Lost","0.65,0.2","13","0.65","234","47","",""
"html-keyboard-response","150","170583","0.0-11.0-3.46","60fcf7102d7c9907d95a0920","bdp_rwlrn","Sat Apr 08 2023 09:56:54 GMT-0700 (PDT)","371530","Untrustworthy,Trustworthy","","null","","","","feedback","","<div class='respPicDiv'><img src='img/responseButtonOffersNo0_wht.png' class='respPic'></div><div class='trialDiv'><img src='Fruit/pineapple.png'><br><font class='baseline'><strong>Primo Pineapple</strong><p><strong><font class='negOutcome'>You LOST</font><p>You bet: 1</strong></font> &nbsp; &nbsp; &nbsp; &nbsp; &nbsp; &nbsp;<font class='negOutcome'>You receive: <strong>0</strong></font></div>","null","16","Primo Pineapple","Fruit/pineapple.png","Lost","0.65,0.2","13","0.65","234","47","",""
"html-keyboard-response","151","171497","0.0-11.0-1.47","60fcf7102d7c9907d95a0920","bdp_rwlrn","Sat Apr 08 2023 09:56:54 GMT-0700 (PDT)","371530","Untrustworthy,Trustworthy","","911","","","","decision","","<div class='trialDiv'><img src='Fruit/grapes.png'><br><font class='baseline'><strong>Great Grapes</strong><p>Choose number of points to bet.</font><div class='respPicDiv'><img src='img/responseButtonOffersNo0L.png' class='respPic'></div></div>","1","16","Great Grapes","Fruit/grapes.png","Won","0.35,0.8","8","0.35","239","48","",""
"html-keyboard-response","152","171750","0.0-11.0-2.47","60fcf7102d7c9907d95a0920","bdp_rwlrn","Sat Apr 08 2023 09:56:54 GMT-0700 (PDT)","371530","Untrustworthy,Trustworthy","","null","","","","decisionFB","","<div class='trialDiv'><img src='Fruit/grapes.png'><br><font class='baseline'><strong>Great Grapes</strong><p>Choose number of points to bet.</font><div class='respPicDiv'><img src='img/responseButtonOffersNo0L1.png' class='respPic'></div></div>","null","16","Great Grapes","Fruit/grapes.png","Won","0.35,0.8","8","0.35","238","48","",""
"html-keyboard-response","153","172751","0.0-11.0-3.47","60fcf7102d7c9907d95a0920","bdp_rwlrn","Sat Apr 08 2023 09:56:54 GMT-0700 (PDT)","371530","Untrustworthy,Trustworthy","","null","","","","feedback","","<div class='respPicDiv'><img src='img/responseButtonOffersNo0_wht.png' class='respPic'></div><div class='trialDiv'><img src='Fruit/grapes.png'><br><font class='baseline'><strong>Great Grapes</strong><p><strong><font class='posOutcome'>You WON</font><p>You bet: 1</strong></font> &nbsp; &nbsp; &nbsp; &nbsp; &nbsp; &nbsp;<font class='posOutcome'>you receive: <strong>2</strong></font></div>","null","16","Great Grapes","Fruit/grapes.png","Won","0.35,0.8","8","0.35","240","48","",""
"html-keyboard-response","154","173195","0.0-11.0-1.48","60fcf7102d7c9907d95a0920","bdp_rwlrn","Sat Apr 08 2023 09:56:54 GMT-0700 (PDT)","371530","Untrustworthy,Trustworthy","","443","","","","decision","","<div class='trialDiv'><img src='Fruit/orange.png'><br><font class='baseline'><strong>Odds are Orange</strong><p>Choose number of points to bet.</font><div class='respPicDiv'><img src='img/responseButtonOffersNo0L.png' class='respPic'></div></div>","5","17","Odds are Orange","Fruit/orange.png","Won","0.2,0.8","12","0.2","245","49","",""
"html-keyboard-response","155","173448","0.0-11.0-2.48","60fcf7102d7c9907d95a0920","bdp_rwlrn","Sat Apr 08 2023 09:56:54 GMT-0700 (PDT)","371530","Untrustworthy,Trustworthy","","null","","","","decisionFB","","<div class='trialDiv'><img src='Fruit/orange.png'><br><font class='baseline'><strong>Odds are Orange</strong><p>Choose number of points to bet.</font><div class='respPicDiv'><img src='img/responseButtonOffersNo0L5.png' class='respPic'></div></div>","null","17","Odds are Orange","Fruit/orange.png","Won","0.2,0.8","12","0.2","240","49","",""
"html-keyboard-response","156","174450","0.0-11.0-3.48","60fcf7102d7c9907d95a0920","bdp_rwlrn","Sat Apr 08 2023 09:56:54 GMT-0700 (PDT)","371530","Untrustworthy,Trustworthy","","null","","","","feedback","","<div class='respPicDiv'><img src='img/responseButtonOffersNo0_wht.png' class='respPic'></div><div class='trialDiv'><img src='Fruit/orange.png'><br><font class='baseline'><strong>Odds are Orange</strong><p><strong><font class='posOutcome'>You WON</font><p>You bet: 5</strong></font> &nbsp; &nbsp; &nbsp; &nbsp; &nbsp; &nbsp;<font class='posOutcome'>you receive: <strong>10</strong></font></div>","null","17","Odds are Orange","Fruit/orange.png","Won","0.2,0.8","12","0.2","250","49","",""
"html-keyboard-response","157","175130","0.0-11.0-1.49","60fcf7102d7c9907d95a0920","bdp_rwlrn","Sat Apr 08 2023 09:56:54 GMT-0700 (PDT)","371530","Untrustworthy,Trustworthy","","678","","","","decision","","<div class='trialDiv'><img src='Fruit/grapes.png'><br><font class='baseline'><strong>Great Grapes</strong><p>Choose number of points to bet.</font><div class='respPicDiv'><img src='img/responseButtonOffersNo0L.png' class='respPic'></div></div>","5","17","Great Grapes","Fruit/grapes.png","Won","0.35,0.8","8","0.35","255","50","",""
"html-keyboard-response","158","175382","0.0-11.0-2.49","60fcf7102d7c9907d95a0920","bdp_rwlrn","Sat Apr 08 2023 09:56:54 GMT-0700 (PDT)","371530","Untrustworthy,Trustworthy","","null","","","","decisionFB","","<div class='trialDiv'><img src='Fruit/grapes.png'><br><font class='baseline'><strong>Great Grapes</strong><p>Choose number of points to bet.</font><div class='respPicDiv'><img src='img/responseButtonOffersNo0L5.png' class='respPic'></div></div>","null","17","Great Grapes","Fruit/grapes.png","Won","0.35,0.8","8","0.35","250","50","",""
"html-keyboard-response","159","176385","0.0-11.0-3.49","60fcf7102d7c9907d95a0920","bdp_rwlrn","Sat Apr 08 2023 09:56:54 GMT-0700 (PDT)","371530","Untrustworthy,Trustworthy","","null","","","","feedback","","<div class='respPicDiv'><img src='img/responseButtonOffersNo0_wht.png' class='respPic'></div><div class='trialDiv'><img src='Fruit/grapes.png'><br><font class='baseline'><strong>Great Grapes</strong><p><strong><font class='posOutcome'>You WON</font><p>You bet: 5</strong></font> &nbsp; &nbsp; &nbsp; &nbsp; &nbsp; &nbsp;<font class='posOutcome'>you receive: <strong>10</strong></font></div>","null","17","Great Grapes","Fruit/grapes.png","Won","0.35,0.8","8","0.35","260","50","",""
"html-keyboard-response","160","177336","0.0-11.0-1.50","60fcf7102d7c9907d95a0920","bdp_rwlrn","Sat Apr 08 2023 09:56:54 GMT-0700 (PDT)","371530","Untrustworthy,Trustworthy","","950","","","","decision","","<div class='trialDiv'><img src='Fruit/pineapple.png'><br><font class='baseline'><strong>Primo Pineapple</strong><p>Choose number of points to bet.</font><div class='respPicDiv'><img src='img/responseButtonOffersNo0L.png' class='respPic'></div></div>","1","17","Primo Pineapple","Fruit/pineapple.png","Lost","0.65,0.2","13","0.65","265","51","",""
"html-keyboard-response","161","177590","0.0-11.0-2.50","60fcf7102d7c9907d95a0920","bdp_rwlrn","Sat Apr 08 2023 09:56:54 GMT-0700 (PDT)","371530","Untrustworthy,Trustworthy","","null","","","","decisionFB","","<div class='trialDiv'><img src='Fruit/pineapple.png'><br><font class='baseline'><strong>Primo Pineapple</strong><p>Choose number of points to bet.</font><div class='respPicDiv'><img src='img/responseButtonOffersNo0L1.png' class='respPic'></div></div>","null","17","Primo Pineapple","Fruit/pineapple.png","Lost","0.65,0.2","13","0.65","264","51","",""
"html-keyboard-response","162","178597","0.0-11.0-3.50","60fcf7102d7c9907d95a0920","bdp_rwlrn","Sat Apr 08 2023 09:56:54 GMT-0700 (PDT)","371530","Untrustworthy,Trustworthy","","null","","","","feedback","","<div class='respPicDiv'><img src='img/responseButtonOffersNo0_wht.png' class='respPic'></div><div class='trialDiv'><img src='Fruit/pineapple.png'><br><font class='baseline'><strong>Primo Pineapple</strong><p><strong><font class='negOutcome'>You LOST</font><p>You bet: 1</strong></font> &nbsp; &nbsp; &nbsp; &nbsp; &nbsp; &nbsp;<font class='negOutcome'>You receive: <strong>0</strong></font></div>","null","17","Primo Pineapple","Fruit/pineapple.png","Lost","0.65,0.2","13","0.65","264","51","",""
"html-keyboard-response","163","179165","0.0-11.0-1.51","60fcf7102d7c9907d95a0920","bdp_rwlrn","Sat Apr 08 2023 09:56:54 GMT-0700 (PDT)","371530","Untrustworthy,Trustworthy","","567","","","","decision","","<div class='trialDiv'><img src='Fruit/orange.png'><br><font class='baseline'><strong>Odds are Orange</strong><p>Choose number of points to bet.</font><div class='respPicDiv'><img src='img/responseButtonOffersNo0L.png' class='respPic'></div></div>","5","18","Odds are Orange","Fruit/orange.png","Won","0.2,0.8","12","0.2","269","52","",""
"html-keyboard-response","164","179417","0.0-11.0-2.51","60fcf7102d7c9907d95a0920","bdp_rwlrn","Sat Apr 08 2023 09:56:54 GMT-0700 (PDT)","371530","Untrustworthy,Trustworthy","","null","","","","decisionFB","","<div class='trialDiv'><img src='Fruit/orange.png'><br><font class='baseline'><strong>Odds are Orange</strong><p>Choose number of points to bet.</font><div class='respPicDiv'><img src='img/responseButtonOffersNo0L5.png' class='respPic'></div></div>","null","18","Odds are Orange","Fruit/orange.png","Won","0.2,0.8","12","0.2","264","52","",""
"html-keyboard-response","165","180419","0.0-11.0-3.51","60fcf7102d7c9907d95a0920","bdp_rwlrn","Sat Apr 08 2023 09:56:54 GMT-0700 (PDT)","371530","Untrustworthy,Trustworthy","","null","","","","feedback","","<div class='respPicDiv'><img src='img/responseButtonOffersNo0_wht.png' class='respPic'></div><div class='trialDiv'><img src='Fruit/orange.png'><br><font class='baseline'><strong>Odds are Orange</strong><p><strong><font class='posOutcome'>You WON</font><p>You bet: 5</strong></font> &nbsp; &nbsp; &nbsp; &nbsp; &nbsp; &nbsp;<font class='posOutcome'>you receive: <strong>10</strong></font></div>","null","18","Odds are Orange","Fruit/orange.png","Won","0.2,0.8","12","0.2","274","52","",""
"html-keyboard-response","166","180979","0.0-11.0-1.52","60fcf7102d7c9907d95a0920","bdp_rwlrn","Sat Apr 08 2023 09:56:54 GMT-0700 (PDT)","371530","Untrustworthy,Trustworthy","","556","","","","decision","","<div class='trialDiv'><img src='Fruit/pineapple.png'><br><font class='baseline'><strong>Primo Pineapple</strong><p>Choose number of points to bet.</font><div class='respPicDiv'><img src='img/responseButtonOffersNo0L.png' class='respPic'></div></div>","1","18","Primo Pineapple","Fruit/pineapple.png","Won","0.65,0.2","13","0.65","279","53","",""
"html-keyboard-response","167","181231","0.0-11.0-2.52","60fcf7102d7c9907d95a0920","bdp_rwlrn","Sat Apr 08 2023 09:56:54 GMT-0700 (PDT)","371530","Untrustworthy,Trustworthy","","null","","","","decisionFB","","<div class='trialDiv'><img src='Fruit/pineapple.png'><br><font class='baseline'><strong>Primo Pineapple</strong><p>Choose number of points to bet.</font><div class='respPicDiv'><img src='img/responseButtonOffersNo0L1.png' class='respPic'></div></div>","null","18","Primo Pineapple","Fruit/pineapple.png","Won","0.65,0.2","13","0.65","278","53","",""
