"event","trial","time","trialtype","numBlurs","subject_id","task","startTime","totalTime","labels","trial_type","trial_index","time_elapsed","internal_node_id","view_history","rt","success","stimulus","key_press","ltround","name","fileID","outcome","lottotype","lottoswpt","lottocurrpshare","point_total","round","faceID","face"
"blur","0","0","blurevent","1","5c9bfbfa325c3d001ad360a8","bdp_rwlrn","Wed Mar 15 2023 19:52:44 GMT-0700 (Pacific Daylight Time)","1126030","Untrustworthy,Trustworthy","","","","","","","","","","","","","","","","","","","",""
"focus","0","0","focusevent","","5c9bfbfa325c3d001ad360a8","bdp_rwlrn","Wed Mar 15 2023 19:52:44 GMT-0700 (Pacific Daylight Time)","1126030","Untrustworthy,Trustworthy","","","","","","","","","","","","","","","","","","","",""
"","","","","","5c9bfbfa325c3d001ad360a8","bdp_rwlrn","Wed Mar 15 2023 19:52:44 GMT-0700 (Pacific Daylight Time)","1126030","Untrustworthy,Trustworthy","pavlovia","0","4","0.0-0.0","","","","","","","","","","","","","","","",""
"","","","","","5c9bfbfa325c3d001ad360a8","bdp_rwlrn","Wed Mar 15 2023 19:52:44 GMT-0700 (Pacific Daylight Time)","1126030","Untrustworthy,Trustworthy","instructions","1","1244","0.0-1.0","[{""page_index"":0,""viewing_time"":1240}]","1240","","","","","","","","","","","","","",""
"fullscreenenter","2","369073","fullscreenenter","","5c9bfbfa325c3d001ad360a8","bdp_rwlrn","Wed Mar 15 2023 19:52:44 GMT-0700 (Pacific Daylight Time)","1126030","Untrustworthy,Trustworthy","","","","","","","","","","","","","","","","","","","",""
"","","","","","5c9bfbfa325c3d001ad360a8","bdp_rwlrn","Wed Mar 15 2023 19:52:44 GMT-0700 (Pacific Daylight Time)","1126030","Untrustworthy,Trustworthy","fullscreen","2","370050","0.0-2.0","","","true","","","","","","","","","","","","",""
"","","","","","5c9bfbfa325c3d001ad360a8","bdp_rwlrn","Wed Mar 15 2023 19:52:44 GMT-0700 (Pacific Daylight Time)","1126030","Untrustworthy,Trustworthy","instructions","3","445771","0.0-4.0","[{""page_index"":0,""viewing_time"":11046},{""page_index"":1,""viewing_time"":13509},{""page_index"":2,""viewing_time"":2394},{""page_index"":3,""viewing_time"":5691},{""page_index"":4,""viewing_time"":41517},{""page_index"":5,""viewing_time"":1563}]","75720","","","","","","","","","","","","","",""
"","","","","","5c9bfbfa325c3d001ad360a8","bdp_rwlrn","Wed Mar 15 2023 19:52:44 GMT-0700 (Pacific Daylight Time)","1126030","Untrustworthy,Trustworthy","html-keyboard-response","4","448720","0.0-5.0","","2947","","<div class='header' style='text-align:left; position: absolute; top: 5%; left: 5%;'><small>Task 3 of 5</small></div><div class='instruxDiv'><p><strong>1) What is the maximum number of points you can choose to bet on a lottery?</strong></p><p>a) 0</p><p>b) 1</p><p>c) 5</p>","C","","","","","","","","","","",""
"","","","","","5c9bfbfa325c3d001ad360a8","bdp_rwlrn","Wed Mar 15 2023 19:52:44 GMT-0700 (Pacific Daylight Time)","1126030","Untrustworthy,Trustworthy","html-keyboard-response","5","449554","0.0-6.0","","731","","<div class='header' style='text-align:left; position: absolute; top: 5%; left: 5%;'><small>Task 3 of 5</small></div><div class='instruxDiv'><p><strong>1) What is the maximum number of points you can choose to bet on a lottery?</strong></p><p>a) 1</p><p>b) 1</p><p style='color:#00FF00'>c) 5</p><h3 style='color:#00FF00'>Correct!</h3><h3 class='center-content'>The correct response is c).</h3><h3 class='center-content'>The maximum number of points you can choose to bet on a lottery is 5 points.</h3><p><em>Press SPACEBAR to continue</em></p></div>"," ","","","","","","","","","","",""
"","","","","","5c9bfbfa325c3d001ad360a8","bdp_rwlrn","Wed Mar 15 2023 19:52:44 GMT-0700 (Pacific Daylight Time)","1126030","Untrustworthy,Trustworthy","html-keyboard-response","6","454482","0.0-7.0","","4827","","<div class='header' style='text-align:left; position: absolute; top: 5%; left: 5%;'><small>Task 3 of 5</small></div><div class='instruxDiv'><p><strong>2) How many points can you win each round?</strong></p><p>a) 10 points</p><p>b) Double what you bet</p><p>c) Quadruple what you bet</p>","B","","","","","","","","","","",""
"","","","","","5c9bfbfa325c3d001ad360a8","bdp_rwlrn","Wed Mar 15 2023 19:52:44 GMT-0700 (Pacific Daylight Time)","1126030","Untrustworthy,Trustworthy","html-keyboard-response","7","455284","0.0-8.0","","692","","<div class='header' style='text-align:left; position: absolute; top: 5%; left: 5%;'><small>Task 3 of 5</small></div><div class='instruxDiv'><p><strong>2) How many points can you win each round?</strong></p><p>a) 10 points</p><p style='color:#00FF00'>b) Double what you bet</p><p>c) Quadruple what you bet</p><h3 style='color:#00FF00'>Correct!</h3><h3 class='center-content'>The correct response is b).</h3><h3 class='center-content'>You can win double the amount of points you bet.</h3><p><em>Press SPACEBAR to continue</em></p></div>"," ","","","","","","","","","","",""
"","","","","","5c9bfbfa325c3d001ad360a8","bdp_rwlrn","Wed Mar 15 2023 19:52:44 GMT-0700 (Pacific Daylight Time)","1126030","Untrustworthy,Trustworthy","html-keyboard-response","8","460393","0.0-9.0","","null","","<div class='header' style='text-align:left; position: absolute; top: 5%; left: 5%;'><small>Task 3 of 5</small></div><div class='instruxDiv'><p>Thank you for completing the quiz<p>These are the actual lotteries you will be playing in the next block:<p><div class='tc' align='center'><img class='introPic' src='Fruit/papayas.png'><br><strong>Papaya Payday</strong></div><div class='bl' align='center'><img class='introPic' src='Fruit/melon.png'><br><strong>Melon Millions</strong></div><div class='br' align='center'><img class='introPic' src='Fruit/orange.png'><br><strong>Odds are Orange</strong></div></div><p>Across <strong>66 rounds</strong> you will play each lottery <strong>22 times</strong> (in random order).<p style='align:center; color:white'><font <em>Press SPACEBAR to continue</em></p>","null","","","","","","","","","","",""
"","","","","","5c9bfbfa325c3d001ad360a8","bdp_rwlrn","Wed Mar 15 2023 19:52:44 GMT-0700 (Pacific Daylight Time)","1126030","Untrustworthy,Trustworthy","instructions","9","478363","0.0-10.0","[{""page_index"":0,""viewing_time"":16713},{""page_index"":1,""viewing_time"":1255}]","17969","","","","","","","","","","","","","",""
"","","","decision","","5c9bfbfa325c3d001ad360a8","bdp_rwlrn","Wed Mar 15 2023 19:52:44 GMT-0700 (Pacific Daylight Time)","1126030","Untrustworthy,Trustworthy","html-keyboard-response","10","485456","0.0-11.0-1.0","","6986","","<div class='trialDiv'><img src='Fruit/melon.png'><br><font class='baseline'><strong>Melon Millions</strong><p>Choose number of points to bet.</font><div class='respPicDiv'><img src='img/responseButtonOffersNo0L.png' class='respPic'></div></div>","3","1","Melon Millions","Fruit/melon.png","Lost","0.2,0.65","8","0.2","5","1","",""
"","","","decisionFB","","5c9bfbfa325c3d001ad360a8","bdp_rwlrn","Wed Mar 15 2023 19:52:44 GMT-0700 (Pacific Daylight Time)","1126030","Untrustworthy,Trustworthy","html-keyboard-response","11","485713","0.0-11.0-2.0","","null","","<div class='trialDiv'><img src='Fruit/melon.png'><br><font class='baseline'><strong>Melon Millions</strong><p>Choose number of points to bet.</font><div class='respPicDiv'><img src='img/responseButtonOffersNo0L3.png' class='respPic'></div></div>","null","1","Melon Millions","Fruit/melon.png","Lost","0.2,0.65","8","0.2","2","1","",""
"","","","feedback","","5c9bfbfa325c3d001ad360a8","bdp_rwlrn","Wed Mar 15 2023 19:52:44 GMT-0700 (Pacific Daylight Time)","1126030","Untrustworthy,Trustworthy","html-keyboard-response","12","486724","0.0-11.0-3.0","","null","","<div class='respPicDiv'><img src='img/responseButtonOffersNo0_wht.png' class='respPic'></div><div class='trialDiv'><img src='Fruit/melon.png'><br><font class='baseline'><strong>Melon Millions</strong><p><strong><font class='negOutcome'>You LOST</font><p>You bet: 3</strong></font> &nbsp; &nbsp; &nbsp; &nbsp; &nbsp; &nbsp;<font class='negOutcome'>You receive: <strong>0</strong></font></div>","null","1","Melon Millions","Fruit/melon.png","Lost","0.2,0.65","8","0.2","2","1","",""
"","","","decision","","5c9bfbfa325c3d001ad360a8","bdp_rwlrn","Wed Mar 15 2023 19:52:44 GMT-0700 (Pacific Daylight Time)","1126030","Untrustworthy,Trustworthy","html-keyboard-response","13","489600","0.0-11.0-1.1","","2876","","<div class='trialDiv'><img src='Fruit/orange.png'><br><font class='baseline'><strong>Odds are Orange</strong><p>Choose number of points to bet.</font><div class='respPicDiv'><img src='img/responseButtonOffersNo0L.png' class='respPic'></div></div>","1","1","Odds are Orange","Fruit/orange.png","Lost","0.65,0.35","11","0.65","7","2","",""
"","","","decisionFB","","5c9bfbfa325c3d001ad360a8","bdp_rwlrn","Wed Mar 15 2023 19:52:44 GMT-0700 (Pacific Daylight Time)","1126030","Untrustworthy,Trustworthy","html-keyboard-response","14","489853","0.0-11.0-2.1","","null","","<div class='trialDiv'><img src='Fruit/orange.png'><br><font class='baseline'><strong>Odds are Orange</strong><p>Choose number of points to bet.</font><div class='respPicDiv'><img src='img/responseButtonOffersNo0L1.png' class='respPic'></div></div>","null","1","Odds are Orange","Fruit/orange.png","Lost","0.65,0.35","11","0.65","6","2","",""
"","","","feedback","","5c9bfbfa325c3d001ad360a8","bdp_rwlrn","Wed Mar 15 2023 19:52:44 GMT-0700 (Pacific Daylight Time)","1126030","Untrustworthy,Trustworthy","html-keyboard-response","15","490859","0.0-11.0-3.1","","null","","<div class='respPicDiv'><img src='img/responseButtonOffersNo0_wht.png' class='respPic'></div><div class='trialDiv'><img src='Fruit/orange.png'><br><font class='baseline'><strong>Odds are Orange</strong><p><strong><font class='negOutcome'>You LOST</font><p>You bet: 1</strong></font> &nbsp; &nbsp; &nbsp; &nbsp; &nbsp; &nbsp;<font class='negOutcome'>You receive: <strong>0</strong></font></div>","null","1","Odds are Orange","Fruit/orange.png","Lost","0.65,0.35","11","0.65","6","2","",""
"","","","decision","","5c9bfbfa325c3d001ad360a8","bdp_rwlrn","Wed Mar 15 2023 19:52:44 GMT-0700 (Pacific Daylight Time)","1126030","Untrustworthy,Trustworthy","html-keyboard-response","16","491443","0.0-11.0-1.2","","582","","<div class='trialDiv'><img src='Fruit/papayas.png'><br><font class='baseline'><strong>Papaya Payday</strong><p>Choose number of points to bet.</font><div class='respPicDiv'><img src='img/responseButtonOffersNo0L.png' class='respPic'></div></div>","1","1","Papaya Payday","Fruit/papayas.png","Won","0.8,0.35","11","0.8","11","3","",""
"","","","decisionFB","","5c9bfbfa325c3d001ad360a8","bdp_rwlrn","Wed Mar 15 2023 19:52:44 GMT-0700 (Pacific Daylight Time)","1126030","Untrustworthy,Trustworthy","html-keyboard-response","17","491702","0.0-11.0-2.2","","null","","<div class='trialDiv'><img src='Fruit/papayas.png'><br><font class='baseline'><strong>Papaya Payday</strong><p>Choose number of points to bet.</font><div class='respPicDiv'><img src='img/responseButtonOffersNo0L1.png' class='respPic'></div></div>","null","1","Papaya Payday","Fruit/papayas.png","Won","0.8,0.35","11","0.8","10","3","",""
"","","","feedback","","5c9bfbfa325c3d001ad360a8","bdp_rwlrn","Wed Mar 15 2023 19:52:44 GMT-0700 (Pacific Daylight Time)","1126030","Untrustworthy,Trustworthy","html-keyboard-response","18","492713","0.0-11.0-3.2","","null","","<div class='respPicDiv'><img src='img/responseButtonOffersNo0_wht.png' class='respPic'></div><div class='trialDiv'><img src='Fruit/papayas.png'><br><font class='baseline'><strong>Papaya Payday</strong><p><strong><font class='posOutcome'>You WON</font><p>You bet: 1</strong></font> &nbsp; &nbsp; &nbsp; &nbsp; &nbsp; &nbsp;<font class='posOutcome'>you receive: <strong>2</strong></font></div>","null","1","Papaya Payday","Fruit/papayas.png","Won","0.8,0.35","11","0.8","12","3","",""
"","","","decision","","5c9bfbfa325c3d001ad360a8","bdp_rwlrn","Wed Mar 15 2023 19:52:44 GMT-0700 (Pacific Daylight Time)","1126030","Untrustworthy,Trustworthy","html-keyboard-response","19","494731","0.0-11.0-1.3","","2017","","<div class='trialDiv'><img src='Fruit/melon.png'><br><font class='baseline'><strong>Melon Millions</strong><p>Choose number of points to bet.</font><div class='respPicDiv'><img src='img/responseButtonOffersNo0L.png' class='respPic'></div></div>","1","2","Melon Millions","Fruit/melon.png","Lost","0.2,0.65","8","0.2","17","4","",""
"","","","decisionFB","","5c9bfbfa325c3d001ad360a8","bdp_rwlrn","Wed Mar 15 2023 19:52:44 GMT-0700 (Pacific Daylight Time)","1126030","Untrustworthy,Trustworthy","html-keyboard-response","20","494988","0.0-11.0-2.3","","null","","<div class='trialDiv'><img src='Fruit/melon.png'><br><font class='baseline'><strong>Melon Millions</strong><p>Choose number of points to bet.</font><div class='respPicDiv'><img src='img/responseButtonOffersNo0L1.png' class='respPic'></div></div>","null","2","Melon Millions","Fruit/melon.png","Lost","0.2,0.65","8","0.2","16","4","",""
"","","","feedback","","5c9bfbfa325c3d001ad360a8","bdp_rwlrn","Wed Mar 15 2023 19:52:44 GMT-0700 (Pacific Daylight Time)","1126030","Untrustworthy,Trustworthy","html-keyboard-response","21","495990","0.0-11.0-3.3","","null","","<div class='respPicDiv'><img src='img/responseButtonOffersNo0_wht.png' class='respPic'></div><div class='trialDiv'><img src='Fruit/melon.png'><br><font class='baseline'><strong>Melon Millions</strong><p><strong><font class='negOutcome'>You LOST</font><p>You bet: 1</strong></font> &nbsp; &nbsp; &nbsp; &nbsp; &nbsp; &nbsp;<font class='negOutcome'>You receive: <strong>0</strong></font></div>","null","2","Melon Millions","Fruit/melon.png","Lost","0.2,0.65","8","0.2","16","4","",""
"","","","decision","","5c9bfbfa325c3d001ad360a8","bdp_rwlrn","Wed Mar 15 2023 19:52:44 GMT-0700 (Pacific Daylight Time)","1126030","Untrustworthy,Trustworthy","html-keyboard-response","22","497124","0.0-11.0-1.4","","1132","","<div class='trialDiv'><img src='Fruit/orange.png'><br><font class='baseline'><strong>Odds are Orange</strong><p>Choose number of points to bet.</font><div class='respPicDiv'><img src='img/responseButtonOffersNo0L.png' class='respPic'></div></div>","1","2","Odds are Orange","Fruit/orange.png","Won","0.65,0.35","11","0.65","21","5","",""
"","","","decisionFB","","5c9bfbfa325c3d001ad360a8","bdp_rwlrn","Wed Mar 15 2023 19:52:44 GMT-0700 (Pacific Daylight Time)","1126030","Untrustworthy,Trustworthy","html-keyboard-response","23","497380","0.0-11.0-2.4","","null","","<div class='trialDiv'><img src='Fruit/orange.png'><br><font class='baseline'><strong>Odds are Orange</strong><p>Choose number of points to bet.</font><div class='respPicDiv'><img src='img/responseButtonOffersNo0L1.png' class='respPic'></div></div>","null","2","Odds are Orange","Fruit/orange.png","Won","0.65,0.35","11","0.65","20","5","",""
"","","","feedback","","5c9bfbfa325c3d001ad360a8","bdp_rwlrn","Wed Mar 15 2023 19:52:44 GMT-0700 (Pacific Daylight Time)","1126030","Untrustworthy,Trustworthy","html-keyboard-response","24","498385","0.0-11.0-3.4","","null","","<div class='respPicDiv'><img src='img/responseButtonOffersNo0_wht.png' class='respPic'></div><div class='trialDiv'><img src='Fruit/orange.png'><br><font class='baseline'><strong>Odds are Orange</strong><p><strong><font class='posOutcome'>You WON</font><p>You bet: 1</strong></font> &nbsp; &nbsp; &nbsp; &nbsp; &nbsp; &nbsp;<font class='posOutcome'>you receive: <strong>2</strong></font></div>","null","2","Odds are Orange","Fruit/orange.png","Won","0.65,0.35","11","0.65","22","5","",""
"","","","decision","","5c9bfbfa325c3d001ad360a8","bdp_rwlrn","Wed Mar 15 2023 19:52:44 GMT-0700 (Pacific Daylight Time)","1126030","Untrustworthy,Trustworthy","html-keyboard-response","25","499541","0.0-11.0-1.5","","1155","","<div class='trialDiv'><img src='Fruit/papayas.png'><br><font class='baseline'><strong>Papaya Payday</strong><p>Choose number of points to bet.</font><div class='respPicDiv'><img src='img/responseButtonOffersNo0L.png' class='respPic'></div></div>","2","2","Papaya Payday","Fruit/papayas.png","Won","0.8,0.35","11","0.8","27","6","",""
"","","","decisionFB","","5c9bfbfa325c3d001ad360a8","bdp_rwlrn","Wed Mar 15 2023 19:52:44 GMT-0700 (Pacific Daylight Time)","1126030","Untrustworthy,Trustworthy","html-keyboard-response","26","499797","0.0-11.0-2.5","","null","","<div class='trialDiv'><img src='Fruit/papayas.png'><br><font class='baseline'><strong>Papaya Payday</strong><p>Choose number of points to bet.</font><div class='respPicDiv'><img src='img/responseButtonOffersNo0L2.png' class='respPic'></div></div>","null","2","Papaya Payday","Fruit/papayas.png","Won","0.8,0.35","11","0.8","25","6","",""
"","","","feedback","","5c9bfbfa325c3d001ad360a8","bdp_rwlrn","Wed Mar 15 2023 19:52:44 GMT-0700 (Pacific Daylight Time)","1126030","Untrustworthy,Trustworthy","html-keyboard-response","27","500799","0.0-11.0-3.5","","null","","<div class='respPicDiv'><img src='img/responseButtonOffersNo0_wht.png' class='respPic'></div><div class='trialDiv'><img src='Fruit/papayas.png'><br><font class='baseline'><strong>Papaya Payday</strong><p><strong><font class='posOutcome'>You WON</font><p>You bet: 2</strong></font> &nbsp; &nbsp; &nbsp; &nbsp; &nbsp; &nbsp;<font class='posOutcome'>you receive: <strong>4</strong></font></div>","null","2","Papaya Payday","Fruit/papayas.png","Won","0.8,0.35","11","0.8","29","6","",""
"","","","decision","","5c9bfbfa325c3d001ad360a8","bdp_rwlrn","Wed Mar 15 2023 19:52:44 GMT-0700 (Pacific Daylight Time)","1126030","Untrustworthy,Trustworthy","html-keyboard-response","28","501985","0.0-11.0-1.6","","1185","","<div class='trialDiv'><img src='Fruit/melon.png'><br><font class='baseline'><strong>Melon Millions</strong><p>Choose number of points to bet.</font><div class='respPicDiv'><img src='img/responseButtonOffersNo0L.png' class='respPic'></div></div>","1","3","Melon Millions","Fruit/melon.png","Lost","0.2,0.65","8","0.2","34","7","",""
"","","","decisionFB","","5c9bfbfa325c3d001ad360a8","bdp_rwlrn","Wed Mar 15 2023 19:52:44 GMT-0700 (Pacific Daylight Time)","1126030","Untrustworthy,Trustworthy","html-keyboard-response","29","502238","0.0-11.0-2.6","","null","","<div class='trialDiv'><img src='Fruit/melon.png'><br><font class='baseline'><strong>Melon Millions</strong><p>Choose number of points to bet.</font><div class='respPicDiv'><img src='img/responseButtonOffersNo0L1.png' class='respPic'></div></div>","null","3","Melon Millions","Fruit/melon.png","Lost","0.2,0.65","8","0.2","33","7","",""
"","","","feedback","","5c9bfbfa325c3d001ad360a8","bdp_rwlrn","Wed Mar 15 2023 19:52:44 GMT-0700 (Pacific Daylight Time)","1126030","Untrustworthy,Trustworthy","html-keyboard-response","30","503245","0.0-11.0-3.6","","null","","<div class='respPicDiv'><img src='img/responseButtonOffersNo0_wht.png' class='respPic'></div><div class='trialDiv'><img src='Fruit/melon.png'><br><font class='baseline'><strong>Melon Millions</strong><p><strong><font class='negOutcome'>You LOST</font><p>You bet: 1</strong></font> &nbsp; &nbsp; &nbsp; &nbsp; &nbsp; &nbsp;<font class='negOutcome'>You receive: <strong>0</strong></font></div>","null","3","Melon Millions","Fruit/melon.png","Lost","0.2,0.65","8","0.2","33","7","",""
"","","","decision","","5c9bfbfa325c3d001ad360a8","bdp_rwlrn","Wed Mar 15 2023 19:52:44 GMT-0700 (Pacific Daylight Time)","1126030","Untrustworthy,Trustworthy","html-keyboard-response","31","504262","0.0-11.0-1.7","","1016","","<div class='trialDiv'><img src='Fruit/papayas.png'><br><font class='baseline'><strong>Papaya Payday</strong><p>Choose number of points to bet.</font><div class='respPicDiv'><img src='img/responseButtonOffersNo0L.png' class='respPic'></div></div>","2","3","Papaya Payday","Fruit/papayas.png","Won","0.8,0.35","11","0.8","38","8","",""
"","","","decisionFB","","5c9bfbfa325c3d001ad360a8","bdp_rwlrn","Wed Mar 15 2023 19:52:44 GMT-0700 (Pacific Daylight Time)","1126030","Untrustworthy,Trustworthy","html-keyboard-response","32","504520","0.0-11.0-2.7","","null","","<div class='trialDiv'><img src='Fruit/papayas.png'><br><font class='baseline'><strong>Papaya Payday</strong><p>Choose number of points to bet.</font><div class='respPicDiv'><img src='img/responseButtonOffersNo0L2.png' class='respPic'></div></div>","null","3","Papaya Payday","Fruit/papayas.png","Won","0.8,0.35","11","0.8","36","8","",""
"","","","feedback","","5c9bfbfa325c3d001ad360a8","bdp_rwlrn","Wed Mar 15 2023 19:52:44 GMT-0700 (Pacific Daylight Time)","1126030","Untrustworthy,Trustworthy","html-keyboard-response","33","505526","0.0-11.0-3.7","","null","","<div class='respPicDiv'><img src='img/responseButtonOffersNo0_wht.png' class='respPic'></div><div class='trialDiv'><img src='Fruit/papayas.png'><br><font class='baseline'><strong>Papaya Payday</strong><p><strong><font class='posOutcome'>You WON</font><p>You bet: 2</strong></font> &nbsp; &nbsp; &nbsp; &nbsp; &nbsp; &nbsp;<font class='posOutcome'>you receive: <strong>4</strong></font></div>","null","3","Papaya Payday","Fruit/papayas.png","Won","0.8,0.35","11","0.8","40","8","",""
"","","","decision","","5c9bfbfa325c3d001ad360a8","bdp_rwlrn","Wed Mar 15 2023 19:52:44 GMT-0700 (Pacific Daylight Time)","1126030","Untrustworthy,Trustworthy","html-keyboard-response","34","506342","0.0-11.0-1.8","","814","","<div class='trialDiv'><img src='Fruit/orange.png'><br><font class='baseline'><strong>Odds are Orange</strong><p>Choose number of points to bet.</font><div class='respPicDiv'><img src='img/responseButtonOffersNo0L.png' class='respPic'></div></div>","1","3","Odds are Orange","Fruit/orange.png","Won","0.65,0.35","11","0.65","45","9","",""
"","","","decisionFB","","5c9bfbfa325c3d001ad360a8","bdp_rwlrn","Wed Mar 15 2023 19:52:44 GMT-0700 (Pacific Daylight Time)","1126030","Untrustworthy,Trustworthy","html-keyboard-response","35","506596","0.0-11.0-2.8","","null","","<div class='trialDiv'><img src='Fruit/orange.png'><br><font class='baseline'><strong>Odds are Orange</strong><p>Choose number of points to bet.</font><div class='respPicDiv'><img src='img/responseButtonOffersNo0L1.png' class='respPic'></div></div>","null","3","Odds are Orange","Fruit/orange.png","Won","0.65,0.35","11","0.65","44","9","",""
"","","","feedback","","5c9bfbfa325c3d001ad360a8","bdp_rwlrn","Wed Mar 15 2023 19:52:44 GMT-0700 (Pacific Daylight Time)","1126030","Untrustworthy,Trustworthy","html-keyboard-response","36","507607","0.0-11.0-3.8","","null","","<div class='respPicDiv'><img src='img/responseButtonOffersNo0_wht.png' class='respPic'></div><div class='trialDiv'><img src='Fruit/orange.png'><br><font class='baseline'><strong>Odds are Orange</strong><p><strong><font class='posOutcome'>You WON</font><p>You bet: 1</strong></font> &nbsp; &nbsp; &nbsp; &nbsp; &nbsp; &nbsp;<font class='posOutcome'>you receive: <strong>2</strong></font></div>","null","3","Odds are Orange","Fruit/orange.png","Won","0.65,0.35","11","0.65","46","9","",""
"","","","decision","","5c9bfbfa325c3d001ad360a8","bdp_rwlrn","Wed Mar 15 2023 19:52:44 GMT-0700 (Pacific Daylight Time)","1126030","Untrustworthy,Trustworthy","html-keyboard-response","37","508482","0.0-11.0-1.9","","873","","<div class='trialDiv'><img src='Fruit/melon.png'><br><font class='baseline'><strong>Melon Millions</strong><p>Choose number of points to bet.</font><div class='respPicDiv'><img src='img/responseButtonOffersNo0L.png' class='respPic'></div></div>","1","4","Melon Millions","Fruit/melon.png","Lost","0.2,0.65","8","0.2","51","10","",""
"","","","decisionFB","","5c9bfbfa325c3d001ad360a8","bdp_rwlrn","Wed Mar 15 2023 19:52:44 GMT-0700 (Pacific Daylight Time)","1126030","Untrustworthy,Trustworthy","html-keyboard-response","38","508733","0.0-11.0-2.9","","null","","<div class='trialDiv'><img src='Fruit/melon.png'><br><font class='baseline'><strong>Melon Millions</strong><p>Choose number of points to bet.</font><div class='respPicDiv'><img src='img/responseButtonOffersNo0L1.png' class='respPic'></div></div>","null","4","Melon Millions","Fruit/melon.png","Lost","0.2,0.65","8","0.2","50","10","",""
"","","","feedback","","5c9bfbfa325c3d001ad360a8","bdp_rwlrn","Wed Mar 15 2023 19:52:44 GMT-0700 (Pacific Daylight Time)","1126030","Untrustworthy,Trustworthy","html-keyboard-response","39","509741","0.0-11.0-3.9","","null","","<div class='respPicDiv'><img src='img/responseButtonOffersNo0_wht.png' class='respPic'></div><div class='trialDiv'><img src='Fruit/melon.png'><br><font class='baseline'><strong>Melon Millions</strong><p><strong><font class='negOutcome'>You LOST</font><p>You bet: 1</strong></font> &nbsp; &nbsp; &nbsp; &nbsp; &nbsp; &nbsp;<font class='negOutcome'>You receive: <strong>0</strong></font></div>","null","4","Melon Millions","Fruit/melon.png","Lost","0.2,0.65","8","0.2","50","10","",""
"","","","decision","","5c9bfbfa325c3d001ad360a8","bdp_rwlrn","Wed Mar 15 2023 19:52:44 GMT-0700 (Pacific Daylight Time)","1126030","Untrustworthy,Trustworthy","html-keyboard-response","40","510211","0.0-11.0-1.10","","468","","<div class='trialDiv'><img src='Fruit/papayas.png'><br><font class='baseline'><strong>Papaya Payday</strong><p>Choose number of points to bet.</font><div class='respPicDiv'><img src='img/responseButtonOffersNo0L.png' class='respPic'></div></div>","1","4","Papaya Payday","Fruit/papayas.png","Won","0.8,0.35","11","0.8","55","11","",""
"","","","decisionFB","","5c9bfbfa325c3d001ad360a8","bdp_rwlrn","Wed Mar 15 2023 19:52:44 GMT-0700 (Pacific Daylight Time)","1126030","Untrustworthy,Trustworthy","html-keyboard-response","41","510468","0.0-11.0-2.10","","null","","<div class='trialDiv'><img src='Fruit/papayas.png'><br><font class='baseline'><strong>Papaya Payday</strong><p>Choose number of points to bet.</font><div class='respPicDiv'><img src='img/responseButtonOffersNo0L1.png' class='respPic'></div></div>","null","4","Papaya Payday","Fruit/papayas.png","Won","0.8,0.35","11","0.8","54","11","",""
"","","","feedback","","5c9bfbfa325c3d001ad360a8","bdp_rwlrn","Wed Mar 15 2023 19:52:44 GMT-0700 (Pacific Daylight Time)","1126030","Untrustworthy,Trustworthy","html-keyboard-response","42","511474","0.0-11.0-3.10","","null","","<div class='respPicDiv'><img src='img/responseButtonOffersNo0_wht.png' class='respPic'></div><div class='trialDiv'><img src='Fruit/papayas.png'><br><font class='baseline'><strong>Papaya Payday</strong><p><strong><font class='posOutcome'>You WON</font><p>You bet: 1</strong></font> &nbsp; &nbsp; &nbsp; &nbsp; &nbsp; &nbsp;<font class='posOutcome'>you receive: <strong>2</strong></font></div>","null","4","Papaya Payday","Fruit/papayas.png","Won","0.8,0.35","11","0.8","56","11","",""
"","","","decision","","5c9bfbfa325c3d001ad360a8","bdp_rwlrn","Wed Mar 15 2023 19:52:44 GMT-0700 (Pacific Daylight Time)","1126030","Untrustworthy,Trustworthy","html-keyboard-response","43","512147","0.0-11.0-1.11","","672","","<div class='trialDiv'><img src='Fruit/orange.png'><br><font class='baseline'><strong>Odds are Orange</strong><p>Choose number of points to bet.</font><div class='respPicDiv'><img src='img/responseButtonOffersNo0L.png' class='respPic'></div></div>","1","4","Odds are Orange","Fruit/orange.png","Won","0.65,0.35","11","0.65","61","12","",""
"","","","decisionFB","","5c9bfbfa325c3d001ad360a8","bdp_rwlrn","Wed Mar 15 2023 19:52:44 GMT-0700 (Pacific Daylight Time)","1126030","Untrustworthy,Trustworthy","html-keyboard-response","44","512398","0.0-11.0-2.11","","null","","<div class='trialDiv'><img src='Fruit/orange.png'><br><font class='baseline'><strong>Odds are Orange</strong><p>Choose number of points to bet.</font><div class='respPicDiv'><img src='img/responseButtonOffersNo0L1.png' class='respPic'></div></div>","null","4","Odds are Orange","Fruit/orange.png","Won","0.65,0.35","11","0.65","60","12","",""
"","","","feedback","","5c9bfbfa325c3d001ad360a8","bdp_rwlrn","Wed Mar 15 2023 19:52:44 GMT-0700 (Pacific Daylight Time)","1126030","Untrustworthy,Trustworthy","html-keyboard-response","45","513407","0.0-11.0-3.11","","null","","<div class='respPicDiv'><img src='img/responseButtonOffersNo0_wht.png' class='respPic'></div><div class='trialDiv'><img src='Fruit/orange.png'><br><font class='baseline'><strong>Odds are Orange</strong><p><strong><font class='posOutcome'>You WON</font><p>You bet: 1</strong></font> &nbsp; &nbsp; &nbsp; &nbsp; &nbsp; &nbsp;<font class='posOutcome'>you receive: <strong>2</strong></font></div>","null","4","Odds are Orange","Fruit/orange.png","Won","0.65,0.35","11","0.65","62","12","",""
"","","","decision","","5c9bfbfa325c3d001ad360a8","bdp_rwlrn","Wed Mar 15 2023 19:52:44 GMT-0700 (Pacific Daylight Time)","1126030","Untrustworthy,Trustworthy","html-keyboard-response","46","514158","0.0-11.0-1.12","","750","","<div class='trialDiv'><img src='Fruit/papayas.png'><br><font class='baseline'><strong>Papaya Payday</strong><p>Choose number of points to bet.</font><div class='respPicDiv'><img src='img/responseButtonOffersNo0L.png' class='respPic'></div></div>","2","5","Papaya Payday","Fruit/papayas.png","Won","0.8,0.35","11","0.8","67","13","",""
"","","","decisionFB","","5c9bfbfa325c3d001ad360a8","bdp_rwlrn","Wed Mar 15 2023 19:52:44 GMT-0700 (Pacific Daylight Time)","1126030","Untrustworthy,Trustworthy","html-keyboard-response","47","514423","0.0-11.0-2.12","","null","","<div class='trialDiv'><img src='Fruit/papayas.png'><br><font class='baseline'><strong>Papaya Payday</strong><p>Choose number of points to bet.</font><div class='respPicDiv'><img src='img/responseButtonOffersNo0L2.png' class='respPic'></div></div>","null","5","Papaya Payday","Fruit/papayas.png","Won","0.8,0.35","11","0.8","65","13","",""
"","","","feedback","","5c9bfbfa325c3d001ad360a8","bdp_rwlrn","Wed Mar 15 2023 19:52:44 GMT-0700 (Pacific Daylight Time)","1126030","Untrustworthy,Trustworthy","html-keyboard-response","48","515430","0.0-11.0-3.12","","null","","<div class='respPicDiv'><img src='img/responseButtonOffersNo0_wht.png' class='respPic'></div><div class='trialDiv'><img src='Fruit/papayas.png'><br><font class='baseline'><strong>Papaya Payday</strong><p><strong><font class='posOutcome'>You WON</font><p>You bet: 2</strong></font> &nbsp; &nbsp; &nbsp; &nbsp; &nbsp; &nbsp;<font class='posOutcome'>you receive: <strong>4</strong></font></div>","null","5","Papaya Payday","Fruit/papayas.png","Won","0.8,0.35","11","0.8","69","13","",""
"","","","decision","","5c9bfbfa325c3d001ad360a8","bdp_rwlrn","Wed Mar 15 2023 19:52:44 GMT-0700 (Pacific Daylight Time)","1126030","Untrustworthy,Trustworthy","html-keyboard-response","49","515913","0.0-11.0-1.13","","483","","<div class='trialDiv'><img src='Fruit/melon.png'><br><font class='baseline'><strong>Melon Millions</strong><p>Choose number of points to bet.</font><div class='respPicDiv'><img src='img/responseButtonOffersNo0L.png' class='respPic'></div></div>","2","5","Melon Millions","Fruit/melon.png","Won","0.2,0.65","8","0.2","74","14","",""
"","","","decisionFB","","5c9bfbfa325c3d001ad360a8","bdp_rwlrn","Wed Mar 15 2023 19:52:44 GMT-0700 (Pacific Daylight Time)","1126030","Untrustworthy,Trustworthy","html-keyboard-response","50","516169","0.0-11.0-2.13","","null","","<div class='trialDiv'><img src='Fruit/melon.png'><br><font class='baseline'><strong>Melon Millions</strong><p>Choose number of points to bet.</font><div class='respPicDiv'><img src='img/responseButtonOffersNo0L2.png' class='respPic'></div></div>","null","5","Melon Millions","Fruit/melon.png","Won","0.2,0.65","8","0.2","72","14","",""
"","","","feedback","","5c9bfbfa325c3d001ad360a8","bdp_rwlrn","Wed Mar 15 2023 19:52:44 GMT-0700 (Pacific Daylight Time)","1126030","Untrustworthy,Trustworthy","html-keyboard-response","51","517174","0.0-11.0-3.13","","null","","<div class='respPicDiv'><img src='img/responseButtonOffersNo0_wht.png' class='respPic'></div><div class='trialDiv'><img src='Fruit/melon.png'><br><font class='baseline'><strong>Melon Millions</strong><p><strong><font class='posOutcome'>You WON</font><p>You bet: 2</strong></font> &nbsp; &nbsp; &nbsp; &nbsp; &nbsp; &nbsp;<font class='posOutcome'>you receive: <strong>4</strong></font></div>","null","5","Melon Millions","Fruit/melon.png","Won","0.2,0.65","8","0.2","76","14","",""
"","","","decision","","5c9bfbfa325c3d001ad360a8","bdp_rwlrn","Wed Mar 15 2023 19:52:44 GMT-0700 (Pacific Daylight Time)","1126030","Untrustworthy,Trustworthy","html-keyboard-response","52","517597","0.0-11.0-1.14","","421","","<div class='trialDiv'><img src='Fruit/orange.png'><br><font class='baseline'><strong>Odds are Orange</strong><p>Choose number of points to bet.</font><div class='respPicDiv'><img src='img/responseButtonOffersNo0L.png' class='respPic'></div></div>","2","5","Odds are Orange","Fruit/orange.png","Lost","0.65,0.35","11","0.65","81","15","",""
"","","","decisionFB","","5c9bfbfa325c3d001ad360a8","bdp_rwlrn","Wed Mar 15 2023 19:52:44 GMT-0700 (Pacific Daylight Time)","1126030","Untrustworthy,Trustworthy","html-keyboard-response","53","517848","0.0-11.0-2.14","","null","","<div class='trialDiv'><img src='Fruit/orange.png'><br><font class='baseline'><strong>Odds are Orange</strong><p>Choose number of points to bet.</font><div class='respPicDiv'><img src='img/responseButtonOffersNo0L2.png' class='respPic'></div></div>","null","5","Odds are Orange","Fruit/orange.png","Lost","0.65,0.35","11","0.65","79","15","",""
"","","","feedback","","5c9bfbfa325c3d001ad360a8","bdp_rwlrn","Wed Mar 15 2023 19:52:44 GMT-0700 (Pacific Daylight Time)","1126030","Untrustworthy,Trustworthy","html-keyboard-response","54","518851","0.0-11.0-3.14","","null","","<div class='respPicDiv'><img src='img/responseButtonOffersNo0_wht.png' class='respPic'></div><div class='trialDiv'><img src='Fruit/orange.png'><br><font class='baseline'><strong>Odds are Orange</strong><p><strong><font class='negOutcome'>You LOST</font><p>You bet: 2</strong></font> &nbsp; &nbsp; &nbsp; &nbsp; &nbsp; &nbsp;<font class='negOutcome'>You receive: <strong>0</strong></font></div>","null","5","Odds are Orange","Fruit/orange.png","Lost","0.65,0.35","11","0.65","79","15","",""
"","","","decision","","5c9bfbfa325c3d001ad360a8","bdp_rwlrn","Wed Mar 15 2023 19:52:44 GMT-0700 (Pacific Daylight Time)","1126030","Untrustworthy,Trustworthy","html-keyboard-response","55","519124","0.0-11.0-1.15","","272","","<div class='trialDiv'><img src='Fruit/melon.png'><br><font class='baseline'><strong>Melon Millions</strong><p>Choose number of points to bet.</font><div class='respPicDiv'><img src='img/responseButtonOffersNo0L.png' class='respPic'></div></div>","2","6","Melon Millions","Fruit/melon.png","Lost","0.2,0.65","8","0.2","84","16","",""
"","","","decisionFB","","5c9bfbfa325c3d001ad360a8","bdp_rwlrn","Wed Mar 15 2023 19:52:44 GMT-0700 (Pacific Daylight Time)","1126030","Untrustworthy,Trustworthy","html-keyboard-response","56","519376","0.0-11.0-2.15","","null","","<div class='trialDiv'><img src='Fruit/melon.png'><br><font class='baseline'><strong>Melon Millions</strong><p>Choose number of points to bet.</font><div class='respPicDiv'><img src='img/responseButtonOffersNo0L2.png' class='respPic'></div></div>","null","6","Melon Millions","Fruit/melon.png","Lost","0.2,0.65","8","0.2","82","16","",""
"","","","feedback","","5c9bfbfa325c3d001ad360a8","bdp_rwlrn","Wed Mar 15 2023 19:52:44 GMT-0700 (Pacific Daylight Time)","1126030","Untrustworthy,Trustworthy","html-keyboard-response","57","520387","0.0-11.0-3.15","","null","","<div class='respPicDiv'><img src='img/responseButtonOffersNo0_wht.png' class='respPic'></div><div class='trialDiv'><img src='Fruit/melon.png'><br><font class='baseline'><strong>Melon Millions</strong><p><strong><font class='negOutcome'>You LOST</font><p>You bet: 2</strong></font> &nbsp; &nbsp; &nbsp; &nbsp; &nbsp; &nbsp;<font class='negOutcome'>You receive: <strong>0</strong></font></div>","null","6","Melon Millions","Fruit/melon.png","Lost","0.2,0.65","8","0.2","82","16","",""
"","","","decision","","5c9bfbfa325c3d001ad360a8","bdp_rwlrn","Wed Mar 15 2023 19:52:44 GMT-0700 (Pacific Daylight Time)","1126030","Untrustworthy,Trustworthy","html-keyboard-response","58","520625","0.0-11.0-1.16","","237","","<div class='trialDiv'><img src='Fruit/papayas.png'><br><font class='baseline'><strong>Papaya Payday</strong><p>Choose number of points to bet.</font><div class='respPicDiv'><img src='img/responseButtonOffersNo0L.png' class='respPic'></div></div>","2","6","Papaya Payday","Fruit/papayas.png","Won","0.8,0.35","11","0.8","87","17","",""
"","","","decisionFB","","5c9bfbfa325c3d001ad360a8","bdp_rwlrn","Wed Mar 15 2023 19:52:44 GMT-0700 (Pacific Daylight Time)","1126030","Untrustworthy,Trustworthy","html-keyboard-response","59","520879","0.0-11.0-2.16","","null","","<div class='trialDiv'><img src='Fruit/papayas.png'><br><font class='baseline'><strong>Papaya Payday</strong><p>Choose number of points to bet.</font><div class='respPicDiv'><img src='img/responseButtonOffersNo0L2.png' class='respPic'></div></div>","null","6","Papaya Payday","Fruit/papayas.png","Won","0.8,0.35","11","0.8","85","17","",""
"","","","feedback","","5c9bfbfa325c3d001ad360a8","bdp_rwlrn","Wed Mar 15 2023 19:52:44 GMT-0700 (Pacific Daylight Time)","1126030","Untrustworthy,Trustworthy","html-keyboard-response","60","521888","0.0-11.0-3.16","","null","","<div class='respPicDiv'><img src='img/responseButtonOffersNo0_wht.png' class='respPic'></div><div class='trialDiv'><img src='Fruit/papayas.png'><br><font class='baseline'><strong>Papaya Payday</strong><p><strong><font class='posOutcome'>You WON</font><p>You bet: 2</strong></font> &nbsp; &nbsp; &nbsp; &nbsp; &nbsp; &nbsp;<font class='posOutcome'>you receive: <strong>4</strong></font></div>","null","6","Papaya Payday","Fruit/papayas.png","Won","0.8,0.35","11","0.8","89","17","",""
"","","","decision","","5c9bfbfa325c3d001ad360a8","bdp_rwlrn","Wed Mar 15 2023 19:52:44 GMT-0700 (Pacific Daylight Time)","1126030","Untrustworthy,Trustworthy","html-keyboard-response","61","521972","0.0-11.0-1.17","","82","","<div class='trialDiv'><img src='Fruit/orange.png'><br><font class='baseline'><strong>Odds are Orange</strong><p>Choose number of points to bet.</font><div class='respPicDiv'><img src='img/responseButtonOffersNo0L.png' class='respPic'></div></div>","2","6","Odds are Orange","Fruit/orange.png","Won","0.65,0.35","11","0.65","94","18","",""
"","","","decisionFB","","5c9bfbfa325c3d001ad360a8","bdp_rwlrn","Wed Mar 15 2023 19:52:44 GMT-0700 (Pacific Daylight Time)","1126030","Untrustworthy,Trustworthy","html-keyboard-response","62","522232","0.0-11.0-2.17","","null","","<div class='trialDiv'><img src='Fruit/orange.png'><br><font class='baseline'><strong>Odds are Orange</strong><p>Choose number of points to bet.</font><div class='respPicDiv'><img src='img/responseButtonOffersNo0L2.png' class='respPic'></div></div>","null","6","Odds are Orange","Fruit/orange.png","Won","0.65,0.35","11","0.65","92","18","",""
"","","","feedback","","5c9bfbfa325c3d001ad360a8","bdp_rwlrn","Wed Mar 15 2023 19:52:44 GMT-0700 (Pacific Daylight Time)","1126030","Untrustworthy,Trustworthy","html-keyboard-response","63","523241","0.0-11.0-3.17","","null","","<div class='respPicDiv'><img src='img/responseButtonOffersNo0_wht.png' class='respPic'></div><div class='trialDiv'><img src='Fruit/orange.png'><br><font class='baseline'><strong>Odds are Orange</strong><p><strong><font class='posOutcome'>You WON</font><p>You bet: 2</strong></font> &nbsp; &nbsp; &nbsp; &nbsp; &nbsp; &nbsp;<font class='posOutcome'>you receive: <strong>4</strong></font></div>","null","6","Odds are Orange","Fruit/orange.png","Won","0.65,0.35","11","0.65","96","18","",""
"","","","decision","","5c9bfbfa325c3d001ad360a8","bdp_rwlrn","Wed Mar 15 2023 19:52:44 GMT-0700 (Pacific Daylight Time)","1126030","Untrustworthy,Trustworthy","html-keyboard-response","64","524267","0.0-11.0-1.18","","1025","","<div class='trialDiv'><img src='Fruit/papayas.png'><br><font class='baseline'><strong>Papaya Payday</strong><p>Choose number of points to bet.</font><div class='respPicDiv'><img src='img/responseButtonOffersNo0L.png' class='respPic'></div></div>","2","7","Papaya Payday","Fruit/papayas.png","Won","0.8,0.35","11","0.8","101","19","",""
"","","","decisionFB","","5c9bfbfa325c3d001ad360a8","bdp_rwlrn","Wed Mar 15 2023 19:52:44 GMT-0700 (Pacific Daylight Time)","1126030","Untrustworthy,Trustworthy","html-keyboard-response","65","524521","0.0-11.0-2.18","","null","","<div class='trialDiv'><img src='Fruit/papayas.png'><br><font class='baseline'><strong>Papaya Payday</strong><p>Choose number of points to bet.</font><div class='respPicDiv'><img src='img/responseButtonOffersNo0L2.png' class='respPic'></div></div>","null","7","Papaya Payday","Fruit/papayas.png","Won","0.8,0.35","11","0.8","99","19","",""
"","","","feedback","","5c9bfbfa325c3d001ad360a8","bdp_rwlrn","Wed Mar 15 2023 19:52:44 GMT-0700 (Pacific Daylight Time)","1126030","Untrustworthy,Trustworthy","html-keyboard-response","66","525524","0.0-11.0-3.18","","null","","<div class='respPicDiv'><img src='img/responseButtonOffersNo0_wht.png' class='respPic'></div><div class='trialDiv'><img src='Fruit/papayas.png'><br><font class='baseline'><strong>Papaya Payday</strong><p><strong><font class='posOutcome'>You WON</font><p>You bet: 2</strong></font> &nbsp; &nbsp; &nbsp; &nbsp; &nbsp; &nbsp;<font class='posOutcome'>you receive: <strong>4</strong></font></div>","null","7","Papaya Payday","Fruit/papayas.png","Won","0.8,0.35","11","0.8","103","19","",""
"","","","decision","","5c9bfbfa325c3d001ad360a8","bdp_rwlrn","Wed Mar 15 2023 19:52:44 GMT-0700 (Pacific Daylight Time)","1126030","Untrustworthy,Trustworthy","html-keyboard-response","67","534464","0.0-11.0-1.19","","8938","","<div class='trialDiv'><img src='Fruit/orange.png'><br><font class='baseline'><strong>Odds are Orange</strong><p>Choose number of points to bet.</font><div class='respPicDiv'><img src='img/responseButtonOffersNo0L.png' class='respPic'></div></div>","2","7","Odds are Orange","Fruit/orange.png","Lost","0.65,0.35","11","0.65","108","20","",""
"","","","decisionFB","","5c9bfbfa325c3d001ad360a8","bdp_rwlrn","Wed Mar 15 2023 19:52:44 GMT-0700 (Pacific Daylight Time)","1126030","Untrustworthy,Trustworthy","html-keyboard-response","68","534717","0.0-11.0-2.19","","null","","<div class='trialDiv'><img src='Fruit/orange.png'><br><font class='baseline'><strong>Odds are Orange</strong><p>Choose number of points to bet.</font><div class='respPicDiv'><img src='img/responseButtonOffersNo0L2.png' class='respPic'></div></div>","null","7","Odds are Orange","Fruit/orange.png","Lost","0.65,0.35","11","0.65","106","20","",""
"","","","feedback","","5c9bfbfa325c3d001ad360a8","bdp_rwlrn","Wed Mar 15 2023 19:52:44 GMT-0700 (Pacific Daylight Time)","1126030","Untrustworthy,Trustworthy","html-keyboard-response","69","535722","0.0-11.0-3.19","","null","","<div class='respPicDiv'><img src='img/responseButtonOffersNo0_wht.png' class='respPic'></div><div class='trialDiv'><img src='Fruit/orange.png'><br><font class='baseline'><strong>Odds are Orange</strong><p><strong><font class='negOutcome'>You LOST</font><p>You bet: 2</strong></font> &nbsp; &nbsp; &nbsp; &nbsp; &nbsp; &nbsp;<font class='negOutcome'>You receive: <strong>0</strong></font></div>","null","7","Odds are Orange","Fruit/orange.png","Lost","0.65,0.35","11","0.65","106","20","",""
"","","","decision","","5c9bfbfa325c3d001ad360a8","bdp_rwlrn","Wed Mar 15 2023 19:52:44 GMT-0700 (Pacific Daylight Time)","1126030","Untrustworthy,Trustworthy","html-keyboard-response","70","536226","0.0-11.0-1.20","","502","","<div class='trialDiv'><img src='Fruit/melon.png'><br><font class='baseline'><strong>Melon Millions</strong><p>Choose number of points to bet.</font><div class='respPicDiv'><img src='img/responseButtonOffersNo0L.png' class='respPic'></div></div>","2","7","Melon Millions","Fruit/melon.png","Lost","0.2,0.65","8","0.2","111","21","",""
"","","","decisionFB","","5c9bfbfa325c3d001ad360a8","bdp_rwlrn","Wed Mar 15 2023 19:52:44 GMT-0700 (Pacific Daylight Time)","1126030","Untrustworthy,Trustworthy","html-keyboard-response","71","536492","0.0-11.0-2.20","","null","","<div class='trialDiv'><img src='Fruit/melon.png'><br><font class='baseline'><strong>Melon Millions</strong><p>Choose number of points to bet.</font><div class='respPicDiv'><img src='img/responseButtonOffersNo0L2.png' class='respPic'></div></div>","null","7","Melon Millions","Fruit/melon.png","Lost","0.2,0.65","8","0.2","109","21","",""
"","","","feedback","","5c9bfbfa325c3d001ad360a8","bdp_rwlrn","Wed Mar 15 2023 19:52:44 GMT-0700 (Pacific Daylight Time)","1126030","Untrustworthy,Trustworthy","html-keyboard-response","72","537494","0.0-11.0-3.20","","null","","<div class='respPicDiv'><img src='img/responseButtonOffersNo0_wht.png' class='respPic'></div><div class='trialDiv'><img src='Fruit/melon.png'><br><font class='baseline'><strong>Melon Millions</strong><p><strong><font class='negOutcome'>You LOST</font><p>You bet: 2</strong></font> &nbsp; &nbsp; &nbsp; &nbsp; &nbsp; &nbsp;<font class='negOutcome'>You receive: <strong>0</strong></font></div>","null","7","Melon Millions","Fruit/melon.png","Lost","0.2,0.65","8","0.2","109","21","",""
"","","","decision","","5c9bfbfa325c3d001ad360a8","bdp_rwlrn","Wed Mar 15 2023 19:52:44 GMT-0700 (Pacific Daylight Time)","1126030","Untrustworthy,Trustworthy","html-keyboard-response","73","538784","0.0-11.0-1.21","","1288","","<div class='trialDiv'><img src='Fruit/papayas.png'><br><font class='baseline'><strong>Papaya Payday</strong><p>Choose number of points to bet.</font><div class='respPicDiv'><img src='img/responseButtonOffersNo0L.png' class='respPic'></div></div>","1","8","Papaya Payday","Fruit/papayas.png","Won","0.8,0.35","11","0.8","114","22","",""
"","","","decisionFB","","5c9bfbfa325c3d001ad360a8","bdp_rwlrn","Wed Mar 15 2023 19:52:44 GMT-0700 (Pacific Daylight Time)","1126030","Untrustworthy,Trustworthy","html-keyboard-response","74","539040","0.0-11.0-2.21","","null","","<div class='trialDiv'><img src='Fruit/papayas.png'><br><font class='baseline'><strong>Papaya Payday</strong><p>Choose number of points to bet.</font><div class='respPicDiv'><img src='img/responseButtonOffersNo0L1.png' class='respPic'></div></div>","null","8","Papaya Payday","Fruit/papayas.png","Won","0.8,0.35","11","0.8","113","22","",""
"","","","feedback","","5c9bfbfa325c3d001ad360a8","bdp_rwlrn","Wed Mar 15 2023 19:52:44 GMT-0700 (Pacific Daylight Time)","1126030","Untrustworthy,Trustworthy","html-keyboard-response","75","540050","0.0-11.0-3.21","","null","","<div class='respPicDiv'><img src='img/responseButtonOffersNo0_wht.png' class='respPic'></div><div class='trialDiv'><img src='Fruit/papayas.png'><br><font class='baseline'><strong>Papaya Payday</strong><p><strong><font class='posOutcome'>You WON</font><p>You bet: 1</strong></font> &nbsp; &nbsp; &nbsp; &nbsp; &nbsp; &nbsp;<font class='posOutcome'>you receive: <strong>2</strong></font></div>","null","8","Papaya Payday","Fruit/papayas.png","Won","0.8,0.35","11","0.8","115","22","",""
"","","","decision","","5c9bfbfa325c3d001ad360a8","bdp_rwlrn","Wed Mar 15 2023 19:52:44 GMT-0700 (Pacific Daylight Time)","1126030","Untrustworthy,Trustworthy","html-keyboard-response","76","540381","0.0-11.0-1.22","","330","","<div class='trialDiv'><img src='Fruit/orange.png'><br><font class='baseline'><strong>Odds are Orange</strong><p>Choose number of points to bet.</font><div class='respPicDiv'><img src='img/responseButtonOffersNo0L.png' class='respPic'></div></div>","1","8","Odds are Orange","Fruit/orange.png","Won","0.65,0.35","11","0.65","120","23","",""
"","","","decisionFB","","5c9bfbfa325c3d001ad360a8","bdp_rwlrn","Wed Mar 15 2023 19:52:44 GMT-0700 (Pacific Daylight Time)","1126030","Untrustworthy,Trustworthy","html-keyboard-response","77","540632","0.0-11.0-2.22","","null","","<div class='trialDiv'><img src='Fruit/orange.png'><br><font class='baseline'><strong>Odds are Orange</strong><p>Choose number of points to bet.</font><div class='respPicDiv'><img src='img/responseButtonOffersNo0L1.png' class='respPic'></div></div>","null","8","Odds are Orange","Fruit/orange.png","Won","0.65,0.35","11","0.65","119","23","",""
"","","","feedback","","5c9bfbfa325c3d001ad360a8","bdp_rwlrn","Wed Mar 15 2023 19:52:44 GMT-0700 (Pacific Daylight Time)","1126030","Untrustworthy,Trustworthy","html-keyboard-response","78","541638","0.0-11.0-3.22","","null","","<div class='respPicDiv'><img src='img/responseButtonOffersNo0_wht.png' class='respPic'></div><div class='trialDiv'><img src='Fruit/orange.png'><br><font class='baseline'><strong>Odds are Orange</strong><p><strong><font class='posOutcome'>You WON</font><p>You bet: 1</strong></font> &nbsp; &nbsp; &nbsp; &nbsp; &nbsp; &nbsp;<font class='posOutcome'>you receive: <strong>2</strong></font></div>","null","8","Odds are Orange","Fruit/orange.png","Won","0.65,0.35","11","0.65","121","23","",""
"","","","decision","","5c9bfbfa325c3d001ad360a8","bdp_rwlrn","Wed Mar 15 2023 19:52:44 GMT-0700 (Pacific Daylight Time)","1126030","Untrustworthy,Trustworthy","html-keyboard-response","79","542125","0.0-11.0-1.23","","485","","<div class='trialDiv'><img src='Fruit/melon.png'><br><font class='baseline'><strong>Melon Millions</strong><p>Choose number of points to bet.</font><div class='respPicDiv'><img src='img/responseButtonOffersNo0L.png' class='respPic'></div></div>","1","8","Melon Millions","Fruit/melon.png","Won","0.2,0.65","8","0.2","126","24","",""
"","","","decisionFB","","5c9bfbfa325c3d001ad360a8","bdp_rwlrn","Wed Mar 15 2023 19:52:44 GMT-0700 (Pacific Daylight Time)","1126030","Untrustworthy,Trustworthy","html-keyboard-response","80","542380","0.0-11.0-2.23","","null","","<div class='trialDiv'><img src='Fruit/melon.png'><br><font class='baseline'><strong>Melon Millions</strong><p>Choose number of points to bet.</font><div class='respPicDiv'><img src='img/responseButtonOffersNo0L1.png' class='respPic'></div></div>","null","8","Melon Millions","Fruit/melon.png","Won","0.2,0.65","8","0.2","125","24","",""
"","","","feedback","","5c9bfbfa325c3d001ad360a8","bdp_rwlrn","Wed Mar 15 2023 19:52:44 GMT-0700 (Pacific Daylight Time)","1126030","Untrustworthy,Trustworthy","html-keyboard-response","81","543387","0.0-11.0-3.23","","null","","<div class='respPicDiv'><img src='img/responseButtonOffersNo0_wht.png' class='respPic'></div><div class='trialDiv'><img src='Fruit/melon.png'><br><font class='baseline'><strong>Melon Millions</strong><p><strong><font class='posOutcome'>You WON</font><p>You bet: 1</strong></font> &nbsp; &nbsp; &nbsp; &nbsp; &nbsp; &nbsp;<font class='posOutcome'>you receive: <strong>2</strong></font></div>","null","8","Melon Millions","Fruit/melon.png","Won","0.2,0.65","8","0.2","127","24","",""
"","","","decision","","5c9bfbfa325c3d001ad360a8","bdp_rwlrn","Wed Mar 15 2023 19:52:44 GMT-0700 (Pacific Daylight Time)","1126030","Untrustworthy,Trustworthy","html-keyboard-response","82","543978","0.0-11.0-1.24","","590","","<div class='trialDiv'><img src='Fruit/orange.png'><br><font class='baseline'><strong>Odds are Orange</strong><p>Choose number of points to bet.</font><div class='respPicDiv'><img src='img/responseButtonOffersNo0L.png' class='respPic'></div></div>","1","9","Odds are Orange","Fruit/orange.png","Lost","0.65,0.35","11","0.65","132","25","",""
"","","","decisionFB","","5c9bfbfa325c3d001ad360a8","bdp_rwlrn","Wed Mar 15 2023 19:52:44 GMT-0700 (Pacific Daylight Time)","1126030","Untrustworthy,Trustworthy","html-keyboard-response","83","544233","0.0-11.0-2.24","","null","","<div class='trialDiv'><img src='Fruit/orange.png'><br><font class='baseline'><strong>Odds are Orange</strong><p>Choose number of points to bet.</font><div class='respPicDiv'><img src='img/responseButtonOffersNo0L1.png' class='respPic'></div></div>","null","9","Odds are Orange","Fruit/orange.png","Lost","0.65,0.35","11","0.65","131","25","",""
"","","","feedback","","5c9bfbfa325c3d001ad360a8","bdp_rwlrn","Wed Mar 15 2023 19:52:44 GMT-0700 (Pacific Daylight Time)","1126030","Untrustworthy,Trustworthy","html-keyboard-response","84","545243","0.0-11.0-3.24","","null","","<div class='respPicDiv'><img src='img/responseButtonOffersNo0_wht.png' class='respPic'></div><div class='trialDiv'><img src='Fruit/orange.png'><br><font class='baseline'><strong>Odds are Orange</strong><p><strong><font class='negOutcome'>You LOST</font><p>You bet: 1</strong></font> &nbsp; &nbsp; &nbsp; &nbsp; &nbsp; &nbsp;<font class='negOutcome'>You receive: <strong>0</strong></font></div>","null","9","Odds are Orange","Fruit/orange.png","Lost","0.65,0.35","11","0.65","131","25","",""
"","","","decision","","5c9bfbfa325c3d001ad360a8","bdp_rwlrn","Wed Mar 15 2023 19:52:44 GMT-0700 (Pacific Daylight Time)","1126030","Untrustworthy,Trustworthy","html-keyboard-response","85","545657","0.0-11.0-1.25","","413","","<div class='trialDiv'><img src='Fruit/melon.png'><br><font class='baseline'><strong>Melon Millions</strong><p>Choose number of points to bet.</font><div class='respPicDiv'><img src='img/responseButtonOffersNo0L.png' class='respPic'></div></div>","1","9","Melon Millions","Fruit/melon.png","Lost","0.2,0.65","8","0.2","136","26","",""
"","","","decisionFB","","5c9bfbfa325c3d001ad360a8","bdp_rwlrn","Wed Mar 15 2023 19:52:44 GMT-0700 (Pacific Daylight Time)","1126030","Untrustworthy,Trustworthy","html-keyboard-response","86","545911","0.0-11.0-2.25","","null","","<div class='trialDiv'><img src='Fruit/melon.png'><br><font class='baseline'><strong>Melon Millions</strong><p>Choose number of points to bet.</font><div class='respPicDiv'><img src='img/responseButtonOffersNo0L1.png' class='respPic'></div></div>","null","9","Melon Millions","Fruit/melon.png","Lost","0.2,0.65","8","0.2","135","26","",""
"","","","feedback","","5c9bfbfa325c3d001ad360a8","bdp_rwlrn","Wed Mar 15 2023 19:52:44 GMT-0700 (Pacific Daylight Time)","1126030","Untrustworthy,Trustworthy","html-keyboard-response","87","546913","0.0-11.0-3.25","","null","","<div class='respPicDiv'><img src='img/responseButtonOffersNo0_wht.png' class='respPic'></div><div class='trialDiv'><img src='Fruit/melon.png'><br><font class='baseline'><strong>Melon Millions</strong><p><strong><font class='negOutcome'>You LOST</font><p>You bet: 1</strong></font> &nbsp; &nbsp; &nbsp; &nbsp; &nbsp; &nbsp;<font class='negOutcome'>You receive: <strong>0</strong></font></div>","null","9","Melon Millions","Fruit/melon.png","Lost","0.2,0.65","8","0.2","135","26","",""
"","","","decision","","5c9bfbfa325c3d001ad360a8","bdp_rwlrn","Wed Mar 15 2023 19:52:44 GMT-0700 (Pacific Daylight Time)","1126030","Untrustworthy,Trustworthy","html-keyboard-response","88","547611","0.0-11.0-1.26","","696","","<div class='trialDiv'><img src='Fruit/papayas.png'><br><font class='baseline'><strong>Papaya Payday</strong><p>Choose number of points to bet.</font><div class='respPicDiv'><img src='img/responseButtonOffersNo0L.png' class='respPic'></div></div>","1","9","Papaya Payday","Fruit/papayas.png","Won","0.8,0.35","11","0.8","140","27","",""
"","","","decisionFB","","5c9bfbfa325c3d001ad360a8","bdp_rwlrn","Wed Mar 15 2023 19:52:44 GMT-0700 (Pacific Daylight Time)","1126030","Untrustworthy,Trustworthy","html-keyboard-response","89","547862","0.0-11.0-2.26","","null","","<div class='trialDiv'><img src='Fruit/papayas.png'><br><font class='baseline'><strong>Papaya Payday</strong><p>Choose number of points to bet.</font><div class='respPicDiv'><img src='img/responseButtonOffersNo0L1.png' class='respPic'></div></div>","null","9","Papaya Payday","Fruit/papayas.png","Won","0.8,0.35","11","0.8","139","27","",""
"","","","feedback","","5c9bfbfa325c3d001ad360a8","bdp_rwlrn","Wed Mar 15 2023 19:52:44 GMT-0700 (Pacific Daylight Time)","1126030","Untrustworthy,Trustworthy","html-keyboard-response","90","548871","0.0-11.0-3.26","","null","","<div class='respPicDiv'><img src='img/responseButtonOffersNo0_wht.png' class='respPic'></div><div class='trialDiv'><img src='Fruit/papayas.png'><br><font class='baseline'><strong>Papaya Payday</strong><p><strong><font class='posOutcome'>You WON</font><p>You bet: 1</strong></font> &nbsp; &nbsp; &nbsp; &nbsp; &nbsp; &nbsp;<font class='posOutcome'>you receive: <strong>2</strong></font></div>","null","9","Papaya Payday","Fruit/papayas.png","Won","0.8,0.35","11","0.8","141","27","",""
"","","","decision","","5c9bfbfa325c3d001ad360a8","bdp_rwlrn","Wed Mar 15 2023 19:52:44 GMT-0700 (Pacific Daylight Time)","1126030","Untrustworthy,Trustworthy","html-keyboard-response","91","550346","0.0-11.0-1.27","","1473","","<div class='trialDiv'><img src='Fruit/melon.png'><br><font class='baseline'><strong>Melon Millions</strong><p>Choose number of points to bet.</font><div class='respPicDiv'><img src='img/responseButtonOffersNo0L.png' class='respPic'></div></div>","1","10","Melon Millions","Fruit/melon.png","Lost","0.2,0.65","8","0.2","146","28","",""
"","","","decisionFB","","5c9bfbfa325c3d001ad360a8","bdp_rwlrn","Wed Mar 15 2023 19:52:44 GMT-0700 (Pacific Daylight Time)","1126030","Untrustworthy,Trustworthy","html-keyboard-response","92","550605","0.0-11.0-2.27","","null","","<div class='trialDiv'><img src='Fruit/melon.png'><br><font class='baseline'><strong>Melon Millions</strong><p>Choose number of points to bet.</font><div class='respPicDiv'><img src='img/responseButtonOffersNo0L1.png' class='respPic'></div></div>","null","10","Melon Millions","Fruit/melon.png","Lost","0.2,0.65","8","0.2","145","28","",""
"","","","feedback","","5c9bfbfa325c3d001ad360a8","bdp_rwlrn","Wed Mar 15 2023 19:52:44 GMT-0700 (Pacific Daylight Time)","1126030","Untrustworthy,Trustworthy","html-keyboard-response","93","551613","0.0-11.0-3.27","","null","","<div class='respPicDiv'><img src='img/responseButtonOffersNo0_wht.png' class='respPic'></div><div class='trialDiv'><img src='Fruit/melon.png'><br><font class='baseline'><strong>Melon Millions</strong><p><strong><font class='negOutcome'>You LOST</font><p>You bet: 1</strong></font> &nbsp; &nbsp; &nbsp; &nbsp; &nbsp; &nbsp;<font class='negOutcome'>You receive: <strong>0</strong></font></div>","null","10","Melon Millions","Fruit/melon.png","Lost","0.2,0.65","8","0.2","145","28","",""
"","","","decision","","5c9bfbfa325c3d001ad360a8","bdp_rwlrn","Wed Mar 15 2023 19:52:44 GMT-0700 (Pacific Daylight Time)","1126030","Untrustworthy,Trustworthy","html-keyboard-response","94","553502","0.0-11.0-1.28","","1887","","<div class='trialDiv'><img src='Fruit/papayas.png'><br><font class='baseline'><strong>Papaya Payday</strong><p>Choose number of points to bet.</font><div class='respPicDiv'><img src='img/responseButtonOffersNo0L.png' class='respPic'></div></div>","1","10","Papaya Payday","Fruit/papayas.png","Won","0.8,0.35","11","0.8","150","29","",""
"","","","decisionFB","","5c9bfbfa325c3d001ad360a8","bdp_rwlrn","Wed Mar 15 2023 19:52:44 GMT-0700 (Pacific Daylight Time)","1126030","Untrustworthy,Trustworthy","html-keyboard-response","95","553755","0.0-11.0-2.28","","null","","<div class='trialDiv'><img src='Fruit/papayas.png'><br><font class='baseline'><strong>Papaya Payday</strong><p>Choose number of points to bet.</font><div class='respPicDiv'><img src='img/responseButtonOffersNo0L1.png' class='respPic'></div></div>","null","10","Papaya Payday","Fruit/papayas.png","Won","0.8,0.35","11","0.8","149","29","",""
"","","","feedback","","5c9bfbfa325c3d001ad360a8","bdp_rwlrn","Wed Mar 15 2023 19:52:44 GMT-0700 (Pacific Daylight Time)","1126030","Untrustworthy,Trustworthy","html-keyboard-response","96","554761","0.0-11.0-3.28","","null","","<div class='respPicDiv'><img src='img/responseButtonOffersNo0_wht.png' class='respPic'></div><div class='trialDiv'><img src='Fruit/papayas.png'><br><font class='baseline'><strong>Papaya Payday</strong><p><strong><font class='posOutcome'>You WON</font><p>You bet: 1</strong></font> &nbsp; &nbsp; &nbsp; &nbsp; &nbsp; &nbsp;<font class='posOutcome'>you receive: <strong>2</strong></font></div>","null","10","Papaya Payday","Fruit/papayas.png","Won","0.8,0.35","11","0.8","151","29","",""
"","","","decision","","5c9bfbfa325c3d001ad360a8","bdp_rwlrn","Wed Mar 15 2023 19:52:44 GMT-0700 (Pacific Daylight Time)","1126030","Untrustworthy,Trustworthy","html-keyboard-response","97","555089","0.0-11.0-1.29","","327","","<div class='trialDiv'><img src='Fruit/orange.png'><br><font class='baseline'><strong>Odds are Orange</strong><p>Choose number of points to bet.</font><div class='respPicDiv'><img src='img/responseButtonOffersNo0L.png' class='respPic'></div></div>","1","10","Odds are Orange","Fruit/orange.png","Lost","0.65,0.35","11","0.65","156","30","",""
"","","","decisionFB","","5c9bfbfa325c3d001ad360a8","bdp_rwlrn","Wed Mar 15 2023 19:52:44 GMT-0700 (Pacific Daylight Time)","1126030","Untrustworthy,Trustworthy","html-keyboard-response","98","555344","0.0-11.0-2.29","","null","","<div class='trialDiv'><img src='Fruit/orange.png'><br><font class='baseline'><strong>Odds are Orange</strong><p>Choose number of points to bet.</font><div class='respPicDiv'><img src='img/responseButtonOffersNo0L1.png' class='respPic'></div></div>","null","10","Odds are Orange","Fruit/orange.png","Lost","0.65,0.35","11","0.65","155","30","",""
"","","","feedback","","5c9bfbfa325c3d001ad360a8","bdp_rwlrn","Wed Mar 15 2023 19:52:44 GMT-0700 (Pacific Daylight Time)","1126030","Untrustworthy,Trustworthy","html-keyboard-response","99","556353","0.0-11.0-3.29","","null","","<div class='respPicDiv'><img src='img/responseButtonOffersNo0_wht.png' class='respPic'></div><div class='trialDiv'><img src='Fruit/orange.png'><br><font class='baseline'><strong>Odds are Orange</strong><p><strong><font class='negOutcome'>You LOST</font><p>You bet: 1</strong></font> &nbsp; &nbsp; &nbsp; &nbsp; &nbsp; &nbsp;<font class='negOutcome'>You receive: <strong>0</strong></font></div>","null","10","Odds are Orange","Fruit/orange.png","Lost","0.65,0.35","11","0.65","155","30","",""
"","","","decision","","5c9bfbfa325c3d001ad360a8","bdp_rwlrn","Wed Mar 15 2023 19:52:44 GMT-0700 (Pacific Daylight Time)","1126030","Untrustworthy,Trustworthy","html-keyboard-response","100","556775","0.0-11.0-1.30","","421","","<div class='trialDiv'><img src='Fruit/melon.png'><br><font class='baseline'><strong>Melon Millions</strong><p>Choose number of points to bet.</font><div class='respPicDiv'><img src='img/responseButtonOffersNo0L.png' class='respPic'></div></div>","1","11","Melon Millions","Fruit/melon.png","Won","0.2,0.65","8","0.2","160","31","",""
"","","","decisionFB","","5c9bfbfa325c3d001ad360a8","bdp_rwlrn","Wed Mar 15 2023 19:52:44 GMT-0700 (Pacific Daylight Time)","1126030","Untrustworthy,Trustworthy","html-keyboard-response","101","557027","0.0-11.0-2.30","","null","","<div class='trialDiv'><img src='Fruit/melon.png'><br><font class='baseline'><strong>Melon Millions</strong><p>Choose number of points to bet.</font><div class='respPicDiv'><img src='img/responseButtonOffersNo0L1.png' class='respPic'></div></div>","null","11","Melon Millions","Fruit/melon.png","Won","0.2,0.65","8","0.2","159","31","",""
"","","","feedback","","5c9bfbfa325c3d001ad360a8","bdp_rwlrn","Wed Mar 15 2023 19:52:44 GMT-0700 (Pacific Daylight Time)","1126030","Untrustworthy,Trustworthy","html-keyboard-response","102","558036","0.0-11.0-3.30","","null","","<div class='respPicDiv'><img src='img/responseButtonOffersNo0_wht.png' class='respPic'></div><div class='trialDiv'><img src='Fruit/melon.png'><br><font class='baseline'><strong>Melon Millions</strong><p><strong><font class='posOutcome'>You WON</font><p>You bet: 1</strong></font> &nbsp; &nbsp; &nbsp; &nbsp; &nbsp; &nbsp;<font class='posOutcome'>you receive: <strong>2</strong></font></div>","null","11","Melon Millions","Fruit/melon.png","Won","0.2,0.65","8","0.2","161","31","",""
"","","","decision","","5c9bfbfa325c3d001ad360a8","bdp_rwlrn","Wed Mar 15 2023 19:52:44 GMT-0700 (Pacific Daylight Time)","1126030","Untrustworthy,Trustworthy","html-keyboard-response","103","558321","0.0-11.0-1.31","","283","","<div class='trialDiv'><img src='Fruit/papayas.png'><br><font class='baseline'><strong>Papaya Payday</strong><p>Choose number of points to bet.</font><div class='respPicDiv'><img src='img/responseButtonOffersNo0L.png' class='respPic'></div></div>","1","11","Papaya Payday","Fruit/papayas.png","Won","0.8,0.35","11","0.8","166","32","",""
"","","","decisionFB","","5c9bfbfa325c3d001ad360a8","bdp_rwlrn","Wed Mar 15 2023 19:52:44 GMT-0700 (Pacific Daylight Time)","1126030","Untrustworthy,Trustworthy","html-keyboard-response","104","558573","0.0-11.0-2.31","","null","","<div class='trialDiv'><img src='Fruit/papayas.png'><br><font class='baseline'><strong>Papaya Payday</strong><p>Choose number of points to bet.</font><div class='respPicDiv'><img src='img/responseButtonOffersNo0L1.png' class='respPic'></div></div>","null","11","Papaya Payday","Fruit/papayas.png","Won","0.8,0.35","11","0.8","165","32","",""
"","","","feedback","","5c9bfbfa325c3d001ad360a8","bdp_rwlrn","Wed Mar 15 2023 19:52:44 GMT-0700 (Pacific Daylight Time)","1126030","Untrustworthy,Trustworthy","html-keyboard-response","105","559582","0.0-11.0-3.31","","null","","<div class='respPicDiv'><img src='img/responseButtonOffersNo0_wht.png' class='respPic'></div><div class='trialDiv'><img src='Fruit/papayas.png'><br><font class='baseline'><strong>Papaya Payday</strong><p><strong><font class='posOutcome'>You WON</font><p>You bet: 1</strong></font> &nbsp; &nbsp; &nbsp; &nbsp; &nbsp; &nbsp;<font class='posOutcome'>you receive: <strong>2</strong></font></div>","null","11","Papaya Payday","Fruit/papayas.png","Won","0.8,0.35","11","0.8","167","32","",""
"","","","decision","","5c9bfbfa325c3d001ad360a8","bdp_rwlrn","Wed Mar 15 2023 19:52:44 GMT-0700 (Pacific Daylight Time)","1126030","Untrustworthy,Trustworthy","html-keyboard-response","106","559883","0.0-11.0-1.32","","300","","<div class='trialDiv'><img src='Fruit/orange.png'><br><font class='baseline'><strong>Odds are Orange</strong><p>Choose number of points to bet.</font><div class='respPicDiv'><img src='img/responseButtonOffersNo0L.png' class='respPic'></div></div>","1","11","Odds are Orange","Fruit/orange.png","Lost","0.65,0.35","11","0.65","172","33","",""
"","","","decisionFB","","5c9bfbfa325c3d001ad360a8","bdp_rwlrn","Wed Mar 15 2023 19:52:44 GMT-0700 (Pacific Daylight Time)","1126030","Untrustworthy,Trustworthy","html-keyboard-response","107","560140","0.0-11.0-2.32","","null","","<div class='trialDiv'><img src='Fruit/orange.png'><br><font class='baseline'><strong>Odds are Orange</strong><p>Choose number of points to bet.</font><div class='respPicDiv'><img src='img/responseButtonOffersNo0L1.png' class='respPic'></div></div>","null","11","Odds are Orange","Fruit/orange.png","Lost","0.65,0.35","11","0.65","171","33","",""
"","","","feedback","","5c9bfbfa325c3d001ad360a8","bdp_rwlrn","Wed Mar 15 2023 19:52:44 GMT-0700 (Pacific Daylight Time)","1126030","Untrustworthy,Trustworthy","html-keyboard-response","108","561150","0.0-11.0-3.32","","null","","<div class='respPicDiv'><img src='img/responseButtonOffersNo0_wht.png' class='respPic'></div><div class='trialDiv'><img src='Fruit/orange.png'><br><font class='baseline'><strong>Odds are Orange</strong><p><strong><font class='negOutcome'>You LOST</font><p>You bet: 1</strong></font> &nbsp; &nbsp; &nbsp; &nbsp; &nbsp; &nbsp;<font class='negOutcome'>You receive: <strong>0</strong></font></div>","null","11","Odds are Orange","Fruit/orange.png","Lost","0.65,0.35","11","0.65","171","33","",""
"","","","decision","","5c9bfbfa325c3d001ad360a8","bdp_rwlrn","Wed Mar 15 2023 19:52:44 GMT-0700 (Pacific Daylight Time)","1126030","Untrustworthy,Trustworthy","html-keyboard-response","109","561447","0.0-11.0-1.33","","295","","<div class='trialDiv'><img src='Fruit/papayas.png'><br><font class='baseline'><strong>Papaya Payday</strong><p>Choose number of points to bet.</font><div class='respPicDiv'><img src='img/responseButtonOffersNo0L.png' class='respPic'></div></div>","1","12","Papaya Payday","Fruit/papayas.png","Won","0.8,0.35","11","0.8","176","34","",""
"","","","decisionFB","","5c9bfbfa325c3d001ad360a8","bdp_rwlrn","Wed Mar 15 2023 19:52:44 GMT-0700 (Pacific Daylight Time)","1126030","Untrustworthy,Trustworthy","html-keyboard-response","110","561701","0.0-11.0-2.33","","null","","<div class='trialDiv'><img src='Fruit/papayas.png'><br><font class='baseline'><strong>Papaya Payday</strong><p>Choose number of points to bet.</font><div class='respPicDiv'><img src='img/responseButtonOffersNo0L1.png' class='respPic'></div></div>","null","12","Papaya Payday","Fruit/papayas.png","Won","0.8,0.35","11","0.8","175","34","",""
"","","","feedback","","5c9bfbfa325c3d001ad360a8","bdp_rwlrn","Wed Mar 15 2023 19:52:44 GMT-0700 (Pacific Daylight Time)","1126030","Untrustworthy,Trustworthy","html-keyboard-response","111","562708","0.0-11.0-3.33","","null","","<div class='respPicDiv'><img src='img/responseButtonOffersNo0_wht.png' class='respPic'></div><div class='trialDiv'><img src='Fruit/papayas.png'><br><font class='baseline'><strong>Papaya Payday</strong><p><strong><font class='posOutcome'>You WON</font><p>You bet: 1</strong></font> &nbsp; &nbsp; &nbsp; &nbsp; &nbsp; &nbsp;<font class='posOutcome'>you receive: <strong>2</strong></font></div>","null","12","Papaya Payday","Fruit/papayas.png","Won","0.8,0.35","11","0.8","177","34","",""
"","","","decision","","5c9bfbfa325c3d001ad360a8","bdp_rwlrn","Wed Mar 15 2023 19:52:44 GMT-0700 (Pacific Daylight Time)","1126030","Untrustworthy,Trustworthy","html-keyboard-response","112","563081","0.0-11.0-1.34","","371","","<div class='trialDiv'><img src='Fruit/orange.png'><br><font class='baseline'><strong>Odds are Orange</strong><p>Choose number of points to bet.</font><div class='respPicDiv'><img src='img/responseButtonOffersNo0L.png' class='respPic'></div></div>","1","12","Odds are Orange","Fruit/orange.png","Won","0.65,0.35","11","0.65","182","35","",""
"","","","decisionFB","","5c9bfbfa325c3d001ad360a8","bdp_rwlrn","Wed Mar 15 2023 19:52:44 GMT-0700 (Pacific Daylight Time)","1126030","Untrustworthy,Trustworthy","html-keyboard-response","113","563333","0.0-11.0-2.34","","null","","<div class='trialDiv'><img src='Fruit/orange.png'><br><font class='baseline'><strong>Odds are Orange</strong><p>Choose number of points to bet.</font><div class='respPicDiv'><img src='img/responseButtonOffersNo0L1.png' class='respPic'></div></div>","null","12","Odds are Orange","Fruit/orange.png","Won","0.65,0.35","11","0.65","181","35","",""
"","","","feedback","","5c9bfbfa325c3d001ad360a8","bdp_rwlrn","Wed Mar 15 2023 19:52:44 GMT-0700 (Pacific Daylight Time)","1126030","Untrustworthy,Trustworthy","html-keyboard-response","114","564343","0.0-11.0-3.34","","null","","<div class='respPicDiv'><img src='img/responseButtonOffersNo0_wht.png' class='respPic'></div><div class='trialDiv'><img src='Fruit/orange.png'><br><font class='baseline'><strong>Odds are Orange</strong><p><strong><font class='posOutcome'>You WON</font><p>You bet: 1</strong></font> &nbsp; &nbsp; &nbsp; &nbsp; &nbsp; &nbsp;<font class='posOutcome'>you receive: <strong>2</strong></font></div>","null","12","Odds are Orange","Fruit/orange.png","Won","0.65,0.35","11","0.65","183","35","",""
"","","","decision","","5c9bfbfa325c3d001ad360a8","bdp_rwlrn","Wed Mar 15 2023 19:52:44 GMT-0700 (Pacific Daylight Time)","1126030","Untrustworthy,Trustworthy","html-keyboard-response","115","564759","0.0-11.0-1.35","","414","","<div class='trialDiv'><img src='Fruit/melon.png'><br><font class='baseline'><strong>Melon Millions</strong><p>Choose number of points to bet.</font><div class='respPicDiv'><img src='img/responseButtonOffersNo0L.png' class='respPic'></div></div>","1","12","Melon Millions","Fruit/melon.png","Lost","0.2,0.65","8","0.2","188","36","",""
"","","","decisionFB","","5c9bfbfa325c3d001ad360a8","bdp_rwlrn","Wed Mar 15 2023 19:52:44 GMT-0700 (Pacific Daylight Time)","1126030","Untrustworthy,Trustworthy","html-keyboard-response","116","565016","0.0-11.0-2.35","","null","","<div class='trialDiv'><img src='Fruit/melon.png'><br><font class='baseline'><strong>Melon Millions</strong><p>Choose number of points to bet.</font><div class='respPicDiv'><img src='img/responseButtonOffersNo0L1.png' class='respPic'></div></div>","null","12","Melon Millions","Fruit/melon.png","Lost","0.2,0.65","8","0.2","187","36","",""
"","","","feedback","","5c9bfbfa325c3d001ad360a8","bdp_rwlrn","Wed Mar 15 2023 19:52:44 GMT-0700 (Pacific Daylight Time)","1126030","Untrustworthy,Trustworthy","html-keyboard-response","117","566020","0.0-11.0-3.35","","null","","<div class='respPicDiv'><img src='img/responseButtonOffersNo0_wht.png' class='respPic'></div><div class='trialDiv'><img src='Fruit/melon.png'><br><font class='baseline'><strong>Melon Millions</strong><p><strong><font class='negOutcome'>You LOST</font><p>You bet: 1</strong></font> &nbsp; &nbsp; &nbsp; &nbsp; &nbsp; &nbsp;<font class='negOutcome'>You receive: <strong>0</strong></font></div>","null","12","Melon Millions","Fruit/melon.png","Lost","0.2,0.65","8","0.2","187","36","",""
"","","","decision","","5c9bfbfa325c3d001ad360a8","bdp_rwlrn","Wed Mar 15 2023 19:52:44 GMT-0700 (Pacific Daylight Time)","1126030","Untrustworthy,Trustworthy","html-keyboard-response","118","566279","0.0-11.0-1.36","","257","","<div class='trialDiv'><img src='Fruit/papayas.png'><br><font class='baseline'><strong>Papaya Payday</strong><p>Choose number of points to bet.</font><div class='respPicDiv'><img src='img/responseButtonOffersNo0L.png' class='respPic'></div></div>","1","13","Papaya Payday","Fruit/papayas.png","Won","0.8,0.35","11","0.8","192","37","",""
"","","","decisionFB","","5c9bfbfa325c3d001ad360a8","bdp_rwlrn","Wed Mar 15 2023 19:52:44 GMT-0700 (Pacific Daylight Time)","1126030","Untrustworthy,Trustworthy","html-keyboard-response","119","566530","0.0-11.0-2.36","","null","","<div class='trialDiv'><img src='Fruit/papayas.png'><br><font class='baseline'><strong>Papaya Payday</strong><p>Choose number of points to bet.</font><div class='respPicDiv'><img src='img/responseButtonOffersNo0L1.png' class='respPic'></div></div>","null","13","Papaya Payday","Fruit/papayas.png","Won","0.8,0.35","11","0.8","191","37","",""
"","","","feedback","","5c9bfbfa325c3d001ad360a8","bdp_rwlrn","Wed Mar 15 2023 19:52:44 GMT-0700 (Pacific Daylight Time)","1126030","Untrustworthy,Trustworthy","html-keyboard-response","120","567537","0.0-11.0-3.36","","null","","<div class='respPicDiv'><img src='img/responseButtonOffersNo0_wht.png' class='respPic'></div><div class='trialDiv'><img src='Fruit/papayas.png'><br><font class='baseline'><strong>Papaya Payday</strong><p><strong><font class='posOutcome'>You WON</font><p>You bet: 1</strong></font> &nbsp; &nbsp; &nbsp; &nbsp; &nbsp; &nbsp;<font class='posOutcome'>you receive: <strong>2</strong></font></div>","null","13","Papaya Payday","Fruit/papayas.png","Won","0.8,0.35","11","0.8","193","37","",""
"","","","decision","","5c9bfbfa325c3d001ad360a8","bdp_rwlrn","Wed Mar 15 2023 19:52:44 GMT-0700 (Pacific Daylight Time)","1126030","Untrustworthy,Trustworthy","html-keyboard-response","121","567851","0.0-11.0-1.37","","312","","<div class='trialDiv'><img src='Fruit/orange.png'><br><font class='baseline'><strong>Odds are Orange</strong><p>Choose number of points to bet.</font><div class='respPicDiv'><img src='img/responseButtonOffersNo0L.png' class='respPic'></div></div>","1","13","Odds are Orange","Fruit/orange.png","Lost","0.65,0.35","11","0.65","198","38","",""
"","","","decisionFB","","5c9bfbfa325c3d001ad360a8","bdp_rwlrn","Wed Mar 15 2023 19:52:44 GMT-0700 (Pacific Daylight Time)","1126030","Untrustworthy,Trustworthy","html-keyboard-response","122","568102","0.0-11.0-2.37","","null","","<div class='trialDiv'><img src='Fruit/orange.png'><br><font class='baseline'><strong>Odds are Orange</strong><p>Choose number of points to bet.</font><div class='respPicDiv'><img src='img/responseButtonOffersNo0L1.png' class='respPic'></div></div>","null","13","Odds are Orange","Fruit/orange.png","Lost","0.65,0.35","11","0.65","197","38","",""
"","","","feedback","","5c9bfbfa325c3d001ad360a8","bdp_rwlrn","Wed Mar 15 2023 19:52:44 GMT-0700 (Pacific Daylight Time)","1126030","Untrustworthy,Trustworthy","html-keyboard-response","123","569110","0.0-11.0-3.37","","null","","<div class='respPicDiv'><img src='img/responseButtonOffersNo0_wht.png' class='respPic'></div><div class='trialDiv'><img src='Fruit/orange.png'><br><font class='baseline'><strong>Odds are Orange</strong><p><strong><font class='negOutcome'>You LOST</font><p>You bet: 1</strong></font> &nbsp; &nbsp; &nbsp; &nbsp; &nbsp; &nbsp;<font class='negOutcome'>You receive: <strong>0</strong></font></div>","null","13","Odds are Orange","Fruit/orange.png","Lost","0.65,0.35","11","0.65","197","38","",""
"","","","decision","","5c9bfbfa325c3d001ad360a8","bdp_rwlrn","Wed Mar 15 2023 19:52:44 GMT-0700 (Pacific Daylight Time)","1126030","Untrustworthy,Trustworthy","html-keyboard-response","124","569394","0.0-11.0-1.38","","283","","<div class='trialDiv'><img src='Fruit/melon.png'><br><font class='baseline'><strong>Melon Millions</strong><p>Choose number of points to bet.</font><div class='respPicDiv'><img src='img/responseButtonOffersNo0L.png' class='respPic'></div></div>","1","13","Melon Millions","Fruit/melon.png","Won","0.2,0.65","8","0.2","202","39","",""
"","","","decisionFB","","5c9bfbfa325c3d001ad360a8","bdp_rwlrn","Wed Mar 15 2023 19:52:44 GMT-0700 (Pacific Daylight Time)","1126030","Untrustworthy,Trustworthy","html-keyboard-response","125","569647","0.0-11.0-2.38","","null","","<div class='trialDiv'><img src='Fruit/melon.png'><br><font class='baseline'><strong>Melon Millions</strong><p>Choose number of points to bet.</font><div class='respPicDiv'><img src='img/responseButtonOffersNo0L1.png' class='respPic'></div></div>","null","13","Melon Millions","Fruit/melon.png","Won","0.2,0.65","8","0.2","201","39","",""
"","","","feedback","","5c9bfbfa325c3d001ad360a8","bdp_rwlrn","Wed Mar 15 2023 19:52:44 GMT-0700 (Pacific Daylight Time)","1126030","Untrustworthy,Trustworthy","html-keyboard-response","126","570658","0.0-11.0-3.38","","null","","<div class='respPicDiv'><img src='img/responseButtonOffersNo0_wht.png' class='respPic'></div><div class='trialDiv'><img src='Fruit/melon.png'><br><font class='baseline'><strong>Melon Millions</strong><p><strong><font class='posOutcome'>You WON</font><p>You bet: 1</strong></font> &nbsp; &nbsp; &nbsp; &nbsp; &nbsp; &nbsp;<font class='posOutcome'>you receive: <strong>2</strong></font></div>","null","13","Melon Millions","Fruit/melon.png","Won","0.2,0.65","8","0.2","203","39","",""
"","","","decision","","5c9bfbfa325c3d001ad360a8","bdp_rwlrn","Wed Mar 15 2023 19:52:44 GMT-0700 (Pacific Daylight Time)","1126030","Untrustworthy,Trustworthy","html-keyboard-response","127","573449","0.0-11.0-1.39","","2790","","<div class='trialDiv'><img src='Fruit/papayas.png'><br><font class='baseline'><strong>Papaya Payday</strong><p>Choose number of points to bet.</font><div class='respPicDiv'><img src='img/responseButtonOffersNo0L.png' class='respPic'></div></div>","1","14","Papaya Payday","Fruit/papayas.png","Won","0.8,0.35","11","0.8","208","40","",""
"","","","decisionFB","","5c9bfbfa325c3d001ad360a8","bdp_rwlrn","Wed Mar 15 2023 19:52:44 GMT-0700 (Pacific Daylight Time)","1126030","Untrustworthy,Trustworthy","html-keyboard-response","128","573705","0.0-11.0-2.39","","null","","<div class='trialDiv'><img src='Fruit/papayas.png'><br><font class='baseline'><strong>Papaya Payday</strong><p>Choose number of points to bet.</font><div class='respPicDiv'><img src='img/responseButtonOffersNo0L1.png' class='respPic'></div></div>","null","14","Papaya Payday","Fruit/papayas.png","Won","0.8,0.35","11","0.8","207","40","",""
"","","","feedback","","5c9bfbfa325c3d001ad360a8","bdp_rwlrn","Wed Mar 15 2023 19:52:44 GMT-0700 (Pacific Daylight Time)","1126030","Untrustworthy,Trustworthy","html-keyboard-response","129","574716","0.0-11.0-3.39","","null","","<div class='respPicDiv'><img src='img/responseButtonOffersNo0_wht.png' class='respPic'></div><div class='trialDiv'><img src='Fruit/papayas.png'><br><font class='baseline'><strong>Papaya Payday</strong><p><strong><font class='posOutcome'>You WON</font><p>You bet: 1</strong></font> &nbsp; &nbsp; &nbsp; &nbsp; &nbsp; &nbsp;<font class='posOutcome'>you receive: <strong>2</strong></font></div>","null","14","Papaya Payday","Fruit/papayas.png","Won","0.8,0.35","11","0.8","209","40","",""
"","","","decision","","5c9bfbfa325c3d001ad360a8","bdp_rwlrn","Wed Mar 15 2023 19:52:44 GMT-0700 (Pacific Daylight Time)","1126030","Untrustworthy,Trustworthy","html-keyboard-response","130","576166","0.0-11.0-1.40","","1449","","<div class='trialDiv'><img src='Fruit/orange.png'><br><font class='baseline'><strong>Odds are Orange</strong><p>Choose number of points to bet.</font><div class='respPicDiv'><img src='img/responseButtonOffersNo0L.png' class='respPic'></div></div>","1","14","Odds are Orange","Fruit/orange.png","Won","0.65,0.35","11","0.65","214","41","",""
"","","","decisionFB","","5c9bfbfa325c3d001ad360a8","bdp_rwlrn","Wed Mar 15 2023 19:52:44 GMT-0700 (Pacific Daylight Time)","1126030","Untrustworthy,Trustworthy","html-keyboard-response","131","576419","0.0-11.0-2.40","","null","","<div class='trialDiv'><img src='Fruit/orange.png'><br><font class='baseline'><strong>Odds are Orange</strong><p>Choose number of points to bet.</font><div class='respPicDiv'><img src='img/responseButtonOffersNo0L1.png' class='respPic'></div></div>","null","14","Odds are Orange","Fruit/orange.png","Won","0.65,0.35","11","0.65","213","41","",""
"","","","feedback","","5c9bfbfa325c3d001ad360a8","bdp_rwlrn","Wed Mar 15 2023 19:52:44 GMT-0700 (Pacific Daylight Time)","1126030","Untrustworthy,Trustworthy","html-keyboard-response","132","577425","0.0-11.0-3.40","","null","","<div class='respPicDiv'><img src='img/responseButtonOffersNo0_wht.png' class='respPic'></div><div class='trialDiv'><img src='Fruit/orange.png'><br><font class='baseline'><strong>Odds are Orange</strong><p><strong><font class='posOutcome'>You WON</font><p>You bet: 1</strong></font> &nbsp; &nbsp; &nbsp; &nbsp; &nbsp; &nbsp;<font class='posOutcome'>you receive: <strong>2</strong></font></div>","null","14","Odds are Orange","Fruit/orange.png","Won","0.65,0.35","11","0.65","215","41","",""
"","","","decision","","5c9bfbfa325c3d001ad360a8","bdp_rwlrn","Wed Mar 15 2023 19:52:44 GMT-0700 (Pacific Daylight Time)","1126030","Untrustworthy,Trustworthy","html-keyboard-response","133","579089","0.0-11.0-1.41","","1662","","<div class='trialDiv'><img src='Fruit/melon.png'><br><font class='baseline'><strong>Melon Millions</strong><p>Choose number of points to bet.</font><div class='respPicDiv'><img src='img/responseButtonOffersNo0L.png' class='respPic'></div></div>","1","14","Melon Millions","Fruit/melon.png","Lost","0.2,0.65","8","0.2","220","42","",""
"","","","decisionFB","","5c9bfbfa325c3d001ad360a8","bdp_rwlrn","Wed Mar 15 2023 19:52:44 GMT-0700 (Pacific Daylight Time)","1126030","Untrustworthy,Trustworthy","html-keyboard-response","134","579344","0.0-11.0-2.41","","null","","<div class='trialDiv'><img src='Fruit/melon.png'><br><font class='baseline'><strong>Melon Millions</strong><p>Choose number of points to bet.</font><div class='respPicDiv'><img src='img/responseButtonOffersNo0L1.png' class='respPic'></div></div>","null","14","Melon Millions","Fruit/melon.png","Lost","0.2,0.65","8","0.2","219","42","",""
"","","","feedback","","5c9bfbfa325c3d001ad360a8","bdp_rwlrn","Wed Mar 15 2023 19:52:44 GMT-0700 (Pacific Daylight Time)","1126030","Untrustworthy,Trustworthy","html-keyboard-response","135","580355","0.0-11.0-3.41","","null","","<div class='respPicDiv'><img src='img/responseButtonOffersNo0_wht.png' class='respPic'></div><div class='trialDiv'><img src='Fruit/melon.png'><br><font class='baseline'><strong>Melon Millions</strong><p><strong><font class='negOutcome'>You LOST</font><p>You bet: 1</strong></font> &nbsp; &nbsp; &nbsp; &nbsp; &nbsp; &nbsp;<font class='negOutcome'>You receive: <strong>0</strong></font></div>","null","14","Melon Millions","Fruit/melon.png","Lost","0.2,0.65","8","0.2","219","42","",""
"","","","decision","","5c9bfbfa325c3d001ad360a8","bdp_rwlrn","Wed Mar 15 2023 19:52:44 GMT-0700 (Pacific Daylight Time)","1126030","Untrustworthy,Trustworthy","html-keyboard-response","136","589552","0.0-11.0-1.42","","9195","","<div class='trialDiv'><img src='Fruit/papayas.png'><br><font class='baseline'><strong>Papaya Payday</strong><p>Choose number of points to bet.</font><div class='respPicDiv'><img src='img/responseButtonOffersNo0L.png' class='respPic'></div></div>","1","15","Papaya Payday","Fruit/papayas.png","Lost","0.8,0.35","11","0.8","224","43","",""
"","","","decisionFB","","5c9bfbfa325c3d001ad360a8","bdp_rwlrn","Wed Mar 15 2023 19:52:44 GMT-0700 (Pacific Daylight Time)","1126030","Untrustworthy,Trustworthy","html-keyboard-response","137","589804","0.0-11.0-2.42","","null","","<div class='trialDiv'><img src='Fruit/papayas.png'><br><font class='baseline'><strong>Papaya Payday</strong><p>Choose number of points to bet.</font><div class='respPicDiv'><img src='img/responseButtonOffersNo0L1.png' class='respPic'></div></div>","null","15","Papaya Payday","Fruit/papayas.png","Lost","0.8,0.35","11","0.8","223","43","",""
"","","","feedback","","5c9bfbfa325c3d001ad360a8","bdp_rwlrn","Wed Mar 15 2023 19:52:44 GMT-0700 (Pacific Daylight Time)","1126030","Untrustworthy,Trustworthy","html-keyboard-response","138","590810","0.0-11.0-3.42","","null","","<div class='respPicDiv'><img src='img/responseButtonOffersNo0_wht.png' class='respPic'></div><div class='trialDiv'><img src='Fruit/papayas.png'><br><font class='baseline'><strong>Papaya Payday</strong><p><strong><font class='negOutcome'>You LOST</font><p>You bet: 1</strong></font> &nbsp; &nbsp; &nbsp; &nbsp; &nbsp; &nbsp;<font class='negOutcome'>You receive: <strong>0</strong></font></div>","null","15","Papaya Payday","Fruit/papayas.png","Lost","0.8,0.35","11","0.8","223","43","",""
"","","","decision","","5c9bfbfa325c3d001ad360a8","bdp_rwlrn","Wed Mar 15 2023 19:52:44 GMT-0700 (Pacific Daylight Time)","1126030","Untrustworthy,Trustworthy","html-keyboard-response","139","590998","0.0-11.0-1.43","","186","","<div class='trialDiv'><img src='Fruit/melon.png'><br><font class='baseline'><strong>Melon Millions</strong><p>Choose number of points to bet.</font><div class='respPicDiv'><img src='img/responseButtonOffersNo0L.png' class='respPic'></div></div>","1","15","Melon Millions","Fruit/melon.png","Lost","0.2,0.65","8","0.2","228","44","",""
"","","","decisionFB","","5c9bfbfa325c3d001ad360a8","bdp_rwlrn","Wed Mar 15 2023 19:52:44 GMT-0700 (Pacific Daylight Time)","1126030","Untrustworthy,Trustworthy","html-keyboard-response","140","591255","0.0-11.0-2.43","","null","","<div class='trialDiv'><img src='Fruit/melon.png'><br><font class='baseline'><strong>Melon Millions</strong><p>Choose number of points to bet.</font><div class='respPicDiv'><img src='img/responseButtonOffersNo0L1.png' class='respPic'></div></div>","null","15","Melon Millions","Fruit/melon.png","Lost","0.2,0.65","8","0.2","227","44","",""
"","","","feedback","","5c9bfbfa325c3d001ad360a8","bdp_rwlrn","Wed Mar 15 2023 19:52:44 GMT-0700 (Pacific Daylight Time)","1126030","Untrustworthy,Trustworthy","html-keyboard-response","141","592264","0.0-11.0-3.43","","null","","<div class='respPicDiv'><img src='img/responseButtonOffersNo0_wht.png' class='respPic'></div><div class='trialDiv'><img src='Fruit/melon.png'><br><font class='baseline'><strong>Melon Millions</strong><p><strong><font class='negOutcome'>You LOST</font><p>You bet: 1</strong></font> &nbsp; &nbsp; &nbsp; &nbsp; &nbsp; &nbsp;<font class='negOutcome'>You receive: <strong>0</strong></font></div>","null","15","Melon Millions","Fruit/melon.png","Lost","0.2,0.65","8","0.2","227","44","",""
"","","","decision","","5c9bfbfa325c3d001ad360a8","bdp_rwlrn","Wed Mar 15 2023 19:52:44 GMT-0700 (Pacific Daylight Time)","1126030","Untrustworthy,Trustworthy","html-keyboard-response","142","592616","0.0-11.0-1.44","","351","","<div class='trialDiv'><img src='Fruit/orange.png'><br><font class='baseline'><strong>Odds are Orange</strong><p>Choose number of points to bet.</font><div class='respPicDiv'><img src='img/responseButtonOffersNo0L.png' class='respPic'></div></div>","1","15","Odds are Orange","Fruit/orange.png","Lost","0.65,0.35","11","0.65","232","45","",""
"","","","decisionFB","","5c9bfbfa325c3d001ad360a8","bdp_rwlrn","Wed Mar 15 2023 19:52:44 GMT-0700 (Pacific Daylight Time)","1126030","Untrustworthy,Trustworthy","html-keyboard-response","143","592876","0.0-11.0-2.44","","null","","<div class='trialDiv'><img src='Fruit/orange.png'><br><font class='baseline'><strong>Odds are Orange</strong><p>Choose number of points to bet.</font><div class='respPicDiv'><img src='img/responseButtonOffersNo0L1.png' class='respPic'></div></div>","null","15","Odds are Orange","Fruit/orange.png","Lost","0.65,0.35","11","0.65","231","45","",""
"","","","feedback","","5c9bfbfa325c3d001ad360a8","bdp_rwlrn","Wed Mar 15 2023 19:52:44 GMT-0700 (Pacific Daylight Time)","1126030","Untrustworthy,Trustworthy","html-keyboard-response","144","593886","0.0-11.0-3.44","","null","","<div class='respPicDiv'><img src='img/responseButtonOffersNo0_wht.png' class='respPic'></div><div class='trialDiv'><img src='Fruit/orange.png'><br><font class='baseline'><strong>Odds are Orange</strong><p><strong><font class='negOutcome'>You LOST</font><p>You bet: 1</strong></font> &nbsp; &nbsp; &nbsp; &nbsp; &nbsp; &nbsp;<font class='negOutcome'>You receive: <strong>0</strong></font></div>","null","15","Odds are Orange","Fruit/orange.png","Lost","0.65,0.35","11","0.65","231","45","",""
"","","","decision","","5c9bfbfa325c3d001ad360a8","bdp_rwlrn","Wed Mar 15 2023 19:52:44 GMT-0700 (Pacific Daylight Time)","1126030","Untrustworthy,Trustworthy","html-keyboard-response","145","594046","0.0-11.0-1.45","","159","","<div class='trialDiv'><img src='Fruit/melon.png'><br><font class='baseline'><strong>Melon Millions</strong><p>Choose number of points to bet.</font><div class='respPicDiv'><img src='img/responseButtonOffersNo0L.png' class='respPic'></div></div>","1","16","Melon Millions","Fruit/melon.png","Lost","0.2,0.65","8","0.2","236","46","",""
"","","","decisionFB","","5c9bfbfa325c3d001ad360a8","bdp_rwlrn","Wed Mar 15 2023 19:52:44 GMT-0700 (Pacific Daylight Time)","1126030","Untrustworthy,Trustworthy","html-keyboard-response","146","594300","0.0-11.0-2.45","","null","","<div class='trialDiv'><img src='Fruit/melon.png'><br><font class='baseline'><strong>Melon Millions</strong><p>Choose number of points to bet.</font><div class='respPicDiv'><img src='img/responseButtonOffersNo0L1.png' class='respPic'></div></div>","null","16","Melon Millions","Fruit/melon.png","Lost","0.2,0.65","8","0.2","235","46","",""
"","","","feedback","","5c9bfbfa325c3d001ad360a8","bdp_rwlrn","Wed Mar 15 2023 19:52:44 GMT-0700 (Pacific Daylight Time)","1126030","Untrustworthy,Trustworthy","html-keyboard-response","147","595312","0.0-11.0-3.45","","null","","<div class='respPicDiv'><img src='img/responseButtonOffersNo0_wht.png' class='respPic'></div><div class='trialDiv'><img src='Fruit/melon.png'><br><font class='baseline'><strong>Melon Millions</strong><p><strong><font class='negOutcome'>You LOST</font><p>You bet: 1</strong></font> &nbsp; &nbsp; &nbsp; &nbsp; &nbsp; &nbsp;<font class='negOutcome'>You receive: <strong>0</strong></font></div>","null","16","Melon Millions","Fruit/melon.png","Lost","0.2,0.65","8","0.2","235","46","",""
"","","","decision","","5c9bfbfa325c3d001ad360a8","bdp_rwlrn","Wed Mar 15 2023 19:52:44 GMT-0700 (Pacific Daylight Time)","1126030","Untrustworthy,Trustworthy","html-keyboard-response","148","600772","0.0-11.0-1.46","","5459","","<div class='trialDiv'><img src='Fruit/orange.png'><br><font class='baseline'><strong>Odds are Orange</strong><p>Choose number of points to bet.</font><div class='respPicDiv'><img src='img/responseButtonOffersNo0L.png' class='respPic'></div></div>","1","16","Odds are Orange","Fruit/orange.png","Lost","0.65,0.35","11","0.65","240","47","",""
"","","","decisionFB","","5c9bfbfa325c3d001ad360a8","bdp_rwlrn","Wed Mar 15 2023 19:52:44 GMT-0700 (Pacific Daylight Time)","1126030","Untrustworthy,Trustworthy","html-keyboard-response","149","601030","0.0-11.0-2.46","","null","","<div class='trialDiv'><img src='Fruit/orange.png'><br><font class='baseline'><strong>Odds are Orange</strong><p>Choose number of points to bet.</font><div class='respPicDiv'><img src='img/responseButtonOffersNo0L1.png' class='respPic'></div></div>","null","16","Odds are Orange","Fruit/orange.png","Lost","0.65,0.35","11","0.65","239","47","",""
"","","","feedback","","5c9bfbfa325c3d001ad360a8","bdp_rwlrn","Wed Mar 15 2023 19:52:44 GMT-0700 (Pacific Daylight Time)","1126030","Untrustworthy,Trustworthy","html-keyboard-response","150","602042","0.0-11.0-3.46","","null","","<div class='respPicDiv'><img src='img/responseButtonOffersNo0_wht.png' class='respPic'></div><div class='trialDiv'><img src='Fruit/orange.png'><br><font class='baseline'><strong>Odds are Orange</strong><p><strong><font class='negOutcome'>You LOST</font><p>You bet: 1</strong></font> &nbsp; &nbsp; &nbsp; &nbsp; &nbsp; &nbsp;<font class='negOutcome'>You receive: <strong>0</strong></font></div>","null","16","Odds are Orange","Fruit/orange.png","Lost","0.65,0.35","11","0.65","239","47","",""
"","","","decision","","5c9bfbfa325c3d001ad360a8","bdp_rwlrn","Wed Mar 15 2023 19:52:44 GMT-0700 (Pacific Daylight Time)","1126030","Untrustworthy,Trustworthy","html-keyboard-response","151","602439","0.0-11.0-1.47","","395","","<div class='trialDiv'><img src='Fruit/papayas.png'><br><font class='baseline'><strong>Papaya Payday</strong><p>Choose number of points to bet.</font><div class='respPicDiv'><img src='img/responseButtonOffersNo0L.png' class='respPic'></div></div>","1","16","Papaya Payday","Fruit/papayas.png","Won","0.8,0.35","11","0.8","244","48","",""
"","","","decisionFB","","5c9bfbfa325c3d001ad360a8","bdp_rwlrn","Wed Mar 15 2023 19:52:44 GMT-0700 (Pacific Daylight Time)","1126030","Untrustworthy,Trustworthy","html-keyboard-response","152","602690","0.0-11.0-2.47","","null","","<div class='trialDiv'><img src='Fruit/papayas.png'><br><font class='baseline'><strong>Papaya Payday</strong><p>Choose number of points to bet.</font><div class='respPicDiv'><img src='img/responseButtonOffersNo0L1.png' class='respPic'></div></div>","null","16","Papaya Payday","Fruit/papayas.png","Won","0.8,0.35","11","0.8","243","48","",""
"","","","feedback","","5c9bfbfa325c3d001ad360a8","bdp_rwlrn","Wed Mar 15 2023 19:52:44 GMT-0700 (Pacific Daylight Time)","1126030","Untrustworthy,Trustworthy","html-keyboard-response","153","603692","0.0-11.0-3.47","","null","","<div class='respPicDiv'><img src='img/responseButtonOffersNo0_wht.png' class='respPic'></div><div class='trialDiv'><img src='Fruit/papayas.png'><br><font class='baseline'><strong>Papaya Payday</strong><p><strong><font class='posOutcome'>You WON</font><p>You bet: 1</strong></font> &nbsp; &nbsp; &nbsp; &nbsp; &nbsp; &nbsp;<font class='posOutcome'>you receive: <strong>2</strong></font></div>","null","16","Papaya Payday","Fruit/papayas.png","Won","0.8,0.35","11","0.8","245","48","",""
"","","","decision","","5c9bfbfa325c3d001ad360a8","bdp_rwlrn","Wed Mar 15 2023 19:52:44 GMT-0700 (Pacific Daylight Time)","1126030","Untrustworthy,Trustworthy","html-keyboard-response","154","604326","0.0-11.0-1.48","","633","","<div class='trialDiv'><img src='Fruit/orange.png'><br><font class='baseline'><strong>Odds are Orange</strong><p>Choose number of points to bet.</font><div class='respPicDiv'><img src='img/responseButtonOffersNo0L.png' class='respPic'></div></div>","1","17","Odds are Orange","Fruit/orange.png","Won","0.65,0.35","11","0.65","250","49","",""
"","","","decisionFB","","5c9bfbfa325c3d001ad360a8","bdp_rwlrn","Wed Mar 15 2023 19:52:44 GMT-0700 (Pacific Daylight Time)","1126030","Untrustworthy,Trustworthy","html-keyboard-response","155","604580","0.0-11.0-2.48","","null","","<div class='trialDiv'><img src='Fruit/orange.png'><br><font class='baseline'><strong>Odds are Orange</strong><p>Choose number of points to bet.</font><div class='respPicDiv'><img src='img/responseButtonOffersNo0L1.png' class='respPic'></div></div>","null","17","Odds are Orange","Fruit/orange.png","Won","0.65,0.35","11","0.65","249","49","",""
"","","","feedback","","5c9bfbfa325c3d001ad360a8","bdp_rwlrn","Wed Mar 15 2023 19:52:44 GMT-0700 (Pacific Daylight Time)","1126030","Untrustworthy,Trustworthy","html-keyboard-response","156","605590","0.0-11.0-3.48","","null","","<div class='respPicDiv'><img src='img/responseButtonOffersNo0_wht.png' class='respPic'></div><div class='trialDiv'><img src='Fruit/orange.png'><br><font class='baseline'><strong>Odds are Orange</strong><p><strong><font class='posOutcome'>You WON</font><p>You bet: 1</strong></font> &nbsp; &nbsp; &nbsp; &nbsp; &nbsp; &nbsp;<font class='posOutcome'>you receive: <strong>2</strong></font></div>","null","17","Odds are Orange","Fruit/orange.png","Won","0.65,0.35","11","0.65","251","49","",""
"","","","decision","","5c9bfbfa325c3d001ad360a8","bdp_rwlrn","Wed Mar 15 2023 19:52:44 GMT-0700 (Pacific Daylight Time)","1126030","Untrustworthy,Trustworthy","html-keyboard-response","157","606563","0.0-11.0-1.49","","971","","<div class='trialDiv'><img src='Fruit/papayas.png'><br><font class='baseline'><strong>Papaya Payday</strong><p>Choose number of points to bet.</font><div class='respPicDiv'><img src='img/responseButtonOffersNo0L.png' class='respPic'></div></div>","1","17","Papaya Payday","Fruit/papayas.png","Won","0.8,0.35","11","0.8","256","50","",""
"","","","decisionFB","","5c9bfbfa325c3d001ad360a8","bdp_rwlrn","Wed Mar 15 2023 19:52:44 GMT-0700 (Pacific Daylight Time)","1126030","Untrustworthy,Trustworthy","html-keyboard-response","158","606818","0.0-11.0-2.49","","null","","<div class='trialDiv'><img src='Fruit/papayas.png'><br><font class='baseline'><strong>Papaya Payday</strong><p>Choose number of points to bet.</font><div class='respPicDiv'><img src='img/responseButtonOffersNo0L1.png' class='respPic'></div></div>","null","17","Papaya Payday","Fruit/papayas.png","Won","0.8,0.35","11","0.8","255","50","",""
"","","","feedback","","5c9bfbfa325c3d001ad360a8","bdp_rwlrn","Wed Mar 15 2023 19:52:44 GMT-0700 (Pacific Daylight Time)","1126030","Untrustworthy,Trustworthy","html-keyboard-response","159","607826","0.0-11.0-3.49","","null","","<div class='respPicDiv'><img src='img/responseButtonOffersNo0_wht.png' class='respPic'></div><div class='trialDiv'><img src='Fruit/papayas.png'><br><font class='baseline'><strong>Papaya Payday</strong><p><strong><font class='posOutcome'>You WON</font><p>You bet: 1</strong></font> &nbsp; &nbsp; &nbsp; &nbsp; &nbsp; &nbsp;<font class='posOutcome'>you receive: <strong>2</strong></font></div>","null","17","Papaya Payday","Fruit/papayas.png","Won","0.8,0.35","11","0.8","257","50","",""
"","","","decision","","5c9bfbfa325c3d001ad360a8","bdp_rwlrn","Wed Mar 15 2023 19:52:44 GMT-0700 (Pacific Daylight Time)","1126030","Untrustworthy,Trustworthy","html-keyboard-response","160","621225","0.0-11.0-1.50","","13398","","<div class='trialDiv'><img src='Fruit/melon.png'><br><font class='baseline'><strong>Melon Millions</strong><p>Choose number of points to bet.</font><div class='respPicDiv'><img src='img/responseButtonOffersNo0L.png' class='respPic'></div></div>","1","17","Melon Millions","Fruit/melon.png","Won","0.2,0.65","8","0.2","262","51","",""
