"trial_type","trial_index","time_elapsed","internal_node_id","subject_id","task","startTime","totalTime","labels","view_history","rt","event","trial","time","trialtype","success","stimulus","key_press","ltround","name","fileID","outcome","lottotype","lottoswpt","lottocurrpshare","point_total","round","faceID","face"
"pavlovia","0","2","0.0-0.0","63ed15bed4665c62d9e6dbb2","bdp_rwlrn","Sun Mar 12 2023 17:14:48 GMT-0400 (Eastern Daylight Time)","1424679","Trustworthy,Untrustworthy","","","","","","","","","","","","","","","","","","","",""
"instructions","1","33451","0.0-1.0","63ed15bed4665c62d9e6dbb2","bdp_rwlrn","Sun Mar 12 2023 17:14:48 GMT-0400 (Eastern Daylight Time)","1424679","Trustworthy,Untrustworthy","[{""page_index"":0,""viewing_time"":33449}]","33449","","","","","","","","","","","","","","","","","",""
"","","","","63ed15bed4665c62d9e6dbb2","bdp_rwlrn","Sun Mar 12 2023 17:14:48 GMT-0400 (Eastern Daylight Time)","1424679","Trustworthy,Untrustworthy","","","fullscreenenter","2","36086","fullscreenenter","","","","","","","","","","","","","",""
"fullscreen","2","37085","0.0-2.0","63ed15bed4665c62d9e6dbb2","bdp_rwlrn","Sun Mar 12 2023 17:14:48 GMT-0400 (Eastern Daylight Time)","1424679","Trustworthy,Untrustworthy","","","","","","","true","","","","","","","","","","","","",""
"instructions","3","96981","0.0-4.0","63ed15bed4665c62d9e6dbb2","bdp_rwlrn","Sun Mar 12 2023 17:14:48 GMT-0400 (Eastern Daylight Time)","1424679","Trustworthy,Untrustworthy","[{""page_index"":0,""viewing_time"":10368},{""page_index"":1,""viewing_time"":14524},{""page_index"":2,""viewing_time"":8750},{""page_index"":3,""viewing_time"":4552},{""page_index"":4,""viewing_time"":18249},{""page_index"":5,""viewing_time"":3450}]","59894","","","","","","","","","","","","","","","","","",""
"html-keyboard-response","4","100843","0.0-5.0","63ed15bed4665c62d9e6dbb2","bdp_rwlrn","Sun Mar 12 2023 17:14:48 GMT-0400 (Eastern Daylight Time)","1424679","Trustworthy,Untrustworthy","","3862","","","","","","<div class='header' style='text-align:left; position: absolute; top: 5%; left: 5%;'><small>Task 1 of 5</small></div><div class='instruxDiv'><p><strong>1) What is the maximum number of points you can choose to bet on a lottery?</strong></p><p>a) 0</p><p>b) 1</p><p>c) 5</p>","C","","","","","","","","","","",""
"html-keyboard-response","5","101949","0.0-6.0","63ed15bed4665c62d9e6dbb2","bdp_rwlrn","Sun Mar 12 2023 17:14:48 GMT-0400 (Eastern Daylight Time)","1424679","Trustworthy,Untrustworthy","","1003","","","","","","<div class='header' style='text-align:left; position: absolute; top: 5%; left: 5%;'><small>Task 1 of 5</small></div><div class='instruxDiv'><p><strong>1) What is the maximum number of points you can choose to bet on a lottery?</strong></p><p>a) 1</p><p>b) 1</p><p style='color:#00FF00'>c) 5</p><h3 style='color:#00FF00'>Correct!</h3><h3 class='center-content'>The correct response is c).</h3><h3 class='center-content'>The maximum number of points you can choose to bet on a lottery is 5 points.</h3><p><em>Press SPACEBAR to continue</em></p></div>"," ","","","","","","","","","","",""
"html-keyboard-response","6","105552","0.0-7.0","63ed15bed4665c62d9e6dbb2","bdp_rwlrn","Sun Mar 12 2023 17:14:48 GMT-0400 (Eastern Daylight Time)","1424679","Trustworthy,Untrustworthy","","3501","","","","","","<div class='header' style='text-align:left; position: absolute; top: 5%; left: 5%;'><small>Task 1 of 5</small></div><div class='instruxDiv'><p><strong>2) How many points can you win each round?</strong></p><p>a) 10 points</p><p>b) Double what you bet</p><p>c) Quadruple what you bet</p>","B","","","","","","","","","","",""
"html-keyboard-response","7","106142","0.0-8.0","63ed15bed4665c62d9e6dbb2","bdp_rwlrn","Sun Mar 12 2023 17:14:48 GMT-0400 (Eastern Daylight Time)","1424679","Trustworthy,Untrustworthy","","474","","","","","","<div class='header' style='text-align:left; position: absolute; top: 5%; left: 5%;'><small>Task 1 of 5</small></div><div class='instruxDiv'><p><strong>2) How many points can you win each round?</strong></p><p>a) 10 points</p><p style='color:#00FF00'>b) Double what you bet</p><p>c) Quadruple what you bet</p><h3 style='color:#00FF00'>Correct!</h3><h3 class='center-content'>The correct response is b).</h3><h3 class='center-content'>You can win double the amount of points you bet.</h3><p><em>Press SPACEBAR to continue</em></p></div>"," ","","","","","","","","","","",""
"html-keyboard-response","8","111252","0.0-9.0","63ed15bed4665c62d9e6dbb2","bdp_rwlrn","Sun Mar 12 2023 17:14:48 GMT-0400 (Eastern Daylight Time)","1424679","Trustworthy,Untrustworthy","","null","","","","","","<div class='header' style='text-align:left; position: absolute; top: 5%; left: 5%;'><small>Task 1 of 5</small></div><div class='instruxDiv'><p>Thank you for completing the quiz<p>These are the actual lotteries you will be playing in the next block:<p><div class='tc' align='center'><img class='introPic' src='Fruit/lemon.png'><br><strong>Lucky Lemons</strong></div><div class='bl' align='center'><img class='introPic' src='Fruit/mixed-berries2.png'><br><strong>Berry Bla$t</strong></div><div class='br' align='center'><img class='introPic' src='Fruit/orange.png'><br><strong>Odds are Orange</strong></div></div><p>Across <strong>66 rounds</strong> you will play each lottery <strong>22 times</strong> (in random order).<p style='align:center; color:white'><font <em>Press SPACEBAR to continue</em></p>","null","","","","","","","","","","",""
"instructions","9","1034218","0.0-10.0","63ed15bed4665c62d9e6dbb2","bdp_rwlrn","Sun Mar 12 2023 17:14:48 GMT-0400 (Eastern Daylight Time)","1424679","Trustworthy,Untrustworthy","[{""page_index"":0,""viewing_time"":920790},{""page_index"":1,""viewing_time"":2175}]","922965","","","","","","","","","","","","","","","","","",""
"html-keyboard-response","10","1039035","0.0-11.0-1.0","63ed15bed4665c62d9e6dbb2","bdp_rwlrn","Sun Mar 12 2023 17:14:48 GMT-0400 (Eastern Daylight Time)","1424679","Trustworthy,Untrustworthy","","4711","","","","decision","","<div class='trialDiv'><img src='Fruit/orange.png'><br><font class='baseline'><strong>Odds are Orange</strong><p>Choose number of points to bet.</font><div class='respPicDiv'><img src='img/responseButtonOffersNo0L.png' class='respPic'></div></div>","3","1","Odds are Orange","Fruit/orange.png","Won","0.8,0.35","14","0.8","5","1","",""
"html-keyboard-response","11","1039296","0.0-11.0-2.0","63ed15bed4665c62d9e6dbb2","bdp_rwlrn","Sun Mar 12 2023 17:14:48 GMT-0400 (Eastern Daylight Time)","1424679","Trustworthy,Untrustworthy","","null","","","","decisionFB","","<div class='trialDiv'><img src='Fruit/orange.png'><br><font class='baseline'><strong>Odds are Orange</strong><p>Choose number of points to bet.</font><div class='respPicDiv'><img src='img/responseButtonOffersNo0L3.png' class='respPic'></div></div>","null","1","Odds are Orange","Fruit/orange.png","Won","0.8,0.35","14","0.8","2","1","",""
"html-keyboard-response","12","1040301","0.0-11.0-3.0","63ed15bed4665c62d9e6dbb2","bdp_rwlrn","Sun Mar 12 2023 17:14:48 GMT-0400 (Eastern Daylight Time)","1424679","Trustworthy,Untrustworthy","","null","","","","feedback","","<div class='respPicDiv'><img src='img/responseButtonOffersNo0_wht.png' class='respPic'></div><div class='trialDiv'><img src='Fruit/orange.png'><br><font class='baseline'><strong>Odds are Orange</strong><p><strong><font class='posOutcome'>You WON</font><p>You bet: 3</strong></font> &nbsp; &nbsp; &nbsp; &nbsp; &nbsp; &nbsp;<font class='posOutcome'>you receive: <strong>6</strong></font></div>","null","1","Odds are Orange","Fruit/orange.png","Won","0.8,0.35","14","0.8","8","1","",""
"html-keyboard-response","13","1042908","0.0-11.0-1.1","63ed15bed4665c62d9e6dbb2","bdp_rwlrn","Sun Mar 12 2023 17:14:48 GMT-0400 (Eastern Daylight Time)","1424679","Trustworthy,Untrustworthy","","2606","","","","decision","","<div class='trialDiv'><img src='Fruit/mixed-berries2.png'><br><font class='baseline'><strong>Berry Bla$t</strong><p>Choose number of points to bet.</font><div class='respPicDiv'><img src='img/responseButtonOffersNo0L.png' class='respPic'></div></div>","2","1","Berry Bla$t","Fruit/mixed-berries2.png","Lost","0.2,0.65","11","0.2","13","2","",""
"html-keyboard-response","14","1043168","0.0-11.0-2.1","63ed15bed4665c62d9e6dbb2","bdp_rwlrn","Sun Mar 12 2023 17:14:48 GMT-0400 (Eastern Daylight Time)","1424679","Trustworthy,Untrustworthy","","null","","","","decisionFB","","<div class='trialDiv'><img src='Fruit/mixed-berries2.png'><br><font class='baseline'><strong>Berry Bla$t</strong><p>Choose number of points to bet.</font><div class='respPicDiv'><img src='img/responseButtonOffersNo0L2.png' class='respPic'></div></div>","null","1","Berry Bla$t","Fruit/mixed-berries2.png","Lost","0.2,0.65","11","0.2","11","2","",""
"html-keyboard-response","15","1044172","0.0-11.0-3.1","63ed15bed4665c62d9e6dbb2","bdp_rwlrn","Sun Mar 12 2023 17:14:48 GMT-0400 (Eastern Daylight Time)","1424679","Trustworthy,Untrustworthy","","null","","","","feedback","","<div class='respPicDiv'><img src='img/responseButtonOffersNo0_wht.png' class='respPic'></div><div class='trialDiv'><img src='Fruit/mixed-berries2.png'><br><font class='baseline'><strong>Berry Bla$t</strong><p><strong><font class='negOutcome'>You LOST</font><p>You bet: 2</strong></font> &nbsp; &nbsp; &nbsp; &nbsp; &nbsp; &nbsp;<font class='negOutcome'>You receive: <strong>0</strong></font></div>","null","1","Berry Bla$t","Fruit/mixed-berries2.png","Lost","0.2,0.65","11","0.2","11","2","",""
"html-keyboard-response","16","1045607","0.0-11.0-1.2","63ed15bed4665c62d9e6dbb2","bdp_rwlrn","Sun Mar 12 2023 17:14:48 GMT-0400 (Eastern Daylight Time)","1424679","Trustworthy,Untrustworthy","","1434","","","","decision","","<div class='trialDiv'><img src='Fruit/lemon.png'><br><font class='baseline'><strong>Lucky Lemons</strong><p>Choose number of points to bet.</font><div class='respPicDiv'><img src='img/responseButtonOffersNo0L.png' class='respPic'></div></div>","5","1","Lucky Lemons","Fruit/lemon.png","Won","0.65,0.35","12","0.65","16","3","",""
"html-keyboard-response","17","1045869","0.0-11.0-2.2","63ed15bed4665c62d9e6dbb2","bdp_rwlrn","Sun Mar 12 2023 17:14:48 GMT-0400 (Eastern Daylight Time)","1424679","Trustworthy,Untrustworthy","","null","","","","decisionFB","","<div class='trialDiv'><img src='Fruit/lemon.png'><br><font class='baseline'><strong>Lucky Lemons</strong><p>Choose number of points to bet.</font><div class='respPicDiv'><img src='img/responseButtonOffersNo0L5.png' class='respPic'></div></div>","null","1","Lucky Lemons","Fruit/lemon.png","Won","0.65,0.35","12","0.65","11","3","",""
"html-keyboard-response","18","1046872","0.0-11.0-3.2","63ed15bed4665c62d9e6dbb2","bdp_rwlrn","Sun Mar 12 2023 17:14:48 GMT-0400 (Eastern Daylight Time)","1424679","Trustworthy,Untrustworthy","","null","","","","feedback","","<div class='respPicDiv'><img src='img/responseButtonOffersNo0_wht.png' class='respPic'></div><div class='trialDiv'><img src='Fruit/lemon.png'><br><font class='baseline'><strong>Lucky Lemons</strong><p><strong><font class='posOutcome'>You WON</font><p>You bet: 5</strong></font> &nbsp; &nbsp; &nbsp; &nbsp; &nbsp; &nbsp;<font class='posOutcome'>you receive: <strong>10</strong></font></div>","null","1","Lucky Lemons","Fruit/lemon.png","Won","0.65,0.35","12","0.65","21","3","",""
"html-keyboard-response","19","1048363","0.0-11.0-1.3","63ed15bed4665c62d9e6dbb2","bdp_rwlrn","Sun Mar 12 2023 17:14:48 GMT-0400 (Eastern Daylight Time)","1424679","Trustworthy,Untrustworthy","","1490","","","","decision","","<div class='trialDiv'><img src='Fruit/mixed-berries2.png'><br><font class='baseline'><strong>Berry Bla$t</strong><p>Choose number of points to bet.</font><div class='respPicDiv'><img src='img/responseButtonOffersNo0L.png' class='respPic'></div></div>","5","2","Berry Bla$t","Fruit/mixed-berries2.png","Lost","0.2,0.65","11","0.2","26","4","",""
"html-keyboard-response","20","1048626","0.0-11.0-2.3","63ed15bed4665c62d9e6dbb2","bdp_rwlrn","Sun Mar 12 2023 17:14:48 GMT-0400 (Eastern Daylight Time)","1424679","Trustworthy,Untrustworthy","","null","","","","decisionFB","","<div class='trialDiv'><img src='Fruit/mixed-berries2.png'><br><font class='baseline'><strong>Berry Bla$t</strong><p>Choose number of points to bet.</font><div class='respPicDiv'><img src='img/responseButtonOffersNo0L5.png' class='respPic'></div></div>","null","2","Berry Bla$t","Fruit/mixed-berries2.png","Lost","0.2,0.65","11","0.2","21","4","",""
"html-keyboard-response","21","1049631","0.0-11.0-3.3","63ed15bed4665c62d9e6dbb2","bdp_rwlrn","Sun Mar 12 2023 17:14:48 GMT-0400 (Eastern Daylight Time)","1424679","Trustworthy,Untrustworthy","","null","","","","feedback","","<div class='respPicDiv'><img src='img/responseButtonOffersNo0_wht.png' class='respPic'></div><div class='trialDiv'><img src='Fruit/mixed-berries2.png'><br><font class='baseline'><strong>Berry Bla$t</strong><p><strong><font class='negOutcome'>You LOST</font><p>You bet: 5</strong></font> &nbsp; &nbsp; &nbsp; &nbsp; &nbsp; &nbsp;<font class='negOutcome'>You receive: <strong>0</strong></font></div>","null","2","Berry Bla$t","Fruit/mixed-berries2.png","Lost","0.2,0.65","11","0.2","21","4","",""
"html-keyboard-response","22","1050408","0.0-11.0-1.4","63ed15bed4665c62d9e6dbb2","bdp_rwlrn","Sun Mar 12 2023 17:14:48 GMT-0400 (Eastern Daylight Time)","1424679","Trustworthy,Untrustworthy","","777","","","","decision","","<div class='trialDiv'><img src='Fruit/lemon.png'><br><font class='baseline'><strong>Lucky Lemons</strong><p>Choose number of points to bet.</font><div class='respPicDiv'><img src='img/responseButtonOffersNo0L.png' class='respPic'></div></div>","5","2","Lucky Lemons","Fruit/lemon.png","Lost","0.65,0.35","12","0.65","26","5","",""
"html-keyboard-response","23","1050667","0.0-11.0-2.4","63ed15bed4665c62d9e6dbb2","bdp_rwlrn","Sun Mar 12 2023 17:14:48 GMT-0400 (Eastern Daylight Time)","1424679","Trustworthy,Untrustworthy","","null","","","","decisionFB","","<div class='trialDiv'><img src='Fruit/lemon.png'><br><font class='baseline'><strong>Lucky Lemons</strong><p>Choose number of points to bet.</font><div class='respPicDiv'><img src='img/responseButtonOffersNo0L5.png' class='respPic'></div></div>","null","2","Lucky Lemons","Fruit/lemon.png","Lost","0.65,0.35","12","0.65","21","5","",""
"html-keyboard-response","24","1051670","0.0-11.0-3.4","63ed15bed4665c62d9e6dbb2","bdp_rwlrn","Sun Mar 12 2023 17:14:48 GMT-0400 (Eastern Daylight Time)","1424679","Trustworthy,Untrustworthy","","null","","","","feedback","","<div class='respPicDiv'><img src='img/responseButtonOffersNo0_wht.png' class='respPic'></div><div class='trialDiv'><img src='Fruit/lemon.png'><br><font class='baseline'><strong>Lucky Lemons</strong><p><strong><font class='negOutcome'>You LOST</font><p>You bet: 5</strong></font> &nbsp; &nbsp; &nbsp; &nbsp; &nbsp; &nbsp;<font class='negOutcome'>You receive: <strong>0</strong></font></div>","null","2","Lucky Lemons","Fruit/lemon.png","Lost","0.65,0.35","12","0.65","21","5","",""
"html-keyboard-response","25","1052432","0.0-11.0-1.5","63ed15bed4665c62d9e6dbb2","bdp_rwlrn","Sun Mar 12 2023 17:14:48 GMT-0400 (Eastern Daylight Time)","1424679","Trustworthy,Untrustworthy","","761","","","","decision","","<div class='trialDiv'><img src='Fruit/orange.png'><br><font class='baseline'><strong>Odds are Orange</strong><p>Choose number of points to bet.</font><div class='respPicDiv'><img src='img/responseButtonOffersNo0L.png' class='respPic'></div></div>","5","2","Odds are Orange","Fruit/orange.png","Won","0.8,0.35","14","0.8","26","6","",""
"html-keyboard-response","26","1052690","0.0-11.0-2.5","63ed15bed4665c62d9e6dbb2","bdp_rwlrn","Sun Mar 12 2023 17:14:48 GMT-0400 (Eastern Daylight Time)","1424679","Trustworthy,Untrustworthy","","null","","","","decisionFB","","<div class='trialDiv'><img src='Fruit/orange.png'><br><font class='baseline'><strong>Odds are Orange</strong><p>Choose number of points to bet.</font><div class='respPicDiv'><img src='img/responseButtonOffersNo0L5.png' class='respPic'></div></div>","null","2","Odds are Orange","Fruit/orange.png","Won","0.8,0.35","14","0.8","21","6","",""
"html-keyboard-response","27","1053698","0.0-11.0-3.5","63ed15bed4665c62d9e6dbb2","bdp_rwlrn","Sun Mar 12 2023 17:14:48 GMT-0400 (Eastern Daylight Time)","1424679","Trustworthy,Untrustworthy","","null","","","","feedback","","<div class='respPicDiv'><img src='img/responseButtonOffersNo0_wht.png' class='respPic'></div><div class='trialDiv'><img src='Fruit/orange.png'><br><font class='baseline'><strong>Odds are Orange</strong><p><strong><font class='posOutcome'>You WON</font><p>You bet: 5</strong></font> &nbsp; &nbsp; &nbsp; &nbsp; &nbsp; &nbsp;<font class='posOutcome'>you receive: <strong>10</strong></font></div>","null","2","Odds are Orange","Fruit/orange.png","Won","0.8,0.35","14","0.8","31","6","",""
"html-keyboard-response","28","1054686","0.0-11.0-1.6","63ed15bed4665c62d9e6dbb2","bdp_rwlrn","Sun Mar 12 2023 17:14:48 GMT-0400 (Eastern Daylight Time)","1424679","Trustworthy,Untrustworthy","","987","","","","decision","","<div class='trialDiv'><img src='Fruit/mixed-berries2.png'><br><font class='baseline'><strong>Berry Bla$t</strong><p>Choose number of points to bet.</font><div class='respPicDiv'><img src='img/responseButtonOffersNo0L.png' class='respPic'></div></div>","5","3","Berry Bla$t","Fruit/mixed-berries2.png","Lost","0.2,0.65","11","0.2","36","7","",""
"html-keyboard-response","29","1054937","0.0-11.0-2.6","63ed15bed4665c62d9e6dbb2","bdp_rwlrn","Sun Mar 12 2023 17:14:48 GMT-0400 (Eastern Daylight Time)","1424679","Trustworthy,Untrustworthy","","null","","","","decisionFB","","<div class='trialDiv'><img src='Fruit/mixed-berries2.png'><br><font class='baseline'><strong>Berry Bla$t</strong><p>Choose number of points to bet.</font><div class='respPicDiv'><img src='img/responseButtonOffersNo0L5.png' class='respPic'></div></div>","null","3","Berry Bla$t","Fruit/mixed-berries2.png","Lost","0.2,0.65","11","0.2","31","7","",""
"html-keyboard-response","30","1055943","0.0-11.0-3.6","63ed15bed4665c62d9e6dbb2","bdp_rwlrn","Sun Mar 12 2023 17:14:48 GMT-0400 (Eastern Daylight Time)","1424679","Trustworthy,Untrustworthy","","null","","","","feedback","","<div class='respPicDiv'><img src='img/responseButtonOffersNo0_wht.png' class='respPic'></div><div class='trialDiv'><img src='Fruit/mixed-berries2.png'><br><font class='baseline'><strong>Berry Bla$t</strong><p><strong><font class='negOutcome'>You LOST</font><p>You bet: 5</strong></font> &nbsp; &nbsp; &nbsp; &nbsp; &nbsp; &nbsp;<font class='negOutcome'>You receive: <strong>0</strong></font></div>","null","3","Berry Bla$t","Fruit/mixed-berries2.png","Lost","0.2,0.65","11","0.2","31","7","",""
"html-keyboard-response","31","1056394","0.0-11.0-1.7","63ed15bed4665c62d9e6dbb2","bdp_rwlrn","Sun Mar 12 2023 17:14:48 GMT-0400 (Eastern Daylight Time)","1424679","Trustworthy,Untrustworthy","","450","","","","decision","","<div class='trialDiv'><img src='Fruit/orange.png'><br><font class='baseline'><strong>Odds are Orange</strong><p>Choose number of points to bet.</font><div class='respPicDiv'><img src='img/responseButtonOffersNo0L.png' class='respPic'></div></div>","5","3","Odds are Orange","Fruit/orange.png","Won","0.8,0.35","14","0.8","36","8","",""
"html-keyboard-response","32","1056654","0.0-11.0-2.7","63ed15bed4665c62d9e6dbb2","bdp_rwlrn","Sun Mar 12 2023 17:14:48 GMT-0400 (Eastern Daylight Time)","1424679","Trustworthy,Untrustworthy","","null","","","","decisionFB","","<div class='trialDiv'><img src='Fruit/orange.png'><br><font class='baseline'><strong>Odds are Orange</strong><p>Choose number of points to bet.</font><div class='respPicDiv'><img src='img/responseButtonOffersNo0L5.png' class='respPic'></div></div>","null","3","Odds are Orange","Fruit/orange.png","Won","0.8,0.35","14","0.8","31","8","",""
"html-keyboard-response","33","1057662","0.0-11.0-3.7","63ed15bed4665c62d9e6dbb2","bdp_rwlrn","Sun Mar 12 2023 17:14:48 GMT-0400 (Eastern Daylight Time)","1424679","Trustworthy,Untrustworthy","","null","","","","feedback","","<div class='respPicDiv'><img src='img/responseButtonOffersNo0_wht.png' class='respPic'></div><div class='trialDiv'><img src='Fruit/orange.png'><br><font class='baseline'><strong>Odds are Orange</strong><p><strong><font class='posOutcome'>You WON</font><p>You bet: 5</strong></font> &nbsp; &nbsp; &nbsp; &nbsp; &nbsp; &nbsp;<font class='posOutcome'>you receive: <strong>10</strong></font></div>","null","3","Odds are Orange","Fruit/orange.png","Won","0.8,0.35","14","0.8","41","8","",""
"html-keyboard-response","34","1058442","0.0-11.0-1.8","63ed15bed4665c62d9e6dbb2","bdp_rwlrn","Sun Mar 12 2023 17:14:48 GMT-0400 (Eastern Daylight Time)","1424679","Trustworthy,Untrustworthy","","779","","","","decision","","<div class='trialDiv'><img src='Fruit/lemon.png'><br><font class='baseline'><strong>Lucky Lemons</strong><p>Choose number of points to bet.</font><div class='respPicDiv'><img src='img/responseButtonOffersNo0L.png' class='respPic'></div></div>","1","3","Lucky Lemons","Fruit/lemon.png","Won","0.65,0.35","12","0.65","46","9","",""
"html-keyboard-response","35","1058700","0.0-11.0-2.8","63ed15bed4665c62d9e6dbb2","bdp_rwlrn","Sun Mar 12 2023 17:14:48 GMT-0400 (Eastern Daylight Time)","1424679","Trustworthy,Untrustworthy","","null","","","","decisionFB","","<div class='trialDiv'><img src='Fruit/lemon.png'><br><font class='baseline'><strong>Lucky Lemons</strong><p>Choose number of points to bet.</font><div class='respPicDiv'><img src='img/responseButtonOffersNo0L1.png' class='respPic'></div></div>","null","3","Lucky Lemons","Fruit/lemon.png","Won","0.65,0.35","12","0.65","45","9","",""
"html-keyboard-response","36","1059706","0.0-11.0-3.8","63ed15bed4665c62d9e6dbb2","bdp_rwlrn","Sun Mar 12 2023 17:14:48 GMT-0400 (Eastern Daylight Time)","1424679","Trustworthy,Untrustworthy","","null","","","","feedback","","<div class='respPicDiv'><img src='img/responseButtonOffersNo0_wht.png' class='respPic'></div><div class='trialDiv'><img src='Fruit/lemon.png'><br><font class='baseline'><strong>Lucky Lemons</strong><p><strong><font class='posOutcome'>You WON</font><p>You bet: 1</strong></font> &nbsp; &nbsp; &nbsp; &nbsp; &nbsp; &nbsp;<font class='posOutcome'>you receive: <strong>2</strong></font></div>","null","3","Lucky Lemons","Fruit/lemon.png","Won","0.65,0.35","12","0.65","47","9","",""
"html-keyboard-response","37","1060076","0.0-11.0-1.9","63ed15bed4665c62d9e6dbb2","bdp_rwlrn","Sun Mar 12 2023 17:14:48 GMT-0400 (Eastern Daylight Time)","1424679","Trustworthy,Untrustworthy","","370","","","","decision","","<div class='trialDiv'><img src='Fruit/orange.png'><br><font class='baseline'><strong>Odds are Orange</strong><p>Choose number of points to bet.</font><div class='respPicDiv'><img src='img/responseButtonOffersNo0L.png' class='respPic'></div></div>","1","4","Odds are Orange","Fruit/orange.png","Won","0.8,0.35","14","0.8","52","10","",""
"html-keyboard-response","38","1060332","0.0-11.0-2.9","63ed15bed4665c62d9e6dbb2","bdp_rwlrn","Sun Mar 12 2023 17:14:48 GMT-0400 (Eastern Daylight Time)","1424679","Trustworthy,Untrustworthy","","null","","","","decisionFB","","<div class='trialDiv'><img src='Fruit/orange.png'><br><font class='baseline'><strong>Odds are Orange</strong><p>Choose number of points to bet.</font><div class='respPicDiv'><img src='img/responseButtonOffersNo0L1.png' class='respPic'></div></div>","null","4","Odds are Orange","Fruit/orange.png","Won","0.8,0.35","14","0.8","51","10","",""
"html-keyboard-response","39","1061337","0.0-11.0-3.9","63ed15bed4665c62d9e6dbb2","bdp_rwlrn","Sun Mar 12 2023 17:14:48 GMT-0400 (Eastern Daylight Time)","1424679","Trustworthy,Untrustworthy","","null","","","","feedback","","<div class='respPicDiv'><img src='img/responseButtonOffersNo0_wht.png' class='respPic'></div><div class='trialDiv'><img src='Fruit/orange.png'><br><font class='baseline'><strong>Odds are Orange</strong><p><strong><font class='posOutcome'>You WON</font><p>You bet: 1</strong></font> &nbsp; &nbsp; &nbsp; &nbsp; &nbsp; &nbsp;<font class='posOutcome'>you receive: <strong>2</strong></font></div>","null","4","Odds are Orange","Fruit/orange.png","Won","0.8,0.35","14","0.8","53","10","",""
"html-keyboard-response","40","1061740","0.0-11.0-1.10","63ed15bed4665c62d9e6dbb2","bdp_rwlrn","Sun Mar 12 2023 17:14:48 GMT-0400 (Eastern Daylight Time)","1424679","Trustworthy,Untrustworthy","","402","","","","decision","","<div class='trialDiv'><img src='Fruit/lemon.png'><br><font class='baseline'><strong>Lucky Lemons</strong><p>Choose number of points to bet.</font><div class='respPicDiv'><img src='img/responseButtonOffersNo0L.png' class='respPic'></div></div>","1","4","Lucky Lemons","Fruit/lemon.png","Won","0.65,0.35","12","0.65","58","11","",""
"html-keyboard-response","41","1061993","0.0-11.0-2.10","63ed15bed4665c62d9e6dbb2","bdp_rwlrn","Sun Mar 12 2023 17:14:48 GMT-0400 (Eastern Daylight Time)","1424679","Trustworthy,Untrustworthy","","null","","","","decisionFB","","<div class='trialDiv'><img src='Fruit/lemon.png'><br><font class='baseline'><strong>Lucky Lemons</strong><p>Choose number of points to bet.</font><div class='respPicDiv'><img src='img/responseButtonOffersNo0L1.png' class='respPic'></div></div>","null","4","Lucky Lemons","Fruit/lemon.png","Won","0.65,0.35","12","0.65","57","11","",""
"html-keyboard-response","42","1062996","0.0-11.0-3.10","63ed15bed4665c62d9e6dbb2","bdp_rwlrn","Sun Mar 12 2023 17:14:48 GMT-0400 (Eastern Daylight Time)","1424679","Trustworthy,Untrustworthy","","null","","","","feedback","","<div class='respPicDiv'><img src='img/responseButtonOffersNo0_wht.png' class='respPic'></div><div class='trialDiv'><img src='Fruit/lemon.png'><br><font class='baseline'><strong>Lucky Lemons</strong><p><strong><font class='posOutcome'>You WON</font><p>You bet: 1</strong></font> &nbsp; &nbsp; &nbsp; &nbsp; &nbsp; &nbsp;<font class='posOutcome'>you receive: <strong>2</strong></font></div>","null","4","Lucky Lemons","Fruit/lemon.png","Won","0.65,0.35","12","0.65","59","11","",""
"html-keyboard-response","43","1063359","0.0-11.0-1.11","63ed15bed4665c62d9e6dbb2","bdp_rwlrn","Sun Mar 12 2023 17:14:48 GMT-0400 (Eastern Daylight Time)","1424679","Trustworthy,Untrustworthy","","362","","","","decision","","<div class='trialDiv'><img src='Fruit/mixed-berries2.png'><br><font class='baseline'><strong>Berry Bla$t</strong><p>Choose number of points to bet.</font><div class='respPicDiv'><img src='img/responseButtonOffersNo0L.png' class='respPic'></div></div>","1","4","Berry Bla$t","Fruit/mixed-berries2.png","Lost","0.2,0.65","11","0.2","64","12","",""
"html-keyboard-response","44","1063623","0.0-11.0-2.11","63ed15bed4665c62d9e6dbb2","bdp_rwlrn","Sun Mar 12 2023 17:14:48 GMT-0400 (Eastern Daylight Time)","1424679","Trustworthy,Untrustworthy","","null","","","","decisionFB","","<div class='trialDiv'><img src='Fruit/mixed-berries2.png'><br><font class='baseline'><strong>Berry Bla$t</strong><p>Choose number of points to bet.</font><div class='respPicDiv'><img src='img/responseButtonOffersNo0L1.png' class='respPic'></div></div>","null","4","Berry Bla$t","Fruit/mixed-berries2.png","Lost","0.2,0.65","11","0.2","63","12","",""
"html-keyboard-response","45","1064626","0.0-11.0-3.11","63ed15bed4665c62d9e6dbb2","bdp_rwlrn","Sun Mar 12 2023 17:14:48 GMT-0400 (Eastern Daylight Time)","1424679","Trustworthy,Untrustworthy","","null","","","","feedback","","<div class='respPicDiv'><img src='img/responseButtonOffersNo0_wht.png' class='respPic'></div><div class='trialDiv'><img src='Fruit/mixed-berries2.png'><br><font class='baseline'><strong>Berry Bla$t</strong><p><strong><font class='negOutcome'>You LOST</font><p>You bet: 1</strong></font> &nbsp; &nbsp; &nbsp; &nbsp; &nbsp; &nbsp;<font class='negOutcome'>You receive: <strong>0</strong></font></div>","null","4","Berry Bla$t","Fruit/mixed-berries2.png","Lost","0.2,0.65","11","0.2","63","12","",""
"html-keyboard-response","46","1065081","0.0-11.0-1.12","63ed15bed4665c62d9e6dbb2","bdp_rwlrn","Sun Mar 12 2023 17:14:48 GMT-0400 (Eastern Daylight Time)","1424679","Trustworthy,Untrustworthy","","454","","","","decision","","<div class='trialDiv'><img src='Fruit/lemon.png'><br><font class='baseline'><strong>Lucky Lemons</strong><p>Choose number of points to bet.</font><div class='respPicDiv'><img src='img/responseButtonOffersNo0L.png' class='respPic'></div></div>","5","5","Lucky Lemons","Fruit/lemon.png","Won","0.65,0.35","12","0.65","68","13","",""
"html-keyboard-response","47","1065333","0.0-11.0-2.12","63ed15bed4665c62d9e6dbb2","bdp_rwlrn","Sun Mar 12 2023 17:14:48 GMT-0400 (Eastern Daylight Time)","1424679","Trustworthy,Untrustworthy","","null","","","","decisionFB","","<div class='trialDiv'><img src='Fruit/lemon.png'><br><font class='baseline'><strong>Lucky Lemons</strong><p>Choose number of points to bet.</font><div class='respPicDiv'><img src='img/responseButtonOffersNo0L5.png' class='respPic'></div></div>","null","5","Lucky Lemons","Fruit/lemon.png","Won","0.65,0.35","12","0.65","63","13","",""
"html-keyboard-response","48","1066334","0.0-11.0-3.12","63ed15bed4665c62d9e6dbb2","bdp_rwlrn","Sun Mar 12 2023 17:14:48 GMT-0400 (Eastern Daylight Time)","1424679","Trustworthy,Untrustworthy","","null","","","","feedback","","<div class='respPicDiv'><img src='img/responseButtonOffersNo0_wht.png' class='respPic'></div><div class='trialDiv'><img src='Fruit/lemon.png'><br><font class='baseline'><strong>Lucky Lemons</strong><p><strong><font class='posOutcome'>You WON</font><p>You bet: 5</strong></font> &nbsp; &nbsp; &nbsp; &nbsp; &nbsp; &nbsp;<font class='posOutcome'>you receive: <strong>10</strong></font></div>","null","5","Lucky Lemons","Fruit/lemon.png","Won","0.65,0.35","12","0.65","73","13","",""
"html-keyboard-response","49","1066634","0.0-11.0-1.13","63ed15bed4665c62d9e6dbb2","bdp_rwlrn","Sun Mar 12 2023 17:14:48 GMT-0400 (Eastern Daylight Time)","1424679","Trustworthy,Untrustworthy","","300","","","","decision","","<div class='trialDiv'><img src='Fruit/orange.png'><br><font class='baseline'><strong>Odds are Orange</strong><p>Choose number of points to bet.</font><div class='respPicDiv'><img src='img/responseButtonOffersNo0L.png' class='respPic'></div></div>","1","5","Odds are Orange","Fruit/orange.png","Won","0.8,0.35","14","0.8","78","14","",""
"html-keyboard-response","50","1066897","0.0-11.0-2.13","63ed15bed4665c62d9e6dbb2","bdp_rwlrn","Sun Mar 12 2023 17:14:48 GMT-0400 (Eastern Daylight Time)","1424679","Trustworthy,Untrustworthy","","null","","","","decisionFB","","<div class='trialDiv'><img src='Fruit/orange.png'><br><font class='baseline'><strong>Odds are Orange</strong><p>Choose number of points to bet.</font><div class='respPicDiv'><img src='img/responseButtonOffersNo0L1.png' class='respPic'></div></div>","null","5","Odds are Orange","Fruit/orange.png","Won","0.8,0.35","14","0.8","77","14","",""
"html-keyboard-response","51","1067903","0.0-11.0-3.13","63ed15bed4665c62d9e6dbb2","bdp_rwlrn","Sun Mar 12 2023 17:14:48 GMT-0400 (Eastern Daylight Time)","1424679","Trustworthy,Untrustworthy","","null","","","","feedback","","<div class='respPicDiv'><img src='img/responseButtonOffersNo0_wht.png' class='respPic'></div><div class='trialDiv'><img src='Fruit/orange.png'><br><font class='baseline'><strong>Odds are Orange</strong><p><strong><font class='posOutcome'>You WON</font><p>You bet: 1</strong></font> &nbsp; &nbsp; &nbsp; &nbsp; &nbsp; &nbsp;<font class='posOutcome'>you receive: <strong>2</strong></font></div>","null","5","Odds are Orange","Fruit/orange.png","Won","0.8,0.35","14","0.8","79","14","",""
"html-keyboard-response","52","1068167","0.0-11.0-1.14","63ed15bed4665c62d9e6dbb2","bdp_rwlrn","Sun Mar 12 2023 17:14:48 GMT-0400 (Eastern Daylight Time)","1424679","Trustworthy,Untrustworthy","","262","","","","decision","","<div class='trialDiv'><img src='Fruit/mixed-berries2.png'><br><font class='baseline'><strong>Berry Bla$t</strong><p>Choose number of points to bet.</font><div class='respPicDiv'><img src='img/responseButtonOffersNo0L.png' class='respPic'></div></div>","1","5","Berry Bla$t","Fruit/mixed-berries2.png","Lost","0.2,0.65","11","0.2","84","15","",""
"html-keyboard-response","53","1068423","0.0-11.0-2.14","63ed15bed4665c62d9e6dbb2","bdp_rwlrn","Sun Mar 12 2023 17:14:48 GMT-0400 (Eastern Daylight Time)","1424679","Trustworthy,Untrustworthy","","null","","","","decisionFB","","<div class='trialDiv'><img src='Fruit/mixed-berries2.png'><br><font class='baseline'><strong>Berry Bla$t</strong><p>Choose number of points to bet.</font><div class='respPicDiv'><img src='img/responseButtonOffersNo0L1.png' class='respPic'></div></div>","null","5","Berry Bla$t","Fruit/mixed-berries2.png","Lost","0.2,0.65","11","0.2","83","15","",""
"html-keyboard-response","54","1069429","0.0-11.0-3.14","63ed15bed4665c62d9e6dbb2","bdp_rwlrn","Sun Mar 12 2023 17:14:48 GMT-0400 (Eastern Daylight Time)","1424679","Trustworthy,Untrustworthy","","null","","","","feedback","","<div class='respPicDiv'><img src='img/responseButtonOffersNo0_wht.png' class='respPic'></div><div class='trialDiv'><img src='Fruit/mixed-berries2.png'><br><font class='baseline'><strong>Berry Bla$t</strong><p><strong><font class='negOutcome'>You LOST</font><p>You bet: 1</strong></font> &nbsp; &nbsp; &nbsp; &nbsp; &nbsp; &nbsp;<font class='negOutcome'>You receive: <strong>0</strong></font></div>","null","5","Berry Bla$t","Fruit/mixed-berries2.png","Lost","0.2,0.65","11","0.2","83","15","",""
"html-keyboard-response","55","1069685","0.0-11.0-1.15","63ed15bed4665c62d9e6dbb2","bdp_rwlrn","Sun Mar 12 2023 17:14:48 GMT-0400 (Eastern Daylight Time)","1424679","Trustworthy,Untrustworthy","","256","","","","decision","","<div class='trialDiv'><img src='Fruit/orange.png'><br><font class='baseline'><strong>Odds are Orange</strong><p>Choose number of points to bet.</font><div class='respPicDiv'><img src='img/responseButtonOffersNo0L.png' class='respPic'></div></div>","5","6","Odds are Orange","Fruit/orange.png","Won","0.8,0.35","14","0.8","88","16","",""
"html-keyboard-response","56","1069946","0.0-11.0-2.15","63ed15bed4665c62d9e6dbb2","bdp_rwlrn","Sun Mar 12 2023 17:14:48 GMT-0400 (Eastern Daylight Time)","1424679","Trustworthy,Untrustworthy","","null","","","","decisionFB","","<div class='trialDiv'><img src='Fruit/orange.png'><br><font class='baseline'><strong>Odds are Orange</strong><p>Choose number of points to bet.</font><div class='respPicDiv'><img src='img/responseButtonOffersNo0L5.png' class='respPic'></div></div>","null","6","Odds are Orange","Fruit/orange.png","Won","0.8,0.35","14","0.8","83","16","",""
"html-keyboard-response","57","1070949","0.0-11.0-3.15","63ed15bed4665c62d9e6dbb2","bdp_rwlrn","Sun Mar 12 2023 17:14:48 GMT-0400 (Eastern Daylight Time)","1424679","Trustworthy,Untrustworthy","","null","","","","feedback","","<div class='respPicDiv'><img src='img/responseButtonOffersNo0_wht.png' class='respPic'></div><div class='trialDiv'><img src='Fruit/orange.png'><br><font class='baseline'><strong>Odds are Orange</strong><p><strong><font class='posOutcome'>You WON</font><p>You bet: 5</strong></font> &nbsp; &nbsp; &nbsp; &nbsp; &nbsp; &nbsp;<font class='posOutcome'>you receive: <strong>10</strong></font></div>","null","6","Odds are Orange","Fruit/orange.png","Won","0.8,0.35","14","0.8","93","16","",""
"html-keyboard-response","58","1071278","0.0-11.0-1.16","63ed15bed4665c62d9e6dbb2","bdp_rwlrn","Sun Mar 12 2023 17:14:48 GMT-0400 (Eastern Daylight Time)","1424679","Trustworthy,Untrustworthy","","329","","","","decision","","<div class='trialDiv'><img src='Fruit/lemon.png'><br><font class='baseline'><strong>Lucky Lemons</strong><p>Choose number of points to bet.</font><div class='respPicDiv'><img src='img/responseButtonOffersNo0L.png' class='respPic'></div></div>","1","6","Lucky Lemons","Fruit/lemon.png","Won","0.65,0.35","12","0.65","98","17","",""
"html-keyboard-response","59","1071542","0.0-11.0-2.16","63ed15bed4665c62d9e6dbb2","bdp_rwlrn","Sun Mar 12 2023 17:14:48 GMT-0400 (Eastern Daylight Time)","1424679","Trustworthy,Untrustworthy","","null","","","","decisionFB","","<div class='trialDiv'><img src='Fruit/lemon.png'><br><font class='baseline'><strong>Lucky Lemons</strong><p>Choose number of points to bet.</font><div class='respPicDiv'><img src='img/responseButtonOffersNo0L1.png' class='respPic'></div></div>","null","6","Lucky Lemons","Fruit/lemon.png","Won","0.65,0.35","12","0.65","97","17","",""
"html-keyboard-response","60","1072558","0.0-11.0-3.16","63ed15bed4665c62d9e6dbb2","bdp_rwlrn","Sun Mar 12 2023 17:14:48 GMT-0400 (Eastern Daylight Time)","1424679","Trustworthy,Untrustworthy","","null","","","","feedback","","<div class='respPicDiv'><img src='img/responseButtonOffersNo0_wht.png' class='respPic'></div><div class='trialDiv'><img src='Fruit/lemon.png'><br><font class='baseline'><strong>Lucky Lemons</strong><p><strong><font class='posOutcome'>You WON</font><p>You bet: 1</strong></font> &nbsp; &nbsp; &nbsp; &nbsp; &nbsp; &nbsp;<font class='posOutcome'>you receive: <strong>2</strong></font></div>","null","6","Lucky Lemons","Fruit/lemon.png","Won","0.65,0.35","12","0.65","99","17","",""
"html-keyboard-response","61","1072843","0.0-11.0-1.17","63ed15bed4665c62d9e6dbb2","bdp_rwlrn","Sun Mar 12 2023 17:14:48 GMT-0400 (Eastern Daylight Time)","1424679","Trustworthy,Untrustworthy","","285","","","","decision","","<div class='trialDiv'><img src='Fruit/mixed-berries2.png'><br><font class='baseline'><strong>Berry Bla$t</strong><p>Choose number of points to bet.</font><div class='respPicDiv'><img src='img/responseButtonOffersNo0L.png' class='respPic'></div></div>","1","6","Berry Bla$t","Fruit/mixed-berries2.png","Lost","0.2,0.65","11","0.2","104","18","",""
"html-keyboard-response","62","1073106","0.0-11.0-2.17","63ed15bed4665c62d9e6dbb2","bdp_rwlrn","Sun Mar 12 2023 17:14:48 GMT-0400 (Eastern Daylight Time)","1424679","Trustworthy,Untrustworthy","","null","","","","decisionFB","","<div class='trialDiv'><img src='Fruit/mixed-berries2.png'><br><font class='baseline'><strong>Berry Bla$t</strong><p>Choose number of points to bet.</font><div class='respPicDiv'><img src='img/responseButtonOffersNo0L1.png' class='respPic'></div></div>","null","6","Berry Bla$t","Fruit/mixed-berries2.png","Lost","0.2,0.65","11","0.2","103","18","",""
"html-keyboard-response","63","1074108","0.0-11.0-3.17","63ed15bed4665c62d9e6dbb2","bdp_rwlrn","Sun Mar 12 2023 17:14:48 GMT-0400 (Eastern Daylight Time)","1424679","Trustworthy,Untrustworthy","","null","","","","feedback","","<div class='respPicDiv'><img src='img/responseButtonOffersNo0_wht.png' class='respPic'></div><div class='trialDiv'><img src='Fruit/mixed-berries2.png'><br><font class='baseline'><strong>Berry Bla$t</strong><p><strong><font class='negOutcome'>You LOST</font><p>You bet: 1</strong></font> &nbsp; &nbsp; &nbsp; &nbsp; &nbsp; &nbsp;<font class='negOutcome'>You receive: <strong>0</strong></font></div>","null","6","Berry Bla$t","Fruit/mixed-berries2.png","Lost","0.2,0.65","11","0.2","103","18","",""
"html-keyboard-response","64","1074302","0.0-11.0-1.18","63ed15bed4665c62d9e6dbb2","bdp_rwlrn","Sun Mar 12 2023 17:14:48 GMT-0400 (Eastern Daylight Time)","1424679","Trustworthy,Untrustworthy","","194","","","","decision","","<div class='trialDiv'><img src='Fruit/orange.png'><br><font class='baseline'><strong>Odds are Orange</strong><p>Choose number of points to bet.</font><div class='respPicDiv'><img src='img/responseButtonOffersNo0L.png' class='respPic'></div></div>","1","7","Odds are Orange","Fruit/orange.png","Won","0.8,0.35","14","0.8","108","19","",""
"html-keyboard-response","65","1074562","0.0-11.0-2.18","63ed15bed4665c62d9e6dbb2","bdp_rwlrn","Sun Mar 12 2023 17:14:48 GMT-0400 (Eastern Daylight Time)","1424679","Trustworthy,Untrustworthy","","null","","","","decisionFB","","<div class='trialDiv'><img src='Fruit/orange.png'><br><font class='baseline'><strong>Odds are Orange</strong><p>Choose number of points to bet.</font><div class='respPicDiv'><img src='img/responseButtonOffersNo0L1.png' class='respPic'></div></div>","null","7","Odds are Orange","Fruit/orange.png","Won","0.8,0.35","14","0.8","107","19","",""
"html-keyboard-response","66","1075566","0.0-11.0-3.18","63ed15bed4665c62d9e6dbb2","bdp_rwlrn","Sun Mar 12 2023 17:14:48 GMT-0400 (Eastern Daylight Time)","1424679","Trustworthy,Untrustworthy","","null","","","","feedback","","<div class='respPicDiv'><img src='img/responseButtonOffersNo0_wht.png' class='respPic'></div><div class='trialDiv'><img src='Fruit/orange.png'><br><font class='baseline'><strong>Odds are Orange</strong><p><strong><font class='posOutcome'>You WON</font><p>You bet: 1</strong></font> &nbsp; &nbsp; &nbsp; &nbsp; &nbsp; &nbsp;<font class='posOutcome'>you receive: <strong>2</strong></font></div>","null","7","Odds are Orange","Fruit/orange.png","Won","0.8,0.35","14","0.8","109","19","",""
"html-keyboard-response","67","1075731","0.0-11.0-1.19","63ed15bed4665c62d9e6dbb2","bdp_rwlrn","Sun Mar 12 2023 17:14:48 GMT-0400 (Eastern Daylight Time)","1424679","Trustworthy,Untrustworthy","","164","","","","decision","","<div class='trialDiv'><img src='Fruit/lemon.png'><br><font class='baseline'><strong>Lucky Lemons</strong><p>Choose number of points to bet.</font><div class='respPicDiv'><img src='img/responseButtonOffersNo0L.png' class='respPic'></div></div>","1","7","Lucky Lemons","Fruit/lemon.png","Won","0.65,0.35","12","0.65","114","20","",""
"html-keyboard-response","68","1075993","0.0-11.0-2.19","63ed15bed4665c62d9e6dbb2","bdp_rwlrn","Sun Mar 12 2023 17:14:48 GMT-0400 (Eastern Daylight Time)","1424679","Trustworthy,Untrustworthy","","null","","","","decisionFB","","<div class='trialDiv'><img src='Fruit/lemon.png'><br><font class='baseline'><strong>Lucky Lemons</strong><p>Choose number of points to bet.</font><div class='respPicDiv'><img src='img/responseButtonOffersNo0L1.png' class='respPic'></div></div>","null","7","Lucky Lemons","Fruit/lemon.png","Won","0.65,0.35","12","0.65","113","20","",""
"html-keyboard-response","69","1077008","0.0-11.0-3.19","63ed15bed4665c62d9e6dbb2","bdp_rwlrn","Sun Mar 12 2023 17:14:48 GMT-0400 (Eastern Daylight Time)","1424679","Trustworthy,Untrustworthy","","null","","","","feedback","","<div class='respPicDiv'><img src='img/responseButtonOffersNo0_wht.png' class='respPic'></div><div class='trialDiv'><img src='Fruit/lemon.png'><br><font class='baseline'><strong>Lucky Lemons</strong><p><strong><font class='posOutcome'>You WON</font><p>You bet: 1</strong></font> &nbsp; &nbsp; &nbsp; &nbsp; &nbsp; &nbsp;<font class='posOutcome'>you receive: <strong>2</strong></font></div>","null","7","Lucky Lemons","Fruit/lemon.png","Won","0.65,0.35","12","0.65","115","20","",""
"html-keyboard-response","70","1077142","0.0-11.0-1.20","63ed15bed4665c62d9e6dbb2","bdp_rwlrn","Sun Mar 12 2023 17:14:48 GMT-0400 (Eastern Daylight Time)","1424679","Trustworthy,Untrustworthy","","132","","","","decision","","<div class='trialDiv'><img src='Fruit/mixed-berries2.png'><br><font class='baseline'><strong>Berry Bla$t</strong><p>Choose number of points to bet.</font><div class='respPicDiv'><img src='img/responseButtonOffersNo0L.png' class='respPic'></div></div>","1","7","Berry Bla$t","Fruit/mixed-berries2.png","Lost","0.2,0.65","11","0.2","120","21","",""
"html-keyboard-response","71","1077399","0.0-11.0-2.20","63ed15bed4665c62d9e6dbb2","bdp_rwlrn","Sun Mar 12 2023 17:14:48 GMT-0400 (Eastern Daylight Time)","1424679","Trustworthy,Untrustworthy","","null","","","","decisionFB","","<div class='trialDiv'><img src='Fruit/mixed-berries2.png'><br><font class='baseline'><strong>Berry Bla$t</strong><p>Choose number of points to bet.</font><div class='respPicDiv'><img src='img/responseButtonOffersNo0L1.png' class='respPic'></div></div>","null","7","Berry Bla$t","Fruit/mixed-berries2.png","Lost","0.2,0.65","11","0.2","119","21","",""
"html-keyboard-response","72","1078401","0.0-11.0-3.20","63ed15bed4665c62d9e6dbb2","bdp_rwlrn","Sun Mar 12 2023 17:14:48 GMT-0400 (Eastern Daylight Time)","1424679","Trustworthy,Untrustworthy","","null","","","","feedback","","<div class='respPicDiv'><img src='img/responseButtonOffersNo0_wht.png' class='respPic'></div><div class='trialDiv'><img src='Fruit/mixed-berries2.png'><br><font class='baseline'><strong>Berry Bla$t</strong><p><strong><font class='negOutcome'>You LOST</font><p>You bet: 1</strong></font> &nbsp; &nbsp; &nbsp; &nbsp; &nbsp; &nbsp;<font class='negOutcome'>You receive: <strong>0</strong></font></div>","null","7","Berry Bla$t","Fruit/mixed-berries2.png","Lost","0.2,0.65","11","0.2","119","21","",""
"html-keyboard-response","73","1078637","0.0-11.0-1.21","63ed15bed4665c62d9e6dbb2","bdp_rwlrn","Sun Mar 12 2023 17:14:48 GMT-0400 (Eastern Daylight Time)","1424679","Trustworthy,Untrustworthy","","235","","","","decision","","<div class='trialDiv'><img src='Fruit/orange.png'><br><font class='baseline'><strong>Odds are Orange</strong><p>Choose number of points to bet.</font><div class='respPicDiv'><img src='img/responseButtonOffersNo0L.png' class='respPic'></div></div>","5","8","Odds are Orange","Fruit/orange.png","Won","0.8,0.35","14","0.8","124","22","",""
"html-keyboard-response","74","1078901","0.0-11.0-2.21","63ed15bed4665c62d9e6dbb2","bdp_rwlrn","Sun Mar 12 2023 17:14:48 GMT-0400 (Eastern Daylight Time)","1424679","Trustworthy,Untrustworthy","","null","","","","decisionFB","","<div class='trialDiv'><img src='Fruit/orange.png'><br><font class='baseline'><strong>Odds are Orange</strong><p>Choose number of points to bet.</font><div class='respPicDiv'><img src='img/responseButtonOffersNo0L5.png' class='respPic'></div></div>","null","8","Odds are Orange","Fruit/orange.png","Won","0.8,0.35","14","0.8","119","22","",""
"html-keyboard-response","75","1079904","0.0-11.0-3.21","63ed15bed4665c62d9e6dbb2","bdp_rwlrn","Sun Mar 12 2023 17:14:48 GMT-0400 (Eastern Daylight Time)","1424679","Trustworthy,Untrustworthy","","null","","","","feedback","","<div class='respPicDiv'><img src='img/responseButtonOffersNo0_wht.png' class='respPic'></div><div class='trialDiv'><img src='Fruit/orange.png'><br><font class='baseline'><strong>Odds are Orange</strong><p><strong><font class='posOutcome'>You WON</font><p>You bet: 5</strong></font> &nbsp; &nbsp; &nbsp; &nbsp; &nbsp; &nbsp;<font class='posOutcome'>you receive: <strong>10</strong></font></div>","null","8","Odds are Orange","Fruit/orange.png","Won","0.8,0.35","14","0.8","129","22","",""
"html-keyboard-response","76","1080165","0.0-11.0-1.22","63ed15bed4665c62d9e6dbb2","bdp_rwlrn","Sun Mar 12 2023 17:14:48 GMT-0400 (Eastern Daylight Time)","1424679","Trustworthy,Untrustworthy","","260","","","","decision","","<div class='trialDiv'><img src='Fruit/mixed-berries2.png'><br><font class='baseline'><strong>Berry Bla$t</strong><p>Choose number of points to bet.</font><div class='respPicDiv'><img src='img/responseButtonOffersNo0L.png' class='respPic'></div></div>","1","8","Berry Bla$t","Fruit/mixed-berries2.png","Lost","0.2,0.65","11","0.2","134","23","",""
"html-keyboard-response","77","1080418","0.0-11.0-2.22","63ed15bed4665c62d9e6dbb2","bdp_rwlrn","Sun Mar 12 2023 17:14:48 GMT-0400 (Eastern Daylight Time)","1424679","Trustworthy,Untrustworthy","","null","","","","decisionFB","","<div class='trialDiv'><img src='Fruit/mixed-berries2.png'><br><font class='baseline'><strong>Berry Bla$t</strong><p>Choose number of points to bet.</font><div class='respPicDiv'><img src='img/responseButtonOffersNo0L1.png' class='respPic'></div></div>","null","8","Berry Bla$t","Fruit/mixed-berries2.png","Lost","0.2,0.65","11","0.2","133","23","",""
"html-keyboard-response","78","1081421","0.0-11.0-3.22","63ed15bed4665c62d9e6dbb2","bdp_rwlrn","Sun Mar 12 2023 17:14:48 GMT-0400 (Eastern Daylight Time)","1424679","Trustworthy,Untrustworthy","","null","","","","feedback","","<div class='respPicDiv'><img src='img/responseButtonOffersNo0_wht.png' class='respPic'></div><div class='trialDiv'><img src='Fruit/mixed-berries2.png'><br><font class='baseline'><strong>Berry Bla$t</strong><p><strong><font class='negOutcome'>You LOST</font><p>You bet: 1</strong></font> &nbsp; &nbsp; &nbsp; &nbsp; &nbsp; &nbsp;<font class='negOutcome'>You receive: <strong>0</strong></font></div>","null","8","Berry Bla$t","Fruit/mixed-berries2.png","Lost","0.2,0.65","11","0.2","133","23","",""
"html-keyboard-response","79","1081647","0.0-11.0-1.23","63ed15bed4665c62d9e6dbb2","bdp_rwlrn","Sun Mar 12 2023 17:14:48 GMT-0400 (Eastern Daylight Time)","1424679","Trustworthy,Untrustworthy","","226","","","","decision","","<div class='trialDiv'><img src='Fruit/lemon.png'><br><font class='baseline'><strong>Lucky Lemons</strong><p>Choose number of points to bet.</font><div class='respPicDiv'><img src='img/responseButtonOffersNo0L.png' class='respPic'></div></div>","1","8","Lucky Lemons","Fruit/lemon.png","Lost","0.65,0.35","12","0.65","138","24","",""
"html-keyboard-response","80","1081910","0.0-11.0-2.23","63ed15bed4665c62d9e6dbb2","bdp_rwlrn","Sun Mar 12 2023 17:14:48 GMT-0400 (Eastern Daylight Time)","1424679","Trustworthy,Untrustworthy","","null","","","","decisionFB","","<div class='trialDiv'><img src='Fruit/lemon.png'><br><font class='baseline'><strong>Lucky Lemons</strong><p>Choose number of points to bet.</font><div class='respPicDiv'><img src='img/responseButtonOffersNo0L1.png' class='respPic'></div></div>","null","8","Lucky Lemons","Fruit/lemon.png","Lost","0.65,0.35","12","0.65","137","24","",""
"html-keyboard-response","81","1082923","0.0-11.0-3.23","63ed15bed4665c62d9e6dbb2","bdp_rwlrn","Sun Mar 12 2023 17:14:48 GMT-0400 (Eastern Daylight Time)","1424679","Trustworthy,Untrustworthy","","null","","","","feedback","","<div class='respPicDiv'><img src='img/responseButtonOffersNo0_wht.png' class='respPic'></div><div class='trialDiv'><img src='Fruit/lemon.png'><br><font class='baseline'><strong>Lucky Lemons</strong><p><strong><font class='negOutcome'>You LOST</font><p>You bet: 1</strong></font> &nbsp; &nbsp; &nbsp; &nbsp; &nbsp; &nbsp;<font class='negOutcome'>You receive: <strong>0</strong></font></div>","null","8","Lucky Lemons","Fruit/lemon.png","Lost","0.65,0.35","12","0.65","137","24","",""
"html-keyboard-response","82","1083183","0.0-11.0-1.24","63ed15bed4665c62d9e6dbb2","bdp_rwlrn","Sun Mar 12 2023 17:14:48 GMT-0400 (Eastern Daylight Time)","1424679","Trustworthy,Untrustworthy","","260","","","","decision","","<div class='trialDiv'><img src='Fruit/orange.png'><br><font class='baseline'><strong>Odds are Orange</strong><p>Choose number of points to bet.</font><div class='respPicDiv'><img src='img/responseButtonOffersNo0L.png' class='respPic'></div></div>","5","9","Odds are Orange","Fruit/orange.png","Won","0.8,0.35","14","0.8","142","25","",""
"html-keyboard-response","83","1083440","0.0-11.0-2.24","63ed15bed4665c62d9e6dbb2","bdp_rwlrn","Sun Mar 12 2023 17:14:48 GMT-0400 (Eastern Daylight Time)","1424679","Trustworthy,Untrustworthy","","null","","","","decisionFB","","<div class='trialDiv'><img src='Fruit/orange.png'><br><font class='baseline'><strong>Odds are Orange</strong><p>Choose number of points to bet.</font><div class='respPicDiv'><img src='img/responseButtonOffersNo0L5.png' class='respPic'></div></div>","null","9","Odds are Orange","Fruit/orange.png","Won","0.8,0.35","14","0.8","137","25","",""
"html-keyboard-response","84","1084445","0.0-11.0-3.24","63ed15bed4665c62d9e6dbb2","bdp_rwlrn","Sun Mar 12 2023 17:14:48 GMT-0400 (Eastern Daylight Time)","1424679","Trustworthy,Untrustworthy","","null","","","","feedback","","<div class='respPicDiv'><img src='img/responseButtonOffersNo0_wht.png' class='respPic'></div><div class='trialDiv'><img src='Fruit/orange.png'><br><font class='baseline'><strong>Odds are Orange</strong><p><strong><font class='posOutcome'>You WON</font><p>You bet: 5</strong></font> &nbsp; &nbsp; &nbsp; &nbsp; &nbsp; &nbsp;<font class='posOutcome'>you receive: <strong>10</strong></font></div>","null","9","Odds are Orange","Fruit/orange.png","Won","0.8,0.35","14","0.8","147","25","",""
"html-keyboard-response","85","1084653","0.0-11.0-1.25","63ed15bed4665c62d9e6dbb2","bdp_rwlrn","Sun Mar 12 2023 17:14:48 GMT-0400 (Eastern Daylight Time)","1424679","Trustworthy,Untrustworthy","","208","","","","decision","","<div class='trialDiv'><img src='Fruit/lemon.png'><br><font class='baseline'><strong>Lucky Lemons</strong><p>Choose number of points to bet.</font><div class='respPicDiv'><img src='img/responseButtonOffersNo0L.png' class='respPic'></div></div>","5","9","Lucky Lemons","Fruit/lemon.png","Won","0.65,0.35","12","0.65","152","26","",""
"html-keyboard-response","86","1084913","0.0-11.0-2.25","63ed15bed4665c62d9e6dbb2","bdp_rwlrn","Sun Mar 12 2023 17:14:48 GMT-0400 (Eastern Daylight Time)","1424679","Trustworthy,Untrustworthy","","null","","","","decisionFB","","<div class='trialDiv'><img src='Fruit/lemon.png'><br><font class='baseline'><strong>Lucky Lemons</strong><p>Choose number of points to bet.</font><div class='respPicDiv'><img src='img/responseButtonOffersNo0L5.png' class='respPic'></div></div>","null","9","Lucky Lemons","Fruit/lemon.png","Won","0.65,0.35","12","0.65","147","26","",""
"html-keyboard-response","87","1085915","0.0-11.0-3.25","63ed15bed4665c62d9e6dbb2","bdp_rwlrn","Sun Mar 12 2023 17:14:48 GMT-0400 (Eastern Daylight Time)","1424679","Trustworthy,Untrustworthy","","null","","","","feedback","","<div class='respPicDiv'><img src='img/responseButtonOffersNo0_wht.png' class='respPic'></div><div class='trialDiv'><img src='Fruit/lemon.png'><br><font class='baseline'><strong>Lucky Lemons</strong><p><strong><font class='posOutcome'>You WON</font><p>You bet: 5</strong></font> &nbsp; &nbsp; &nbsp; &nbsp; &nbsp; &nbsp;<font class='posOutcome'>you receive: <strong>10</strong></font></div>","null","9","Lucky Lemons","Fruit/lemon.png","Won","0.65,0.35","12","0.65","157","26","",""
"html-keyboard-response","88","1086121","0.0-11.0-1.26","63ed15bed4665c62d9e6dbb2","bdp_rwlrn","Sun Mar 12 2023 17:14:48 GMT-0400 (Eastern Daylight Time)","1424679","Trustworthy,Untrustworthy","","206","","","","decision","","<div class='trialDiv'><img src='Fruit/mixed-berries2.png'><br><font class='baseline'><strong>Berry Bla$t</strong><p>Choose number of points to bet.</font><div class='respPicDiv'><img src='img/responseButtonOffersNo0L.png' class='respPic'></div></div>","1","9","Berry Bla$t","Fruit/mixed-berries2.png","Lost","0.2,0.65","11","0.2","162","27","",""
"html-keyboard-response","89","1086384","0.0-11.0-2.26","63ed15bed4665c62d9e6dbb2","bdp_rwlrn","Sun Mar 12 2023 17:14:48 GMT-0400 (Eastern Daylight Time)","1424679","Trustworthy,Untrustworthy","","null","","","","decisionFB","","<div class='trialDiv'><img src='Fruit/mixed-berries2.png'><br><font class='baseline'><strong>Berry Bla$t</strong><p>Choose number of points to bet.</font><div class='respPicDiv'><img src='img/responseButtonOffersNo0L1.png' class='respPic'></div></div>","null","9","Berry Bla$t","Fruit/mixed-berries2.png","Lost","0.2,0.65","11","0.2","161","27","",""
"html-keyboard-response","90","1087390","0.0-11.0-3.26","63ed15bed4665c62d9e6dbb2","bdp_rwlrn","Sun Mar 12 2023 17:14:48 GMT-0400 (Eastern Daylight Time)","1424679","Trustworthy,Untrustworthy","","null","","","","feedback","","<div class='respPicDiv'><img src='img/responseButtonOffersNo0_wht.png' class='respPic'></div><div class='trialDiv'><img src='Fruit/mixed-berries2.png'><br><font class='baseline'><strong>Berry Bla$t</strong><p><strong><font class='negOutcome'>You LOST</font><p>You bet: 1</strong></font> &nbsp; &nbsp; &nbsp; &nbsp; &nbsp; &nbsp;<font class='negOutcome'>You receive: <strong>0</strong></font></div>","null","9","Berry Bla$t","Fruit/mixed-berries2.png","Lost","0.2,0.65","11","0.2","161","27","",""
"html-keyboard-response","91","1087504","0.0-11.0-1.27","63ed15bed4665c62d9e6dbb2","bdp_rwlrn","Sun Mar 12 2023 17:14:48 GMT-0400 (Eastern Daylight Time)","1424679","Trustworthy,Untrustworthy","","113","","","","decision","","<div class='trialDiv'><img src='Fruit/lemon.png'><br><font class='baseline'><strong>Lucky Lemons</strong><p>Choose number of points to bet.</font><div class='respPicDiv'><img src='img/responseButtonOffersNo0L.png' class='respPic'></div></div>","5","10","Lucky Lemons","Fruit/lemon.png","Won","0.65,0.35","12","0.65","166","28","",""
"html-keyboard-response","92","1087767","0.0-11.0-2.27","63ed15bed4665c62d9e6dbb2","bdp_rwlrn","Sun Mar 12 2023 17:14:48 GMT-0400 (Eastern Daylight Time)","1424679","Trustworthy,Untrustworthy","","null","","","","decisionFB","","<div class='trialDiv'><img src='Fruit/lemon.png'><br><font class='baseline'><strong>Lucky Lemons</strong><p>Choose number of points to bet.</font><div class='respPicDiv'><img src='img/responseButtonOffersNo0L5.png' class='respPic'></div></div>","null","10","Lucky Lemons","Fruit/lemon.png","Won","0.65,0.35","12","0.65","161","28","",""
"html-keyboard-response","93","1088782","0.0-11.0-3.27","63ed15bed4665c62d9e6dbb2","bdp_rwlrn","Sun Mar 12 2023 17:14:48 GMT-0400 (Eastern Daylight Time)","1424679","Trustworthy,Untrustworthy","","null","","","","feedback","","<div class='respPicDiv'><img src='img/responseButtonOffersNo0_wht.png' class='respPic'></div><div class='trialDiv'><img src='Fruit/lemon.png'><br><font class='baseline'><strong>Lucky Lemons</strong><p><strong><font class='posOutcome'>You WON</font><p>You bet: 5</strong></font> &nbsp; &nbsp; &nbsp; &nbsp; &nbsp; &nbsp;<font class='posOutcome'>you receive: <strong>10</strong></font></div>","null","10","Lucky Lemons","Fruit/lemon.png","Won","0.65,0.35","12","0.65","171","28","",""
"html-keyboard-response","94","1088912","0.0-11.0-1.28","63ed15bed4665c62d9e6dbb2","bdp_rwlrn","Sun Mar 12 2023 17:14:48 GMT-0400 (Eastern Daylight Time)","1424679","Trustworthy,Untrustworthy","","129","","","","decision","","<div class='trialDiv'><img src='Fruit/orange.png'><br><font class='baseline'><strong>Odds are Orange</strong><p>Choose number of points to bet.</font><div class='respPicDiv'><img src='img/responseButtonOffersNo0L.png' class='respPic'></div></div>","5","10","Odds are Orange","Fruit/orange.png","Won","0.8,0.35","14","0.8","176","29","",""
"html-keyboard-response","95","1089173","0.0-11.0-2.28","63ed15bed4665c62d9e6dbb2","bdp_rwlrn","Sun Mar 12 2023 17:14:48 GMT-0400 (Eastern Daylight Time)","1424679","Trustworthy,Untrustworthy","","null","","","","decisionFB","","<div class='trialDiv'><img src='Fruit/orange.png'><br><font class='baseline'><strong>Odds are Orange</strong><p>Choose number of points to bet.</font><div class='respPicDiv'><img src='img/responseButtonOffersNo0L5.png' class='respPic'></div></div>","null","10","Odds are Orange","Fruit/orange.png","Won","0.8,0.35","14","0.8","171","29","",""
"html-keyboard-response","96","1090177","0.0-11.0-3.28","63ed15bed4665c62d9e6dbb2","bdp_rwlrn","Sun Mar 12 2023 17:14:48 GMT-0400 (Eastern Daylight Time)","1424679","Trustworthy,Untrustworthy","","null","","","","feedback","","<div class='respPicDiv'><img src='img/responseButtonOffersNo0_wht.png' class='respPic'></div><div class='trialDiv'><img src='Fruit/orange.png'><br><font class='baseline'><strong>Odds are Orange</strong><p><strong><font class='posOutcome'>You WON</font><p>You bet: 5</strong></font> &nbsp; &nbsp; &nbsp; &nbsp; &nbsp; &nbsp;<font class='posOutcome'>you receive: <strong>10</strong></font></div>","null","10","Odds are Orange","Fruit/orange.png","Won","0.8,0.35","14","0.8","181","29","",""
"html-keyboard-response","97","1090379","0.0-11.0-1.29","63ed15bed4665c62d9e6dbb2","bdp_rwlrn","Sun Mar 12 2023 17:14:48 GMT-0400 (Eastern Daylight Time)","1424679","Trustworthy,Untrustworthy","","202","","","","decision","","<div class='trialDiv'><img src='Fruit/mixed-berries2.png'><br><font class='baseline'><strong>Berry Bla$t</strong><p>Choose number of points to bet.</font><div class='respPicDiv'><img src='img/responseButtonOffersNo0L.png' class='respPic'></div></div>","1","10","Berry Bla$t","Fruit/mixed-berries2.png","Won","0.2,0.65","11","0.2","186","30","",""
"html-keyboard-response","98","1090645","0.0-11.0-2.29","63ed15bed4665c62d9e6dbb2","bdp_rwlrn","Sun Mar 12 2023 17:14:48 GMT-0400 (Eastern Daylight Time)","1424679","Trustworthy,Untrustworthy","","null","","","","decisionFB","","<div class='trialDiv'><img src='Fruit/mixed-berries2.png'><br><font class='baseline'><strong>Berry Bla$t</strong><p>Choose number of points to bet.</font><div class='respPicDiv'><img src='img/responseButtonOffersNo0L1.png' class='respPic'></div></div>","null","10","Berry Bla$t","Fruit/mixed-berries2.png","Won","0.2,0.65","11","0.2","185","30","",""
"html-keyboard-response","99","1091656","0.0-11.0-3.29","63ed15bed4665c62d9e6dbb2","bdp_rwlrn","Sun Mar 12 2023 17:14:48 GMT-0400 (Eastern Daylight Time)","1424679","Trustworthy,Untrustworthy","","null","","","","feedback","","<div class='respPicDiv'><img src='img/responseButtonOffersNo0_wht.png' class='respPic'></div><div class='trialDiv'><img src='Fruit/mixed-berries2.png'><br><font class='baseline'><strong>Berry Bla$t</strong><p><strong><font class='posOutcome'>You WON</font><p>You bet: 1</strong></font> &nbsp; &nbsp; &nbsp; &nbsp; &nbsp; &nbsp;<font class='posOutcome'>you receive: <strong>2</strong></font></div>","null","10","Berry Bla$t","Fruit/mixed-berries2.png","Won","0.2,0.65","11","0.2","187","30","",""
"html-keyboard-response","100","1091722","0.0-11.0-1.30","63ed15bed4665c62d9e6dbb2","bdp_rwlrn","Sun Mar 12 2023 17:14:48 GMT-0400 (Eastern Daylight Time)","1424679","Trustworthy,Untrustworthy","","65","","","","decision","","<div class='trialDiv'><img src='Fruit/orange.png'><br><font class='baseline'><strong>Odds are Orange</strong><p>Choose number of points to bet.</font><div class='respPicDiv'><img src='img/responseButtonOffersNo0L.png' class='respPic'></div></div>","1","11","Odds are Orange","Fruit/orange.png","Lost","0.8,0.35","14","0.8","192","31","",""
"html-keyboard-response","101","1091986","0.0-11.0-2.30","63ed15bed4665c62d9e6dbb2","bdp_rwlrn","Sun Mar 12 2023 17:14:48 GMT-0400 (Eastern Daylight Time)","1424679","Trustworthy,Untrustworthy","","null","","","","decisionFB","","<div class='trialDiv'><img src='Fruit/orange.png'><br><font class='baseline'><strong>Odds are Orange</strong><p>Choose number of points to bet.</font><div class='respPicDiv'><img src='img/responseButtonOffersNo0L1.png' class='respPic'></div></div>","null","11","Odds are Orange","Fruit/orange.png","Lost","0.8,0.35","14","0.8","191","31","",""
"html-keyboard-response","102","1093003","0.0-11.0-3.30","63ed15bed4665c62d9e6dbb2","bdp_rwlrn","Sun Mar 12 2023 17:14:48 GMT-0400 (Eastern Daylight Time)","1424679","Trustworthy,Untrustworthy","","null","","","","feedback","","<div class='respPicDiv'><img src='img/responseButtonOffersNo0_wht.png' class='respPic'></div><div class='trialDiv'><img src='Fruit/orange.png'><br><font class='baseline'><strong>Odds are Orange</strong><p><strong><font class='negOutcome'>You LOST</font><p>You bet: 1</strong></font> &nbsp; &nbsp; &nbsp; &nbsp; &nbsp; &nbsp;<font class='negOutcome'>You receive: <strong>0</strong></font></div>","null","11","Odds are Orange","Fruit/orange.png","Lost","0.8,0.35","14","0.8","191","31","",""
"html-keyboard-response","103","1093072","0.0-11.0-1.31","63ed15bed4665c62d9e6dbb2","bdp_rwlrn","Sun Mar 12 2023 17:14:48 GMT-0400 (Eastern Daylight Time)","1424679","Trustworthy,Untrustworthy","","68","","","","decision","","<div class='trialDiv'><img src='Fruit/lemon.png'><br><font class='baseline'><strong>Lucky Lemons</strong><p>Choose number of points to bet.</font><div class='respPicDiv'><img src='img/responseButtonOffersNo0L.png' class='respPic'></div></div>","1","11","Lucky Lemons","Fruit/lemon.png","Won","0.65,0.35","12","0.65","196","32","",""
"html-keyboard-response","104","1093331","0.0-11.0-2.31","63ed15bed4665c62d9e6dbb2","bdp_rwlrn","Sun Mar 12 2023 17:14:48 GMT-0400 (Eastern Daylight Time)","1424679","Trustworthy,Untrustworthy","","null","","","","decisionFB","","<div class='trialDiv'><img src='Fruit/lemon.png'><br><font class='baseline'><strong>Lucky Lemons</strong><p>Choose number of points to bet.</font><div class='respPicDiv'><img src='img/responseButtonOffersNo0L1.png' class='respPic'></div></div>","null","11","Lucky Lemons","Fruit/lemon.png","Won","0.65,0.35","12","0.65","195","32","",""
"html-keyboard-response","105","1094333","0.0-11.0-3.31","63ed15bed4665c62d9e6dbb2","bdp_rwlrn","Sun Mar 12 2023 17:14:48 GMT-0400 (Eastern Daylight Time)","1424679","Trustworthy,Untrustworthy","","null","","","","feedback","","<div class='respPicDiv'><img src='img/responseButtonOffersNo0_wht.png' class='respPic'></div><div class='trialDiv'><img src='Fruit/lemon.png'><br><font class='baseline'><strong>Lucky Lemons</strong><p><strong><font class='posOutcome'>You WON</font><p>You bet: 1</strong></font> &nbsp; &nbsp; &nbsp; &nbsp; &nbsp; &nbsp;<font class='posOutcome'>you receive: <strong>2</strong></font></div>","null","11","Lucky Lemons","Fruit/lemon.png","Won","0.65,0.35","12","0.65","197","32","",""
"html-keyboard-response","106","1094467","0.0-11.0-1.32","63ed15bed4665c62d9e6dbb2","bdp_rwlrn","Sun Mar 12 2023 17:14:48 GMT-0400 (Eastern Daylight Time)","1424679","Trustworthy,Untrustworthy","","133","","","","decision","","<div class='trialDiv'><img src='Fruit/mixed-berries2.png'><br><font class='baseline'><strong>Berry Bla$t</strong><p>Choose number of points to bet.</font><div class='respPicDiv'><img src='img/responseButtonOffersNo0L.png' class='respPic'></div></div>","1","11","Berry Bla$t","Fruit/mixed-berries2.png","Lost","0.2,0.65","11","0.2","202","33","",""
"html-keyboard-response","107","1094725","0.0-11.0-2.32","63ed15bed4665c62d9e6dbb2","bdp_rwlrn","Sun Mar 12 2023 17:14:48 GMT-0400 (Eastern Daylight Time)","1424679","Trustworthy,Untrustworthy","","null","","","","decisionFB","","<div class='trialDiv'><img src='Fruit/mixed-berries2.png'><br><font class='baseline'><strong>Berry Bla$t</strong><p>Choose number of points to bet.</font><div class='respPicDiv'><img src='img/responseButtonOffersNo0L1.png' class='respPic'></div></div>","null","11","Berry Bla$t","Fruit/mixed-berries2.png","Lost","0.2,0.65","11","0.2","201","33","",""
"html-keyboard-response","108","1095731","0.0-11.0-3.32","63ed15bed4665c62d9e6dbb2","bdp_rwlrn","Sun Mar 12 2023 17:14:48 GMT-0400 (Eastern Daylight Time)","1424679","Trustworthy,Untrustworthy","","null","","","","feedback","","<div class='respPicDiv'><img src='img/responseButtonOffersNo0_wht.png' class='respPic'></div><div class='trialDiv'><img src='Fruit/mixed-berries2.png'><br><font class='baseline'><strong>Berry Bla$t</strong><p><strong><font class='negOutcome'>You LOST</font><p>You bet: 1</strong></font> &nbsp; &nbsp; &nbsp; &nbsp; &nbsp; &nbsp;<font class='negOutcome'>You receive: <strong>0</strong></font></div>","null","11","Berry Bla$t","Fruit/mixed-berries2.png","Lost","0.2,0.65","11","0.2","201","33","",""
"html-keyboard-response","109","1095879","0.0-11.0-1.33","63ed15bed4665c62d9e6dbb2","bdp_rwlrn","Sun Mar 12 2023 17:14:48 GMT-0400 (Eastern Daylight Time)","1424679","Trustworthy,Untrustworthy","","147","","","","decision","","<div class='trialDiv'><img src='Fruit/orange.png'><br><font class='baseline'><strong>Odds are Orange</strong><p>Choose number of points to bet.</font><div class='respPicDiv'><img src='img/responseButtonOffersNo0L.png' class='respPic'></div></div>","5","12","Odds are Orange","Fruit/orange.png","Lost","0.8,0.35","14","0.8","206","34","",""
"html-keyboard-response","110","1096141","0.0-11.0-2.33","63ed15bed4665c62d9e6dbb2","bdp_rwlrn","Sun Mar 12 2023 17:14:48 GMT-0400 (Eastern Daylight Time)","1424679","Trustworthy,Untrustworthy","","null","","","","decisionFB","","<div class='trialDiv'><img src='Fruit/orange.png'><br><font class='baseline'><strong>Odds are Orange</strong><p>Choose number of points to bet.</font><div class='respPicDiv'><img src='img/responseButtonOffersNo0L5.png' class='respPic'></div></div>","null","12","Odds are Orange","Fruit/orange.png","Lost","0.8,0.35","14","0.8","201","34","",""
"html-keyboard-response","111","1097149","0.0-11.0-3.33","63ed15bed4665c62d9e6dbb2","bdp_rwlrn","Sun Mar 12 2023 17:14:48 GMT-0400 (Eastern Daylight Time)","1424679","Trustworthy,Untrustworthy","","null","","","","feedback","","<div class='respPicDiv'><img src='img/responseButtonOffersNo0_wht.png' class='respPic'></div><div class='trialDiv'><img src='Fruit/orange.png'><br><font class='baseline'><strong>Odds are Orange</strong><p><strong><font class='negOutcome'>You LOST</font><p>You bet: 5</strong></font> &nbsp; &nbsp; &nbsp; &nbsp; &nbsp; &nbsp;<font class='negOutcome'>You receive: <strong>0</strong></font></div>","null","12","Odds are Orange","Fruit/orange.png","Lost","0.8,0.35","14","0.8","201","34","",""
"html-keyboard-response","112","1097218","0.0-11.0-1.34","63ed15bed4665c62d9e6dbb2","bdp_rwlrn","Sun Mar 12 2023 17:14:48 GMT-0400 (Eastern Daylight Time)","1424679","Trustworthy,Untrustworthy","","68","","","","decision","","<div class='trialDiv'><img src='Fruit/lemon.png'><br><font class='baseline'><strong>Lucky Lemons</strong><p>Choose number of points to bet.</font><div class='respPicDiv'><img src='img/responseButtonOffersNo0L.png' class='respPic'></div></div>","5","12","Lucky Lemons","Fruit/lemon.png","Lost","0.65,0.35","12","0.65","206","35","",""
"html-keyboard-response","113","1097479","0.0-11.0-2.34","63ed15bed4665c62d9e6dbb2","bdp_rwlrn","Sun Mar 12 2023 17:14:48 GMT-0400 (Eastern Daylight Time)","1424679","Trustworthy,Untrustworthy","","null","","","","decisionFB","","<div class='trialDiv'><img src='Fruit/lemon.png'><br><font class='baseline'><strong>Lucky Lemons</strong><p>Choose number of points to bet.</font><div class='respPicDiv'><img src='img/responseButtonOffersNo0L5.png' class='respPic'></div></div>","null","12","Lucky Lemons","Fruit/lemon.png","Lost","0.65,0.35","12","0.65","201","35","",""
"html-keyboard-response","114","1098495","0.0-11.0-3.34","63ed15bed4665c62d9e6dbb2","bdp_rwlrn","Sun Mar 12 2023 17:14:48 GMT-0400 (Eastern Daylight Time)","1424679","Trustworthy,Untrustworthy","","null","","","","feedback","","<div class='respPicDiv'><img src='img/responseButtonOffersNo0_wht.png' class='respPic'></div><div class='trialDiv'><img src='Fruit/lemon.png'><br><font class='baseline'><strong>Lucky Lemons</strong><p><strong><font class='negOutcome'>You LOST</font><p>You bet: 5</strong></font> &nbsp; &nbsp; &nbsp; &nbsp; &nbsp; &nbsp;<font class='negOutcome'>You receive: <strong>0</strong></font></div>","null","12","Lucky Lemons","Fruit/lemon.png","Lost","0.65,0.35","12","0.65","201","35","",""
"html-keyboard-response","115","1098765","0.0-11.0-1.35","63ed15bed4665c62d9e6dbb2","bdp_rwlrn","Sun Mar 12 2023 17:14:48 GMT-0400 (Eastern Daylight Time)","1424679","Trustworthy,Untrustworthy","","269","","","","decision","","<div class='trialDiv'><img src='Fruit/mixed-berries2.png'><br><font class='baseline'><strong>Berry Bla$t</strong><p>Choose number of points to bet.</font><div class='respPicDiv'><img src='img/responseButtonOffersNo0L.png' class='respPic'></div></div>","5","12","Berry Bla$t","Fruit/mixed-berries2.png","Won","0.2,0.65","11","0.2","206","36","",""
"html-keyboard-response","116","1099028","0.0-11.0-2.35","63ed15bed4665c62d9e6dbb2","bdp_rwlrn","Sun Mar 12 2023 17:14:48 GMT-0400 (Eastern Daylight Time)","1424679","Trustworthy,Untrustworthy","","null","","","","decisionFB","","<div class='trialDiv'><img src='Fruit/mixed-berries2.png'><br><font class='baseline'><strong>Berry Bla$t</strong><p>Choose number of points to bet.</font><div class='respPicDiv'><img src='img/responseButtonOffersNo0L5.png' class='respPic'></div></div>","null","12","Berry Bla$t","Fruit/mixed-berries2.png","Won","0.2,0.65","11","0.2","201","36","",""
"html-keyboard-response","117","1100030","0.0-11.0-3.35","63ed15bed4665c62d9e6dbb2","bdp_rwlrn","Sun Mar 12 2023 17:14:48 GMT-0400 (Eastern Daylight Time)","1424679","Trustworthy,Untrustworthy","","null","","","","feedback","","<div class='respPicDiv'><img src='img/responseButtonOffersNo0_wht.png' class='respPic'></div><div class='trialDiv'><img src='Fruit/mixed-berries2.png'><br><font class='baseline'><strong>Berry Bla$t</strong><p><strong><font class='posOutcome'>You WON</font><p>You bet: 5</strong></font> &nbsp; &nbsp; &nbsp; &nbsp; &nbsp; &nbsp;<font class='posOutcome'>you receive: <strong>10</strong></font></div>","null","12","Berry Bla$t","Fruit/mixed-berries2.png","Won","0.2,0.65","11","0.2","211","36","",""
"html-keyboard-response","118","1100395","0.0-11.0-1.36","63ed15bed4665c62d9e6dbb2","bdp_rwlrn","Sun Mar 12 2023 17:14:48 GMT-0400 (Eastern Daylight Time)","1424679","Trustworthy,Untrustworthy","","364","","","","decision","","<div class='trialDiv'><img src='Fruit/orange.png'><br><font class='baseline'><strong>Odds are Orange</strong><p>Choose number of points to bet.</font><div class='respPicDiv'><img src='img/responseButtonOffersNo0L.png' class='respPic'></div></div>","1","13","Odds are Orange","Fruit/orange.png","Won","0.8,0.35","14","0.8","216","37","",""
"html-keyboard-response","119","1100658","0.0-11.0-2.36","63ed15bed4665c62d9e6dbb2","bdp_rwlrn","Sun Mar 12 2023 17:14:48 GMT-0400 (Eastern Daylight Time)","1424679","Trustworthy,Untrustworthy","","null","","","","decisionFB","","<div class='trialDiv'><img src='Fruit/orange.png'><br><font class='baseline'><strong>Odds are Orange</strong><p>Choose number of points to bet.</font><div class='respPicDiv'><img src='img/responseButtonOffersNo0L1.png' class='respPic'></div></div>","null","13","Odds are Orange","Fruit/orange.png","Won","0.8,0.35","14","0.8","215","37","",""
"html-keyboard-response","120","1101666","0.0-11.0-3.36","63ed15bed4665c62d9e6dbb2","bdp_rwlrn","Sun Mar 12 2023 17:14:48 GMT-0400 (Eastern Daylight Time)","1424679","Trustworthy,Untrustworthy","","null","","","","feedback","","<div class='respPicDiv'><img src='img/responseButtonOffersNo0_wht.png' class='respPic'></div><div class='trialDiv'><img src='Fruit/orange.png'><br><font class='baseline'><strong>Odds are Orange</strong><p><strong><font class='posOutcome'>You WON</font><p>You bet: 1</strong></font> &nbsp; &nbsp; &nbsp; &nbsp; &nbsp; &nbsp;<font class='posOutcome'>you receive: <strong>2</strong></font></div>","null","13","Odds are Orange","Fruit/orange.png","Won","0.8,0.35","14","0.8","217","37","",""
"html-keyboard-response","121","1101906","0.0-11.0-1.37","63ed15bed4665c62d9e6dbb2","bdp_rwlrn","Sun Mar 12 2023 17:14:48 GMT-0400 (Eastern Daylight Time)","1424679","Trustworthy,Untrustworthy","","239","","","","decision","","<div class='trialDiv'><img src='Fruit/mixed-berries2.png'><br><font class='baseline'><strong>Berry Bla$t</strong><p>Choose number of points to bet.</font><div class='respPicDiv'><img src='img/responseButtonOffersNo0L.png' class='respPic'></div></div>","1","13","Berry Bla$t","Fruit/mixed-berries2.png","Won","0.2,0.65","11","0.2","222","38","",""
"html-keyboard-response","122","1102169","0.0-11.0-2.37","63ed15bed4665c62d9e6dbb2","bdp_rwlrn","Sun Mar 12 2023 17:14:48 GMT-0400 (Eastern Daylight Time)","1424679","Trustworthy,Untrustworthy","","null","","","","decisionFB","","<div class='trialDiv'><img src='Fruit/mixed-berries2.png'><br><font class='baseline'><strong>Berry Bla$t</strong><p>Choose number of points to bet.</font><div class='respPicDiv'><img src='img/responseButtonOffersNo0L1.png' class='respPic'></div></div>","null","13","Berry Bla$t","Fruit/mixed-berries2.png","Won","0.2,0.65","11","0.2","221","38","",""
"html-keyboard-response","123","1103171","0.0-11.0-3.37","63ed15bed4665c62d9e6dbb2","bdp_rwlrn","Sun Mar 12 2023 17:14:48 GMT-0400 (Eastern Daylight Time)","1424679","Trustworthy,Untrustworthy","","null","","","","feedback","","<div class='respPicDiv'><img src='img/responseButtonOffersNo0_wht.png' class='respPic'></div><div class='trialDiv'><img src='Fruit/mixed-berries2.png'><br><font class='baseline'><strong>Berry Bla$t</strong><p><strong><font class='posOutcome'>You WON</font><p>You bet: 1</strong></font> &nbsp; &nbsp; &nbsp; &nbsp; &nbsp; &nbsp;<font class='posOutcome'>you receive: <strong>2</strong></font></div>","null","13","Berry Bla$t","Fruit/mixed-berries2.png","Won","0.2,0.65","11","0.2","223","38","",""
"html-keyboard-response","124","1103371","0.0-11.0-1.38","63ed15bed4665c62d9e6dbb2","bdp_rwlrn","Sun Mar 12 2023 17:14:48 GMT-0400 (Eastern Daylight Time)","1424679","Trustworthy,Untrustworthy","","200","","","","decision","","<div class='trialDiv'><img src='Fruit/lemon.png'><br><font class='baseline'><strong>Lucky Lemons</strong><p>Choose number of points to bet.</font><div class='respPicDiv'><img src='img/responseButtonOffersNo0L.png' class='respPic'></div></div>","1","13","Lucky Lemons","Fruit/lemon.png","Lost","0.65,0.35","12","0.65","228","39","",""
"html-keyboard-response","125","1103637","0.0-11.0-2.38","63ed15bed4665c62d9e6dbb2","bdp_rwlrn","Sun Mar 12 2023 17:14:48 GMT-0400 (Eastern Daylight Time)","1424679","Trustworthy,Untrustworthy","","null","","","","decisionFB","","<div class='trialDiv'><img src='Fruit/lemon.png'><br><font class='baseline'><strong>Lucky Lemons</strong><p>Choose number of points to bet.</font><div class='respPicDiv'><img src='img/responseButtonOffersNo0L1.png' class='respPic'></div></div>","null","13","Lucky Lemons","Fruit/lemon.png","Lost","0.65,0.35","12","0.65","227","39","",""
"html-keyboard-response","126","1104643","0.0-11.0-3.38","63ed15bed4665c62d9e6dbb2","bdp_rwlrn","Sun Mar 12 2023 17:14:48 GMT-0400 (Eastern Daylight Time)","1424679","Trustworthy,Untrustworthy","","null","","","","feedback","","<div class='respPicDiv'><img src='img/responseButtonOffersNo0_wht.png' class='respPic'></div><div class='trialDiv'><img src='Fruit/lemon.png'><br><font class='baseline'><strong>Lucky Lemons</strong><p><strong><font class='negOutcome'>You LOST</font><p>You bet: 1</strong></font> &nbsp; &nbsp; &nbsp; &nbsp; &nbsp; &nbsp;<font class='negOutcome'>You receive: <strong>0</strong></font></div>","null","13","Lucky Lemons","Fruit/lemon.png","Lost","0.65,0.35","12","0.65","227","39","",""
"html-keyboard-response","127","1104779","0.0-11.0-1.39","63ed15bed4665c62d9e6dbb2","bdp_rwlrn","Sun Mar 12 2023 17:14:48 GMT-0400 (Eastern Daylight Time)","1424679","Trustworthy,Untrustworthy","","135","","","","decision","","<div class='trialDiv'><img src='Fruit/mixed-berries2.png'><br><font class='baseline'><strong>Berry Bla$t</strong><p>Choose number of points to bet.</font><div class='respPicDiv'><img src='img/responseButtonOffersNo0L.png' class='respPic'></div></div>","1","14","Berry Bla$t","Fruit/mixed-berries2.png","Won","0.2,0.65","11","0.2","232","40","",""
"html-keyboard-response","128","1105035","0.0-11.0-2.39","63ed15bed4665c62d9e6dbb2","bdp_rwlrn","Sun Mar 12 2023 17:14:48 GMT-0400 (Eastern Daylight Time)","1424679","Trustworthy,Untrustworthy","","null","","","","decisionFB","","<div class='trialDiv'><img src='Fruit/mixed-berries2.png'><br><font class='baseline'><strong>Berry Bla$t</strong><p>Choose number of points to bet.</font><div class='respPicDiv'><img src='img/responseButtonOffersNo0L1.png' class='respPic'></div></div>","null","14","Berry Bla$t","Fruit/mixed-berries2.png","Won","0.2,0.65","11","0.2","231","40","",""
"html-keyboard-response","129","1106044","0.0-11.0-3.39","63ed15bed4665c62d9e6dbb2","bdp_rwlrn","Sun Mar 12 2023 17:14:48 GMT-0400 (Eastern Daylight Time)","1424679","Trustworthy,Untrustworthy","","null","","","","feedback","","<div class='respPicDiv'><img src='img/responseButtonOffersNo0_wht.png' class='respPic'></div><div class='trialDiv'><img src='Fruit/mixed-berries2.png'><br><font class='baseline'><strong>Berry Bla$t</strong><p><strong><font class='posOutcome'>You WON</font><p>You bet: 1</strong></font> &nbsp; &nbsp; &nbsp; &nbsp; &nbsp; &nbsp;<font class='posOutcome'>you receive: <strong>2</strong></font></div>","null","14","Berry Bla$t","Fruit/mixed-berries2.png","Won","0.2,0.65","11","0.2","233","40","",""
"html-keyboard-response","130","1106267","0.0-11.0-1.40","63ed15bed4665c62d9e6dbb2","bdp_rwlrn","Sun Mar 12 2023 17:14:48 GMT-0400 (Eastern Daylight Time)","1424679","Trustworthy,Untrustworthy","","222","","","","decision","","<div class='trialDiv'><img src='Fruit/lemon.png'><br><font class='baseline'><strong>Lucky Lemons</strong><p>Choose number of points to bet.</font><div class='respPicDiv'><img src='img/responseButtonOffersNo0L.png' class='respPic'></div></div>","1","14","Lucky Lemons","Fruit/lemon.png","Won","0.65,0.35","12","0.65","238","41","",""
"html-keyboard-response","131","1106530","0.0-11.0-2.40","63ed15bed4665c62d9e6dbb2","bdp_rwlrn","Sun Mar 12 2023 17:14:48 GMT-0400 (Eastern Daylight Time)","1424679","Trustworthy,Untrustworthy","","null","","","","decisionFB","","<div class='trialDiv'><img src='Fruit/lemon.png'><br><font class='baseline'><strong>Lucky Lemons</strong><p>Choose number of points to bet.</font><div class='respPicDiv'><img src='img/responseButtonOffersNo0L1.png' class='respPic'></div></div>","null","14","Lucky Lemons","Fruit/lemon.png","Won","0.65,0.35","12","0.65","237","41","",""
"html-keyboard-response","132","1107537","0.0-11.0-3.40","63ed15bed4665c62d9e6dbb2","bdp_rwlrn","Sun Mar 12 2023 17:14:48 GMT-0400 (Eastern Daylight Time)","1424679","Trustworthy,Untrustworthy","","null","","","","feedback","","<div class='respPicDiv'><img src='img/responseButtonOffersNo0_wht.png' class='respPic'></div><div class='trialDiv'><img src='Fruit/lemon.png'><br><font class='baseline'><strong>Lucky Lemons</strong><p><strong><font class='posOutcome'>You WON</font><p>You bet: 1</strong></font> &nbsp; &nbsp; &nbsp; &nbsp; &nbsp; &nbsp;<font class='posOutcome'>you receive: <strong>2</strong></font></div>","null","14","Lucky Lemons","Fruit/lemon.png","Won","0.65,0.35","12","0.65","239","41","",""
"html-keyboard-response","133","1107851","0.0-11.0-1.41","63ed15bed4665c62d9e6dbb2","bdp_rwlrn","Sun Mar 12 2023 17:14:48 GMT-0400 (Eastern Daylight Time)","1424679","Trustworthy,Untrustworthy","","313","","","","decision","","<div class='trialDiv'><img src='Fruit/orange.png'><br><font class='baseline'><strong>Odds are Orange</strong><p>Choose number of points to bet.</font><div class='respPicDiv'><img src='img/responseButtonOffersNo0L.png' class='respPic'></div></div>","5","14","Odds are Orange","Fruit/orange.png","Won","0.8,0.35","14","0.8","244","42","",""
"html-keyboard-response","134","1108115","0.0-11.0-2.41","63ed15bed4665c62d9e6dbb2","bdp_rwlrn","Sun Mar 12 2023 17:14:48 GMT-0400 (Eastern Daylight Time)","1424679","Trustworthy,Untrustworthy","","null","","","","decisionFB","","<div class='trialDiv'><img src='Fruit/orange.png'><br><font class='baseline'><strong>Odds are Orange</strong><p>Choose number of points to bet.</font><div class='respPicDiv'><img src='img/responseButtonOffersNo0L5.png' class='respPic'></div></div>","null","14","Odds are Orange","Fruit/orange.png","Won","0.8,0.35","14","0.8","239","42","",""
"html-keyboard-response","135","1109119","0.0-11.0-3.41","63ed15bed4665c62d9e6dbb2","bdp_rwlrn","Sun Mar 12 2023 17:14:48 GMT-0400 (Eastern Daylight Time)","1424679","Trustworthy,Untrustworthy","","null","","","","feedback","","<div class='respPicDiv'><img src='img/responseButtonOffersNo0_wht.png' class='respPic'></div><div class='trialDiv'><img src='Fruit/orange.png'><br><font class='baseline'><strong>Odds are Orange</strong><p><strong><font class='posOutcome'>You WON</font><p>You bet: 5</strong></font> &nbsp; &nbsp; &nbsp; &nbsp; &nbsp; &nbsp;<font class='posOutcome'>you receive: <strong>10</strong></font></div>","null","14","Odds are Orange","Fruit/orange.png","Won","0.8,0.35","14","0.8","249","42","",""
"html-keyboard-response","136","1109305","0.0-11.0-1.42","63ed15bed4665c62d9e6dbb2","bdp_rwlrn","Sun Mar 12 2023 17:14:48 GMT-0400 (Eastern Daylight Time)","1424679","Trustworthy,Untrustworthy","","186","","","","decision","","<div class='trialDiv'><img src='Fruit/mixed-berries2.png'><br><font class='baseline'><strong>Berry Bla$t</strong><p>Choose number of points to bet.</font><div class='respPicDiv'><img src='img/responseButtonOffersNo0L.png' class='respPic'></div></div>","1","15","Berry Bla$t","Fruit/mixed-berries2.png","Lost","0.2,0.65","11","0.2","254","43","",""
"html-keyboard-response","137","1109558","0.0-11.0-2.42","63ed15bed4665c62d9e6dbb2","bdp_rwlrn","Sun Mar 12 2023 17:14:48 GMT-0400 (Eastern Daylight Time)","1424679","Trustworthy,Untrustworthy","","null","","","","decisionFB","","<div class='trialDiv'><img src='Fruit/mixed-berries2.png'><br><font class='baseline'><strong>Berry Bla$t</strong><p>Choose number of points to bet.</font><div class='respPicDiv'><img src='img/responseButtonOffersNo0L1.png' class='respPic'></div></div>","null","15","Berry Bla$t","Fruit/mixed-berries2.png","Lost","0.2,0.65","11","0.2","253","43","",""
"html-keyboard-response","138","1110575","0.0-11.0-3.42","63ed15bed4665c62d9e6dbb2","bdp_rwlrn","Sun Mar 12 2023 17:14:48 GMT-0400 (Eastern Daylight Time)","1424679","Trustworthy,Untrustworthy","","null","","","","feedback","","<div class='respPicDiv'><img src='img/responseButtonOffersNo0_wht.png' class='respPic'></div><div class='trialDiv'><img src='Fruit/mixed-berries2.png'><br><font class='baseline'><strong>Berry Bla$t</strong><p><strong><font class='negOutcome'>You LOST</font><p>You bet: 1</strong></font> &nbsp; &nbsp; &nbsp; &nbsp; &nbsp; &nbsp;<font class='negOutcome'>You receive: <strong>0</strong></font></div>","null","15","Berry Bla$t","Fruit/mixed-berries2.png","Lost","0.2,0.65","11","0.2","253","43","",""
"html-keyboard-response","139","1110796","0.0-11.0-1.43","63ed15bed4665c62d9e6dbb2","bdp_rwlrn","Sun Mar 12 2023 17:14:48 GMT-0400 (Eastern Daylight Time)","1424679","Trustworthy,Untrustworthy","","221","","","","decision","","<div class='trialDiv'><img src='Fruit/lemon.png'><br><font class='baseline'><strong>Lucky Lemons</strong><p>Choose number of points to bet.</font><div class='respPicDiv'><img src='img/responseButtonOffersNo0L.png' class='respPic'></div></div>","5","15","Lucky Lemons","Fruit/lemon.png","Won","0.65,0.35","12","0.65","258","44","",""
"html-keyboard-response","140","1111048","0.0-11.0-2.43","63ed15bed4665c62d9e6dbb2","bdp_rwlrn","Sun Mar 12 2023 17:14:48 GMT-0400 (Eastern Daylight Time)","1424679","Trustworthy,Untrustworthy","","null","","","","decisionFB","","<div class='trialDiv'><img src='Fruit/lemon.png'><br><font class='baseline'><strong>Lucky Lemons</strong><p>Choose number of points to bet.</font><div class='respPicDiv'><img src='img/responseButtonOffersNo0L5.png' class='respPic'></div></div>","null","15","Lucky Lemons","Fruit/lemon.png","Won","0.65,0.35","12","0.65","253","44","",""
"html-keyboard-response","141","1112052","0.0-11.0-3.43","63ed15bed4665c62d9e6dbb2","bdp_rwlrn","Sun Mar 12 2023 17:14:48 GMT-0400 (Eastern Daylight Time)","1424679","Trustworthy,Untrustworthy","","null","","","","feedback","","<div class='respPicDiv'><img src='img/responseButtonOffersNo0_wht.png' class='respPic'></div><div class='trialDiv'><img src='Fruit/lemon.png'><br><font class='baseline'><strong>Lucky Lemons</strong><p><strong><font class='posOutcome'>You WON</font><p>You bet: 5</strong></font> &nbsp; &nbsp; &nbsp; &nbsp; &nbsp; &nbsp;<font class='posOutcome'>you receive: <strong>10</strong></font></div>","null","15","Lucky Lemons","Fruit/lemon.png","Won","0.65,0.35","12","0.65","263","44","",""
"html-keyboard-response","142","1112265","0.0-11.0-1.44","63ed15bed4665c62d9e6dbb2","bdp_rwlrn","Sun Mar 12 2023 17:14:48 GMT-0400 (Eastern Daylight Time)","1424679","Trustworthy,Untrustworthy","","212","","","","decision","","<div class='trialDiv'><img src='Fruit/orange.png'><br><font class='baseline'><strong>Odds are Orange</strong><p>Choose number of points to bet.</font><div class='respPicDiv'><img src='img/responseButtonOffersNo0L.png' class='respPic'></div></div>","1","15","Odds are Orange","Fruit/orange.png","Lost","0.8,0.35","14","0.8","268","45","",""
"html-keyboard-response","143","1112527","0.0-11.0-2.44","63ed15bed4665c62d9e6dbb2","bdp_rwlrn","Sun Mar 12 2023 17:14:48 GMT-0400 (Eastern Daylight Time)","1424679","Trustworthy,Untrustworthy","","null","","","","decisionFB","","<div class='trialDiv'><img src='Fruit/orange.png'><br><font class='baseline'><strong>Odds are Orange</strong><p>Choose number of points to bet.</font><div class='respPicDiv'><img src='img/responseButtonOffersNo0L1.png' class='respPic'></div></div>","null","15","Odds are Orange","Fruit/orange.png","Lost","0.8,0.35","14","0.8","267","45","",""
"html-keyboard-response","144","1113534","0.0-11.0-3.44","63ed15bed4665c62d9e6dbb2","bdp_rwlrn","Sun Mar 12 2023 17:14:48 GMT-0400 (Eastern Daylight Time)","1424679","Trustworthy,Untrustworthy","","null","","","","feedback","","<div class='respPicDiv'><img src='img/responseButtonOffersNo0_wht.png' class='respPic'></div><div class='trialDiv'><img src='Fruit/orange.png'><br><font class='baseline'><strong>Odds are Orange</strong><p><strong><font class='negOutcome'>You LOST</font><p>You bet: 1</strong></font> &nbsp; &nbsp; &nbsp; &nbsp; &nbsp; &nbsp;<font class='negOutcome'>You receive: <strong>0</strong></font></div>","null","15","Odds are Orange","Fruit/orange.png","Lost","0.8,0.35","14","0.8","267","45","",""
"html-keyboard-response","145","1113734","0.0-11.0-1.45","63ed15bed4665c62d9e6dbb2","bdp_rwlrn","Sun Mar 12 2023 17:14:48 GMT-0400 (Eastern Daylight Time)","1424679","Trustworthy,Untrustworthy","","199","","","","decision","","<div class='trialDiv'><img src='Fruit/lemon.png'><br><font class='baseline'><strong>Lucky Lemons</strong><p>Choose number of points to bet.</font><div class='respPicDiv'><img src='img/responseButtonOffersNo0L.png' class='respPic'></div></div>","5","16","Lucky Lemons","Fruit/lemon.png","Lost","0.65,0.35","12","0.65","272","46","",""
"html-keyboard-response","146","1113988","0.0-11.0-2.45","63ed15bed4665c62d9e6dbb2","bdp_rwlrn","Sun Mar 12 2023 17:14:48 GMT-0400 (Eastern Daylight Time)","1424679","Trustworthy,Untrustworthy","","null","","","","decisionFB","","<div class='trialDiv'><img src='Fruit/lemon.png'><br><font class='baseline'><strong>Lucky Lemons</strong><p>Choose number of points to bet.</font><div class='respPicDiv'><img src='img/responseButtonOffersNo0L5.png' class='respPic'></div></div>","null","16","Lucky Lemons","Fruit/lemon.png","Lost","0.65,0.35","12","0.65","267","46","",""
"html-keyboard-response","147","1114994","0.0-11.0-3.45","63ed15bed4665c62d9e6dbb2","bdp_rwlrn","Sun Mar 12 2023 17:14:48 GMT-0400 (Eastern Daylight Time)","1424679","Trustworthy,Untrustworthy","","null","","","","feedback","","<div class='respPicDiv'><img src='img/responseButtonOffersNo0_wht.png' class='respPic'></div><div class='trialDiv'><img src='Fruit/lemon.png'><br><font class='baseline'><strong>Lucky Lemons</strong><p><strong><font class='negOutcome'>You LOST</font><p>You bet: 5</strong></font> &nbsp; &nbsp; &nbsp; &nbsp; &nbsp; &nbsp;<font class='negOutcome'>You receive: <strong>0</strong></font></div>","null","16","Lucky Lemons","Fruit/lemon.png","Lost","0.65,0.35","12","0.65","267","46","",""
"html-keyboard-response","148","1115186","0.0-11.0-1.46","63ed15bed4665c62d9e6dbb2","bdp_rwlrn","Sun Mar 12 2023 17:14:48 GMT-0400 (Eastern Daylight Time)","1424679","Trustworthy,Untrustworthy","","190","","","","decision","","<div class='trialDiv'><img src='Fruit/mixed-berries2.png'><br><font class='baseline'><strong>Berry Bla$t</strong><p>Choose number of points to bet.</font><div class='respPicDiv'><img src='img/responseButtonOffersNo0L.png' class='respPic'></div></div>","5","16","Berry Bla$t","Fruit/mixed-berries2.png","Lost","0.2,0.65","11","0.2","272","47","",""
"html-keyboard-response","149","1115450","0.0-11.0-2.46","63ed15bed4665c62d9e6dbb2","bdp_rwlrn","Sun Mar 12 2023 17:14:48 GMT-0400 (Eastern Daylight Time)","1424679","Trustworthy,Untrustworthy","","null","","","","decisionFB","","<div class='trialDiv'><img src='Fruit/mixed-berries2.png'><br><font class='baseline'><strong>Berry Bla$t</strong><p>Choose number of points to bet.</font><div class='respPicDiv'><img src='img/responseButtonOffersNo0L5.png' class='respPic'></div></div>","null","16","Berry Bla$t","Fruit/mixed-berries2.png","Lost","0.2,0.65","11","0.2","267","47","",""
"html-keyboard-response","150","1116458","0.0-11.0-3.46","63ed15bed4665c62d9e6dbb2","bdp_rwlrn","Sun Mar 12 2023 17:14:48 GMT-0400 (Eastern Daylight Time)","1424679","Trustworthy,Untrustworthy","","null","","","","feedback","","<div class='respPicDiv'><img src='img/responseButtonOffersNo0_wht.png' class='respPic'></div><div class='trialDiv'><img src='Fruit/mixed-berries2.png'><br><font class='baseline'><strong>Berry Bla$t</strong><p><strong><font class='negOutcome'>You LOST</font><p>You bet: 5</strong></font> &nbsp; &nbsp; &nbsp; &nbsp; &nbsp; &nbsp;<font class='negOutcome'>You receive: <strong>0</strong></font></div>","null","16","Berry Bla$t","Fruit/mixed-berries2.png","Lost","0.2,0.65","11","0.2","267","47","",""
"html-keyboard-response","151","1116571","0.0-11.0-1.47","63ed15bed4665c62d9e6dbb2","bdp_rwlrn","Sun Mar 12 2023 17:14:48 GMT-0400 (Eastern Daylight Time)","1424679","Trustworthy,Untrustworthy","","113","","","","decision","","<div class='trialDiv'><img src='Fruit/orange.png'><br><font class='baseline'><strong>Odds are Orange</strong><p>Choose number of points to bet.</font><div class='respPicDiv'><img src='img/responseButtonOffersNo0L.png' class='respPic'></div></div>","5","16","Odds are Orange","Fruit/orange.png","Lost","0.8,0.35","14","0.8","272","48","",""
"html-keyboard-response","152","1116835","0.0-11.0-2.47","63ed15bed4665c62d9e6dbb2","bdp_rwlrn","Sun Mar 12 2023 17:14:48 GMT-0400 (Eastern Daylight Time)","1424679","Trustworthy,Untrustworthy","","null","","","","decisionFB","","<div class='trialDiv'><img src='Fruit/orange.png'><br><font class='baseline'><strong>Odds are Orange</strong><p>Choose number of points to bet.</font><div class='respPicDiv'><img src='img/responseButtonOffersNo0L5.png' class='respPic'></div></div>","null","16","Odds are Orange","Fruit/orange.png","Lost","0.8,0.35","14","0.8","267","48","",""
"html-keyboard-response","153","1117851","0.0-11.0-3.47","63ed15bed4665c62d9e6dbb2","bdp_rwlrn","Sun Mar 12 2023 17:14:48 GMT-0400 (Eastern Daylight Time)","1424679","Trustworthy,Untrustworthy","","null","","","","feedback","","<div class='respPicDiv'><img src='img/responseButtonOffersNo0_wht.png' class='respPic'></div><div class='trialDiv'><img src='Fruit/orange.png'><br><font class='baseline'><strong>Odds are Orange</strong><p><strong><font class='negOutcome'>You LOST</font><p>You bet: 5</strong></font> &nbsp; &nbsp; &nbsp; &nbsp; &nbsp; &nbsp;<font class='negOutcome'>You receive: <strong>0</strong></font></div>","null","16","Odds are Orange","Fruit/orange.png","Lost","0.8,0.35","14","0.8","267","48","",""
"html-keyboard-response","154","1117959","0.0-11.0-1.48","63ed15bed4665c62d9e6dbb2","bdp_rwlrn","Sun Mar 12 2023 17:14:48 GMT-0400 (Eastern Daylight Time)","1424679","Trustworthy,Untrustworthy","","108","","","","decision","","<div class='trialDiv'><img src='Fruit/mixed-berries2.png'><br><font class='baseline'><strong>Berry Bla$t</strong><p>Choose number of points to bet.</font><div class='respPicDiv'><img src='img/responseButtonOffersNo0L.png' class='respPic'></div></div>","5","17","Berry Bla$t","Fruit/mixed-berries2.png","Won","0.2,0.65","11","0.2","272","49","",""
"html-keyboard-response","155","1118215","0.0-11.0-2.48","63ed15bed4665c62d9e6dbb2","bdp_rwlrn","Sun Mar 12 2023 17:14:48 GMT-0400 (Eastern Daylight Time)","1424679","Trustworthy,Untrustworthy","","null","","","","decisionFB","","<div class='trialDiv'><img src='Fruit/mixed-berries2.png'><br><font class='baseline'><strong>Berry Bla$t</strong><p>Choose number of points to bet.</font><div class='respPicDiv'><img src='img/responseButtonOffersNo0L5.png' class='respPic'></div></div>","null","17","Berry Bla$t","Fruit/mixed-berries2.png","Won","0.2,0.65","11","0.2","267","49","",""
"html-keyboard-response","156","1119220","0.0-11.0-3.48","63ed15bed4665c62d9e6dbb2","bdp_rwlrn","Sun Mar 12 2023 17:14:48 GMT-0400 (Eastern Daylight Time)","1424679","Trustworthy,Untrustworthy","","null","","","","feedback","","<div class='respPicDiv'><img src='img/responseButtonOffersNo0_wht.png' class='respPic'></div><div class='trialDiv'><img src='Fruit/mixed-berries2.png'><br><font class='baseline'><strong>Berry Bla$t</strong><p><strong><font class='posOutcome'>You WON</font><p>You bet: 5</strong></font> &nbsp; &nbsp; &nbsp; &nbsp; &nbsp; &nbsp;<font class='posOutcome'>you receive: <strong>10</strong></font></div>","null","17","Berry Bla$t","Fruit/mixed-berries2.png","Won","0.2,0.65","11","0.2","277","49","",""
"html-keyboard-response","157","1119399","0.0-11.0-1.49","63ed15bed4665c62d9e6dbb2","bdp_rwlrn","Sun Mar 12 2023 17:14:48 GMT-0400 (Eastern Daylight Time)","1424679","Trustworthy,Untrustworthy","","178","","","","decision","","<div class='trialDiv'><img src='Fruit/lemon.png'><br><font class='baseline'><strong>Lucky Lemons</strong><p>Choose number of points to bet.</font><div class='respPicDiv'><img src='img/responseButtonOffersNo0L.png' class='respPic'></div></div>","1","17","Lucky Lemons","Fruit/lemon.png","Won","0.65,0.35","12","0.65","282","50","",""
"html-keyboard-response","158","1119657","0.0-11.0-2.49","63ed15bed4665c62d9e6dbb2","bdp_rwlrn","Sun Mar 12 2023 17:14:48 GMT-0400 (Eastern Daylight Time)","1424679","Trustworthy,Untrustworthy","","null","","","","decisionFB","","<div class='trialDiv'><img src='Fruit/lemon.png'><br><font class='baseline'><strong>Lucky Lemons</strong><p>Choose number of points to bet.</font><div class='respPicDiv'><img src='img/responseButtonOffersNo0L1.png' class='respPic'></div></div>","null","17","Lucky Lemons","Fruit/lemon.png","Won","0.65,0.35","12","0.65","281","50","",""
"html-keyboard-response","159","1120660","0.0-11.0-3.49","63ed15bed4665c62d9e6dbb2","bdp_rwlrn","Sun Mar 12 2023 17:14:48 GMT-0400 (Eastern Daylight Time)","1424679","Trustworthy,Untrustworthy","","null","","","","feedback","","<div class='respPicDiv'><img src='img/responseButtonOffersNo0_wht.png' class='respPic'></div><div class='trialDiv'><img src='Fruit/lemon.png'><br><font class='baseline'><strong>Lucky Lemons</strong><p><strong><font class='posOutcome'>You WON</font><p>You bet: 1</strong></font> &nbsp; &nbsp; &nbsp; &nbsp; &nbsp; &nbsp;<font class='posOutcome'>you receive: <strong>2</strong></font></div>","null","17","Lucky Lemons","Fruit/lemon.png","Won","0.65,0.35","12","0.65","283","50","",""
"html-keyboard-response","160","1120739","0.0-11.0-1.50","63ed15bed4665c62d9e6dbb2","bdp_rwlrn","Sun Mar 12 2023 17:14:48 GMT-0400 (Eastern Daylight Time)","1424679","Trustworthy,Untrustworthy","","78","","","","decision","","<div class='trialDiv'><img src='Fruit/orange.png'><br><font class='baseline'><strong>Odds are Orange</strong><p>Choose number of points to bet.</font><div class='respPicDiv'><img src='img/responseButtonOffersNo0L.png' class='respPic'></div></div>","1","17","Odds are Orange","Fruit/orange.png","Lost","0.8,0.35","14","0.8","288","51","",""
"html-keyboard-response","161","1120993","0.0-11.0-2.50","63ed15bed4665c62d9e6dbb2","bdp_rwlrn","Sun Mar 12 2023 17:14:48 GMT-0400 (Eastern Daylight Time)","1424679","Trustworthy,Untrustworthy","","null","","","","decisionFB","","<div class='trialDiv'><img src='Fruit/orange.png'><br><font class='baseline'><strong>Odds are Orange</strong><p>Choose number of points to bet.</font><div class='respPicDiv'><img src='img/responseButtonOffersNo0L1.png' class='respPic'></div></div>","null","17","Odds are Orange","Fruit/orange.png","Lost","0.8,0.35","14","0.8","287","51","",""
