"trial_type","trial_index","time_elapsed","internal_node_id","subject_id","task","startTime","totalTime","labels","view_history","rt","event","trial","time","trialtype","success","stimulus","key_press","ltround","name","fileID","outcome","lottotype","lottoswpt","lottocurrpshare","point_total","round","faceID","face"
"pavlovia","0","5","0.0-0.0","60ff5fb6cbf1bb7de9bf2801","bdp_rwlrn","Tue Mar 14 2023 21:17:11 GMT-0400 (Eastern Daylight Time)","531780","Trustworthy,Untrustworthy","","","","","","","","","","","","","","","","","","","",""
"instructions","1","6364","0.0-1.0","60ff5fb6cbf1bb7de9bf2801","bdp_rwlrn","Tue Mar 14 2023 21:17:11 GMT-0400 (Eastern Daylight Time)","531780","Trustworthy,Untrustworthy","[{""page_index"":0,""viewing_time"":6357}]","6358","","","","","","","","","","","","","","","","","",""
"","","","","60ff5fb6cbf1bb7de9bf2801","bdp_rwlrn","Tue Mar 14 2023 21:17:11 GMT-0400 (Eastern Daylight Time)","531780","Trustworthy,Untrustworthy","","","fullscreenenter","2","11621","fullscreenenter","","","","","","","","","","","","","",""
"fullscreen","2","12579","0.0-2.0","60ff5fb6cbf1bb7de9bf2801","bdp_rwlrn","Tue Mar 14 2023 21:17:11 GMT-0400 (Eastern Daylight Time)","531780","Trustworthy,Untrustworthy","","","","","","","true","","","","","","","","","","","","",""
"instructions","3","177190","0.0-4.0","60ff5fb6cbf1bb7de9bf2801","bdp_rwlrn","Tue Mar 14 2023 21:17:11 GMT-0400 (Eastern Daylight Time)","531780","Trustworthy,Untrustworthy","[{""page_index"":0,""viewing_time"":21622},{""page_index"":1,""viewing_time"":29062},{""page_index"":0,""viewing_time"":9329},{""page_index"":1,""viewing_time"":7457},{""page_index"":2,""viewing_time"":19421},{""page_index"":3,""viewing_time"":29377},{""page_index"":4,""viewing_time"":35915},{""page_index"":5,""viewing_time"":12424}]","164608","","","","","","","","","","","","","","","","","",""
"html-keyboard-response","4","181414","0.0-5.0","60ff5fb6cbf1bb7de9bf2801","bdp_rwlrn","Tue Mar 14 2023 21:17:11 GMT-0400 (Eastern Daylight Time)","531780","Trustworthy,Untrustworthy","","4219","","","","","","<div class='header' style='text-align:left; position: absolute; top: 5%; left: 5%;'><small>Task 1 of 5</small></div><div class='instruxDiv'><p><strong>1) What is the maximum number of points you can choose to bet on a lottery?</strong></p><p>a) 0</p><p>b) 1</p><p>c) 5</p>","C","","","","","","","","","","",""
"html-keyboard-response","5","185388","0.0-6.0","60ff5fb6cbf1bb7de9bf2801","bdp_rwlrn","Tue Mar 14 2023 21:17:11 GMT-0400 (Eastern Daylight Time)","531780","Trustworthy,Untrustworthy","","3870","","","","","","<div class='header' style='text-align:left; position: absolute; top: 5%; left: 5%;'><small>Task 1 of 5</small></div><div class='instruxDiv'><p><strong>1) What is the maximum number of points you can choose to bet on a lottery?</strong></p><p>a) 1</p><p>b) 1</p><p style='color:#00FF00'>c) 5</p><h3 style='color:#00FF00'>Correct!</h3><h3 class='center-content'>The correct response is c).</h3><h3 class='center-content'>The maximum number of points you can choose to bet on a lottery is 5 points.</h3><p><em>Press SPACEBAR to continue</em></p></div>"," ","","","","","","","","","","",""
"html-keyboard-response","6","194359","0.0-7.0","60ff5fb6cbf1bb7de9bf2801","bdp_rwlrn","Tue Mar 14 2023 21:17:11 GMT-0400 (Eastern Daylight Time)","531780","Trustworthy,Untrustworthy","","8868","","","","","","<div class='header' style='text-align:left; position: absolute; top: 5%; left: 5%;'><small>Task 1 of 5</small></div><div class='instruxDiv'><p><strong>2) How many points can you win each round?</strong></p><p>a) 10 points</p><p>b) Double what you bet</p><p>c) Quadruple what you bet</p>","B","","","","","","","","","","",""
"html-keyboard-response","7","197156","0.0-8.0","60ff5fb6cbf1bb7de9bf2801","bdp_rwlrn","Tue Mar 14 2023 21:17:11 GMT-0400 (Eastern Daylight Time)","531780","Trustworthy,Untrustworthy","","2688","","","","","","<div class='header' style='text-align:left; position: absolute; top: 5%; left: 5%;'><small>Task 1 of 5</small></div><div class='instruxDiv'><p><strong>2) How many points can you win each round?</strong></p><p>a) 10 points</p><p style='color:#00FF00'>b) Double what you bet</p><p>c) Quadruple what you bet</p><h3 style='color:#00FF00'>Correct!</h3><h3 class='center-content'>The correct response is b).</h3><h3 class='center-content'>You can win double the amount of points you bet.</h3><p><em>Press SPACEBAR to continue</em></p></div>"," ","","","","","","","","","","",""
"html-keyboard-response","8","202268","0.0-9.0","60ff5fb6cbf1bb7de9bf2801","bdp_rwlrn","Tue Mar 14 2023 21:17:11 GMT-0400 (Eastern Daylight Time)","531780","Trustworthy,Untrustworthy","","null","","","","","","<div class='header' style='text-align:left; position: absolute; top: 5%; left: 5%;'><small>Task 1 of 5</small></div><div class='instruxDiv'><p>Thank you for completing the quiz<p>These are the actual lotteries you will be playing in the next block:<p><div class='tc' align='center'><img class='introPic' src='Fruit/watermelon.png'><br><strong>Watermelon Win$</strong></div><div class='bl' align='center'><img class='introPic' src='Fruit/lime.png'><br><strong>Limin' Large</strong></div><div class='br' align='center'><img class='introPic' src='Fruit/cherrie.png'><br><strong>Cherry Chances</strong></div></div><p>Across <strong>66 rounds</strong> you will play each lottery <strong>22 times</strong> (in random order).<p style='align:center; color:white'><font <em>Press SPACEBAR to continue</em></p>","null","","","","","","","","","","",""
"instructions","9","226770","0.0-10.0","60ff5fb6cbf1bb7de9bf2801","bdp_rwlrn","Tue Mar 14 2023 21:17:11 GMT-0400 (Eastern Daylight Time)","531780","Trustworthy,Untrustworthy","[{""page_index"":0,""viewing_time"":16703},{""page_index"":1,""viewing_time"":7798}]","24501","","","","","","","","","","","","","","","","","",""
"html-keyboard-response","10","229885","0.0-11.0-1.0","60ff5fb6cbf1bb7de9bf2801","bdp_rwlrn","Tue Mar 14 2023 21:17:11 GMT-0400 (Eastern Daylight Time)","531780","Trustworthy,Untrustworthy","","3005","","","","decision","","<div class='trialDiv'><img src='Fruit/cherrie.png'><br><font class='baseline'><strong>Cherry Chances</strong><p>Choose number of points to bet.</font><div class='respPicDiv'><img src='img/responseButtonOffersNo0L.png' class='respPic'></div></div>","3","1","Cherry Chances","Fruit/cherrie.png","Won","0.8,0.35","10","0.8","5","1","",""
"html-keyboard-response","11","230139","0.0-11.0-2.0","60ff5fb6cbf1bb7de9bf2801","bdp_rwlrn","Tue Mar 14 2023 21:17:11 GMT-0400 (Eastern Daylight Time)","531780","Trustworthy,Untrustworthy","","null","","","","decisionFB","","<div class='trialDiv'><img src='Fruit/cherrie.png'><br><font class='baseline'><strong>Cherry Chances</strong><p>Choose number of points to bet.</font><div class='respPicDiv'><img src='img/responseButtonOffersNo0L3.png' class='respPic'></div></div>","null","1","Cherry Chances","Fruit/cherrie.png","Won","0.8,0.35","10","0.8","2","1","",""
"html-keyboard-response","12","231147","0.0-11.0-3.0","60ff5fb6cbf1bb7de9bf2801","bdp_rwlrn","Tue Mar 14 2023 21:17:11 GMT-0400 (Eastern Daylight Time)","531780","Trustworthy,Untrustworthy","","null","","","","feedback","","<div class='respPicDiv'><img src='img/responseButtonOffersNo0_wht.png' class='respPic'></div><div class='trialDiv'><img src='Fruit/cherrie.png'><br><font class='baseline'><strong>Cherry Chances</strong><p><strong><font class='posOutcome'>You WON</font><p>You bet: 3</strong></font> &nbsp; &nbsp; &nbsp; &nbsp; &nbsp; &nbsp;<font class='posOutcome'>you receive: <strong>6</strong></font></div>","null","1","Cherry Chances","Fruit/cherrie.png","Won","0.8,0.35","10","0.8","8","1","",""
"html-keyboard-response","13","231944","0.0-11.0-1.1","60ff5fb6cbf1bb7de9bf2801","bdp_rwlrn","Tue Mar 14 2023 21:17:11 GMT-0400 (Eastern Daylight Time)","531780","Trustworthy,Untrustworthy","","794","","","","decision","","<div class='trialDiv'><img src='Fruit/lime.png'><br><font class='baseline'><strong>Limin' Large</strong><p>Choose number of points to bet.</font><div class='respPicDiv'><img src='img/responseButtonOffersNo0L.png' class='respPic'></div></div>","3","1","Limin' Large","Fruit/lime.png","Won","0.35,0.8","9","0.35","13","2","",""
"html-keyboard-response","14","232203","0.0-11.0-2.1","60ff5fb6cbf1bb7de9bf2801","bdp_rwlrn","Tue Mar 14 2023 21:17:11 GMT-0400 (Eastern Daylight Time)","531780","Trustworthy,Untrustworthy","","null","","","","decisionFB","","<div class='trialDiv'><img src='Fruit/lime.png'><br><font class='baseline'><strong>Limin' Large</strong><p>Choose number of points to bet.</font><div class='respPicDiv'><img src='img/responseButtonOffersNo0L3.png' class='respPic'></div></div>","null","1","Limin' Large","Fruit/lime.png","Won","0.35,0.8","9","0.35","10","2","",""
"html-keyboard-response","15","233211","0.0-11.0-3.1","60ff5fb6cbf1bb7de9bf2801","bdp_rwlrn","Tue Mar 14 2023 21:17:11 GMT-0400 (Eastern Daylight Time)","531780","Trustworthy,Untrustworthy","","null","","","","feedback","","<div class='respPicDiv'><img src='img/responseButtonOffersNo0_wht.png' class='respPic'></div><div class='trialDiv'><img src='Fruit/lime.png'><br><font class='baseline'><strong>Limin' Large</strong><p><strong><font class='posOutcome'>You WON</font><p>You bet: 3</strong></font> &nbsp; &nbsp; &nbsp; &nbsp; &nbsp; &nbsp;<font class='posOutcome'>you receive: <strong>6</strong></font></div>","null","1","Limin' Large","Fruit/lime.png","Won","0.35,0.8","9","0.35","16","2","",""
"html-keyboard-response","16","234059","0.0-11.0-1.2","60ff5fb6cbf1bb7de9bf2801","bdp_rwlrn","Tue Mar 14 2023 21:17:11 GMT-0400 (Eastern Daylight Time)","531780","Trustworthy,Untrustworthy","","845","","","","decision","","<div class='trialDiv'><img src='Fruit/watermelon.png'><br><font class='baseline'><strong>Watermelon Win$</strong><p>Choose number of points to bet.</font><div class='respPicDiv'><img src='img/responseButtonOffersNo0L.png' class='respPic'></div></div>","3","1","Watermelon Win$","Fruit/watermelon.png","Won","0.8,0.2","11","0.8","21","3","",""
"html-keyboard-response","17","234315","0.0-11.0-2.2","60ff5fb6cbf1bb7de9bf2801","bdp_rwlrn","Tue Mar 14 2023 21:17:11 GMT-0400 (Eastern Daylight Time)","531780","Trustworthy,Untrustworthy","","null","","","","decisionFB","","<div class='trialDiv'><img src='Fruit/watermelon.png'><br><font class='baseline'><strong>Watermelon Win$</strong><p>Choose number of points to bet.</font><div class='respPicDiv'><img src='img/responseButtonOffersNo0L3.png' class='respPic'></div></div>","null","1","Watermelon Win$","Fruit/watermelon.png","Won","0.8,0.2","11","0.8","18","3","",""
"html-keyboard-response","18","235323","0.0-11.0-3.2","60ff5fb6cbf1bb7de9bf2801","bdp_rwlrn","Tue Mar 14 2023 21:17:11 GMT-0400 (Eastern Daylight Time)","531780","Trustworthy,Untrustworthy","","null","","","","feedback","","<div class='respPicDiv'><img src='img/responseButtonOffersNo0_wht.png' class='respPic'></div><div class='trialDiv'><img src='Fruit/watermelon.png'><br><font class='baseline'><strong>Watermelon Win$</strong><p><strong><font class='posOutcome'>You WON</font><p>You bet: 3</strong></font> &nbsp; &nbsp; &nbsp; &nbsp; &nbsp; &nbsp;<font class='posOutcome'>you receive: <strong>6</strong></font></div>","null","1","Watermelon Win$","Fruit/watermelon.png","Won","0.8,0.2","11","0.8","24","3","",""
"html-keyboard-response","19","235927","0.0-11.0-1.3","60ff5fb6cbf1bb7de9bf2801","bdp_rwlrn","Tue Mar 14 2023 21:17:11 GMT-0400 (Eastern Daylight Time)","531780","Trustworthy,Untrustworthy","","602","","","","decision","","<div class='trialDiv'><img src='Fruit/cherrie.png'><br><font class='baseline'><strong>Cherry Chances</strong><p>Choose number of points to bet.</font><div class='respPicDiv'><img src='img/responseButtonOffersNo0L.png' class='respPic'></div></div>","3","2","Cherry Chances","Fruit/cherrie.png","Lost","0.8,0.35","10","0.8","29","4","",""
"html-keyboard-response","20","236188","0.0-11.0-2.3","60ff5fb6cbf1bb7de9bf2801","bdp_rwlrn","Tue Mar 14 2023 21:17:11 GMT-0400 (Eastern Daylight Time)","531780","Trustworthy,Untrustworthy","","null","","","","decisionFB","","<div class='trialDiv'><img src='Fruit/cherrie.png'><br><font class='baseline'><strong>Cherry Chances</strong><p>Choose number of points to bet.</font><div class='respPicDiv'><img src='img/responseButtonOffersNo0L3.png' class='respPic'></div></div>","null","2","Cherry Chances","Fruit/cherrie.png","Lost","0.8,0.35","10","0.8","26","4","",""
"html-keyboard-response","21","237195","0.0-11.0-3.3","60ff5fb6cbf1bb7de9bf2801","bdp_rwlrn","Tue Mar 14 2023 21:17:11 GMT-0400 (Eastern Daylight Time)","531780","Trustworthy,Untrustworthy","","null","","","","feedback","","<div class='respPicDiv'><img src='img/responseButtonOffersNo0_wht.png' class='respPic'></div><div class='trialDiv'><img src='Fruit/cherrie.png'><br><font class='baseline'><strong>Cherry Chances</strong><p><strong><font class='negOutcome'>You LOST</font><p>You bet: 3</strong></font> &nbsp; &nbsp; &nbsp; &nbsp; &nbsp; &nbsp;<font class='negOutcome'>You receive: <strong>0</strong></font></div>","null","2","Cherry Chances","Fruit/cherrie.png","Lost","0.8,0.35","10","0.8","26","4","",""
"html-keyboard-response","22","238485","0.0-11.0-1.4","60ff5fb6cbf1bb7de9bf2801","bdp_rwlrn","Tue Mar 14 2023 21:17:11 GMT-0400 (Eastern Daylight Time)","531780","Trustworthy,Untrustworthy","","1287","","","","decision","","<div class='trialDiv'><img src='Fruit/lime.png'><br><font class='baseline'><strong>Limin' Large</strong><p>Choose number of points to bet.</font><div class='respPicDiv'><img src='img/responseButtonOffersNo0L.png' class='respPic'></div></div>","2","2","Limin' Large","Fruit/lime.png","Lost","0.35,0.8","9","0.35","31","5","",""
"html-keyboard-response","23","238739","0.0-11.0-2.4","60ff5fb6cbf1bb7de9bf2801","bdp_rwlrn","Tue Mar 14 2023 21:17:11 GMT-0400 (Eastern Daylight Time)","531780","Trustworthy,Untrustworthy","","null","","","","decisionFB","","<div class='trialDiv'><img src='Fruit/lime.png'><br><font class='baseline'><strong>Limin' Large</strong><p>Choose number of points to bet.</font><div class='respPicDiv'><img src='img/responseButtonOffersNo0L2.png' class='respPic'></div></div>","null","2","Limin' Large","Fruit/lime.png","Lost","0.35,0.8","9","0.35","29","5","",""
"html-keyboard-response","24","239747","0.0-11.0-3.4","60ff5fb6cbf1bb7de9bf2801","bdp_rwlrn","Tue Mar 14 2023 21:17:11 GMT-0400 (Eastern Daylight Time)","531780","Trustworthy,Untrustworthy","","null","","","","feedback","","<div class='respPicDiv'><img src='img/responseButtonOffersNo0_wht.png' class='respPic'></div><div class='trialDiv'><img src='Fruit/lime.png'><br><font class='baseline'><strong>Limin' Large</strong><p><strong><font class='negOutcome'>You LOST</font><p>You bet: 2</strong></font> &nbsp; &nbsp; &nbsp; &nbsp; &nbsp; &nbsp;<font class='negOutcome'>You receive: <strong>0</strong></font></div>","null","2","Limin' Large","Fruit/lime.png","Lost","0.35,0.8","9","0.35","29","5","",""
"html-keyboard-response","25","240169","0.0-11.0-1.5","60ff5fb6cbf1bb7de9bf2801","bdp_rwlrn","Tue Mar 14 2023 21:17:11 GMT-0400 (Eastern Daylight Time)","531780","Trustworthy,Untrustworthy","","420","","","","decision","","<div class='trialDiv'><img src='Fruit/watermelon.png'><br><font class='baseline'><strong>Watermelon Win$</strong><p>Choose number of points to bet.</font><div class='respPicDiv'><img src='img/responseButtonOffersNo0L.png' class='respPic'></div></div>","3","2","Watermelon Win$","Fruit/watermelon.png","Won","0.8,0.2","11","0.8","34","6","",""
"html-keyboard-response","26","240427","0.0-11.0-2.5","60ff5fb6cbf1bb7de9bf2801","bdp_rwlrn","Tue Mar 14 2023 21:17:11 GMT-0400 (Eastern Daylight Time)","531780","Trustworthy,Untrustworthy","","null","","","","decisionFB","","<div class='trialDiv'><img src='Fruit/watermelon.png'><br><font class='baseline'><strong>Watermelon Win$</strong><p>Choose number of points to bet.</font><div class='respPicDiv'><img src='img/responseButtonOffersNo0L3.png' class='respPic'></div></div>","null","2","Watermelon Win$","Fruit/watermelon.png","Won","0.8,0.2","11","0.8","31","6","",""
"html-keyboard-response","27","241435","0.0-11.0-3.5","60ff5fb6cbf1bb7de9bf2801","bdp_rwlrn","Tue Mar 14 2023 21:17:11 GMT-0400 (Eastern Daylight Time)","531780","Trustworthy,Untrustworthy","","null","","","","feedback","","<div class='respPicDiv'><img src='img/responseButtonOffersNo0_wht.png' class='respPic'></div><div class='trialDiv'><img src='Fruit/watermelon.png'><br><font class='baseline'><strong>Watermelon Win$</strong><p><strong><font class='posOutcome'>You WON</font><p>You bet: 3</strong></font> &nbsp; &nbsp; &nbsp; &nbsp; &nbsp; &nbsp;<font class='posOutcome'>you receive: <strong>6</strong></font></div>","null","2","Watermelon Win$","Fruit/watermelon.png","Won","0.8,0.2","11","0.8","37","6","",""
"html-keyboard-response","28","242853","0.0-11.0-1.6","60ff5fb6cbf1bb7de9bf2801","bdp_rwlrn","Tue Mar 14 2023 21:17:11 GMT-0400 (Eastern Daylight Time)","531780","Trustworthy,Untrustworthy","","1416","","","","decision","","<div class='trialDiv'><img src='Fruit/cherrie.png'><br><font class='baseline'><strong>Cherry Chances</strong><p>Choose number of points to bet.</font><div class='respPicDiv'><img src='img/responseButtonOffersNo0L.png' class='respPic'></div></div>","4","3","Cherry Chances","Fruit/cherrie.png","Won","0.8,0.35","10","0.8","42","7","",""
"html-keyboard-response","29","243107","0.0-11.0-2.6","60ff5fb6cbf1bb7de9bf2801","bdp_rwlrn","Tue Mar 14 2023 21:17:11 GMT-0400 (Eastern Daylight Time)","531780","Trustworthy,Untrustworthy","","null","","","","decisionFB","","<div class='trialDiv'><img src='Fruit/cherrie.png'><br><font class='baseline'><strong>Cherry Chances</strong><p>Choose number of points to bet.</font><div class='respPicDiv'><img src='img/responseButtonOffersNo0L4.png' class='respPic'></div></div>","null","3","Cherry Chances","Fruit/cherrie.png","Won","0.8,0.35","10","0.8","38","7","",""
"html-keyboard-response","30","244115","0.0-11.0-3.6","60ff5fb6cbf1bb7de9bf2801","bdp_rwlrn","Tue Mar 14 2023 21:17:11 GMT-0400 (Eastern Daylight Time)","531780","Trustworthy,Untrustworthy","","null","","","","feedback","","<div class='respPicDiv'><img src='img/responseButtonOffersNo0_wht.png' class='respPic'></div><div class='trialDiv'><img src='Fruit/cherrie.png'><br><font class='baseline'><strong>Cherry Chances</strong><p><strong><font class='posOutcome'>You WON</font><p>You bet: 4</strong></font> &nbsp; &nbsp; &nbsp; &nbsp; &nbsp; &nbsp;<font class='posOutcome'>you receive: <strong>8</strong></font></div>","null","3","Cherry Chances","Fruit/cherrie.png","Won","0.8,0.35","10","0.8","46","7","",""
"html-keyboard-response","31","245037","0.0-11.0-1.7","60ff5fb6cbf1bb7de9bf2801","bdp_rwlrn","Tue Mar 14 2023 21:17:11 GMT-0400 (Eastern Daylight Time)","531780","Trustworthy,Untrustworthy","","919","","","","decision","","<div class='trialDiv'><img src='Fruit/watermelon.png'><br><font class='baseline'><strong>Watermelon Win$</strong><p>Choose number of points to bet.</font><div class='respPicDiv'><img src='img/responseButtonOffersNo0L.png' class='respPic'></div></div>","4","3","Watermelon Win$","Fruit/watermelon.png","Won","0.8,0.2","11","0.8","51","8","",""
"html-keyboard-response","32","245291","0.0-11.0-2.7","60ff5fb6cbf1bb7de9bf2801","bdp_rwlrn","Tue Mar 14 2023 21:17:11 GMT-0400 (Eastern Daylight Time)","531780","Trustworthy,Untrustworthy","","null","","","","decisionFB","","<div class='trialDiv'><img src='Fruit/watermelon.png'><br><font class='baseline'><strong>Watermelon Win$</strong><p>Choose number of points to bet.</font><div class='respPicDiv'><img src='img/responseButtonOffersNo0L4.png' class='respPic'></div></div>","null","3","Watermelon Win$","Fruit/watermelon.png","Won","0.8,0.2","11","0.8","47","8","",""
"html-keyboard-response","33","246299","0.0-11.0-3.7","60ff5fb6cbf1bb7de9bf2801","bdp_rwlrn","Tue Mar 14 2023 21:17:11 GMT-0400 (Eastern Daylight Time)","531780","Trustworthy,Untrustworthy","","null","","","","feedback","","<div class='respPicDiv'><img src='img/responseButtonOffersNo0_wht.png' class='respPic'></div><div class='trialDiv'><img src='Fruit/watermelon.png'><br><font class='baseline'><strong>Watermelon Win$</strong><p><strong><font class='posOutcome'>You WON</font><p>You bet: 4</strong></font> &nbsp; &nbsp; &nbsp; &nbsp; &nbsp; &nbsp;<font class='posOutcome'>you receive: <strong>8</strong></font></div>","null","3","Watermelon Win$","Fruit/watermelon.png","Won","0.8,0.2","11","0.8","55","8","",""
"html-keyboard-response","34","248303","0.0-11.0-1.8","60ff5fb6cbf1bb7de9bf2801","bdp_rwlrn","Tue Mar 14 2023 21:17:11 GMT-0400 (Eastern Daylight Time)","531780","Trustworthy,Untrustworthy","","2001","","","","decision","","<div class='trialDiv'><img src='Fruit/lime.png'><br><font class='baseline'><strong>Limin' Large</strong><p>Choose number of points to bet.</font><div class='respPicDiv'><img src='img/responseButtonOffersNo0L.png' class='respPic'></div></div>","5","3","Limin' Large","Fruit/lime.png","Lost","0.35,0.8","9","0.35","60","9","",""
"html-keyboard-response","35","248563","0.0-11.0-2.8","60ff5fb6cbf1bb7de9bf2801","bdp_rwlrn","Tue Mar 14 2023 21:17:11 GMT-0400 (Eastern Daylight Time)","531780","Trustworthy,Untrustworthy","","null","","","","decisionFB","","<div class='trialDiv'><img src='Fruit/lime.png'><br><font class='baseline'><strong>Limin' Large</strong><p>Choose number of points to bet.</font><div class='respPicDiv'><img src='img/responseButtonOffersNo0L5.png' class='respPic'></div></div>","null","3","Limin' Large","Fruit/lime.png","Lost","0.35,0.8","9","0.35","55","9","",""
"html-keyboard-response","36","249572","0.0-11.0-3.8","60ff5fb6cbf1bb7de9bf2801","bdp_rwlrn","Tue Mar 14 2023 21:17:11 GMT-0400 (Eastern Daylight Time)","531780","Trustworthy,Untrustworthy","","null","","","","feedback","","<div class='respPicDiv'><img src='img/responseButtonOffersNo0_wht.png' class='respPic'></div><div class='trialDiv'><img src='Fruit/lime.png'><br><font class='baseline'><strong>Limin' Large</strong><p><strong><font class='negOutcome'>You LOST</font><p>You bet: 5</strong></font> &nbsp; &nbsp; &nbsp; &nbsp; &nbsp; &nbsp;<font class='negOutcome'>You receive: <strong>0</strong></font></div>","null","3","Limin' Large","Fruit/lime.png","Lost","0.35,0.8","9","0.35","55","9","",""
"html-keyboard-response","37","253330","0.0-11.0-1.9","60ff5fb6cbf1bb7de9bf2801","bdp_rwlrn","Tue Mar 14 2023 21:17:11 GMT-0400 (Eastern Daylight Time)","531780","Trustworthy,Untrustworthy","","3756","","","","decision","","<div class='trialDiv'><img src='Fruit/watermelon.png'><br><font class='baseline'><strong>Watermelon Win$</strong><p>Choose number of points to bet.</font><div class='respPicDiv'><img src='img/responseButtonOffersNo0L.png' class='respPic'></div></div>","3","4","Watermelon Win$","Fruit/watermelon.png","Won","0.8,0.2","11","0.8","60","10","",""
"html-keyboard-response","38","253587","0.0-11.0-2.9","60ff5fb6cbf1bb7de9bf2801","bdp_rwlrn","Tue Mar 14 2023 21:17:11 GMT-0400 (Eastern Daylight Time)","531780","Trustworthy,Untrustworthy","","null","","","","decisionFB","","<div class='trialDiv'><img src='Fruit/watermelon.png'><br><font class='baseline'><strong>Watermelon Win$</strong><p>Choose number of points to bet.</font><div class='respPicDiv'><img src='img/responseButtonOffersNo0L3.png' class='respPic'></div></div>","null","4","Watermelon Win$","Fruit/watermelon.png","Won","0.8,0.2","11","0.8","57","10","",""
"html-keyboard-response","39","254595","0.0-11.0-3.9","60ff5fb6cbf1bb7de9bf2801","bdp_rwlrn","Tue Mar 14 2023 21:17:11 GMT-0400 (Eastern Daylight Time)","531780","Trustworthy,Untrustworthy","","null","","","","feedback","","<div class='respPicDiv'><img src='img/responseButtonOffersNo0_wht.png' class='respPic'></div><div class='trialDiv'><img src='Fruit/watermelon.png'><br><font class='baseline'><strong>Watermelon Win$</strong><p><strong><font class='posOutcome'>You WON</font><p>You bet: 3</strong></font> &nbsp; &nbsp; &nbsp; &nbsp; &nbsp; &nbsp;<font class='posOutcome'>you receive: <strong>6</strong></font></div>","null","4","Watermelon Win$","Fruit/watermelon.png","Won","0.8,0.2","11","0.8","63","10","",""
"html-keyboard-response","40","254824","0.0-11.0-1.10","60ff5fb6cbf1bb7de9bf2801","bdp_rwlrn","Tue Mar 14 2023 21:17:11 GMT-0400 (Eastern Daylight Time)","531780","Trustworthy,Untrustworthy","","226","","","","decision","","<div class='trialDiv'><img src='Fruit/lime.png'><br><font class='baseline'><strong>Limin' Large</strong><p>Choose number of points to bet.</font><div class='respPicDiv'><img src='img/responseButtonOffersNo0L.png' class='respPic'></div></div>","3","4","Limin' Large","Fruit/lime.png","Lost","0.35,0.8","9","0.35","68","11","",""
"html-keyboard-response","41","255083","0.0-11.0-2.10","60ff5fb6cbf1bb7de9bf2801","bdp_rwlrn","Tue Mar 14 2023 21:17:11 GMT-0400 (Eastern Daylight Time)","531780","Trustworthy,Untrustworthy","","null","","","","decisionFB","","<div class='trialDiv'><img src='Fruit/lime.png'><br><font class='baseline'><strong>Limin' Large</strong><p>Choose number of points to bet.</font><div class='respPicDiv'><img src='img/responseButtonOffersNo0L3.png' class='respPic'></div></div>","null","4","Limin' Large","Fruit/lime.png","Lost","0.35,0.8","9","0.35","65","11","",""
"html-keyboard-response","42","256091","0.0-11.0-3.10","60ff5fb6cbf1bb7de9bf2801","bdp_rwlrn","Tue Mar 14 2023 21:17:11 GMT-0400 (Eastern Daylight Time)","531780","Trustworthy,Untrustworthy","","null","","","","feedback","","<div class='respPicDiv'><img src='img/responseButtonOffersNo0_wht.png' class='respPic'></div><div class='trialDiv'><img src='Fruit/lime.png'><br><font class='baseline'><strong>Limin' Large</strong><p><strong><font class='negOutcome'>You LOST</font><p>You bet: 3</strong></font> &nbsp; &nbsp; &nbsp; &nbsp; &nbsp; &nbsp;<font class='negOutcome'>You receive: <strong>0</strong></font></div>","null","4","Limin' Large","Fruit/lime.png","Lost","0.35,0.8","9","0.35","65","11","",""
"html-keyboard-response","43","256352","0.0-11.0-1.11","60ff5fb6cbf1bb7de9bf2801","bdp_rwlrn","Tue Mar 14 2023 21:17:11 GMT-0400 (Eastern Daylight Time)","531780","Trustworthy,Untrustworthy","","259","","","","decision","","<div class='trialDiv'><img src='Fruit/cherrie.png'><br><font class='baseline'><strong>Cherry Chances</strong><p>Choose number of points to bet.</font><div class='respPicDiv'><img src='img/responseButtonOffersNo0L.png' class='respPic'></div></div>","2","4","Cherry Chances","Fruit/cherrie.png","Lost","0.8,0.35","10","0.8","70","12","",""
"html-keyboard-response","44","256611","0.0-11.0-2.11","60ff5fb6cbf1bb7de9bf2801","bdp_rwlrn","Tue Mar 14 2023 21:17:11 GMT-0400 (Eastern Daylight Time)","531780","Trustworthy,Untrustworthy","","null","","","","decisionFB","","<div class='trialDiv'><img src='Fruit/cherrie.png'><br><font class='baseline'><strong>Cherry Chances</strong><p>Choose number of points to bet.</font><div class='respPicDiv'><img src='img/responseButtonOffersNo0L2.png' class='respPic'></div></div>","null","4","Cherry Chances","Fruit/cherrie.png","Lost","0.8,0.35","10","0.8","68","12","",""
"html-keyboard-response","45","257619","0.0-11.0-3.11","60ff5fb6cbf1bb7de9bf2801","bdp_rwlrn","Tue Mar 14 2023 21:17:11 GMT-0400 (Eastern Daylight Time)","531780","Trustworthy,Untrustworthy","","null","","","","feedback","","<div class='respPicDiv'><img src='img/responseButtonOffersNo0_wht.png' class='respPic'></div><div class='trialDiv'><img src='Fruit/cherrie.png'><br><font class='baseline'><strong>Cherry Chances</strong><p><strong><font class='negOutcome'>You LOST</font><p>You bet: 2</strong></font> &nbsp; &nbsp; &nbsp; &nbsp; &nbsp; &nbsp;<font class='negOutcome'>You receive: <strong>0</strong></font></div>","null","4","Cherry Chances","Fruit/cherrie.png","Lost","0.8,0.35","10","0.8","68","12","",""
"html-keyboard-response","46","258194","0.0-11.0-1.12","60ff5fb6cbf1bb7de9bf2801","bdp_rwlrn","Tue Mar 14 2023 21:17:11 GMT-0400 (Eastern Daylight Time)","531780","Trustworthy,Untrustworthy","","573","","","","decision","","<div class='trialDiv'><img src='Fruit/watermelon.png'><br><font class='baseline'><strong>Watermelon Win$</strong><p>Choose number of points to bet.</font><div class='respPicDiv'><img src='img/responseButtonOffersNo0L.png' class='respPic'></div></div>","4","5","Watermelon Win$","Fruit/watermelon.png","Won","0.8,0.2","11","0.8","73","13","",""
"html-keyboard-response","47","258451","0.0-11.0-2.12","60ff5fb6cbf1bb7de9bf2801","bdp_rwlrn","Tue Mar 14 2023 21:17:11 GMT-0400 (Eastern Daylight Time)","531780","Trustworthy,Untrustworthy","","null","","","","decisionFB","","<div class='trialDiv'><img src='Fruit/watermelon.png'><br><font class='baseline'><strong>Watermelon Win$</strong><p>Choose number of points to bet.</font><div class='respPicDiv'><img src='img/responseButtonOffersNo0L4.png' class='respPic'></div></div>","null","5","Watermelon Win$","Fruit/watermelon.png","Won","0.8,0.2","11","0.8","69","13","",""
"html-keyboard-response","48","259459","0.0-11.0-3.12","60ff5fb6cbf1bb7de9bf2801","bdp_rwlrn","Tue Mar 14 2023 21:17:11 GMT-0400 (Eastern Daylight Time)","531780","Trustworthy,Untrustworthy","","null","","","","feedback","","<div class='respPicDiv'><img src='img/responseButtonOffersNo0_wht.png' class='respPic'></div><div class='trialDiv'><img src='Fruit/watermelon.png'><br><font class='baseline'><strong>Watermelon Win$</strong><p><strong><font class='posOutcome'>You WON</font><p>You bet: 4</strong></font> &nbsp; &nbsp; &nbsp; &nbsp; &nbsp; &nbsp;<font class='posOutcome'>you receive: <strong>8</strong></font></div>","null","5","Watermelon Win$","Fruit/watermelon.png","Won","0.8,0.2","11","0.8","77","13","",""
"html-keyboard-response","49","259762","0.0-11.0-1.13","60ff5fb6cbf1bb7de9bf2801","bdp_rwlrn","Tue Mar 14 2023 21:17:11 GMT-0400 (Eastern Daylight Time)","531780","Trustworthy,Untrustworthy","","301","","","","decision","","<div class='trialDiv'><img src='Fruit/lime.png'><br><font class='baseline'><strong>Limin' Large</strong><p>Choose number of points to bet.</font><div class='respPicDiv'><img src='img/responseButtonOffersNo0L.png' class='respPic'></div></div>","4","5","Limin' Large","Fruit/lime.png","Won","0.35,0.8","9","0.35","82","14","",""
"html-keyboard-response","50","260019","0.0-11.0-2.13","60ff5fb6cbf1bb7de9bf2801","bdp_rwlrn","Tue Mar 14 2023 21:17:11 GMT-0400 (Eastern Daylight Time)","531780","Trustworthy,Untrustworthy","","null","","","","decisionFB","","<div class='trialDiv'><img src='Fruit/lime.png'><br><font class='baseline'><strong>Limin' Large</strong><p>Choose number of points to bet.</font><div class='respPicDiv'><img src='img/responseButtonOffersNo0L4.png' class='respPic'></div></div>","null","5","Limin' Large","Fruit/lime.png","Won","0.35,0.8","9","0.35","78","14","",""
"html-keyboard-response","51","261027","0.0-11.0-3.13","60ff5fb6cbf1bb7de9bf2801","bdp_rwlrn","Tue Mar 14 2023 21:17:11 GMT-0400 (Eastern Daylight Time)","531780","Trustworthy,Untrustworthy","","null","","","","feedback","","<div class='respPicDiv'><img src='img/responseButtonOffersNo0_wht.png' class='respPic'></div><div class='trialDiv'><img src='Fruit/lime.png'><br><font class='baseline'><strong>Limin' Large</strong><p><strong><font class='posOutcome'>You WON</font><p>You bet: 4</strong></font> &nbsp; &nbsp; &nbsp; &nbsp; &nbsp; &nbsp;<font class='posOutcome'>you receive: <strong>8</strong></font></div>","null","5","Limin' Large","Fruit/lime.png","Won","0.35,0.8","9","0.35","86","14","",""
"html-keyboard-response","52","261266","0.0-11.0-1.14","60ff5fb6cbf1bb7de9bf2801","bdp_rwlrn","Tue Mar 14 2023 21:17:11 GMT-0400 (Eastern Daylight Time)","531780","Trustworthy,Untrustworthy","","237","","","","decision","","<div class='trialDiv'><img src='Fruit/cherrie.png'><br><font class='baseline'><strong>Cherry Chances</strong><p>Choose number of points to bet.</font><div class='respPicDiv'><img src='img/responseButtonOffersNo0L.png' class='respPic'></div></div>","4","5","Cherry Chances","Fruit/cherrie.png","Won","0.8,0.35","10","0.8","91","15","",""
"html-keyboard-response","53","261523","0.0-11.0-2.14","60ff5fb6cbf1bb7de9bf2801","bdp_rwlrn","Tue Mar 14 2023 21:17:11 GMT-0400 (Eastern Daylight Time)","531780","Trustworthy,Untrustworthy","","null","","","","decisionFB","","<div class='trialDiv'><img src='Fruit/cherrie.png'><br><font class='baseline'><strong>Cherry Chances</strong><p>Choose number of points to bet.</font><div class='respPicDiv'><img src='img/responseButtonOffersNo0L4.png' class='respPic'></div></div>","null","5","Cherry Chances","Fruit/cherrie.png","Won","0.8,0.35","10","0.8","87","15","",""
"html-keyboard-response","54","262531","0.0-11.0-3.14","60ff5fb6cbf1bb7de9bf2801","bdp_rwlrn","Tue Mar 14 2023 21:17:11 GMT-0400 (Eastern Daylight Time)","531780","Trustworthy,Untrustworthy","","null","","","","feedback","","<div class='respPicDiv'><img src='img/responseButtonOffersNo0_wht.png' class='respPic'></div><div class='trialDiv'><img src='Fruit/cherrie.png'><br><font class='baseline'><strong>Cherry Chances</strong><p><strong><font class='posOutcome'>You WON</font><p>You bet: 4</strong></font> &nbsp; &nbsp; &nbsp; &nbsp; &nbsp; &nbsp;<font class='posOutcome'>you receive: <strong>8</strong></font></div>","null","5","Cherry Chances","Fruit/cherrie.png","Won","0.8,0.35","10","0.8","95","15","",""
"html-keyboard-response","55","262814","0.0-11.0-1.15","60ff5fb6cbf1bb7de9bf2801","bdp_rwlrn","Tue Mar 14 2023 21:17:11 GMT-0400 (Eastern Daylight Time)","531780","Trustworthy,Untrustworthy","","280","","","","decision","","<div class='trialDiv'><img src='Fruit/watermelon.png'><br><font class='baseline'><strong>Watermelon Win$</strong><p>Choose number of points to bet.</font><div class='respPicDiv'><img src='img/responseButtonOffersNo0L.png' class='respPic'></div></div>","4","6","Watermelon Win$","Fruit/watermelon.png","Won","0.8,0.2","11","0.8","100","16","",""
"html-keyboard-response","56","263075","0.0-11.0-2.15","60ff5fb6cbf1bb7de9bf2801","bdp_rwlrn","Tue Mar 14 2023 21:17:11 GMT-0400 (Eastern Daylight Time)","531780","Trustworthy,Untrustworthy","","null","","","","decisionFB","","<div class='trialDiv'><img src='Fruit/watermelon.png'><br><font class='baseline'><strong>Watermelon Win$</strong><p>Choose number of points to bet.</font><div class='respPicDiv'><img src='img/responseButtonOffersNo0L4.png' class='respPic'></div></div>","null","6","Watermelon Win$","Fruit/watermelon.png","Won","0.8,0.2","11","0.8","96","16","",""
"html-keyboard-response","57","264083","0.0-11.0-3.15","60ff5fb6cbf1bb7de9bf2801","bdp_rwlrn","Tue Mar 14 2023 21:17:11 GMT-0400 (Eastern Daylight Time)","531780","Trustworthy,Untrustworthy","","null","","","","feedback","","<div class='respPicDiv'><img src='img/responseButtonOffersNo0_wht.png' class='respPic'></div><div class='trialDiv'><img src='Fruit/watermelon.png'><br><font class='baseline'><strong>Watermelon Win$</strong><p><strong><font class='posOutcome'>You WON</font><p>You bet: 4</strong></font> &nbsp; &nbsp; &nbsp; &nbsp; &nbsp; &nbsp;<font class='posOutcome'>you receive: <strong>8</strong></font></div>","null","6","Watermelon Win$","Fruit/watermelon.png","Won","0.8,0.2","11","0.8","104","16","",""
"html-keyboard-response","58","264339","0.0-11.0-1.16","60ff5fb6cbf1bb7de9bf2801","bdp_rwlrn","Tue Mar 14 2023 21:17:11 GMT-0400 (Eastern Daylight Time)","531780","Trustworthy,Untrustworthy","","253","","","","decision","","<div class='trialDiv'><img src='Fruit/cherrie.png'><br><font class='baseline'><strong>Cherry Chances</strong><p>Choose number of points to bet.</font><div class='respPicDiv'><img src='img/responseButtonOffersNo0L.png' class='respPic'></div></div>","4","6","Cherry Chances","Fruit/cherrie.png","Lost","0.8,0.35","10","0.8","109","17","",""
"html-keyboard-response","59","264595","0.0-11.0-2.16","60ff5fb6cbf1bb7de9bf2801","bdp_rwlrn","Tue Mar 14 2023 21:17:11 GMT-0400 (Eastern Daylight Time)","531780","Trustworthy,Untrustworthy","","null","","","","decisionFB","","<div class='trialDiv'><img src='Fruit/cherrie.png'><br><font class='baseline'><strong>Cherry Chances</strong><p>Choose number of points to bet.</font><div class='respPicDiv'><img src='img/responseButtonOffersNo0L4.png' class='respPic'></div></div>","null","6","Cherry Chances","Fruit/cherrie.png","Lost","0.8,0.35","10","0.8","105","17","",""
"html-keyboard-response","60","265603","0.0-11.0-3.16","60ff5fb6cbf1bb7de9bf2801","bdp_rwlrn","Tue Mar 14 2023 21:17:11 GMT-0400 (Eastern Daylight Time)","531780","Trustworthy,Untrustworthy","","null","","","","feedback","","<div class='respPicDiv'><img src='img/responseButtonOffersNo0_wht.png' class='respPic'></div><div class='trialDiv'><img src='Fruit/cherrie.png'><br><font class='baseline'><strong>Cherry Chances</strong><p><strong><font class='negOutcome'>You LOST</font><p>You bet: 4</strong></font> &nbsp; &nbsp; &nbsp; &nbsp; &nbsp; &nbsp;<font class='negOutcome'>You receive: <strong>0</strong></font></div>","null","6","Cherry Chances","Fruit/cherrie.png","Lost","0.8,0.35","10","0.8","105","17","",""
"html-keyboard-response","61","265858","0.0-11.0-1.17","60ff5fb6cbf1bb7de9bf2801","bdp_rwlrn","Tue Mar 14 2023 21:17:11 GMT-0400 (Eastern Daylight Time)","531780","Trustworthy,Untrustworthy","","253","","","","decision","","<div class='trialDiv'><img src='Fruit/lime.png'><br><font class='baseline'><strong>Limin' Large</strong><p>Choose number of points to bet.</font><div class='respPicDiv'><img src='img/responseButtonOffersNo0L.png' class='respPic'></div></div>","3","6","Limin' Large","Fruit/lime.png","Lost","0.35,0.8","9","0.35","110","18","",""
"html-keyboard-response","62","266115","0.0-11.0-2.17","60ff5fb6cbf1bb7de9bf2801","bdp_rwlrn","Tue Mar 14 2023 21:17:11 GMT-0400 (Eastern Daylight Time)","531780","Trustworthy,Untrustworthy","","null","","","","decisionFB","","<div class='trialDiv'><img src='Fruit/lime.png'><br><font class='baseline'><strong>Limin' Large</strong><p>Choose number of points to bet.</font><div class='respPicDiv'><img src='img/responseButtonOffersNo0L3.png' class='respPic'></div></div>","null","6","Limin' Large","Fruit/lime.png","Lost","0.35,0.8","9","0.35","107","18","",""
"html-keyboard-response","63","267123","0.0-11.0-3.17","60ff5fb6cbf1bb7de9bf2801","bdp_rwlrn","Tue Mar 14 2023 21:17:11 GMT-0400 (Eastern Daylight Time)","531780","Trustworthy,Untrustworthy","","null","","","","feedback","","<div class='respPicDiv'><img src='img/responseButtonOffersNo0_wht.png' class='respPic'></div><div class='trialDiv'><img src='Fruit/lime.png'><br><font class='baseline'><strong>Limin' Large</strong><p><strong><font class='negOutcome'>You LOST</font><p>You bet: 3</strong></font> &nbsp; &nbsp; &nbsp; &nbsp; &nbsp; &nbsp;<font class='negOutcome'>You receive: <strong>0</strong></font></div>","null","6","Limin' Large","Fruit/lime.png","Lost","0.35,0.8","9","0.35","107","18","",""
"html-keyboard-response","64","267999","0.0-11.0-1.18","60ff5fb6cbf1bb7de9bf2801","bdp_rwlrn","Tue Mar 14 2023 21:17:11 GMT-0400 (Eastern Daylight Time)","531780","Trustworthy,Untrustworthy","","875","","","","decision","","<div class='trialDiv'><img src='Fruit/watermelon.png'><br><font class='baseline'><strong>Watermelon Win$</strong><p>Choose number of points to bet.</font><div class='respPicDiv'><img src='img/responseButtonOffersNo0L.png' class='respPic'></div></div>","5","7","Watermelon Win$","Fruit/watermelon.png","Won","0.8,0.2","11","0.8","112","19","",""
"html-keyboard-response","65","268259","0.0-11.0-2.18","60ff5fb6cbf1bb7de9bf2801","bdp_rwlrn","Tue Mar 14 2023 21:17:11 GMT-0400 (Eastern Daylight Time)","531780","Trustworthy,Untrustworthy","","null","","","","decisionFB","","<div class='trialDiv'><img src='Fruit/watermelon.png'><br><font class='baseline'><strong>Watermelon Win$</strong><p>Choose number of points to bet.</font><div class='respPicDiv'><img src='img/responseButtonOffersNo0L5.png' class='respPic'></div></div>","null","7","Watermelon Win$","Fruit/watermelon.png","Won","0.8,0.2","11","0.8","107","19","",""
"html-keyboard-response","66","269267","0.0-11.0-3.18","60ff5fb6cbf1bb7de9bf2801","bdp_rwlrn","Tue Mar 14 2023 21:17:11 GMT-0400 (Eastern Daylight Time)","531780","Trustworthy,Untrustworthy","","null","","","","feedback","","<div class='respPicDiv'><img src='img/responseButtonOffersNo0_wht.png' class='respPic'></div><div class='trialDiv'><img src='Fruit/watermelon.png'><br><font class='baseline'><strong>Watermelon Win$</strong><p><strong><font class='posOutcome'>You WON</font><p>You bet: 5</strong></font> &nbsp; &nbsp; &nbsp; &nbsp; &nbsp; &nbsp;<font class='posOutcome'>you receive: <strong>10</strong></font></div>","null","7","Watermelon Win$","Fruit/watermelon.png","Won","0.8,0.2","11","0.8","117","19","",""
"html-keyboard-response","67","270956","0.0-11.0-1.19","60ff5fb6cbf1bb7de9bf2801","bdp_rwlrn","Tue Mar 14 2023 21:17:11 GMT-0400 (Eastern Daylight Time)","531780","Trustworthy,Untrustworthy","","1686","","","","decision","","<div class='trialDiv'><img src='Fruit/cherrie.png'><br><font class='baseline'><strong>Cherry Chances</strong><p>Choose number of points to bet.</font><div class='respPicDiv'><img src='img/responseButtonOffersNo0L.png' class='respPic'></div></div>","2","7","Cherry Chances","Fruit/cherrie.png","Won","0.8,0.35","10","0.8","122","20","",""
"html-keyboard-response","68","271211","0.0-11.0-2.19","60ff5fb6cbf1bb7de9bf2801","bdp_rwlrn","Tue Mar 14 2023 21:17:11 GMT-0400 (Eastern Daylight Time)","531780","Trustworthy,Untrustworthy","","null","","","","decisionFB","","<div class='trialDiv'><img src='Fruit/cherrie.png'><br><font class='baseline'><strong>Cherry Chances</strong><p>Choose number of points to bet.</font><div class='respPicDiv'><img src='img/responseButtonOffersNo0L2.png' class='respPic'></div></div>","null","7","Cherry Chances","Fruit/cherrie.png","Won","0.8,0.35","10","0.8","120","20","",""
"html-keyboard-response","69","272219","0.0-11.0-3.19","60ff5fb6cbf1bb7de9bf2801","bdp_rwlrn","Tue Mar 14 2023 21:17:11 GMT-0400 (Eastern Daylight Time)","531780","Trustworthy,Untrustworthy","","null","","","","feedback","","<div class='respPicDiv'><img src='img/responseButtonOffersNo0_wht.png' class='respPic'></div><div class='trialDiv'><img src='Fruit/cherrie.png'><br><font class='baseline'><strong>Cherry Chances</strong><p><strong><font class='posOutcome'>You WON</font><p>You bet: 2</strong></font> &nbsp; &nbsp; &nbsp; &nbsp; &nbsp; &nbsp;<font class='posOutcome'>you receive: <strong>4</strong></font></div>","null","7","Cherry Chances","Fruit/cherrie.png","Won","0.8,0.35","10","0.8","124","20","",""
"html-keyboard-response","70","272666","0.0-11.0-1.20","60ff5fb6cbf1bb7de9bf2801","bdp_rwlrn","Tue Mar 14 2023 21:17:11 GMT-0400 (Eastern Daylight Time)","531780","Trustworthy,Untrustworthy","","445","","","","decision","","<div class='trialDiv'><img src='Fruit/lime.png'><br><font class='baseline'><strong>Limin' Large</strong><p>Choose number of points to bet.</font><div class='respPicDiv'><img src='img/responseButtonOffersNo0L.png' class='respPic'></div></div>","2","7","Limin' Large","Fruit/lime.png","Lost","0.35,0.8","9","0.35","129","21","",""
"html-keyboard-response","71","272923","0.0-11.0-2.20","60ff5fb6cbf1bb7de9bf2801","bdp_rwlrn","Tue Mar 14 2023 21:17:11 GMT-0400 (Eastern Daylight Time)","531780","Trustworthy,Untrustworthy","","null","","","","decisionFB","","<div class='trialDiv'><img src='Fruit/lime.png'><br><font class='baseline'><strong>Limin' Large</strong><p>Choose number of points to bet.</font><div class='respPicDiv'><img src='img/responseButtonOffersNo0L2.png' class='respPic'></div></div>","null","7","Limin' Large","Fruit/lime.png","Lost","0.35,0.8","9","0.35","127","21","",""
"html-keyboard-response","72","273931","0.0-11.0-3.20","60ff5fb6cbf1bb7de9bf2801","bdp_rwlrn","Tue Mar 14 2023 21:17:11 GMT-0400 (Eastern Daylight Time)","531780","Trustworthy,Untrustworthy","","null","","","","feedback","","<div class='respPicDiv'><img src='img/responseButtonOffersNo0_wht.png' class='respPic'></div><div class='trialDiv'><img src='Fruit/lime.png'><br><font class='baseline'><strong>Limin' Large</strong><p><strong><font class='negOutcome'>You LOST</font><p>You bet: 2</strong></font> &nbsp; &nbsp; &nbsp; &nbsp; &nbsp; &nbsp;<font class='negOutcome'>You receive: <strong>0</strong></font></div>","null","7","Limin' Large","Fruit/lime.png","Lost","0.35,0.8","9","0.35","127","21","",""
"html-keyboard-response","73","274008","0.0-11.0-1.21","60ff5fb6cbf1bb7de9bf2801","bdp_rwlrn","Tue Mar 14 2023 21:17:11 GMT-0400 (Eastern Daylight Time)","531780","Trustworthy,Untrustworthy","","75","","","","decision","","<div class='trialDiv'><img src='Fruit/cherrie.png'><br><font class='baseline'><strong>Cherry Chances</strong><p>Choose number of points to bet.</font><div class='respPicDiv'><img src='img/responseButtonOffersNo0L.png' class='respPic'></div></div>","3","8","Cherry Chances","Fruit/cherrie.png","Won","0.8,0.35","10","0.8","132","22","",""
"html-keyboard-response","74","274267","0.0-11.0-2.21","60ff5fb6cbf1bb7de9bf2801","bdp_rwlrn","Tue Mar 14 2023 21:17:11 GMT-0400 (Eastern Daylight Time)","531780","Trustworthy,Untrustworthy","","null","","","","decisionFB","","<div class='trialDiv'><img src='Fruit/cherrie.png'><br><font class='baseline'><strong>Cherry Chances</strong><p>Choose number of points to bet.</font><div class='respPicDiv'><img src='img/responseButtonOffersNo0L3.png' class='respPic'></div></div>","null","8","Cherry Chances","Fruit/cherrie.png","Won","0.8,0.35","10","0.8","129","22","",""
"html-keyboard-response","75","275275","0.0-11.0-3.21","60ff5fb6cbf1bb7de9bf2801","bdp_rwlrn","Tue Mar 14 2023 21:17:11 GMT-0400 (Eastern Daylight Time)","531780","Trustworthy,Untrustworthy","","null","","","","feedback","","<div class='respPicDiv'><img src='img/responseButtonOffersNo0_wht.png' class='respPic'></div><div class='trialDiv'><img src='Fruit/cherrie.png'><br><font class='baseline'><strong>Cherry Chances</strong><p><strong><font class='posOutcome'>You WON</font><p>You bet: 3</strong></font> &nbsp; &nbsp; &nbsp; &nbsp; &nbsp; &nbsp;<font class='posOutcome'>you receive: <strong>6</strong></font></div>","null","8","Cherry Chances","Fruit/cherrie.png","Won","0.8,0.35","10","0.8","135","22","",""
"html-keyboard-response","76","275520","0.0-11.0-1.22","60ff5fb6cbf1bb7de9bf2801","bdp_rwlrn","Tue Mar 14 2023 21:17:11 GMT-0400 (Eastern Daylight Time)","531780","Trustworthy,Untrustworthy","","244","","","","decision","","<div class='trialDiv'><img src='Fruit/watermelon.png'><br><font class='baseline'><strong>Watermelon Win$</strong><p>Choose number of points to bet.</font><div class='respPicDiv'><img src='img/responseButtonOffersNo0L.png' class='respPic'></div></div>","3","8","Watermelon Win$","Fruit/watermelon.png","Won","0.8,0.2","11","0.8","140","23","",""
"html-keyboard-response","77","275779","0.0-11.0-2.22","60ff5fb6cbf1bb7de9bf2801","bdp_rwlrn","Tue Mar 14 2023 21:17:11 GMT-0400 (Eastern Daylight Time)","531780","Trustworthy,Untrustworthy","","null","","","","decisionFB","","<div class='trialDiv'><img src='Fruit/watermelon.png'><br><font class='baseline'><strong>Watermelon Win$</strong><p>Choose number of points to bet.</font><div class='respPicDiv'><img src='img/responseButtonOffersNo0L3.png' class='respPic'></div></div>","null","8","Watermelon Win$","Fruit/watermelon.png","Won","0.8,0.2","11","0.8","137","23","",""
"html-keyboard-response","78","276787","0.0-11.0-3.22","60ff5fb6cbf1bb7de9bf2801","bdp_rwlrn","Tue Mar 14 2023 21:17:11 GMT-0400 (Eastern Daylight Time)","531780","Trustworthy,Untrustworthy","","null","","","","feedback","","<div class='respPicDiv'><img src='img/responseButtonOffersNo0_wht.png' class='respPic'></div><div class='trialDiv'><img src='Fruit/watermelon.png'><br><font class='baseline'><strong>Watermelon Win$</strong><p><strong><font class='posOutcome'>You WON</font><p>You bet: 3</strong></font> &nbsp; &nbsp; &nbsp; &nbsp; &nbsp; &nbsp;<font class='posOutcome'>you receive: <strong>6</strong></font></div>","null","8","Watermelon Win$","Fruit/watermelon.png","Won","0.8,0.2","11","0.8","143","23","",""
"html-keyboard-response","79","277053","0.0-11.0-1.23","60ff5fb6cbf1bb7de9bf2801","bdp_rwlrn","Tue Mar 14 2023 21:17:11 GMT-0400 (Eastern Daylight Time)","531780","Trustworthy,Untrustworthy","","263","","","","decision","","<div class='trialDiv'><img src='Fruit/lime.png'><br><font class='baseline'><strong>Limin' Large</strong><p>Choose number of points to bet.</font><div class='respPicDiv'><img src='img/responseButtonOffersNo0L.png' class='respPic'></div></div>","4","8","Limin' Large","Fruit/lime.png","Won","0.35,0.8","9","0.35","148","24","",""
"html-keyboard-response","80","277307","0.0-11.0-2.23","60ff5fb6cbf1bb7de9bf2801","bdp_rwlrn","Tue Mar 14 2023 21:17:11 GMT-0400 (Eastern Daylight Time)","531780","Trustworthy,Untrustworthy","","null","","","","decisionFB","","<div class='trialDiv'><img src='Fruit/lime.png'><br><font class='baseline'><strong>Limin' Large</strong><p>Choose number of points to bet.</font><div class='respPicDiv'><img src='img/responseButtonOffersNo0L4.png' class='respPic'></div></div>","null","8","Limin' Large","Fruit/lime.png","Won","0.35,0.8","9","0.35","144","24","",""
"html-keyboard-response","81","278315","0.0-11.0-3.23","60ff5fb6cbf1bb7de9bf2801","bdp_rwlrn","Tue Mar 14 2023 21:17:11 GMT-0400 (Eastern Daylight Time)","531780","Trustworthy,Untrustworthy","","null","","","","feedback","","<div class='respPicDiv'><img src='img/responseButtonOffersNo0_wht.png' class='respPic'></div><div class='trialDiv'><img src='Fruit/lime.png'><br><font class='baseline'><strong>Limin' Large</strong><p><strong><font class='posOutcome'>You WON</font><p>You bet: 4</strong></font> &nbsp; &nbsp; &nbsp; &nbsp; &nbsp; &nbsp;<font class='posOutcome'>you receive: <strong>8</strong></font></div>","null","8","Limin' Large","Fruit/lime.png","Won","0.35,0.8","9","0.35","152","24","",""
"html-keyboard-response","82","278617","0.0-11.0-1.24","60ff5fb6cbf1bb7de9bf2801","bdp_rwlrn","Tue Mar 14 2023 21:17:11 GMT-0400 (Eastern Daylight Time)","531780","Trustworthy,Untrustworthy","","299","","","","decision","","<div class='trialDiv'><img src='Fruit/cherrie.png'><br><font class='baseline'><strong>Cherry Chances</strong><p>Choose number of points to bet.</font><div class='respPicDiv'><img src='img/responseButtonOffersNo0L.png' class='respPic'></div></div>","5","9","Cherry Chances","Fruit/cherrie.png","Won","0.8,0.35","10","0.8","157","25","",""
"html-keyboard-response","83","278875","0.0-11.0-2.24","60ff5fb6cbf1bb7de9bf2801","bdp_rwlrn","Tue Mar 14 2023 21:17:11 GMT-0400 (Eastern Daylight Time)","531780","Trustworthy,Untrustworthy","","null","","","","decisionFB","","<div class='trialDiv'><img src='Fruit/cherrie.png'><br><font class='baseline'><strong>Cherry Chances</strong><p>Choose number of points to bet.</font><div class='respPicDiv'><img src='img/responseButtonOffersNo0L5.png' class='respPic'></div></div>","null","9","Cherry Chances","Fruit/cherrie.png","Won","0.8,0.35","10","0.8","152","25","",""
"html-keyboard-response","84","279883","0.0-11.0-3.24","60ff5fb6cbf1bb7de9bf2801","bdp_rwlrn","Tue Mar 14 2023 21:17:11 GMT-0400 (Eastern Daylight Time)","531780","Trustworthy,Untrustworthy","","null","","","","feedback","","<div class='respPicDiv'><img src='img/responseButtonOffersNo0_wht.png' class='respPic'></div><div class='trialDiv'><img src='Fruit/cherrie.png'><br><font class='baseline'><strong>Cherry Chances</strong><p><strong><font class='posOutcome'>You WON</font><p>You bet: 5</strong></font> &nbsp; &nbsp; &nbsp; &nbsp; &nbsp; &nbsp;<font class='posOutcome'>you receive: <strong>10</strong></font></div>","null","9","Cherry Chances","Fruit/cherrie.png","Won","0.8,0.35","10","0.8","162","25","",""
"html-keyboard-response","85","280241","0.0-11.0-1.25","60ff5fb6cbf1bb7de9bf2801","bdp_rwlrn","Tue Mar 14 2023 21:17:11 GMT-0400 (Eastern Daylight Time)","531780","Trustworthy,Untrustworthy","","355","","","","decision","","<div class='trialDiv'><img src='Fruit/watermelon.png'><br><font class='baseline'><strong>Watermelon Win$</strong><p>Choose number of points to bet.</font><div class='respPicDiv'><img src='img/responseButtonOffersNo0L.png' class='respPic'></div></div>","4","9","Watermelon Win$","Fruit/watermelon.png","Won","0.8,0.2","11","0.8","167","26","",""
"html-keyboard-response","86","280499","0.0-11.0-2.25","60ff5fb6cbf1bb7de9bf2801","bdp_rwlrn","Tue Mar 14 2023 21:17:11 GMT-0400 (Eastern Daylight Time)","531780","Trustworthy,Untrustworthy","","null","","","","decisionFB","","<div class='trialDiv'><img src='Fruit/watermelon.png'><br><font class='baseline'><strong>Watermelon Win$</strong><p>Choose number of points to bet.</font><div class='respPicDiv'><img src='img/responseButtonOffersNo0L4.png' class='respPic'></div></div>","null","9","Watermelon Win$","Fruit/watermelon.png","Won","0.8,0.2","11","0.8","163","26","",""
"html-keyboard-response","87","281507","0.0-11.0-3.25","60ff5fb6cbf1bb7de9bf2801","bdp_rwlrn","Tue Mar 14 2023 21:17:11 GMT-0400 (Eastern Daylight Time)","531780","Trustworthy,Untrustworthy","","null","","","","feedback","","<div class='respPicDiv'><img src='img/responseButtonOffersNo0_wht.png' class='respPic'></div><div class='trialDiv'><img src='Fruit/watermelon.png'><br><font class='baseline'><strong>Watermelon Win$</strong><p><strong><font class='posOutcome'>You WON</font><p>You bet: 4</strong></font> &nbsp; &nbsp; &nbsp; &nbsp; &nbsp; &nbsp;<font class='posOutcome'>you receive: <strong>8</strong></font></div>","null","9","Watermelon Win$","Fruit/watermelon.png","Won","0.8,0.2","11","0.8","171","26","",""
"html-keyboard-response","88","281729","0.0-11.0-1.26","60ff5fb6cbf1bb7de9bf2801","bdp_rwlrn","Tue Mar 14 2023 21:17:11 GMT-0400 (Eastern Daylight Time)","531780","Trustworthy,Untrustworthy","","219","","","","decision","","<div class='trialDiv'><img src='Fruit/lime.png'><br><font class='baseline'><strong>Limin' Large</strong><p>Choose number of points to bet.</font><div class='respPicDiv'><img src='img/responseButtonOffersNo0L.png' class='respPic'></div></div>","3","9","Limin' Large","Fruit/lime.png","Won","0.35,0.8","9","0.35","176","27","",""
"html-keyboard-response","89","281987","0.0-11.0-2.26","60ff5fb6cbf1bb7de9bf2801","bdp_rwlrn","Tue Mar 14 2023 21:17:11 GMT-0400 (Eastern Daylight Time)","531780","Trustworthy,Untrustworthy","","null","","","","decisionFB","","<div class='trialDiv'><img src='Fruit/lime.png'><br><font class='baseline'><strong>Limin' Large</strong><p>Choose number of points to bet.</font><div class='respPicDiv'><img src='img/responseButtonOffersNo0L3.png' class='respPic'></div></div>","null","9","Limin' Large","Fruit/lime.png","Won","0.35,0.8","9","0.35","173","27","",""
"html-keyboard-response","90","282995","0.0-11.0-3.26","60ff5fb6cbf1bb7de9bf2801","bdp_rwlrn","Tue Mar 14 2023 21:17:11 GMT-0400 (Eastern Daylight Time)","531780","Trustworthy,Untrustworthy","","null","","","","feedback","","<div class='respPicDiv'><img src='img/responseButtonOffersNo0_wht.png' class='respPic'></div><div class='trialDiv'><img src='Fruit/lime.png'><br><font class='baseline'><strong>Limin' Large</strong><p><strong><font class='posOutcome'>You WON</font><p>You bet: 3</strong></font> &nbsp; &nbsp; &nbsp; &nbsp; &nbsp; &nbsp;<font class='posOutcome'>you receive: <strong>6</strong></font></div>","null","9","Limin' Large","Fruit/lime.png","Won","0.35,0.8","9","0.35","179","27","",""
"html-keyboard-response","91","283386","0.0-11.0-1.27","60ff5fb6cbf1bb7de9bf2801","bdp_rwlrn","Tue Mar 14 2023 21:17:11 GMT-0400 (Eastern Daylight Time)","531780","Trustworthy,Untrustworthy","","388","","","","decision","","<div class='trialDiv'><img src='Fruit/watermelon.png'><br><font class='baseline'><strong>Watermelon Win$</strong><p>Choose number of points to bet.</font><div class='respPicDiv'><img src='img/responseButtonOffersNo0L.png' class='respPic'></div></div>","3","10","Watermelon Win$","Fruit/watermelon.png","Won","0.8,0.2","11","0.8","184","28","",""
"html-keyboard-response","92","283643","0.0-11.0-2.27","60ff5fb6cbf1bb7de9bf2801","bdp_rwlrn","Tue Mar 14 2023 21:17:11 GMT-0400 (Eastern Daylight Time)","531780","Trustworthy,Untrustworthy","","null","","","","decisionFB","","<div class='trialDiv'><img src='Fruit/watermelon.png'><br><font class='baseline'><strong>Watermelon Win$</strong><p>Choose number of points to bet.</font><div class='respPicDiv'><img src='img/responseButtonOffersNo0L3.png' class='respPic'></div></div>","null","10","Watermelon Win$","Fruit/watermelon.png","Won","0.8,0.2","11","0.8","181","28","",""
"html-keyboard-response","93","284651","0.0-11.0-3.27","60ff5fb6cbf1bb7de9bf2801","bdp_rwlrn","Tue Mar 14 2023 21:17:11 GMT-0400 (Eastern Daylight Time)","531780","Trustworthy,Untrustworthy","","null","","","","feedback","","<div class='respPicDiv'><img src='img/responseButtonOffersNo0_wht.png' class='respPic'></div><div class='trialDiv'><img src='Fruit/watermelon.png'><br><font class='baseline'><strong>Watermelon Win$</strong><p><strong><font class='posOutcome'>You WON</font><p>You bet: 3</strong></font> &nbsp; &nbsp; &nbsp; &nbsp; &nbsp; &nbsp;<font class='posOutcome'>you receive: <strong>6</strong></font></div>","null","10","Watermelon Win$","Fruit/watermelon.png","Won","0.8,0.2","11","0.8","187","28","",""
"html-keyboard-response","94","284934","0.0-11.0-1.28","60ff5fb6cbf1bb7de9bf2801","bdp_rwlrn","Tue Mar 14 2023 21:17:11 GMT-0400 (Eastern Daylight Time)","531780","Trustworthy,Untrustworthy","","281","","","","decision","","<div class='trialDiv'><img src='Fruit/lime.png'><br><font class='baseline'><strong>Limin' Large</strong><p>Choose number of points to bet.</font><div class='respPicDiv'><img src='img/responseButtonOffersNo0L.png' class='respPic'></div></div>","4","10","Limin' Large","Fruit/lime.png","Won","0.35,0.8","9","0.35","192","29","",""
"html-keyboard-response","95","285187","0.0-11.0-2.28","60ff5fb6cbf1bb7de9bf2801","bdp_rwlrn","Tue Mar 14 2023 21:17:11 GMT-0400 (Eastern Daylight Time)","531780","Trustworthy,Untrustworthy","","null","","","","decisionFB","","<div class='trialDiv'><img src='Fruit/lime.png'><br><font class='baseline'><strong>Limin' Large</strong><p>Choose number of points to bet.</font><div class='respPicDiv'><img src='img/responseButtonOffersNo0L4.png' class='respPic'></div></div>","null","10","Limin' Large","Fruit/lime.png","Won","0.35,0.8","9","0.35","188","29","",""
"html-keyboard-response","96","286195","0.0-11.0-3.28","60ff5fb6cbf1bb7de9bf2801","bdp_rwlrn","Tue Mar 14 2023 21:17:11 GMT-0400 (Eastern Daylight Time)","531780","Trustworthy,Untrustworthy","","null","","","","feedback","","<div class='respPicDiv'><img src='img/responseButtonOffersNo0_wht.png' class='respPic'></div><div class='trialDiv'><img src='Fruit/lime.png'><br><font class='baseline'><strong>Limin' Large</strong><p><strong><font class='posOutcome'>You WON</font><p>You bet: 4</strong></font> &nbsp; &nbsp; &nbsp; &nbsp; &nbsp; &nbsp;<font class='posOutcome'>you receive: <strong>8</strong></font></div>","null","10","Limin' Large","Fruit/lime.png","Won","0.35,0.8","9","0.35","196","29","",""
"html-keyboard-response","97","286456","0.0-11.0-1.29","60ff5fb6cbf1bb7de9bf2801","bdp_rwlrn","Tue Mar 14 2023 21:17:11 GMT-0400 (Eastern Daylight Time)","531780","Trustworthy,Untrustworthy","","259","","","","decision","","<div class='trialDiv'><img src='Fruit/cherrie.png'><br><font class='baseline'><strong>Cherry Chances</strong><p>Choose number of points to bet.</font><div class='respPicDiv'><img src='img/responseButtonOffersNo0L.png' class='respPic'></div></div>","4","10","Cherry Chances","Fruit/cherrie.png","Lost","0.8,0.35","10","0.8","201","30","",""
"html-keyboard-response","98","286715","0.0-11.0-2.29","60ff5fb6cbf1bb7de9bf2801","bdp_rwlrn","Tue Mar 14 2023 21:17:11 GMT-0400 (Eastern Daylight Time)","531780","Trustworthy,Untrustworthy","","null","","","","decisionFB","","<div class='trialDiv'><img src='Fruit/cherrie.png'><br><font class='baseline'><strong>Cherry Chances</strong><p>Choose number of points to bet.</font><div class='respPicDiv'><img src='img/responseButtonOffersNo0L4.png' class='respPic'></div></div>","null","10","Cherry Chances","Fruit/cherrie.png","Lost","0.8,0.35","10","0.8","197","30","",""
"html-keyboard-response","99","287723","0.0-11.0-3.29","60ff5fb6cbf1bb7de9bf2801","bdp_rwlrn","Tue Mar 14 2023 21:17:11 GMT-0400 (Eastern Daylight Time)","531780","Trustworthy,Untrustworthy","","null","","","","feedback","","<div class='respPicDiv'><img src='img/responseButtonOffersNo0_wht.png' class='respPic'></div><div class='trialDiv'><img src='Fruit/cherrie.png'><br><font class='baseline'><strong>Cherry Chances</strong><p><strong><font class='negOutcome'>You LOST</font><p>You bet: 4</strong></font> &nbsp; &nbsp; &nbsp; &nbsp; &nbsp; &nbsp;<font class='negOutcome'>You receive: <strong>0</strong></font></div>","null","10","Cherry Chances","Fruit/cherrie.png","Lost","0.8,0.35","10","0.8","197","30","",""
"html-keyboard-response","100","287939","0.0-11.0-1.30","60ff5fb6cbf1bb7de9bf2801","bdp_rwlrn","Tue Mar 14 2023 21:17:11 GMT-0400 (Eastern Daylight Time)","531780","Trustworthy,Untrustworthy","","214","","","","decision","","<div class='trialDiv'><img src='Fruit/lime.png'><br><font class='baseline'><strong>Limin' Large</strong><p>Choose number of points to bet.</font><div class='respPicDiv'><img src='img/responseButtonOffersNo0L.png' class='respPic'></div></div>","3","11","Limin' Large","Fruit/lime.png","Won","0.35,0.8","9","0.35","202","31","",""
"html-keyboard-response","101","288195","0.0-11.0-2.30","60ff5fb6cbf1bb7de9bf2801","bdp_rwlrn","Tue Mar 14 2023 21:17:11 GMT-0400 (Eastern Daylight Time)","531780","Trustworthy,Untrustworthy","","null","","","","decisionFB","","<div class='trialDiv'><img src='Fruit/lime.png'><br><font class='baseline'><strong>Limin' Large</strong><p>Choose number of points to bet.</font><div class='respPicDiv'><img src='img/responseButtonOffersNo0L3.png' class='respPic'></div></div>","null","11","Limin' Large","Fruit/lime.png","Won","0.35,0.8","9","0.35","199","31","",""
"html-keyboard-response","102","289203","0.0-11.0-3.30","60ff5fb6cbf1bb7de9bf2801","bdp_rwlrn","Tue Mar 14 2023 21:17:11 GMT-0400 (Eastern Daylight Time)","531780","Trustworthy,Untrustworthy","","null","","","","feedback","","<div class='respPicDiv'><img src='img/responseButtonOffersNo0_wht.png' class='respPic'></div><div class='trialDiv'><img src='Fruit/lime.png'><br><font class='baseline'><strong>Limin' Large</strong><p><strong><font class='posOutcome'>You WON</font><p>You bet: 3</strong></font> &nbsp; &nbsp; &nbsp; &nbsp; &nbsp; &nbsp;<font class='posOutcome'>you receive: <strong>6</strong></font></div>","null","11","Limin' Large","Fruit/lime.png","Won","0.35,0.8","9","0.35","205","31","",""
"html-keyboard-response","103","289531","0.0-11.0-1.31","60ff5fb6cbf1bb7de9bf2801","bdp_rwlrn","Tue Mar 14 2023 21:17:11 GMT-0400 (Eastern Daylight Time)","531780","Trustworthy,Untrustworthy","","326","","","","decision","","<div class='trialDiv'><img src='Fruit/cherrie.png'><br><font class='baseline'><strong>Cherry Chances</strong><p>Choose number of points to bet.</font><div class='respPicDiv'><img src='img/responseButtonOffersNo0L.png' class='respPic'></div></div>","5","11","Cherry Chances","Fruit/cherrie.png","Lost","0.8,0.35","10","0.8","210","32","",""
"html-keyboard-response","104","289787","0.0-11.0-2.31","60ff5fb6cbf1bb7de9bf2801","bdp_rwlrn","Tue Mar 14 2023 21:17:11 GMT-0400 (Eastern Daylight Time)","531780","Trustworthy,Untrustworthy","","null","","","","decisionFB","","<div class='trialDiv'><img src='Fruit/cherrie.png'><br><font class='baseline'><strong>Cherry Chances</strong><p>Choose number of points to bet.</font><div class='respPicDiv'><img src='img/responseButtonOffersNo0L5.png' class='respPic'></div></div>","null","11","Cherry Chances","Fruit/cherrie.png","Lost","0.8,0.35","10","0.8","205","32","",""
"html-keyboard-response","105","290795","0.0-11.0-3.31","60ff5fb6cbf1bb7de9bf2801","bdp_rwlrn","Tue Mar 14 2023 21:17:11 GMT-0400 (Eastern Daylight Time)","531780","Trustworthy,Untrustworthy","","null","","","","feedback","","<div class='respPicDiv'><img src='img/responseButtonOffersNo0_wht.png' class='respPic'></div><div class='trialDiv'><img src='Fruit/cherrie.png'><br><font class='baseline'><strong>Cherry Chances</strong><p><strong><font class='negOutcome'>You LOST</font><p>You bet: 5</strong></font> &nbsp; &nbsp; &nbsp; &nbsp; &nbsp; &nbsp;<font class='negOutcome'>You receive: <strong>0</strong></font></div>","null","11","Cherry Chances","Fruit/cherrie.png","Lost","0.8,0.35","10","0.8","205","32","",""
"html-keyboard-response","106","290893","0.0-11.0-1.32","60ff5fb6cbf1bb7de9bf2801","bdp_rwlrn","Tue Mar 14 2023 21:17:11 GMT-0400 (Eastern Daylight Time)","531780","Trustworthy,Untrustworthy","","96","","","","decision","","<div class='trialDiv'><img src='Fruit/watermelon.png'><br><font class='baseline'><strong>Watermelon Win$</strong><p>Choose number of points to bet.</font><div class='respPicDiv'><img src='img/responseButtonOffersNo0L.png' class='respPic'></div></div>","3","11","Watermelon Win$","Fruit/watermelon.png","Lost","0.8,0.2","11","0.8","210","33","",""
"html-keyboard-response","107","291147","0.0-11.0-2.32","60ff5fb6cbf1bb7de9bf2801","bdp_rwlrn","Tue Mar 14 2023 21:17:11 GMT-0400 (Eastern Daylight Time)","531780","Trustworthy,Untrustworthy","","null","","","","decisionFB","","<div class='trialDiv'><img src='Fruit/watermelon.png'><br><font class='baseline'><strong>Watermelon Win$</strong><p>Choose number of points to bet.</font><div class='respPicDiv'><img src='img/responseButtonOffersNo0L3.png' class='respPic'></div></div>","null","11","Watermelon Win$","Fruit/watermelon.png","Lost","0.8,0.2","11","0.8","207","33","",""
"html-keyboard-response","108","292155","0.0-11.0-3.32","60ff5fb6cbf1bb7de9bf2801","bdp_rwlrn","Tue Mar 14 2023 21:17:11 GMT-0400 (Eastern Daylight Time)","531780","Trustworthy,Untrustworthy","","null","","","","feedback","","<div class='respPicDiv'><img src='img/responseButtonOffersNo0_wht.png' class='respPic'></div><div class='trialDiv'><img src='Fruit/watermelon.png'><br><font class='baseline'><strong>Watermelon Win$</strong><p><strong><font class='negOutcome'>You LOST</font><p>You bet: 3</strong></font> &nbsp; &nbsp; &nbsp; &nbsp; &nbsp; &nbsp;<font class='negOutcome'>You receive: <strong>0</strong></font></div>","null","11","Watermelon Win$","Fruit/watermelon.png","Lost","0.8,0.2","11","0.8","207","33","",""
"html-keyboard-response","109","292367","0.0-11.0-1.33","60ff5fb6cbf1bb7de9bf2801","bdp_rwlrn","Tue Mar 14 2023 21:17:11 GMT-0400 (Eastern Daylight Time)","531780","Trustworthy,Untrustworthy","","210","","","","decision","","<div class='trialDiv'><img src='Fruit/lime.png'><br><font class='baseline'><strong>Limin' Large</strong><p>Choose number of points to bet.</font><div class='respPicDiv'><img src='img/responseButtonOffersNo0L.png' class='respPic'></div></div>","4","12","Limin' Large","Fruit/lime.png","Won","0.35,0.8","9","0.35","212","34","",""
"html-keyboard-response","110","292627","0.0-11.0-2.33","60ff5fb6cbf1bb7de9bf2801","bdp_rwlrn","Tue Mar 14 2023 21:17:11 GMT-0400 (Eastern Daylight Time)","531780","Trustworthy,Untrustworthy","","null","","","","decisionFB","","<div class='trialDiv'><img src='Fruit/lime.png'><br><font class='baseline'><strong>Limin' Large</strong><p>Choose number of points to bet.</font><div class='respPicDiv'><img src='img/responseButtonOffersNo0L4.png' class='respPic'></div></div>","null","12","Limin' Large","Fruit/lime.png","Won","0.35,0.8","9","0.35","208","34","",""
"html-keyboard-response","111","293635","0.0-11.0-3.33","60ff5fb6cbf1bb7de9bf2801","bdp_rwlrn","Tue Mar 14 2023 21:17:11 GMT-0400 (Eastern Daylight Time)","531780","Trustworthy,Untrustworthy","","null","","","","feedback","","<div class='respPicDiv'><img src='img/responseButtonOffersNo0_wht.png' class='respPic'></div><div class='trialDiv'><img src='Fruit/lime.png'><br><font class='baseline'><strong>Limin' Large</strong><p><strong><font class='posOutcome'>You WON</font><p>You bet: 4</strong></font> &nbsp; &nbsp; &nbsp; &nbsp; &nbsp; &nbsp;<font class='posOutcome'>you receive: <strong>8</strong></font></div>","null","12","Limin' Large","Fruit/lime.png","Won","0.35,0.8","9","0.35","216","34","",""
"html-keyboard-response","112","293829","0.0-11.0-1.34","60ff5fb6cbf1bb7de9bf2801","bdp_rwlrn","Tue Mar 14 2023 21:17:11 GMT-0400 (Eastern Daylight Time)","531780","Trustworthy,Untrustworthy","","192","","","","decision","","<div class='trialDiv'><img src='Fruit/cherrie.png'><br><font class='baseline'><strong>Cherry Chances</strong><p>Choose number of points to bet.</font><div class='respPicDiv'><img src='img/responseButtonOffersNo0L.png' class='respPic'></div></div>","4","12","Cherry Chances","Fruit/cherrie.png","Lost","0.8,0.35","10","0.8","221","35","",""
"html-keyboard-response","113","294083","0.0-11.0-2.34","60ff5fb6cbf1bb7de9bf2801","bdp_rwlrn","Tue Mar 14 2023 21:17:11 GMT-0400 (Eastern Daylight Time)","531780","Trustworthy,Untrustworthy","","null","","","","decisionFB","","<div class='trialDiv'><img src='Fruit/cherrie.png'><br><font class='baseline'><strong>Cherry Chances</strong><p>Choose number of points to bet.</font><div class='respPicDiv'><img src='img/responseButtonOffersNo0L4.png' class='respPic'></div></div>","null","12","Cherry Chances","Fruit/cherrie.png","Lost","0.8,0.35","10","0.8","217","35","",""
"html-keyboard-response","114","295091","0.0-11.0-3.34","60ff5fb6cbf1bb7de9bf2801","bdp_rwlrn","Tue Mar 14 2023 21:17:11 GMT-0400 (Eastern Daylight Time)","531780","Trustworthy,Untrustworthy","","null","","","","feedback","","<div class='respPicDiv'><img src='img/responseButtonOffersNo0_wht.png' class='respPic'></div><div class='trialDiv'><img src='Fruit/cherrie.png'><br><font class='baseline'><strong>Cherry Chances</strong><p><strong><font class='negOutcome'>You LOST</font><p>You bet: 4</strong></font> &nbsp; &nbsp; &nbsp; &nbsp; &nbsp; &nbsp;<font class='negOutcome'>You receive: <strong>0</strong></font></div>","null","12","Cherry Chances","Fruit/cherrie.png","Lost","0.8,0.35","10","0.8","217","35","",""
"html-keyboard-response","115","295682","0.0-11.0-1.35","60ff5fb6cbf1bb7de9bf2801","bdp_rwlrn","Tue Mar 14 2023 21:17:11 GMT-0400 (Eastern Daylight Time)","531780","Trustworthy,Untrustworthy","","588","","","","decision","","<div class='trialDiv'><img src='Fruit/watermelon.png'><br><font class='baseline'><strong>Watermelon Win$</strong><p>Choose number of points to bet.</font><div class='respPicDiv'><img src='img/responseButtonOffersNo0L.png' class='respPic'></div></div>","2","12","Watermelon Win$","Fruit/watermelon.png","Lost","0.8,0.2","11","0.8","222","36","",""
"html-keyboard-response","116","295939","0.0-11.0-2.35","60ff5fb6cbf1bb7de9bf2801","bdp_rwlrn","Tue Mar 14 2023 21:17:11 GMT-0400 (Eastern Daylight Time)","531780","Trustworthy,Untrustworthy","","null","","","","decisionFB","","<div class='trialDiv'><img src='Fruit/watermelon.png'><br><font class='baseline'><strong>Watermelon Win$</strong><p>Choose number of points to bet.</font><div class='respPicDiv'><img src='img/responseButtonOffersNo0L2.png' class='respPic'></div></div>","null","12","Watermelon Win$","Fruit/watermelon.png","Lost","0.8,0.2","11","0.8","220","36","",""
"html-keyboard-response","117","296947","0.0-11.0-3.35","60ff5fb6cbf1bb7de9bf2801","bdp_rwlrn","Tue Mar 14 2023 21:17:11 GMT-0400 (Eastern Daylight Time)","531780","Trustworthy,Untrustworthy","","null","","","","feedback","","<div class='respPicDiv'><img src='img/responseButtonOffersNo0_wht.png' class='respPic'></div><div class='trialDiv'><img src='Fruit/watermelon.png'><br><font class='baseline'><strong>Watermelon Win$</strong><p><strong><font class='negOutcome'>You LOST</font><p>You bet: 2</strong></font> &nbsp; &nbsp; &nbsp; &nbsp; &nbsp; &nbsp;<font class='negOutcome'>You receive: <strong>0</strong></font></div>","null","12","Watermelon Win$","Fruit/watermelon.png","Lost","0.8,0.2","11","0.8","220","36","",""
"html-keyboard-response","118","297349","0.0-11.0-1.36","60ff5fb6cbf1bb7de9bf2801","bdp_rwlrn","Tue Mar 14 2023 21:17:11 GMT-0400 (Eastern Daylight Time)","531780","Trustworthy,Untrustworthy","","399","","","","decision","","<div class='trialDiv'><img src='Fruit/lime.png'><br><font class='baseline'><strong>Limin' Large</strong><p>Choose number of points to bet.</font><div class='respPicDiv'><img src='img/responseButtonOffersNo0L.png' class='respPic'></div></div>","1","13","Limin' Large","Fruit/lime.png","Won","0.35,0.8","9","0.35","225","37","",""
"html-keyboard-response","119","297603","0.0-11.0-2.36","60ff5fb6cbf1bb7de9bf2801","bdp_rwlrn","Tue Mar 14 2023 21:17:11 GMT-0400 (Eastern Daylight Time)","531780","Trustworthy,Untrustworthy","","null","","","","decisionFB","","<div class='trialDiv'><img src='Fruit/lime.png'><br><font class='baseline'><strong>Limin' Large</strong><p>Choose number of points to bet.</font><div class='respPicDiv'><img src='img/responseButtonOffersNo0L1.png' class='respPic'></div></div>","null","13","Limin' Large","Fruit/lime.png","Won","0.35,0.8","9","0.35","224","37","",""
"html-keyboard-response","120","298611","0.0-11.0-3.36","60ff5fb6cbf1bb7de9bf2801","bdp_rwlrn","Tue Mar 14 2023 21:17:11 GMT-0400 (Eastern Daylight Time)","531780","Trustworthy,Untrustworthy","","null","","","","feedback","","<div class='respPicDiv'><img src='img/responseButtonOffersNo0_wht.png' class='respPic'></div><div class='trialDiv'><img src='Fruit/lime.png'><br><font class='baseline'><strong>Limin' Large</strong><p><strong><font class='posOutcome'>You WON</font><p>You bet: 1</strong></font> &nbsp; &nbsp; &nbsp; &nbsp; &nbsp; &nbsp;<font class='posOutcome'>you receive: <strong>2</strong></font></div>","null","13","Limin' Large","Fruit/lime.png","Won","0.35,0.8","9","0.35","226","37","",""
"html-keyboard-response","121","300767","0.0-11.0-1.37","60ff5fb6cbf1bb7de9bf2801","bdp_rwlrn","Tue Mar 14 2023 21:17:11 GMT-0400 (Eastern Daylight Time)","531780","Trustworthy,Untrustworthy","","2154","","","","decision","","<div class='trialDiv'><img src='Fruit/watermelon.png'><br><font class='baseline'><strong>Watermelon Win$</strong><p>Choose number of points to bet.</font><div class='respPicDiv'><img src='img/responseButtonOffersNo0L.png' class='respPic'></div></div>","3","13","Watermelon Win$","Fruit/watermelon.png","Lost","0.8,0.2","11","0.8","231","38","",""
"html-keyboard-response","122","301027","0.0-11.0-2.37","60ff5fb6cbf1bb7de9bf2801","bdp_rwlrn","Tue Mar 14 2023 21:17:11 GMT-0400 (Eastern Daylight Time)","531780","Trustworthy,Untrustworthy","","null","","","","decisionFB","","<div class='trialDiv'><img src='Fruit/watermelon.png'><br><font class='baseline'><strong>Watermelon Win$</strong><p>Choose number of points to bet.</font><div class='respPicDiv'><img src='img/responseButtonOffersNo0L3.png' class='respPic'></div></div>","null","13","Watermelon Win$","Fruit/watermelon.png","Lost","0.8,0.2","11","0.8","228","38","",""
"html-keyboard-response","123","302035","0.0-11.0-3.37","60ff5fb6cbf1bb7de9bf2801","bdp_rwlrn","Tue Mar 14 2023 21:17:11 GMT-0400 (Eastern Daylight Time)","531780","Trustworthy,Untrustworthy","","null","","","","feedback","","<div class='respPicDiv'><img src='img/responseButtonOffersNo0_wht.png' class='respPic'></div><div class='trialDiv'><img src='Fruit/watermelon.png'><br><font class='baseline'><strong>Watermelon Win$</strong><p><strong><font class='negOutcome'>You LOST</font><p>You bet: 3</strong></font> &nbsp; &nbsp; &nbsp; &nbsp; &nbsp; &nbsp;<font class='negOutcome'>You receive: <strong>0</strong></font></div>","null","13","Watermelon Win$","Fruit/watermelon.png","Lost","0.8,0.2","11","0.8","228","38","",""
"html-keyboard-response","124","302462","0.0-11.0-1.38","60ff5fb6cbf1bb7de9bf2801","bdp_rwlrn","Tue Mar 14 2023 21:17:11 GMT-0400 (Eastern Daylight Time)","531780","Trustworthy,Untrustworthy","","426","","","","decision","","<div class='trialDiv'><img src='Fruit/cherrie.png'><br><font class='baseline'><strong>Cherry Chances</strong><p>Choose number of points to bet.</font><div class='respPicDiv'><img src='img/responseButtonOffersNo0L.png' class='respPic'></div></div>","4","13","Cherry Chances","Fruit/cherrie.png","Lost","0.8,0.35","10","0.8","233","39","",""
"html-keyboard-response","125","302715","0.0-11.0-2.38","60ff5fb6cbf1bb7de9bf2801","bdp_rwlrn","Tue Mar 14 2023 21:17:11 GMT-0400 (Eastern Daylight Time)","531780","Trustworthy,Untrustworthy","","null","","","","decisionFB","","<div class='trialDiv'><img src='Fruit/cherrie.png'><br><font class='baseline'><strong>Cherry Chances</strong><p>Choose number of points to bet.</font><div class='respPicDiv'><img src='img/responseButtonOffersNo0L4.png' class='respPic'></div></div>","null","13","Cherry Chances","Fruit/cherrie.png","Lost","0.8,0.35","10","0.8","229","39","",""
"html-keyboard-response","126","303723","0.0-11.0-3.38","60ff5fb6cbf1bb7de9bf2801","bdp_rwlrn","Tue Mar 14 2023 21:17:11 GMT-0400 (Eastern Daylight Time)","531780","Trustworthy,Untrustworthy","","null","","","","feedback","","<div class='respPicDiv'><img src='img/responseButtonOffersNo0_wht.png' class='respPic'></div><div class='trialDiv'><img src='Fruit/cherrie.png'><br><font class='baseline'><strong>Cherry Chances</strong><p><strong><font class='negOutcome'>You LOST</font><p>You bet: 4</strong></font> &nbsp; &nbsp; &nbsp; &nbsp; &nbsp; &nbsp;<font class='negOutcome'>You receive: <strong>0</strong></font></div>","null","13","Cherry Chances","Fruit/cherrie.png","Lost","0.8,0.35","10","0.8","229","39","",""
"html-keyboard-response","127","306084","0.0-11.0-1.39","60ff5fb6cbf1bb7de9bf2801","bdp_rwlrn","Tue Mar 14 2023 21:17:11 GMT-0400 (Eastern Daylight Time)","531780","Trustworthy,Untrustworthy","","2359","","","","decision","","<div class='trialDiv'><img src='Fruit/lime.png'><br><font class='baseline'><strong>Limin' Large</strong><p>Choose number of points to bet.</font><div class='respPicDiv'><img src='img/responseButtonOffersNo0L.png' class='respPic'></div></div>","1","14","Limin' Large","Fruit/lime.png","Won","0.35,0.8","9","0.35","234","40","",""
"html-keyboard-response","128","306339","0.0-11.0-2.39","60ff5fb6cbf1bb7de9bf2801","bdp_rwlrn","Tue Mar 14 2023 21:17:11 GMT-0400 (Eastern Daylight Time)","531780","Trustworthy,Untrustworthy","","null","","","","decisionFB","","<div class='trialDiv'><img src='Fruit/lime.png'><br><font class='baseline'><strong>Limin' Large</strong><p>Choose number of points to bet.</font><div class='respPicDiv'><img src='img/responseButtonOffersNo0L1.png' class='respPic'></div></div>","null","14","Limin' Large","Fruit/lime.png","Won","0.35,0.8","9","0.35","233","40","",""
"html-keyboard-response","129","307347","0.0-11.0-3.39","60ff5fb6cbf1bb7de9bf2801","bdp_rwlrn","Tue Mar 14 2023 21:17:11 GMT-0400 (Eastern Daylight Time)","531780","Trustworthy,Untrustworthy","","null","","","","feedback","","<div class='respPicDiv'><img src='img/responseButtonOffersNo0_wht.png' class='respPic'></div><div class='trialDiv'><img src='Fruit/lime.png'><br><font class='baseline'><strong>Limin' Large</strong><p><strong><font class='posOutcome'>You WON</font><p>You bet: 1</strong></font> &nbsp; &nbsp; &nbsp; &nbsp; &nbsp; &nbsp;<font class='posOutcome'>you receive: <strong>2</strong></font></div>","null","14","Limin' Large","Fruit/lime.png","Won","0.35,0.8","9","0.35","235","40","",""
"html-keyboard-response","130","307798","0.0-11.0-1.40","60ff5fb6cbf1bb7de9bf2801","bdp_rwlrn","Tue Mar 14 2023 21:17:11 GMT-0400 (Eastern Daylight Time)","531780","Trustworthy,Untrustworthy","","449","","","","decision","","<div class='trialDiv'><img src='Fruit/cherrie.png'><br><font class='baseline'><strong>Cherry Chances</strong><p>Choose number of points to bet.</font><div class='respPicDiv'><img src='img/responseButtonOffersNo0L.png' class='respPic'></div></div>","1","14","Cherry Chances","Fruit/cherrie.png","Lost","0.8,0.35","10","0.8","240","41","",""
"html-keyboard-response","131","308051","0.0-11.0-2.40","60ff5fb6cbf1bb7de9bf2801","bdp_rwlrn","Tue Mar 14 2023 21:17:11 GMT-0400 (Eastern Daylight Time)","531780","Trustworthy,Untrustworthy","","null","","","","decisionFB","","<div class='trialDiv'><img src='Fruit/cherrie.png'><br><font class='baseline'><strong>Cherry Chances</strong><p>Choose number of points to bet.</font><div class='respPicDiv'><img src='img/responseButtonOffersNo0L1.png' class='respPic'></div></div>","null","14","Cherry Chances","Fruit/cherrie.png","Lost","0.8,0.35","10","0.8","239","41","",""
"html-keyboard-response","132","309059","0.0-11.0-3.40","60ff5fb6cbf1bb7de9bf2801","bdp_rwlrn","Tue Mar 14 2023 21:17:11 GMT-0400 (Eastern Daylight Time)","531780","Trustworthy,Untrustworthy","","null","","","","feedback","","<div class='respPicDiv'><img src='img/responseButtonOffersNo0_wht.png' class='respPic'></div><div class='trialDiv'><img src='Fruit/cherrie.png'><br><font class='baseline'><strong>Cherry Chances</strong><p><strong><font class='negOutcome'>You LOST</font><p>You bet: 1</strong></font> &nbsp; &nbsp; &nbsp; &nbsp; &nbsp; &nbsp;<font class='negOutcome'>You receive: <strong>0</strong></font></div>","null","14","Cherry Chances","Fruit/cherrie.png","Lost","0.8,0.35","10","0.8","239","41","",""
"html-keyboard-response","133","309738","0.0-11.0-1.41","60ff5fb6cbf1bb7de9bf2801","bdp_rwlrn","Tue Mar 14 2023 21:17:11 GMT-0400 (Eastern Daylight Time)","531780","Trustworthy,Untrustworthy","","676","","","","decision","","<div class='trialDiv'><img src='Fruit/watermelon.png'><br><font class='baseline'><strong>Watermelon Win$</strong><p>Choose number of points to bet.</font><div class='respPicDiv'><img src='img/responseButtonOffersNo0L.png' class='respPic'></div></div>","2","14","Watermelon Win$","Fruit/watermelon.png","Won","0.8,0.2","11","0.8","244","42","",""
"html-keyboard-response","134","309995","0.0-11.0-2.41","60ff5fb6cbf1bb7de9bf2801","bdp_rwlrn","Tue Mar 14 2023 21:17:11 GMT-0400 (Eastern Daylight Time)","531780","Trustworthy,Untrustworthy","","null","","","","decisionFB","","<div class='trialDiv'><img src='Fruit/watermelon.png'><br><font class='baseline'><strong>Watermelon Win$</strong><p>Choose number of points to bet.</font><div class='respPicDiv'><img src='img/responseButtonOffersNo0L2.png' class='respPic'></div></div>","null","14","Watermelon Win$","Fruit/watermelon.png","Won","0.8,0.2","11","0.8","242","42","",""
"html-keyboard-response","135","311003","0.0-11.0-3.41","60ff5fb6cbf1bb7de9bf2801","bdp_rwlrn","Tue Mar 14 2023 21:17:11 GMT-0400 (Eastern Daylight Time)","531780","Trustworthy,Untrustworthy","","null","","","","feedback","","<div class='respPicDiv'><img src='img/responseButtonOffersNo0_wht.png' class='respPic'></div><div class='trialDiv'><img src='Fruit/watermelon.png'><br><font class='baseline'><strong>Watermelon Win$</strong><p><strong><font class='posOutcome'>You WON</font><p>You bet: 2</strong></font> &nbsp; &nbsp; &nbsp; &nbsp; &nbsp; &nbsp;<font class='posOutcome'>you receive: <strong>4</strong></font></div>","null","14","Watermelon Win$","Fruit/watermelon.png","Won","0.8,0.2","11","0.8","246","42","",""
"html-keyboard-response","136","312282","0.0-11.0-1.42","60ff5fb6cbf1bb7de9bf2801","bdp_rwlrn","Tue Mar 14 2023 21:17:11 GMT-0400 (Eastern Daylight Time)","531780","Trustworthy,Untrustworthy","","1276","","","","decision","","<div class='trialDiv'><img src='Fruit/cherrie.png'><br><font class='baseline'><strong>Cherry Chances</strong><p>Choose number of points to bet.</font><div class='respPicDiv'><img src='img/responseButtonOffersNo0L.png' class='respPic'></div></div>","3","15","Cherry Chances","Fruit/cherrie.png","Lost","0.8,0.35","10","0.8","251","43","",""
"html-keyboard-response","137","312539","0.0-11.0-2.42","60ff5fb6cbf1bb7de9bf2801","bdp_rwlrn","Tue Mar 14 2023 21:17:11 GMT-0400 (Eastern Daylight Time)","531780","Trustworthy,Untrustworthy","","null","","","","decisionFB","","<div class='trialDiv'><img src='Fruit/cherrie.png'><br><font class='baseline'><strong>Cherry Chances</strong><p>Choose number of points to bet.</font><div class='respPicDiv'><img src='img/responseButtonOffersNo0L3.png' class='respPic'></div></div>","null","15","Cherry Chances","Fruit/cherrie.png","Lost","0.8,0.35","10","0.8","248","43","",""
"html-keyboard-response","138","313547","0.0-11.0-3.42","60ff5fb6cbf1bb7de9bf2801","bdp_rwlrn","Tue Mar 14 2023 21:17:11 GMT-0400 (Eastern Daylight Time)","531780","Trustworthy,Untrustworthy","","null","","","","feedback","","<div class='respPicDiv'><img src='img/responseButtonOffersNo0_wht.png' class='respPic'></div><div class='trialDiv'><img src='Fruit/cherrie.png'><br><font class='baseline'><strong>Cherry Chances</strong><p><strong><font class='negOutcome'>You LOST</font><p>You bet: 3</strong></font> &nbsp; &nbsp; &nbsp; &nbsp; &nbsp; &nbsp;<font class='negOutcome'>You receive: <strong>0</strong></font></div>","null","15","Cherry Chances","Fruit/cherrie.png","Lost","0.8,0.35","10","0.8","248","43","",""
"html-keyboard-response","139","314416","0.0-11.0-1.43","60ff5fb6cbf1bb7de9bf2801","bdp_rwlrn","Tue Mar 14 2023 21:17:11 GMT-0400 (Eastern Daylight Time)","531780","Trustworthy,Untrustworthy","","866","","","","decision","","<div class='trialDiv'><img src='Fruit/lime.png'><br><font class='baseline'><strong>Limin' Large</strong><p>Choose number of points to bet.</font><div class='respPicDiv'><img src='img/responseButtonOffersNo0L.png' class='respPic'></div></div>","2","15","Limin' Large","Fruit/lime.png","Won","0.35,0.8","9","0.35","253","44","",""
"html-keyboard-response","140","314675","0.0-11.0-2.43","60ff5fb6cbf1bb7de9bf2801","bdp_rwlrn","Tue Mar 14 2023 21:17:11 GMT-0400 (Eastern Daylight Time)","531780","Trustworthy,Untrustworthy","","null","","","","decisionFB","","<div class='trialDiv'><img src='Fruit/lime.png'><br><font class='baseline'><strong>Limin' Large</strong><p>Choose number of points to bet.</font><div class='respPicDiv'><img src='img/responseButtonOffersNo0L2.png' class='respPic'></div></div>","null","15","Limin' Large","Fruit/lime.png","Won","0.35,0.8","9","0.35","251","44","",""
"html-keyboard-response","141","315683","0.0-11.0-3.43","60ff5fb6cbf1bb7de9bf2801","bdp_rwlrn","Tue Mar 14 2023 21:17:11 GMT-0400 (Eastern Daylight Time)","531780","Trustworthy,Untrustworthy","","null","","","","feedback","","<div class='respPicDiv'><img src='img/responseButtonOffersNo0_wht.png' class='respPic'></div><div class='trialDiv'><img src='Fruit/lime.png'><br><font class='baseline'><strong>Limin' Large</strong><p><strong><font class='posOutcome'>You WON</font><p>You bet: 2</strong></font> &nbsp; &nbsp; &nbsp; &nbsp; &nbsp; &nbsp;<font class='posOutcome'>you receive: <strong>4</strong></font></div>","null","15","Limin' Large","Fruit/lime.png","Won","0.35,0.8","9","0.35","255","44","",""
"html-keyboard-response","142","316059","0.0-11.0-1.44","60ff5fb6cbf1bb7de9bf2801","bdp_rwlrn","Tue Mar 14 2023 21:17:11 GMT-0400 (Eastern Daylight Time)","531780","Trustworthy,Untrustworthy","","376","","","","decision","","<div class='trialDiv'><img src='Fruit/watermelon.png'><br><font class='baseline'><strong>Watermelon Win$</strong><p>Choose number of points to bet.</font><div class='respPicDiv'><img src='img/responseButtonOffersNo0L.png' class='respPic'></div></div>","2","15","Watermelon Win$","Fruit/watermelon.png","Won","0.8,0.2","11","0.8","260","45","",""
"html-keyboard-response","143","316315","0.0-11.0-2.44","60ff5fb6cbf1bb7de9bf2801","bdp_rwlrn","Tue Mar 14 2023 21:17:11 GMT-0400 (Eastern Daylight Time)","531780","Trustworthy,Untrustworthy","","null","","","","decisionFB","","<div class='trialDiv'><img src='Fruit/watermelon.png'><br><font class='baseline'><strong>Watermelon Win$</strong><p>Choose number of points to bet.</font><div class='respPicDiv'><img src='img/responseButtonOffersNo0L2.png' class='respPic'></div></div>","null","15","Watermelon Win$","Fruit/watermelon.png","Won","0.8,0.2","11","0.8","258","45","",""
"html-keyboard-response","144","317323","0.0-11.0-3.44","60ff5fb6cbf1bb7de9bf2801","bdp_rwlrn","Tue Mar 14 2023 21:17:11 GMT-0400 (Eastern Daylight Time)","531780","Trustworthy,Untrustworthy","","null","","","","feedback","","<div class='respPicDiv'><img src='img/responseButtonOffersNo0_wht.png' class='respPic'></div><div class='trialDiv'><img src='Fruit/watermelon.png'><br><font class='baseline'><strong>Watermelon Win$</strong><p><strong><font class='posOutcome'>You WON</font><p>You bet: 2</strong></font> &nbsp; &nbsp; &nbsp; &nbsp; &nbsp; &nbsp;<font class='posOutcome'>you receive: <strong>4</strong></font></div>","null","15","Watermelon Win$","Fruit/watermelon.png","Won","0.8,0.2","11","0.8","262","45","",""
"html-keyboard-response","145","317959","0.0-11.0-1.45","60ff5fb6cbf1bb7de9bf2801","bdp_rwlrn","Tue Mar 14 2023 21:17:11 GMT-0400 (Eastern Daylight Time)","531780","Trustworthy,Untrustworthy","","633","","","","decision","","<div class='trialDiv'><img src='Fruit/lime.png'><br><font class='baseline'><strong>Limin' Large</strong><p>Choose number of points to bet.</font><div class='respPicDiv'><img src='img/responseButtonOffersNo0L.png' class='respPic'></div></div>","4","16","Limin' Large","Fruit/lime.png","Won","0.35,0.8","9","0.35","267","46","",""
"html-keyboard-response","146","318219","0.0-11.0-2.45","60ff5fb6cbf1bb7de9bf2801","bdp_rwlrn","Tue Mar 14 2023 21:17:11 GMT-0400 (Eastern Daylight Time)","531780","Trustworthy,Untrustworthy","","null","","","","decisionFB","","<div class='trialDiv'><img src='Fruit/lime.png'><br><font class='baseline'><strong>Limin' Large</strong><p>Choose number of points to bet.</font><div class='respPicDiv'><img src='img/responseButtonOffersNo0L4.png' class='respPic'></div></div>","null","16","Limin' Large","Fruit/lime.png","Won","0.35,0.8","9","0.35","263","46","",""
"html-keyboard-response","147","319227","0.0-11.0-3.45","60ff5fb6cbf1bb7de9bf2801","bdp_rwlrn","Tue Mar 14 2023 21:17:11 GMT-0400 (Eastern Daylight Time)","531780","Trustworthy,Untrustworthy","","null","","","","feedback","","<div class='respPicDiv'><img src='img/responseButtonOffersNo0_wht.png' class='respPic'></div><div class='trialDiv'><img src='Fruit/lime.png'><br><font class='baseline'><strong>Limin' Large</strong><p><strong><font class='posOutcome'>You WON</font><p>You bet: 4</strong></font> &nbsp; &nbsp; &nbsp; &nbsp; &nbsp; &nbsp;<font class='posOutcome'>you receive: <strong>8</strong></font></div>","null","16","Limin' Large","Fruit/lime.png","Won","0.35,0.8","9","0.35","271","46","",""
"html-keyboard-response","148","319772","0.0-11.0-1.46","60ff5fb6cbf1bb7de9bf2801","bdp_rwlrn","Tue Mar 14 2023 21:17:11 GMT-0400 (Eastern Daylight Time)","531780","Trustworthy,Untrustworthy","","543","","","","decision","","<div class='trialDiv'><img src='Fruit/cherrie.png'><br><font class='baseline'><strong>Cherry Chances</strong><p>Choose number of points to bet.</font><div class='respPicDiv'><img src='img/responseButtonOffersNo0L.png' class='respPic'></div></div>","2","16","Cherry Chances","Fruit/cherrie.png","Lost","0.8,0.35","10","0.8","276","47","",""
"html-keyboard-response","149","320027","0.0-11.0-2.46","60ff5fb6cbf1bb7de9bf2801","bdp_rwlrn","Tue Mar 14 2023 21:17:11 GMT-0400 (Eastern Daylight Time)","531780","Trustworthy,Untrustworthy","","null","","","","decisionFB","","<div class='trialDiv'><img src='Fruit/cherrie.png'><br><font class='baseline'><strong>Cherry Chances</strong><p>Choose number of points to bet.</font><div class='respPicDiv'><img src='img/responseButtonOffersNo0L2.png' class='respPic'></div></div>","null","16","Cherry Chances","Fruit/cherrie.png","Lost","0.8,0.35","10","0.8","274","47","",""
"html-keyboard-response","150","321035","0.0-11.0-3.46","60ff5fb6cbf1bb7de9bf2801","bdp_rwlrn","Tue Mar 14 2023 21:17:11 GMT-0400 (Eastern Daylight Time)","531780","Trustworthy,Untrustworthy","","null","","","","feedback","","<div class='respPicDiv'><img src='img/responseButtonOffersNo0_wht.png' class='respPic'></div><div class='trialDiv'><img src='Fruit/cherrie.png'><br><font class='baseline'><strong>Cherry Chances</strong><p><strong><font class='negOutcome'>You LOST</font><p>You bet: 2</strong></font> &nbsp; &nbsp; &nbsp; &nbsp; &nbsp; &nbsp;<font class='negOutcome'>You receive: <strong>0</strong></font></div>","null","16","Cherry Chances","Fruit/cherrie.png","Lost","0.8,0.35","10","0.8","274","47","",""
"html-keyboard-response","151","321224","0.0-11.0-1.47","60ff5fb6cbf1bb7de9bf2801","bdp_rwlrn","Tue Mar 14 2023 21:17:11 GMT-0400 (Eastern Daylight Time)","531780","Trustworthy,Untrustworthy","","186","","","","decision","","<div class='trialDiv'><img src='Fruit/watermelon.png'><br><font class='baseline'><strong>Watermelon Win$</strong><p>Choose number of points to bet.</font><div class='respPicDiv'><img src='img/responseButtonOffersNo0L.png' class='respPic'></div></div>","3","16","Watermelon Win$","Fruit/watermelon.png","Lost","0.8,0.2","11","0.8","279","48","",""
"html-keyboard-response","152","321483","0.0-11.0-2.47","60ff5fb6cbf1bb7de9bf2801","bdp_rwlrn","Tue Mar 14 2023 21:17:11 GMT-0400 (Eastern Daylight Time)","531780","Trustworthy,Untrustworthy","","null","","","","decisionFB","","<div class='trialDiv'><img src='Fruit/watermelon.png'><br><font class='baseline'><strong>Watermelon Win$</strong><p>Choose number of points to bet.</font><div class='respPicDiv'><img src='img/responseButtonOffersNo0L3.png' class='respPic'></div></div>","null","16","Watermelon Win$","Fruit/watermelon.png","Lost","0.8,0.2","11","0.8","276","48","",""
"html-keyboard-response","153","322491","0.0-11.0-3.47","60ff5fb6cbf1bb7de9bf2801","bdp_rwlrn","Tue Mar 14 2023 21:17:11 GMT-0400 (Eastern Daylight Time)","531780","Trustworthy,Untrustworthy","","null","","","","feedback","","<div class='respPicDiv'><img src='img/responseButtonOffersNo0_wht.png' class='respPic'></div><div class='trialDiv'><img src='Fruit/watermelon.png'><br><font class='baseline'><strong>Watermelon Win$</strong><p><strong><font class='negOutcome'>You LOST</font><p>You bet: 3</strong></font> &nbsp; &nbsp; &nbsp; &nbsp; &nbsp; &nbsp;<font class='negOutcome'>You receive: <strong>0</strong></font></div>","null","16","Watermelon Win$","Fruit/watermelon.png","Lost","0.8,0.2","11","0.8","276","48","",""
"html-keyboard-response","154","323337","0.0-11.0-1.48","60ff5fb6cbf1bb7de9bf2801","bdp_rwlrn","Tue Mar 14 2023 21:17:11 GMT-0400 (Eastern Daylight Time)","531780","Trustworthy,Untrustworthy","","843","","","","decision","","<div class='trialDiv'><img src='Fruit/lime.png'><br><font class='baseline'><strong>Limin' Large</strong><p>Choose number of points to bet.</font><div class='respPicDiv'><img src='img/responseButtonOffersNo0L.png' class='respPic'></div></div>","1","17","Limin' Large","Fruit/lime.png","Won","0.35,0.8","9","0.35","281","49","",""
"html-keyboard-response","155","323595","0.0-11.0-2.48","60ff5fb6cbf1bb7de9bf2801","bdp_rwlrn","Tue Mar 14 2023 21:17:11 GMT-0400 (Eastern Daylight Time)","531780","Trustworthy,Untrustworthy","","null","","","","decisionFB","","<div class='trialDiv'><img src='Fruit/lime.png'><br><font class='baseline'><strong>Limin' Large</strong><p>Choose number of points to bet.</font><div class='respPicDiv'><img src='img/responseButtonOffersNo0L1.png' class='respPic'></div></div>","null","17","Limin' Large","Fruit/lime.png","Won","0.35,0.8","9","0.35","280","49","",""
"html-keyboard-response","156","324603","0.0-11.0-3.48","60ff5fb6cbf1bb7de9bf2801","bdp_rwlrn","Tue Mar 14 2023 21:17:11 GMT-0400 (Eastern Daylight Time)","531780","Trustworthy,Untrustworthy","","null","","","","feedback","","<div class='respPicDiv'><img src='img/responseButtonOffersNo0_wht.png' class='respPic'></div><div class='trialDiv'><img src='Fruit/lime.png'><br><font class='baseline'><strong>Limin' Large</strong><p><strong><font class='posOutcome'>You WON</font><p>You bet: 1</strong></font> &nbsp; &nbsp; &nbsp; &nbsp; &nbsp; &nbsp;<font class='posOutcome'>you receive: <strong>2</strong></font></div>","null","17","Limin' Large","Fruit/lime.png","Won","0.35,0.8","9","0.35","282","49","",""
"html-keyboard-response","157","325327","0.0-11.0-1.49","60ff5fb6cbf1bb7de9bf2801","bdp_rwlrn","Tue Mar 14 2023 21:17:11 GMT-0400 (Eastern Daylight Time)","531780","Trustworthy,Untrustworthy","","721","","","","decision","","<div class='trialDiv'><img src='Fruit/cherrie.png'><br><font class='baseline'><strong>Cherry Chances</strong><p>Choose number of points to bet.</font><div class='respPicDiv'><img src='img/responseButtonOffersNo0L.png' class='respPic'></div></div>","1","17","Cherry Chances","Fruit/cherrie.png","Lost","0.8,0.35","10","0.8","287","50","",""
"html-keyboard-response","158","325579","0.0-11.0-2.49","60ff5fb6cbf1bb7de9bf2801","bdp_rwlrn","Tue Mar 14 2023 21:17:11 GMT-0400 (Eastern Daylight Time)","531780","Trustworthy,Untrustworthy","","null","","","","decisionFB","","<div class='trialDiv'><img src='Fruit/cherrie.png'><br><font class='baseline'><strong>Cherry Chances</strong><p>Choose number of points to bet.</font><div class='respPicDiv'><img src='img/responseButtonOffersNo0L1.png' class='respPic'></div></div>","null","17","Cherry Chances","Fruit/cherrie.png","Lost","0.8,0.35","10","0.8","286","50","",""
"html-keyboard-response","159","326587","0.0-11.0-3.49","60ff5fb6cbf1bb7de9bf2801","bdp_rwlrn","Tue Mar 14 2023 21:17:11 GMT-0400 (Eastern Daylight Time)","531780","Trustworthy,Untrustworthy","","null","","","","feedback","","<div class='respPicDiv'><img src='img/responseButtonOffersNo0_wht.png' class='respPic'></div><div class='trialDiv'><img src='Fruit/cherrie.png'><br><font class='baseline'><strong>Cherry Chances</strong><p><strong><font class='negOutcome'>You LOST</font><p>You bet: 1</strong></font> &nbsp; &nbsp; &nbsp; &nbsp; &nbsp; &nbsp;<font class='negOutcome'>You receive: <strong>0</strong></font></div>","null","17","Cherry Chances","Fruit/cherrie.png","Lost","0.8,0.35","10","0.8","286","50","",""
"html-keyboard-response","160","326853","0.0-11.0-1.50","60ff5fb6cbf1bb7de9bf2801","bdp_rwlrn","Tue Mar 14 2023 21:17:11 GMT-0400 (Eastern Daylight Time)","531780","Trustworthy,Untrustworthy","","263","","","","decision","","<div class='trialDiv'><img src='Fruit/watermelon.png'><br><font class='baseline'><strong>Watermelon Win$</strong><p>Choose number of points to bet.</font><div class='respPicDiv'><img src='img/responseButtonOffersNo0L.png' class='respPic'></div></div>","2","17","Watermelon Win$","Fruit/watermelon.png","Lost","0.8,0.2","11","0.8","291","51","",""
"html-keyboard-response","161","327107","0.0-11.0-2.50","60ff5fb6cbf1bb7de9bf2801","bdp_rwlrn","Tue Mar 14 2023 21:17:11 GMT-0400 (Eastern Daylight Time)","531780","Trustworthy,Untrustworthy","","null","","","","decisionFB","","<div class='trialDiv'><img src='Fruit/watermelon.png'><br><font class='baseline'><strong>Watermelon Win$</strong><p>Choose number of points to bet.</font><div class='respPicDiv'><img src='img/responseButtonOffersNo0L2.png' class='respPic'></div></div>","null","17","Watermelon Win$","Fruit/watermelon.png","Lost","0.8,0.2","11","0.8","289","51","",""
"html-keyboard-response","162","328115","0.0-11.0-3.50","60ff5fb6cbf1bb7de9bf2801","bdp_rwlrn","Tue Mar 14 2023 21:17:11 GMT-0400 (Eastern Daylight Time)","531780","Trustworthy,Untrustworthy","","null","","","","feedback","","<div class='respPicDiv'><img src='img/responseButtonOffersNo0_wht.png' class='respPic'></div><div class='trialDiv'><img src='Fruit/watermelon.png'><br><font class='baseline'><strong>Watermelon Win$</strong><p><strong><font class='negOutcome'>You LOST</font><p>You bet: 2</strong></font> &nbsp; &nbsp; &nbsp; &nbsp; &nbsp; &nbsp;<font class='negOutcome'>You receive: <strong>0</strong></font></div>","null","17","Watermelon Win$","Fruit/watermelon.png","Lost","0.8,0.2","11","0.8","289","51","",""
