"trial_type","trial_index","time_elapsed","internal_node_id","subject_id","task","startTime","totalTime","labels","view_history","rt","event","trial","time","trialtype","success","stimulus","key_press","ltround","name","fileID","outcome","lottotype","lottoswpt","lottocurrpshare","point_total","round","faceID","face"
"pavlovia","0","6","0.0-0.0","5fb3d39a2ceaab00087faddb","bdp_rwlrn","Wed Mar 15 2023 14:07:20 GMT-0500 (Central Daylight Time)","386115","Trustworthy,Untrustworthy","","","","","","","","","","","","","","","","","","","",""
"instructions","1","4548","0.0-1.0","5fb3d39a2ceaab00087faddb","bdp_rwlrn","Wed Mar 15 2023 14:07:20 GMT-0500 (Central Daylight Time)","386115","Trustworthy,Untrustworthy","[{""page_index"":0,""viewing_time"":4541}]","4541","","","","","","","","","","","","","","","","","",""
"","","","","5fb3d39a2ceaab00087faddb","bdp_rwlrn","Wed Mar 15 2023 14:07:20 GMT-0500 (Central Daylight Time)","386115","Trustworthy,Untrustworthy","","","fullscreenenter","2","6832","fullscreenenter","","","","","","","","","","","","","",""
"fullscreen","2","7800","0.0-2.0","5fb3d39a2ceaab00087faddb","bdp_rwlrn","Wed Mar 15 2023 14:07:20 GMT-0500 (Central Daylight Time)","386115","Trustworthy,Untrustworthy","","","","","","","true","","","","","","","","","","","","",""
"instructions","3","69163","0.0-4.0","5fb3d39a2ceaab00087faddb","bdp_rwlrn","Wed Mar 15 2023 14:07:20 GMT-0500 (Central Daylight Time)","386115","Trustworthy,Untrustworthy","[{""page_index"":0,""viewing_time"":6175},{""page_index"":1,""viewing_time"":12944},{""page_index"":2,""viewing_time"":7990},{""page_index"":3,""viewing_time"":11435},{""page_index"":4,""viewing_time"":16969},{""page_index"":5,""viewing_time"":5847}]","61360","","","","","","","","","","","","","","","","","",""
"html-keyboard-response","4","73244","0.0-5.0","5fb3d39a2ceaab00087faddb","bdp_rwlrn","Wed Mar 15 2023 14:07:20 GMT-0500 (Central Daylight Time)","386115","Trustworthy,Untrustworthy","","4077","","","","","","<div class='header' style='text-align:left; position: absolute; top: 5%; left: 5%;'><small>Task 1 of 5</small></div><div class='instruxDiv'><p><strong>1) What is the maximum number of points you can choose to bet on a lottery?</strong></p><p>a) 0</p><p>b) 1</p><p>c) 5</p>","C","","","","","","","","","","",""
"html-keyboard-response","5","76347","0.0-6.0","5fb3d39a2ceaab00087faddb","bdp_rwlrn","Wed Mar 15 2023 14:07:20 GMT-0500 (Central Daylight Time)","386115","Trustworthy,Untrustworthy","","2990","","","","","","<div class='header' style='text-align:left; position: absolute; top: 5%; left: 5%;'><small>Task 1 of 5</small></div><div class='instruxDiv'><p><strong>1) What is the maximum number of points you can choose to bet on a lottery?</strong></p><p>a) 1</p><p>b) 1</p><p style='color:#00FF00'>c) 5</p><h3 style='color:#00FF00'>Correct!</h3><h3 class='center-content'>The correct response is c).</h3><h3 class='center-content'>The maximum number of points you can choose to bet on a lottery is 5 points.</h3><p><em>Press SPACEBAR to continue</em></p></div>"," ","","","","","","","","","","",""
"html-keyboard-response","6","80165","0.0-7.0","5fb3d39a2ceaab00087faddb","bdp_rwlrn","Wed Mar 15 2023 14:07:20 GMT-0500 (Central Daylight Time)","386115","Trustworthy,Untrustworthy","","3716","","","","","","<div class='header' style='text-align:left; position: absolute; top: 5%; left: 5%;'><small>Task 1 of 5</small></div><div class='instruxDiv'><p><strong>2) How many points can you win each round?</strong></p><p>a) 10 points</p><p>b) Double what you bet</p><p>c) Quadruple what you bet</p>","B","","","","","","","","","","",""
"html-keyboard-response","7","81614","0.0-8.0","5fb3d39a2ceaab00087faddb","bdp_rwlrn","Wed Mar 15 2023 14:07:20 GMT-0500 (Central Daylight Time)","386115","Trustworthy,Untrustworthy","","1345","","","","","","<div class='header' style='text-align:left; position: absolute; top: 5%; left: 5%;'><small>Task 1 of 5</small></div><div class='instruxDiv'><p><strong>2) How many points can you win each round?</strong></p><p>a) 10 points</p><p style='color:#00FF00'>b) Double what you bet</p><p>c) Quadruple what you bet</p><h3 style='color:#00FF00'>Correct!</h3><h3 class='center-content'>The correct response is b).</h3><h3 class='center-content'>You can win double the amount of points you bet.</h3><p><em>Press SPACEBAR to continue</em></p></div>"," ","","","","","","","","","","",""
"html-keyboard-response","8","86722","0.0-9.0","5fb3d39a2ceaab00087faddb","bdp_rwlrn","Wed Mar 15 2023 14:07:20 GMT-0500 (Central Daylight Time)","386115","Trustworthy,Untrustworthy","","null","","","","","","<div class='header' style='text-align:left; position: absolute; top: 5%; left: 5%;'><small>Task 1 of 5</small></div><div class='instruxDiv'><p>Thank you for completing the quiz<p>These are the actual lotteries you will be playing in the next block:<p><div class='tc' align='center'><img class='introPic' src='Fruit/plums1.png'><br><strong>Plum Powerball</strong></div><div class='bl' align='center'><img class='introPic' src='Fruit/Kiwi.png'><br><strong>Kiwi Kash</strong></div><div class='br' align='center'><img class='introPic' src='Fruit/grapes.png'><br><strong>Great Grapes</strong></div></div><p>Across <strong>66 rounds</strong> you will play each lottery <strong>22 times</strong> (in random order).<p style='align:center; color:white'><font <em>Press SPACEBAR to continue</em></p>","null","","","","","","","","","","",""
"instructions","9","94516","0.0-10.0","5fb3d39a2ceaab00087faddb","bdp_rwlrn","Wed Mar 15 2023 14:07:20 GMT-0500 (Central Daylight Time)","386115","Trustworthy,Untrustworthy","[{""page_index"":0,""viewing_time"":2813},{""page_index"":1,""viewing_time"":4980}]","7793","","","","","","","","","","","","","","","","","",""
"html-keyboard-response","10","98202","0.0-11.0-1.0","5fb3d39a2ceaab00087faddb","bdp_rwlrn","Wed Mar 15 2023 14:07:20 GMT-0500 (Central Daylight Time)","386115","Trustworthy,Untrustworthy","","3580","","","","decision","","<div class='trialDiv'><img src='Fruit/plums1.png'><br><font class='baseline'><strong>Plum Powerball</strong><p>Choose number of points to bet.</font><div class='respPicDiv'><img src='img/responseButtonOffersNo0L.png' class='respPic'></div></div>","3","1","Plum Powerball","Fruit/plums1.png","Won","0.35,0.65","14","0.35","5","1","",""
"html-keyboard-response","11","98461","0.0-11.0-2.0","5fb3d39a2ceaab00087faddb","bdp_rwlrn","Wed Mar 15 2023 14:07:20 GMT-0500 (Central Daylight Time)","386115","Trustworthy,Untrustworthy","","null","","","","decisionFB","","<div class='trialDiv'><img src='Fruit/plums1.png'><br><font class='baseline'><strong>Plum Powerball</strong><p>Choose number of points to bet.</font><div class='respPicDiv'><img src='img/responseButtonOffersNo0L3.png' class='respPic'></div></div>","null","1","Plum Powerball","Fruit/plums1.png","Won","0.35,0.65","14","0.35","2","1","",""
"html-keyboard-response","12","99464","0.0-11.0-3.0","5fb3d39a2ceaab00087faddb","bdp_rwlrn","Wed Mar 15 2023 14:07:20 GMT-0500 (Central Daylight Time)","386115","Trustworthy,Untrustworthy","","null","","","","feedback","","<div class='respPicDiv'><img src='img/responseButtonOffersNo0_wht.png' class='respPic'></div><div class='trialDiv'><img src='Fruit/plums1.png'><br><font class='baseline'><strong>Plum Powerball</strong><p><strong><font class='posOutcome'>You WON</font><p>You bet: 3</strong></font> &nbsp; &nbsp; &nbsp; &nbsp; &nbsp; &nbsp;<font class='posOutcome'>you receive: <strong>6</strong></font></div>","null","1","Plum Powerball","Fruit/plums1.png","Won","0.35,0.65","14","0.35","8","1","",""
"html-keyboard-response","13","100635","0.0-11.0-1.1","5fb3d39a2ceaab00087faddb","bdp_rwlrn","Wed Mar 15 2023 14:07:20 GMT-0500 (Central Daylight Time)","386115","Trustworthy,Untrustworthy","","1170","","","","decision","","<div class='trialDiv'><img src='Fruit/Kiwi.png'><br><font class='baseline'><strong>Kiwi Kash</strong><p>Choose number of points to bet.</font><div class='respPicDiv'><img src='img/responseButtonOffersNo0L.png' class='respPic'></div></div>","3","1","Kiwi Kash","Fruit/Kiwi.png","Won","0.2,0.65","10","0.2","13","2","",""
"html-keyboard-response","14","100901","0.0-11.0-2.1","5fb3d39a2ceaab00087faddb","bdp_rwlrn","Wed Mar 15 2023 14:07:20 GMT-0500 (Central Daylight Time)","386115","Trustworthy,Untrustworthy","","null","","","","decisionFB","","<div class='trialDiv'><img src='Fruit/Kiwi.png'><br><font class='baseline'><strong>Kiwi Kash</strong><p>Choose number of points to bet.</font><div class='respPicDiv'><img src='img/responseButtonOffersNo0L3.png' class='respPic'></div></div>","null","1","Kiwi Kash","Fruit/Kiwi.png","Won","0.2,0.65","10","0.2","10","2","",""
"html-keyboard-response","15","101916","0.0-11.0-3.1","5fb3d39a2ceaab00087faddb","bdp_rwlrn","Wed Mar 15 2023 14:07:20 GMT-0500 (Central Daylight Time)","386115","Trustworthy,Untrustworthy","","null","","","","feedback","","<div class='respPicDiv'><img src='img/responseButtonOffersNo0_wht.png' class='respPic'></div><div class='trialDiv'><img src='Fruit/Kiwi.png'><br><font class='baseline'><strong>Kiwi Kash</strong><p><strong><font class='posOutcome'>You WON</font><p>You bet: 3</strong></font> &nbsp; &nbsp; &nbsp; &nbsp; &nbsp; &nbsp;<font class='posOutcome'>you receive: <strong>6</strong></font></div>","null","1","Kiwi Kash","Fruit/Kiwi.png","Won","0.2,0.65","10","0.2","16","2","",""
"html-keyboard-response","16","102680","0.0-11.0-1.2","5fb3d39a2ceaab00087faddb","bdp_rwlrn","Wed Mar 15 2023 14:07:20 GMT-0500 (Central Daylight Time)","386115","Trustworthy,Untrustworthy","","763","","","","decision","","<div class='trialDiv'><img src='Fruit/grapes.png'><br><font class='baseline'><strong>Great Grapes</strong><p>Choose number of points to bet.</font><div class='respPicDiv'><img src='img/responseButtonOffersNo0L.png' class='respPic'></div></div>","3","1","Great Grapes","Fruit/grapes.png","Won","0.65,0.2","8","0.65","21","3","",""
"html-keyboard-response","17","102947","0.0-11.0-2.2","5fb3d39a2ceaab00087faddb","bdp_rwlrn","Wed Mar 15 2023 14:07:20 GMT-0500 (Central Daylight Time)","386115","Trustworthy,Untrustworthy","","null","","","","decisionFB","","<div class='trialDiv'><img src='Fruit/grapes.png'><br><font class='baseline'><strong>Great Grapes</strong><p>Choose number of points to bet.</font><div class='respPicDiv'><img src='img/responseButtonOffersNo0L3.png' class='respPic'></div></div>","null","1","Great Grapes","Fruit/grapes.png","Won","0.65,0.2","8","0.65","18","3","",""
"html-keyboard-response","18","103952","0.0-11.0-3.2","5fb3d39a2ceaab00087faddb","bdp_rwlrn","Wed Mar 15 2023 14:07:20 GMT-0500 (Central Daylight Time)","386115","Trustworthy,Untrustworthy","","null","","","","feedback","","<div class='respPicDiv'><img src='img/responseButtonOffersNo0_wht.png' class='respPic'></div><div class='trialDiv'><img src='Fruit/grapes.png'><br><font class='baseline'><strong>Great Grapes</strong><p><strong><font class='posOutcome'>You WON</font><p>You bet: 3</strong></font> &nbsp; &nbsp; &nbsp; &nbsp; &nbsp; &nbsp;<font class='posOutcome'>you receive: <strong>6</strong></font></div>","null","1","Great Grapes","Fruit/grapes.png","Won","0.65,0.2","8","0.65","24","3","",""
"html-keyboard-response","19","104636","0.0-11.0-1.3","5fb3d39a2ceaab00087faddb","bdp_rwlrn","Wed Mar 15 2023 14:07:20 GMT-0500 (Central Daylight Time)","386115","Trustworthy,Untrustworthy","","683","","","","decision","","<div class='trialDiv'><img src='Fruit/plums1.png'><br><font class='baseline'><strong>Plum Powerball</strong><p>Choose number of points to bet.</font><div class='respPicDiv'><img src='img/responseButtonOffersNo0L.png' class='respPic'></div></div>","3","2","Plum Powerball","Fruit/plums1.png","Lost","0.35,0.65","14","0.35","29","4","",""
"html-keyboard-response","20","104902","0.0-11.0-2.3","5fb3d39a2ceaab00087faddb","bdp_rwlrn","Wed Mar 15 2023 14:07:20 GMT-0500 (Central Daylight Time)","386115","Trustworthy,Untrustworthy","","null","","","","decisionFB","","<div class='trialDiv'><img src='Fruit/plums1.png'><br><font class='baseline'><strong>Plum Powerball</strong><p>Choose number of points to bet.</font><div class='respPicDiv'><img src='img/responseButtonOffersNo0L3.png' class='respPic'></div></div>","null","2","Plum Powerball","Fruit/plums1.png","Lost","0.35,0.65","14","0.35","26","4","",""
"html-keyboard-response","21","105917","0.0-11.0-3.3","5fb3d39a2ceaab00087faddb","bdp_rwlrn","Wed Mar 15 2023 14:07:20 GMT-0500 (Central Daylight Time)","386115","Trustworthy,Untrustworthy","","null","","","","feedback","","<div class='respPicDiv'><img src='img/responseButtonOffersNo0_wht.png' class='respPic'></div><div class='trialDiv'><img src='Fruit/plums1.png'><br><font class='baseline'><strong>Plum Powerball</strong><p><strong><font class='negOutcome'>You LOST</font><p>You bet: 3</strong></font> &nbsp; &nbsp; &nbsp; &nbsp; &nbsp; &nbsp;<font class='negOutcome'>You receive: <strong>0</strong></font></div>","null","2","Plum Powerball","Fruit/plums1.png","Lost","0.35,0.65","14","0.35","26","4","",""
"html-keyboard-response","22","107358","0.0-11.0-1.4","5fb3d39a2ceaab00087faddb","bdp_rwlrn","Wed Mar 15 2023 14:07:20 GMT-0500 (Central Daylight Time)","386115","Trustworthy,Untrustworthy","","1440","","","","decision","","<div class='trialDiv'><img src='Fruit/grapes.png'><br><font class='baseline'><strong>Great Grapes</strong><p>Choose number of points to bet.</font><div class='respPicDiv'><img src='img/responseButtonOffersNo0L.png' class='respPic'></div></div>","2","2","Great Grapes","Fruit/grapes.png","Lost","0.65,0.2","8","0.65","31","5","",""
"html-keyboard-response","23","107620","0.0-11.0-2.4","5fb3d39a2ceaab00087faddb","bdp_rwlrn","Wed Mar 15 2023 14:07:20 GMT-0500 (Central Daylight Time)","386115","Trustworthy,Untrustworthy","","null","","","","decisionFB","","<div class='trialDiv'><img src='Fruit/grapes.png'><br><font class='baseline'><strong>Great Grapes</strong><p>Choose number of points to bet.</font><div class='respPicDiv'><img src='img/responseButtonOffersNo0L2.png' class='respPic'></div></div>","null","2","Great Grapes","Fruit/grapes.png","Lost","0.65,0.2","8","0.65","29","5","",""
"html-keyboard-response","24","108635","0.0-11.0-3.4","5fb3d39a2ceaab00087faddb","bdp_rwlrn","Wed Mar 15 2023 14:07:20 GMT-0500 (Central Daylight Time)","386115","Trustworthy,Untrustworthy","","null","","","","feedback","","<div class='respPicDiv'><img src='img/responseButtonOffersNo0_wht.png' class='respPic'></div><div class='trialDiv'><img src='Fruit/grapes.png'><br><font class='baseline'><strong>Great Grapes</strong><p><strong><font class='negOutcome'>You LOST</font><p>You bet: 2</strong></font> &nbsp; &nbsp; &nbsp; &nbsp; &nbsp; &nbsp;<font class='negOutcome'>You receive: <strong>0</strong></font></div>","null","2","Great Grapes","Fruit/grapes.png","Lost","0.65,0.2","8","0.65","29","5","",""
"html-keyboard-response","25","109340","0.0-11.0-1.5","5fb3d39a2ceaab00087faddb","bdp_rwlrn","Wed Mar 15 2023 14:07:20 GMT-0500 (Central Daylight Time)","386115","Trustworthy,Untrustworthy","","704","","","","decision","","<div class='trialDiv'><img src='Fruit/Kiwi.png'><br><font class='baseline'><strong>Kiwi Kash</strong><p>Choose number of points to bet.</font><div class='respPicDiv'><img src='img/responseButtonOffersNo0L.png' class='respPic'></div></div>","3","2","Kiwi Kash","Fruit/Kiwi.png","Lost","0.2,0.65","10","0.2","34","6","",""
"html-keyboard-response","26","109592","0.0-11.0-2.5","5fb3d39a2ceaab00087faddb","bdp_rwlrn","Wed Mar 15 2023 14:07:20 GMT-0500 (Central Daylight Time)","386115","Trustworthy,Untrustworthy","","null","","","","decisionFB","","<div class='trialDiv'><img src='Fruit/Kiwi.png'><br><font class='baseline'><strong>Kiwi Kash</strong><p>Choose number of points to bet.</font><div class='respPicDiv'><img src='img/responseButtonOffersNo0L3.png' class='respPic'></div></div>","null","2","Kiwi Kash","Fruit/Kiwi.png","Lost","0.2,0.65","10","0.2","31","6","",""
"html-keyboard-response","27","110594","0.0-11.0-3.5","5fb3d39a2ceaab00087faddb","bdp_rwlrn","Wed Mar 15 2023 14:07:20 GMT-0500 (Central Daylight Time)","386115","Trustworthy,Untrustworthy","","null","","","","feedback","","<div class='respPicDiv'><img src='img/responseButtonOffersNo0_wht.png' class='respPic'></div><div class='trialDiv'><img src='Fruit/Kiwi.png'><br><font class='baseline'><strong>Kiwi Kash</strong><p><strong><font class='negOutcome'>You LOST</font><p>You bet: 3</strong></font> &nbsp; &nbsp; &nbsp; &nbsp; &nbsp; &nbsp;<font class='negOutcome'>You receive: <strong>0</strong></font></div>","null","2","Kiwi Kash","Fruit/Kiwi.png","Lost","0.2,0.65","10","0.2","31","6","",""
"html-keyboard-response","28","111333","0.0-11.0-1.6","5fb3d39a2ceaab00087faddb","bdp_rwlrn","Wed Mar 15 2023 14:07:20 GMT-0500 (Central Daylight Time)","386115","Trustworthy,Untrustworthy","","738","","","","decision","","<div class='trialDiv'><img src='Fruit/plums1.png'><br><font class='baseline'><strong>Plum Powerball</strong><p>Choose number of points to bet.</font><div class='respPicDiv'><img src='img/responseButtonOffersNo0L.png' class='respPic'></div></div>","4","3","Plum Powerball","Fruit/plums1.png","Lost","0.35,0.65","14","0.35","36","7","",""
"html-keyboard-response","29","111596","0.0-11.0-2.6","5fb3d39a2ceaab00087faddb","bdp_rwlrn","Wed Mar 15 2023 14:07:20 GMT-0500 (Central Daylight Time)","386115","Trustworthy,Untrustworthy","","null","","","","decisionFB","","<div class='trialDiv'><img src='Fruit/plums1.png'><br><font class='baseline'><strong>Plum Powerball</strong><p>Choose number of points to bet.</font><div class='respPicDiv'><img src='img/responseButtonOffersNo0L4.png' class='respPic'></div></div>","null","3","Plum Powerball","Fruit/plums1.png","Lost","0.35,0.65","14","0.35","32","7","",""
"html-keyboard-response","30","112612","0.0-11.0-3.6","5fb3d39a2ceaab00087faddb","bdp_rwlrn","Wed Mar 15 2023 14:07:20 GMT-0500 (Central Daylight Time)","386115","Trustworthy,Untrustworthy","","null","","","","feedback","","<div class='respPicDiv'><img src='img/responseButtonOffersNo0_wht.png' class='respPic'></div><div class='trialDiv'><img src='Fruit/plums1.png'><br><font class='baseline'><strong>Plum Powerball</strong><p><strong><font class='negOutcome'>You LOST</font><p>You bet: 4</strong></font> &nbsp; &nbsp; &nbsp; &nbsp; &nbsp; &nbsp;<font class='negOutcome'>You receive: <strong>0</strong></font></div>","null","3","Plum Powerball","Fruit/plums1.png","Lost","0.35,0.65","14","0.35","32","7","",""
"html-keyboard-response","31","113399","0.0-11.0-1.7","5fb3d39a2ceaab00087faddb","bdp_rwlrn","Wed Mar 15 2023 14:07:20 GMT-0500 (Central Daylight Time)","386115","Trustworthy,Untrustworthy","","786","","","","decision","","<div class='trialDiv'><img src='Fruit/grapes.png'><br><font class='baseline'><strong>Great Grapes</strong><p>Choose number of points to bet.</font><div class='respPicDiv'><img src='img/responseButtonOffersNo0L.png' class='respPic'></div></div>","1","3","Great Grapes","Fruit/grapes.png","Won","0.65,0.2","8","0.65","37","8","",""
"html-keyboard-response","32","113666","0.0-11.0-2.7","5fb3d39a2ceaab00087faddb","bdp_rwlrn","Wed Mar 15 2023 14:07:20 GMT-0500 (Central Daylight Time)","386115","Trustworthy,Untrustworthy","","null","","","","decisionFB","","<div class='trialDiv'><img src='Fruit/grapes.png'><br><font class='baseline'><strong>Great Grapes</strong><p>Choose number of points to bet.</font><div class='respPicDiv'><img src='img/responseButtonOffersNo0L1.png' class='respPic'></div></div>","null","3","Great Grapes","Fruit/grapes.png","Won","0.65,0.2","8","0.65","36","8","",""
"html-keyboard-response","33","114677","0.0-11.0-3.7","5fb3d39a2ceaab00087faddb","bdp_rwlrn","Wed Mar 15 2023 14:07:20 GMT-0500 (Central Daylight Time)","386115","Trustworthy,Untrustworthy","","null","","","","feedback","","<div class='respPicDiv'><img src='img/responseButtonOffersNo0_wht.png' class='respPic'></div><div class='trialDiv'><img src='Fruit/grapes.png'><br><font class='baseline'><strong>Great Grapes</strong><p><strong><font class='posOutcome'>You WON</font><p>You bet: 1</strong></font> &nbsp; &nbsp; &nbsp; &nbsp; &nbsp; &nbsp;<font class='posOutcome'>you receive: <strong>2</strong></font></div>","null","3","Great Grapes","Fruit/grapes.png","Won","0.65,0.2","8","0.65","38","8","",""
"html-keyboard-response","34","115478","0.0-11.0-1.8","5fb3d39a2ceaab00087faddb","bdp_rwlrn","Wed Mar 15 2023 14:07:20 GMT-0500 (Central Daylight Time)","386115","Trustworthy,Untrustworthy","","801","","","","decision","","<div class='trialDiv'><img src='Fruit/Kiwi.png'><br><font class='baseline'><strong>Kiwi Kash</strong><p>Choose number of points to bet.</font><div class='respPicDiv'><img src='img/responseButtonOffersNo0L.png' class='respPic'></div></div>","5","3","Kiwi Kash","Fruit/Kiwi.png","Won","0.2,0.65","10","0.2","43","9","",""
"html-keyboard-response","35","115739","0.0-11.0-2.8","5fb3d39a2ceaab00087faddb","bdp_rwlrn","Wed Mar 15 2023 14:07:20 GMT-0500 (Central Daylight Time)","386115","Trustworthy,Untrustworthy","","null","","","","decisionFB","","<div class='trialDiv'><img src='Fruit/Kiwi.png'><br><font class='baseline'><strong>Kiwi Kash</strong><p>Choose number of points to bet.</font><div class='respPicDiv'><img src='img/responseButtonOffersNo0L5.png' class='respPic'></div></div>","null","3","Kiwi Kash","Fruit/Kiwi.png","Won","0.2,0.65","10","0.2","38","9","",""
"html-keyboard-response","36","116754","0.0-11.0-3.8","5fb3d39a2ceaab00087faddb","bdp_rwlrn","Wed Mar 15 2023 14:07:20 GMT-0500 (Central Daylight Time)","386115","Trustworthy,Untrustworthy","","null","","","","feedback","","<div class='respPicDiv'><img src='img/responseButtonOffersNo0_wht.png' class='respPic'></div><div class='trialDiv'><img src='Fruit/Kiwi.png'><br><font class='baseline'><strong>Kiwi Kash</strong><p><strong><font class='posOutcome'>You WON</font><p>You bet: 5</strong></font> &nbsp; &nbsp; &nbsp; &nbsp; &nbsp; &nbsp;<font class='posOutcome'>you receive: <strong>10</strong></font></div>","null","3","Kiwi Kash","Fruit/Kiwi.png","Won","0.2,0.65","10","0.2","48","9","",""
"html-keyboard-response","37","118708","0.0-11.0-1.9","5fb3d39a2ceaab00087faddb","bdp_rwlrn","Wed Mar 15 2023 14:07:20 GMT-0500 (Central Daylight Time)","386115","Trustworthy,Untrustworthy","","1954","","","","decision","","<div class='trialDiv'><img src='Fruit/plums1.png'><br><font class='baseline'><strong>Plum Powerball</strong><p>Choose number of points to bet.</font><div class='respPicDiv'><img src='img/responseButtonOffersNo0L.png' class='respPic'></div></div>","5","4","Plum Powerball","Fruit/plums1.png","Won","0.35,0.65","14","0.35","53","10","",""
"html-keyboard-response","38","118967","0.0-11.0-2.9","5fb3d39a2ceaab00087faddb","bdp_rwlrn","Wed Mar 15 2023 14:07:20 GMT-0500 (Central Daylight Time)","386115","Trustworthy,Untrustworthy","","null","","","","decisionFB","","<div class='trialDiv'><img src='Fruit/plums1.png'><br><font class='baseline'><strong>Plum Powerball</strong><p>Choose number of points to bet.</font><div class='respPicDiv'><img src='img/responseButtonOffersNo0L5.png' class='respPic'></div></div>","null","4","Plum Powerball","Fruit/plums1.png","Won","0.35,0.65","14","0.35","48","10","",""
"html-keyboard-response","39","119981","0.0-11.0-3.9","5fb3d39a2ceaab00087faddb","bdp_rwlrn","Wed Mar 15 2023 14:07:20 GMT-0500 (Central Daylight Time)","386115","Trustworthy,Untrustworthy","","null","","","","feedback","","<div class='respPicDiv'><img src='img/responseButtonOffersNo0_wht.png' class='respPic'></div><div class='trialDiv'><img src='Fruit/plums1.png'><br><font class='baseline'><strong>Plum Powerball</strong><p><strong><font class='posOutcome'>You WON</font><p>You bet: 5</strong></font> &nbsp; &nbsp; &nbsp; &nbsp; &nbsp; &nbsp;<font class='posOutcome'>you receive: <strong>10</strong></font></div>","null","4","Plum Powerball","Fruit/plums1.png","Won","0.35,0.65","14","0.35","58","10","",""
"html-keyboard-response","40","121585","0.0-11.0-1.10","5fb3d39a2ceaab00087faddb","bdp_rwlrn","Wed Mar 15 2023 14:07:20 GMT-0500 (Central Daylight Time)","386115","Trustworthy,Untrustworthy","","1603","","","","decision","","<div class='trialDiv'><img src='Fruit/Kiwi.png'><br><font class='baseline'><strong>Kiwi Kash</strong><p>Choose number of points to bet.</font><div class='respPicDiv'><img src='img/responseButtonOffersNo0L.png' class='respPic'></div></div>","5","4","Kiwi Kash","Fruit/Kiwi.png","Lost","0.2,0.65","10","0.2","63","11","",""
"html-keyboard-response","41","121846","0.0-11.0-2.10","5fb3d39a2ceaab00087faddb","bdp_rwlrn","Wed Mar 15 2023 14:07:20 GMT-0500 (Central Daylight Time)","386115","Trustworthy,Untrustworthy","","null","","","","decisionFB","","<div class='trialDiv'><img src='Fruit/Kiwi.png'><br><font class='baseline'><strong>Kiwi Kash</strong><p>Choose number of points to bet.</font><div class='respPicDiv'><img src='img/responseButtonOffersNo0L5.png' class='respPic'></div></div>","null","4","Kiwi Kash","Fruit/Kiwi.png","Lost","0.2,0.65","10","0.2","58","11","",""
"html-keyboard-response","42","122861","0.0-11.0-3.10","5fb3d39a2ceaab00087faddb","bdp_rwlrn","Wed Mar 15 2023 14:07:20 GMT-0500 (Central Daylight Time)","386115","Trustworthy,Untrustworthy","","null","","","","feedback","","<div class='respPicDiv'><img src='img/responseButtonOffersNo0_wht.png' class='respPic'></div><div class='trialDiv'><img src='Fruit/Kiwi.png'><br><font class='baseline'><strong>Kiwi Kash</strong><p><strong><font class='negOutcome'>You LOST</font><p>You bet: 5</strong></font> &nbsp; &nbsp; &nbsp; &nbsp; &nbsp; &nbsp;<font class='negOutcome'>You receive: <strong>0</strong></font></div>","null","4","Kiwi Kash","Fruit/Kiwi.png","Lost","0.2,0.65","10","0.2","58","11","",""
"html-keyboard-response","43","124025","0.0-11.0-1.11","5fb3d39a2ceaab00087faddb","bdp_rwlrn","Wed Mar 15 2023 14:07:20 GMT-0500 (Central Daylight Time)","386115","Trustworthy,Untrustworthy","","1163","","","","decision","","<div class='trialDiv'><img src='Fruit/grapes.png'><br><font class='baseline'><strong>Great Grapes</strong><p>Choose number of points to bet.</font><div class='respPicDiv'><img src='img/responseButtonOffersNo0L.png' class='respPic'></div></div>","1","4","Great Grapes","Fruit/grapes.png","Lost","0.65,0.2","8","0.65","63","12","",""
"html-keyboard-response","44","124281","0.0-11.0-2.11","5fb3d39a2ceaab00087faddb","bdp_rwlrn","Wed Mar 15 2023 14:07:20 GMT-0500 (Central Daylight Time)","386115","Trustworthy,Untrustworthy","","null","","","","decisionFB","","<div class='trialDiv'><img src='Fruit/grapes.png'><br><font class='baseline'><strong>Great Grapes</strong><p>Choose number of points to bet.</font><div class='respPicDiv'><img src='img/responseButtonOffersNo0L1.png' class='respPic'></div></div>","null","4","Great Grapes","Fruit/grapes.png","Lost","0.65,0.2","8","0.65","62","12","",""
"html-keyboard-response","45","125295","0.0-11.0-3.11","5fb3d39a2ceaab00087faddb","bdp_rwlrn","Wed Mar 15 2023 14:07:20 GMT-0500 (Central Daylight Time)","386115","Trustworthy,Untrustworthy","","null","","","","feedback","","<div class='respPicDiv'><img src='img/responseButtonOffersNo0_wht.png' class='respPic'></div><div class='trialDiv'><img src='Fruit/grapes.png'><br><font class='baseline'><strong>Great Grapes</strong><p><strong><font class='negOutcome'>You LOST</font><p>You bet: 1</strong></font> &nbsp; &nbsp; &nbsp; &nbsp; &nbsp; &nbsp;<font class='negOutcome'>You receive: <strong>0</strong></font></div>","null","4","Great Grapes","Fruit/grapes.png","Lost","0.65,0.2","8","0.65","62","12","",""
"html-keyboard-response","46","126152","0.0-11.0-1.12","5fb3d39a2ceaab00087faddb","bdp_rwlrn","Wed Mar 15 2023 14:07:20 GMT-0500 (Central Daylight Time)","386115","Trustworthy,Untrustworthy","","855","","","","decision","","<div class='trialDiv'><img src='Fruit/plums1.png'><br><font class='baseline'><strong>Plum Powerball</strong><p>Choose number of points to bet.</font><div class='respPicDiv'><img src='img/responseButtonOffersNo0L.png' class='respPic'></div></div>","3","5","Plum Powerball","Fruit/plums1.png","Won","0.35,0.65","14","0.35","67","13","",""
"html-keyboard-response","47","126404","0.0-11.0-2.12","5fb3d39a2ceaab00087faddb","bdp_rwlrn","Wed Mar 15 2023 14:07:20 GMT-0500 (Central Daylight Time)","386115","Trustworthy,Untrustworthy","","null","","","","decisionFB","","<div class='trialDiv'><img src='Fruit/plums1.png'><br><font class='baseline'><strong>Plum Powerball</strong><p>Choose number of points to bet.</font><div class='respPicDiv'><img src='img/responseButtonOffersNo0L3.png' class='respPic'></div></div>","null","5","Plum Powerball","Fruit/plums1.png","Won","0.35,0.65","14","0.35","64","13","",""
"html-keyboard-response","48","127420","0.0-11.0-3.12","5fb3d39a2ceaab00087faddb","bdp_rwlrn","Wed Mar 15 2023 14:07:20 GMT-0500 (Central Daylight Time)","386115","Trustworthy,Untrustworthy","","null","","","","feedback","","<div class='respPicDiv'><img src='img/responseButtonOffersNo0_wht.png' class='respPic'></div><div class='trialDiv'><img src='Fruit/plums1.png'><br><font class='baseline'><strong>Plum Powerball</strong><p><strong><font class='posOutcome'>You WON</font><p>You bet: 3</strong></font> &nbsp; &nbsp; &nbsp; &nbsp; &nbsp; &nbsp;<font class='posOutcome'>you receive: <strong>6</strong></font></div>","null","5","Plum Powerball","Fruit/plums1.png","Won","0.35,0.65","14","0.35","70","13","",""
"html-keyboard-response","49","129351","0.0-11.0-1.13","5fb3d39a2ceaab00087faddb","bdp_rwlrn","Wed Mar 15 2023 14:07:20 GMT-0500 (Central Daylight Time)","386115","Trustworthy,Untrustworthy","","1929","","","","decision","","<div class='trialDiv'><img src='Fruit/Kiwi.png'><br><font class='baseline'><strong>Kiwi Kash</strong><p>Choose number of points to bet.</font><div class='respPicDiv'><img src='img/responseButtonOffersNo0L.png' class='respPic'></div></div>","4","5","Kiwi Kash","Fruit/Kiwi.png","Lost","0.2,0.65","10","0.2","75","14","",""
"html-keyboard-response","50","129610","0.0-11.0-2.13","5fb3d39a2ceaab00087faddb","bdp_rwlrn","Wed Mar 15 2023 14:07:20 GMT-0500 (Central Daylight Time)","386115","Trustworthy,Untrustworthy","","null","","","","decisionFB","","<div class='trialDiv'><img src='Fruit/Kiwi.png'><br><font class='baseline'><strong>Kiwi Kash</strong><p>Choose number of points to bet.</font><div class='respPicDiv'><img src='img/responseButtonOffersNo0L4.png' class='respPic'></div></div>","null","5","Kiwi Kash","Fruit/Kiwi.png","Lost","0.2,0.65","10","0.2","71","14","",""
"html-keyboard-response","51","130626","0.0-11.0-3.13","5fb3d39a2ceaab00087faddb","bdp_rwlrn","Wed Mar 15 2023 14:07:20 GMT-0500 (Central Daylight Time)","386115","Trustworthy,Untrustworthy","","null","","","","feedback","","<div class='respPicDiv'><img src='img/responseButtonOffersNo0_wht.png' class='respPic'></div><div class='trialDiv'><img src='Fruit/Kiwi.png'><br><font class='baseline'><strong>Kiwi Kash</strong><p><strong><font class='negOutcome'>You LOST</font><p>You bet: 4</strong></font> &nbsp; &nbsp; &nbsp; &nbsp; &nbsp; &nbsp;<font class='negOutcome'>You receive: <strong>0</strong></font></div>","null","5","Kiwi Kash","Fruit/Kiwi.png","Lost","0.2,0.65","10","0.2","71","14","",""
"html-keyboard-response","52","131693","0.0-11.0-1.14","5fb3d39a2ceaab00087faddb","bdp_rwlrn","Wed Mar 15 2023 14:07:20 GMT-0500 (Central Daylight Time)","386115","Trustworthy,Untrustworthy","","1064","","","","decision","","<div class='trialDiv'><img src='Fruit/grapes.png'><br><font class='baseline'><strong>Great Grapes</strong><p>Choose number of points to bet.</font><div class='respPicDiv'><img src='img/responseButtonOffersNo0L.png' class='respPic'></div></div>","1","5","Great Grapes","Fruit/grapes.png","Lost","0.65,0.2","8","0.65","76","15","",""
"html-keyboard-response","53","131951","0.0-11.0-2.14","5fb3d39a2ceaab00087faddb","bdp_rwlrn","Wed Mar 15 2023 14:07:20 GMT-0500 (Central Daylight Time)","386115","Trustworthy,Untrustworthy","","null","","","","decisionFB","","<div class='trialDiv'><img src='Fruit/grapes.png'><br><font class='baseline'><strong>Great Grapes</strong><p>Choose number of points to bet.</font><div class='respPicDiv'><img src='img/responseButtonOffersNo0L1.png' class='respPic'></div></div>","null","5","Great Grapes","Fruit/grapes.png","Lost","0.65,0.2","8","0.65","75","15","",""
"html-keyboard-response","54","132966","0.0-11.0-3.14","5fb3d39a2ceaab00087faddb","bdp_rwlrn","Wed Mar 15 2023 14:07:20 GMT-0500 (Central Daylight Time)","386115","Trustworthy,Untrustworthy","","null","","","","feedback","","<div class='respPicDiv'><img src='img/responseButtonOffersNo0_wht.png' class='respPic'></div><div class='trialDiv'><img src='Fruit/grapes.png'><br><font class='baseline'><strong>Great Grapes</strong><p><strong><font class='negOutcome'>You LOST</font><p>You bet: 1</strong></font> &nbsp; &nbsp; &nbsp; &nbsp; &nbsp; &nbsp;<font class='negOutcome'>You receive: <strong>0</strong></font></div>","null","5","Great Grapes","Fruit/grapes.png","Lost","0.65,0.2","8","0.65","75","15","",""
"html-keyboard-response","55","134316","0.0-11.0-1.15","5fb3d39a2ceaab00087faddb","bdp_rwlrn","Wed Mar 15 2023 14:07:20 GMT-0500 (Central Daylight Time)","386115","Trustworthy,Untrustworthy","","1350","","","","decision","","<div class='trialDiv'><img src='Fruit/Kiwi.png'><br><font class='baseline'><strong>Kiwi Kash</strong><p>Choose number of points to bet.</font><div class='respPicDiv'><img src='img/responseButtonOffersNo0L.png' class='respPic'></div></div>","2","6","Kiwi Kash","Fruit/Kiwi.png","Lost","0.2,0.65","10","0.2","80","16","",""
"html-keyboard-response","56","134573","0.0-11.0-2.15","5fb3d39a2ceaab00087faddb","bdp_rwlrn","Wed Mar 15 2023 14:07:20 GMT-0500 (Central Daylight Time)","386115","Trustworthy,Untrustworthy","","null","","","","decisionFB","","<div class='trialDiv'><img src='Fruit/Kiwi.png'><br><font class='baseline'><strong>Kiwi Kash</strong><p>Choose number of points to bet.</font><div class='respPicDiv'><img src='img/responseButtonOffersNo0L2.png' class='respPic'></div></div>","null","6","Kiwi Kash","Fruit/Kiwi.png","Lost","0.2,0.65","10","0.2","78","16","",""
"html-keyboard-response","57","135588","0.0-11.0-3.15","5fb3d39a2ceaab00087faddb","bdp_rwlrn","Wed Mar 15 2023 14:07:20 GMT-0500 (Central Daylight Time)","386115","Trustworthy,Untrustworthy","","null","","","","feedback","","<div class='respPicDiv'><img src='img/responseButtonOffersNo0_wht.png' class='respPic'></div><div class='trialDiv'><img src='Fruit/Kiwi.png'><br><font class='baseline'><strong>Kiwi Kash</strong><p><strong><font class='negOutcome'>You LOST</font><p>You bet: 2</strong></font> &nbsp; &nbsp; &nbsp; &nbsp; &nbsp; &nbsp;<font class='negOutcome'>You receive: <strong>0</strong></font></div>","null","6","Kiwi Kash","Fruit/Kiwi.png","Lost","0.2,0.65","10","0.2","78","16","",""
"html-keyboard-response","58","136674","0.0-11.0-1.16","5fb3d39a2ceaab00087faddb","bdp_rwlrn","Wed Mar 15 2023 14:07:20 GMT-0500 (Central Daylight Time)","386115","Trustworthy,Untrustworthy","","1086","","","","decision","","<div class='trialDiv'><img src='Fruit/plums1.png'><br><font class='baseline'><strong>Plum Powerball</strong><p>Choose number of points to bet.</font><div class='respPicDiv'><img src='img/responseButtonOffersNo0L.png' class='respPic'></div></div>","3","6","Plum Powerball","Fruit/plums1.png","Lost","0.35,0.65","14","0.35","83","17","",""
"html-keyboard-response","59","136929","0.0-11.0-2.16","5fb3d39a2ceaab00087faddb","bdp_rwlrn","Wed Mar 15 2023 14:07:20 GMT-0500 (Central Daylight Time)","386115","Trustworthy,Untrustworthy","","null","","","","decisionFB","","<div class='trialDiv'><img src='Fruit/plums1.png'><br><font class='baseline'><strong>Plum Powerball</strong><p>Choose number of points to bet.</font><div class='respPicDiv'><img src='img/responseButtonOffersNo0L3.png' class='respPic'></div></div>","null","6","Plum Powerball","Fruit/plums1.png","Lost","0.35,0.65","14","0.35","80","17","",""
"html-keyboard-response","60","137945","0.0-11.0-3.16","5fb3d39a2ceaab00087faddb","bdp_rwlrn","Wed Mar 15 2023 14:07:20 GMT-0500 (Central Daylight Time)","386115","Trustworthy,Untrustworthy","","null","","","","feedback","","<div class='respPicDiv'><img src='img/responseButtonOffersNo0_wht.png' class='respPic'></div><div class='trialDiv'><img src='Fruit/plums1.png'><br><font class='baseline'><strong>Plum Powerball</strong><p><strong><font class='negOutcome'>You LOST</font><p>You bet: 3</strong></font> &nbsp; &nbsp; &nbsp; &nbsp; &nbsp; &nbsp;<font class='negOutcome'>You receive: <strong>0</strong></font></div>","null","6","Plum Powerball","Fruit/plums1.png","Lost","0.35,0.65","14","0.35","80","17","",""
"html-keyboard-response","61","139077","0.0-11.0-1.17","5fb3d39a2ceaab00087faddb","bdp_rwlrn","Wed Mar 15 2023 14:07:20 GMT-0500 (Central Daylight Time)","386115","Trustworthy,Untrustworthy","","1132","","","","decision","","<div class='trialDiv'><img src='Fruit/grapes.png'><br><font class='baseline'><strong>Great Grapes</strong><p>Choose number of points to bet.</font><div class='respPicDiv'><img src='img/responseButtonOffersNo0L.png' class='respPic'></div></div>","5","6","Great Grapes","Fruit/grapes.png","Won","0.65,0.2","8","0.65","85","18","",""
"html-keyboard-response","62","139336","0.0-11.0-2.17","5fb3d39a2ceaab00087faddb","bdp_rwlrn","Wed Mar 15 2023 14:07:20 GMT-0500 (Central Daylight Time)","386115","Trustworthy,Untrustworthy","","null","","","","decisionFB","","<div class='trialDiv'><img src='Fruit/grapes.png'><br><font class='baseline'><strong>Great Grapes</strong><p>Choose number of points to bet.</font><div class='respPicDiv'><img src='img/responseButtonOffersNo0L5.png' class='respPic'></div></div>","null","6","Great Grapes","Fruit/grapes.png","Won","0.65,0.2","8","0.65","80","18","",""
"html-keyboard-response","63","140348","0.0-11.0-3.17","5fb3d39a2ceaab00087faddb","bdp_rwlrn","Wed Mar 15 2023 14:07:20 GMT-0500 (Central Daylight Time)","386115","Trustworthy,Untrustworthy","","null","","","","feedback","","<div class='respPicDiv'><img src='img/responseButtonOffersNo0_wht.png' class='respPic'></div><div class='trialDiv'><img src='Fruit/grapes.png'><br><font class='baseline'><strong>Great Grapes</strong><p><strong><font class='posOutcome'>You WON</font><p>You bet: 5</strong></font> &nbsp; &nbsp; &nbsp; &nbsp; &nbsp; &nbsp;<font class='posOutcome'>you receive: <strong>10</strong></font></div>","null","6","Great Grapes","Fruit/grapes.png","Won","0.65,0.2","8","0.65","90","18","",""
"html-keyboard-response","64","141644","0.0-11.0-1.18","5fb3d39a2ceaab00087faddb","bdp_rwlrn","Wed Mar 15 2023 14:07:20 GMT-0500 (Central Daylight Time)","386115","Trustworthy,Untrustworthy","","1295","","","","decision","","<div class='trialDiv'><img src='Fruit/Kiwi.png'><br><font class='baseline'><strong>Kiwi Kash</strong><p>Choose number of points to bet.</font><div class='respPicDiv'><img src='img/responseButtonOffersNo0L.png' class='respPic'></div></div>","5","7","Kiwi Kash","Fruit/Kiwi.png","Lost","0.2,0.65","10","0.2","95","19","",""
"html-keyboard-response","65","141910","0.0-11.0-2.18","5fb3d39a2ceaab00087faddb","bdp_rwlrn","Wed Mar 15 2023 14:07:20 GMT-0500 (Central Daylight Time)","386115","Trustworthy,Untrustworthy","","null","","","","decisionFB","","<div class='trialDiv'><img src='Fruit/Kiwi.png'><br><font class='baseline'><strong>Kiwi Kash</strong><p>Choose number of points to bet.</font><div class='respPicDiv'><img src='img/responseButtonOffersNo0L5.png' class='respPic'></div></div>","null","7","Kiwi Kash","Fruit/Kiwi.png","Lost","0.2,0.65","10","0.2","90","19","",""
"html-keyboard-response","66","142923","0.0-11.0-3.18","5fb3d39a2ceaab00087faddb","bdp_rwlrn","Wed Mar 15 2023 14:07:20 GMT-0500 (Central Daylight Time)","386115","Trustworthy,Untrustworthy","","null","","","","feedback","","<div class='respPicDiv'><img src='img/responseButtonOffersNo0_wht.png' class='respPic'></div><div class='trialDiv'><img src='Fruit/Kiwi.png'><br><font class='baseline'><strong>Kiwi Kash</strong><p><strong><font class='negOutcome'>You LOST</font><p>You bet: 5</strong></font> &nbsp; &nbsp; &nbsp; &nbsp; &nbsp; &nbsp;<font class='negOutcome'>You receive: <strong>0</strong></font></div>","null","7","Kiwi Kash","Fruit/Kiwi.png","Lost","0.2,0.65","10","0.2","90","19","",""
"html-keyboard-response","67","143719","0.0-11.0-1.19","5fb3d39a2ceaab00087faddb","bdp_rwlrn","Wed Mar 15 2023 14:07:20 GMT-0500 (Central Daylight Time)","386115","Trustworthy,Untrustworthy","","793","","","","decision","","<div class='trialDiv'><img src='Fruit/grapes.png'><br><font class='baseline'><strong>Great Grapes</strong><p>Choose number of points to bet.</font><div class='respPicDiv'><img src='img/responseButtonOffersNo0L.png' class='respPic'></div></div>","5","7","Great Grapes","Fruit/grapes.png","Lost","0.65,0.2","8","0.65","95","20","",""
"html-keyboard-response","68","143984","0.0-11.0-2.19","5fb3d39a2ceaab00087faddb","bdp_rwlrn","Wed Mar 15 2023 14:07:20 GMT-0500 (Central Daylight Time)","386115","Trustworthy,Untrustworthy","","null","","","","decisionFB","","<div class='trialDiv'><img src='Fruit/grapes.png'><br><font class='baseline'><strong>Great Grapes</strong><p>Choose number of points to bet.</font><div class='respPicDiv'><img src='img/responseButtonOffersNo0L5.png' class='respPic'></div></div>","null","7","Great Grapes","Fruit/grapes.png","Lost","0.65,0.2","8","0.65","90","20","",""
"html-keyboard-response","69","144995","0.0-11.0-3.19","5fb3d39a2ceaab00087faddb","bdp_rwlrn","Wed Mar 15 2023 14:07:20 GMT-0500 (Central Daylight Time)","386115","Trustworthy,Untrustworthy","","null","","","","feedback","","<div class='respPicDiv'><img src='img/responseButtonOffersNo0_wht.png' class='respPic'></div><div class='trialDiv'><img src='Fruit/grapes.png'><br><font class='baseline'><strong>Great Grapes</strong><p><strong><font class='negOutcome'>You LOST</font><p>You bet: 5</strong></font> &nbsp; &nbsp; &nbsp; &nbsp; &nbsp; &nbsp;<font class='negOutcome'>You receive: <strong>0</strong></font></div>","null","7","Great Grapes","Fruit/grapes.png","Lost","0.65,0.2","8","0.65","90","20","",""
"html-keyboard-response","70","145633","0.0-11.0-1.20","5fb3d39a2ceaab00087faddb","bdp_rwlrn","Wed Mar 15 2023 14:07:20 GMT-0500 (Central Daylight Time)","386115","Trustworthy,Untrustworthy","","637","","","","decision","","<div class='trialDiv'><img src='Fruit/plums1.png'><br><font class='baseline'><strong>Plum Powerball</strong><p>Choose number of points to bet.</font><div class='respPicDiv'><img src='img/responseButtonOffersNo0L.png' class='respPic'></div></div>","4","7","Plum Powerball","Fruit/plums1.png","Lost","0.35,0.65","14","0.35","95","21","",""
"html-keyboard-response","71","145890","0.0-11.0-2.20","5fb3d39a2ceaab00087faddb","bdp_rwlrn","Wed Mar 15 2023 14:07:20 GMT-0500 (Central Daylight Time)","386115","Trustworthy,Untrustworthy","","null","","","","decisionFB","","<div class='trialDiv'><img src='Fruit/plums1.png'><br><font class='baseline'><strong>Plum Powerball</strong><p>Choose number of points to bet.</font><div class='respPicDiv'><img src='img/responseButtonOffersNo0L4.png' class='respPic'></div></div>","null","7","Plum Powerball","Fruit/plums1.png","Lost","0.35,0.65","14","0.35","91","21","",""
"html-keyboard-response","72","146903","0.0-11.0-3.20","5fb3d39a2ceaab00087faddb","bdp_rwlrn","Wed Mar 15 2023 14:07:20 GMT-0500 (Central Daylight Time)","386115","Trustworthy,Untrustworthy","","null","","","","feedback","","<div class='respPicDiv'><img src='img/responseButtonOffersNo0_wht.png' class='respPic'></div><div class='trialDiv'><img src='Fruit/plums1.png'><br><font class='baseline'><strong>Plum Powerball</strong><p><strong><font class='negOutcome'>You LOST</font><p>You bet: 4</strong></font> &nbsp; &nbsp; &nbsp; &nbsp; &nbsp; &nbsp;<font class='negOutcome'>You receive: <strong>0</strong></font></div>","null","7","Plum Powerball","Fruit/plums1.png","Lost","0.35,0.65","14","0.35","91","21","",""
"html-keyboard-response","73","147753","0.0-11.0-1.21","5fb3d39a2ceaab00087faddb","bdp_rwlrn","Wed Mar 15 2023 14:07:20 GMT-0500 (Central Daylight Time)","386115","Trustworthy,Untrustworthy","","848","","","","decision","","<div class='trialDiv'><img src='Fruit/grapes.png'><br><font class='baseline'><strong>Great Grapes</strong><p>Choose number of points to bet.</font><div class='respPicDiv'><img src='img/responseButtonOffersNo0L.png' class='respPic'></div></div>","5","8","Great Grapes","Fruit/grapes.png","Won","0.65,0.2","8","0.65","96","22","",""
"html-keyboard-response","74","148013","0.0-11.0-2.21","5fb3d39a2ceaab00087faddb","bdp_rwlrn","Wed Mar 15 2023 14:07:20 GMT-0500 (Central Daylight Time)","386115","Trustworthy,Untrustworthy","","null","","","","decisionFB","","<div class='trialDiv'><img src='Fruit/grapes.png'><br><font class='baseline'><strong>Great Grapes</strong><p>Choose number of points to bet.</font><div class='respPicDiv'><img src='img/responseButtonOffersNo0L5.png' class='respPic'></div></div>","null","8","Great Grapes","Fruit/grapes.png","Won","0.65,0.2","8","0.65","91","22","",""
"html-keyboard-response","75","149024","0.0-11.0-3.21","5fb3d39a2ceaab00087faddb","bdp_rwlrn","Wed Mar 15 2023 14:07:20 GMT-0500 (Central Daylight Time)","386115","Trustworthy,Untrustworthy","","null","","","","feedback","","<div class='respPicDiv'><img src='img/responseButtonOffersNo0_wht.png' class='respPic'></div><div class='trialDiv'><img src='Fruit/grapes.png'><br><font class='baseline'><strong>Great Grapes</strong><p><strong><font class='posOutcome'>You WON</font><p>You bet: 5</strong></font> &nbsp; &nbsp; &nbsp; &nbsp; &nbsp; &nbsp;<font class='posOutcome'>you receive: <strong>10</strong></font></div>","null","8","Great Grapes","Fruit/grapes.png","Won","0.65,0.2","8","0.65","101","22","",""
"html-keyboard-response","76","150664","0.0-11.0-1.22","5fb3d39a2ceaab00087faddb","bdp_rwlrn","Wed Mar 15 2023 14:07:20 GMT-0500 (Central Daylight Time)","386115","Trustworthy,Untrustworthy","","1639","","","","decision","","<div class='trialDiv'><img src='Fruit/plums1.png'><br><font class='baseline'><strong>Plum Powerball</strong><p>Choose number of points to bet.</font><div class='respPicDiv'><img src='img/responseButtonOffersNo0L.png' class='respPic'></div></div>","3","8","Plum Powerball","Fruit/plums1.png","Won","0.35,0.65","14","0.35","106","23","",""
"html-keyboard-response","77","150925","0.0-11.0-2.22","5fb3d39a2ceaab00087faddb","bdp_rwlrn","Wed Mar 15 2023 14:07:20 GMT-0500 (Central Daylight Time)","386115","Trustworthy,Untrustworthy","","null","","","","decisionFB","","<div class='trialDiv'><img src='Fruit/plums1.png'><br><font class='baseline'><strong>Plum Powerball</strong><p>Choose number of points to bet.</font><div class='respPicDiv'><img src='img/responseButtonOffersNo0L3.png' class='respPic'></div></div>","null","8","Plum Powerball","Fruit/plums1.png","Won","0.35,0.65","14","0.35","103","23","",""
"html-keyboard-response","78","151941","0.0-11.0-3.22","5fb3d39a2ceaab00087faddb","bdp_rwlrn","Wed Mar 15 2023 14:07:20 GMT-0500 (Central Daylight Time)","386115","Trustworthy,Untrustworthy","","null","","","","feedback","","<div class='respPicDiv'><img src='img/responseButtonOffersNo0_wht.png' class='respPic'></div><div class='trialDiv'><img src='Fruit/plums1.png'><br><font class='baseline'><strong>Plum Powerball</strong><p><strong><font class='posOutcome'>You WON</font><p>You bet: 3</strong></font> &nbsp; &nbsp; &nbsp; &nbsp; &nbsp; &nbsp;<font class='posOutcome'>you receive: <strong>6</strong></font></div>","null","8","Plum Powerball","Fruit/plums1.png","Won","0.35,0.65","14","0.35","109","23","",""
"html-keyboard-response","79","154067","0.0-11.0-1.23","5fb3d39a2ceaab00087faddb","bdp_rwlrn","Wed Mar 15 2023 14:07:20 GMT-0500 (Central Daylight Time)","386115","Trustworthy,Untrustworthy","","2125","","","","decision","","<div class='trialDiv'><img src='Fruit/Kiwi.png'><br><font class='baseline'><strong>Kiwi Kash</strong><p>Choose number of points to bet.</font><div class='respPicDiv'><img src='img/responseButtonOffersNo0L.png' class='respPic'></div></div>","2","8","Kiwi Kash","Fruit/Kiwi.png","Won","0.2,0.65","10","0.2","114","24","",""
"html-keyboard-response","80","154329","0.0-11.0-2.23","5fb3d39a2ceaab00087faddb","bdp_rwlrn","Wed Mar 15 2023 14:07:20 GMT-0500 (Central Daylight Time)","386115","Trustworthy,Untrustworthy","","null","","","","decisionFB","","<div class='trialDiv'><img src='Fruit/Kiwi.png'><br><font class='baseline'><strong>Kiwi Kash</strong><p>Choose number of points to bet.</font><div class='respPicDiv'><img src='img/responseButtonOffersNo0L2.png' class='respPic'></div></div>","null","8","Kiwi Kash","Fruit/Kiwi.png","Won","0.2,0.65","10","0.2","112","24","",""
"html-keyboard-response","81","155345","0.0-11.0-3.23","5fb3d39a2ceaab00087faddb","bdp_rwlrn","Wed Mar 15 2023 14:07:20 GMT-0500 (Central Daylight Time)","386115","Trustworthy,Untrustworthy","","null","","","","feedback","","<div class='respPicDiv'><img src='img/responseButtonOffersNo0_wht.png' class='respPic'></div><div class='trialDiv'><img src='Fruit/Kiwi.png'><br><font class='baseline'><strong>Kiwi Kash</strong><p><strong><font class='posOutcome'>You WON</font><p>You bet: 2</strong></font> &nbsp; &nbsp; &nbsp; &nbsp; &nbsp; &nbsp;<font class='posOutcome'>you receive: <strong>4</strong></font></div>","null","8","Kiwi Kash","Fruit/Kiwi.png","Won","0.2,0.65","10","0.2","116","24","",""
"html-keyboard-response","82","156187","0.0-11.0-1.24","5fb3d39a2ceaab00087faddb","bdp_rwlrn","Wed Mar 15 2023 14:07:20 GMT-0500 (Central Daylight Time)","386115","Trustworthy,Untrustworthy","","841","","","","decision","","<div class='trialDiv'><img src='Fruit/plums1.png'><br><font class='baseline'><strong>Plum Powerball</strong><p>Choose number of points to bet.</font><div class='respPicDiv'><img src='img/responseButtonOffersNo0L.png' class='respPic'></div></div>","3","9","Plum Powerball","Fruit/plums1.png","Won","0.35,0.65","14","0.35","121","25","",""
"html-keyboard-response","83","156451","0.0-11.0-2.24","5fb3d39a2ceaab00087faddb","bdp_rwlrn","Wed Mar 15 2023 14:07:20 GMT-0500 (Central Daylight Time)","386115","Trustworthy,Untrustworthy","","null","","","","decisionFB","","<div class='trialDiv'><img src='Fruit/plums1.png'><br><font class='baseline'><strong>Plum Powerball</strong><p>Choose number of points to bet.</font><div class='respPicDiv'><img src='img/responseButtonOffersNo0L3.png' class='respPic'></div></div>","null","9","Plum Powerball","Fruit/plums1.png","Won","0.35,0.65","14","0.35","118","25","",""
"html-keyboard-response","84","157463","0.0-11.0-3.24","5fb3d39a2ceaab00087faddb","bdp_rwlrn","Wed Mar 15 2023 14:07:20 GMT-0500 (Central Daylight Time)","386115","Trustworthy,Untrustworthy","","null","","","","feedback","","<div class='respPicDiv'><img src='img/responseButtonOffersNo0_wht.png' class='respPic'></div><div class='trialDiv'><img src='Fruit/plums1.png'><br><font class='baseline'><strong>Plum Powerball</strong><p><strong><font class='posOutcome'>You WON</font><p>You bet: 3</strong></font> &nbsp; &nbsp; &nbsp; &nbsp; &nbsp; &nbsp;<font class='posOutcome'>you receive: <strong>6</strong></font></div>","null","9","Plum Powerball","Fruit/plums1.png","Won","0.35,0.65","14","0.35","124","25","",""
"html-keyboard-response","85","158793","0.0-11.0-1.25","5fb3d39a2ceaab00087faddb","bdp_rwlrn","Wed Mar 15 2023 14:07:20 GMT-0500 (Central Daylight Time)","386115","Trustworthy,Untrustworthy","","1328","","","","decision","","<div class='trialDiv'><img src='Fruit/Kiwi.png'><br><font class='baseline'><strong>Kiwi Kash</strong><p>Choose number of points to bet.</font><div class='respPicDiv'><img src='img/responseButtonOffersNo0L.png' class='respPic'></div></div>","2","9","Kiwi Kash","Fruit/Kiwi.png","Lost","0.2,0.65","10","0.2","129","26","",""
"html-keyboard-response","86","159057","0.0-11.0-2.25","5fb3d39a2ceaab00087faddb","bdp_rwlrn","Wed Mar 15 2023 14:07:20 GMT-0500 (Central Daylight Time)","386115","Trustworthy,Untrustworthy","","null","","","","decisionFB","","<div class='trialDiv'><img src='Fruit/Kiwi.png'><br><font class='baseline'><strong>Kiwi Kash</strong><p>Choose number of points to bet.</font><div class='respPicDiv'><img src='img/responseButtonOffersNo0L2.png' class='respPic'></div></div>","null","9","Kiwi Kash","Fruit/Kiwi.png","Lost","0.2,0.65","10","0.2","127","26","",""
"html-keyboard-response","87","160069","0.0-11.0-3.25","5fb3d39a2ceaab00087faddb","bdp_rwlrn","Wed Mar 15 2023 14:07:20 GMT-0500 (Central Daylight Time)","386115","Trustworthy,Untrustworthy","","null","","","","feedback","","<div class='respPicDiv'><img src='img/responseButtonOffersNo0_wht.png' class='respPic'></div><div class='trialDiv'><img src='Fruit/Kiwi.png'><br><font class='baseline'><strong>Kiwi Kash</strong><p><strong><font class='negOutcome'>You LOST</font><p>You bet: 2</strong></font> &nbsp; &nbsp; &nbsp; &nbsp; &nbsp; &nbsp;<font class='negOutcome'>You receive: <strong>0</strong></font></div>","null","9","Kiwi Kash","Fruit/Kiwi.png","Lost","0.2,0.65","10","0.2","127","26","",""
"html-keyboard-response","88","160733","0.0-11.0-1.26","5fb3d39a2ceaab00087faddb","bdp_rwlrn","Wed Mar 15 2023 14:07:20 GMT-0500 (Central Daylight Time)","386115","Trustworthy,Untrustworthy","","663","","","","decision","","<div class='trialDiv'><img src='Fruit/grapes.png'><br><font class='baseline'><strong>Great Grapes</strong><p>Choose number of points to bet.</font><div class='respPicDiv'><img src='img/responseButtonOffersNo0L.png' class='respPic'></div></div>","5","9","Great Grapes","Fruit/grapes.png","Lost","0.65,0.2","8","0.65","132","27","",""
"html-keyboard-response","89","160994","0.0-11.0-2.26","5fb3d39a2ceaab00087faddb","bdp_rwlrn","Wed Mar 15 2023 14:07:20 GMT-0500 (Central Daylight Time)","386115","Trustworthy,Untrustworthy","","null","","","","decisionFB","","<div class='trialDiv'><img src='Fruit/grapes.png'><br><font class='baseline'><strong>Great Grapes</strong><p>Choose number of points to bet.</font><div class='respPicDiv'><img src='img/responseButtonOffersNo0L5.png' class='respPic'></div></div>","null","9","Great Grapes","Fruit/grapes.png","Lost","0.65,0.2","8","0.65","127","27","",""
"html-keyboard-response","90","162012","0.0-11.0-3.26","5fb3d39a2ceaab00087faddb","bdp_rwlrn","Wed Mar 15 2023 14:07:20 GMT-0500 (Central Daylight Time)","386115","Trustworthy,Untrustworthy","","null","","","","feedback","","<div class='respPicDiv'><img src='img/responseButtonOffersNo0_wht.png' class='respPic'></div><div class='trialDiv'><img src='Fruit/grapes.png'><br><font class='baseline'><strong>Great Grapes</strong><p><strong><font class='negOutcome'>You LOST</font><p>You bet: 5</strong></font> &nbsp; &nbsp; &nbsp; &nbsp; &nbsp; &nbsp;<font class='negOutcome'>You receive: <strong>0</strong></font></div>","null","9","Great Grapes","Fruit/grapes.png","Lost","0.65,0.2","8","0.65","127","27","",""
"html-keyboard-response","91","163122","0.0-11.0-1.27","5fb3d39a2ceaab00087faddb","bdp_rwlrn","Wed Mar 15 2023 14:07:20 GMT-0500 (Central Daylight Time)","386115","Trustworthy,Untrustworthy","","1108","","","","decision","","<div class='trialDiv'><img src='Fruit/Kiwi.png'><br><font class='baseline'><strong>Kiwi Kash</strong><p>Choose number of points to bet.</font><div class='respPicDiv'><img src='img/responseButtonOffersNo0L.png' class='respPic'></div></div>","2","10","Kiwi Kash","Fruit/Kiwi.png","Won","0.2,0.65","10","0.2","132","28","",""
"html-keyboard-response","92","163387","0.0-11.0-2.27","5fb3d39a2ceaab00087faddb","bdp_rwlrn","Wed Mar 15 2023 14:07:20 GMT-0500 (Central Daylight Time)","386115","Trustworthy,Untrustworthy","","null","","","","decisionFB","","<div class='trialDiv'><img src='Fruit/Kiwi.png'><br><font class='baseline'><strong>Kiwi Kash</strong><p>Choose number of points to bet.</font><div class='respPicDiv'><img src='img/responseButtonOffersNo0L2.png' class='respPic'></div></div>","null","10","Kiwi Kash","Fruit/Kiwi.png","Won","0.2,0.65","10","0.2","130","28","",""
"html-keyboard-response","93","164401","0.0-11.0-3.27","5fb3d39a2ceaab00087faddb","bdp_rwlrn","Wed Mar 15 2023 14:07:20 GMT-0500 (Central Daylight Time)","386115","Trustworthy,Untrustworthy","","null","","","","feedback","","<div class='respPicDiv'><img src='img/responseButtonOffersNo0_wht.png' class='respPic'></div><div class='trialDiv'><img src='Fruit/Kiwi.png'><br><font class='baseline'><strong>Kiwi Kash</strong><p><strong><font class='posOutcome'>You WON</font><p>You bet: 2</strong></font> &nbsp; &nbsp; &nbsp; &nbsp; &nbsp; &nbsp;<font class='posOutcome'>you receive: <strong>4</strong></font></div>","null","10","Kiwi Kash","Fruit/Kiwi.png","Won","0.2,0.65","10","0.2","134","28","",""
"html-keyboard-response","94","165156","0.0-11.0-1.28","5fb3d39a2ceaab00087faddb","bdp_rwlrn","Wed Mar 15 2023 14:07:20 GMT-0500 (Central Daylight Time)","386115","Trustworthy,Untrustworthy","","754","","","","decision","","<div class='trialDiv'><img src='Fruit/plums1.png'><br><font class='baseline'><strong>Plum Powerball</strong><p>Choose number of points to bet.</font><div class='respPicDiv'><img src='img/responseButtonOffersNo0L.png' class='respPic'></div></div>","3","10","Plum Powerball","Fruit/plums1.png","Won","0.35,0.65","14","0.35","139","29","",""
"html-keyboard-response","95","165416","0.0-11.0-2.28","5fb3d39a2ceaab00087faddb","bdp_rwlrn","Wed Mar 15 2023 14:07:20 GMT-0500 (Central Daylight Time)","386115","Trustworthy,Untrustworthy","","null","","","","decisionFB","","<div class='trialDiv'><img src='Fruit/plums1.png'><br><font class='baseline'><strong>Plum Powerball</strong><p>Choose number of points to bet.</font><div class='respPicDiv'><img src='img/responseButtonOffersNo0L3.png' class='respPic'></div></div>","null","10","Plum Powerball","Fruit/plums1.png","Won","0.35,0.65","14","0.35","136","29","",""
"html-keyboard-response","96","166433","0.0-11.0-3.28","5fb3d39a2ceaab00087faddb","bdp_rwlrn","Wed Mar 15 2023 14:07:20 GMT-0500 (Central Daylight Time)","386115","Trustworthy,Untrustworthy","","null","","","","feedback","","<div class='respPicDiv'><img src='img/responseButtonOffersNo0_wht.png' class='respPic'></div><div class='trialDiv'><img src='Fruit/plums1.png'><br><font class='baseline'><strong>Plum Powerball</strong><p><strong><font class='posOutcome'>You WON</font><p>You bet: 3</strong></font> &nbsp; &nbsp; &nbsp; &nbsp; &nbsp; &nbsp;<font class='posOutcome'>you receive: <strong>6</strong></font></div>","null","10","Plum Powerball","Fruit/plums1.png","Won","0.35,0.65","14","0.35","142","29","",""
"html-keyboard-response","97","167815","0.0-11.0-1.29","5fb3d39a2ceaab00087faddb","bdp_rwlrn","Wed Mar 15 2023 14:07:20 GMT-0500 (Central Daylight Time)","386115","Trustworthy,Untrustworthy","","1381","","","","decision","","<div class='trialDiv'><img src='Fruit/grapes.png'><br><font class='baseline'><strong>Great Grapes</strong><p>Choose number of points to bet.</font><div class='respPicDiv'><img src='img/responseButtonOffersNo0L.png' class='respPic'></div></div>","4","10","Great Grapes","Fruit/grapes.png","Lost","0.65,0.2","8","0.65","147","30","",""
"html-keyboard-response","98","168073","0.0-11.0-2.29","5fb3d39a2ceaab00087faddb","bdp_rwlrn","Wed Mar 15 2023 14:07:20 GMT-0500 (Central Daylight Time)","386115","Trustworthy,Untrustworthy","","null","","","","decisionFB","","<div class='trialDiv'><img src='Fruit/grapes.png'><br><font class='baseline'><strong>Great Grapes</strong><p>Choose number of points to bet.</font><div class='respPicDiv'><img src='img/responseButtonOffersNo0L4.png' class='respPic'></div></div>","null","10","Great Grapes","Fruit/grapes.png","Lost","0.65,0.2","8","0.65","143","30","",""
"html-keyboard-response","99","169088","0.0-11.0-3.29","5fb3d39a2ceaab00087faddb","bdp_rwlrn","Wed Mar 15 2023 14:07:20 GMT-0500 (Central Daylight Time)","386115","Trustworthy,Untrustworthy","","null","","","","feedback","","<div class='respPicDiv'><img src='img/responseButtonOffersNo0_wht.png' class='respPic'></div><div class='trialDiv'><img src='Fruit/grapes.png'><br><font class='baseline'><strong>Great Grapes</strong><p><strong><font class='negOutcome'>You LOST</font><p>You bet: 4</strong></font> &nbsp; &nbsp; &nbsp; &nbsp; &nbsp; &nbsp;<font class='negOutcome'>You receive: <strong>0</strong></font></div>","null","10","Great Grapes","Fruit/grapes.png","Lost","0.65,0.2","8","0.65","143","30","",""
"html-keyboard-response","100","169925","0.0-11.0-1.30","5fb3d39a2ceaab00087faddb","bdp_rwlrn","Wed Mar 15 2023 14:07:20 GMT-0500 (Central Daylight Time)","386115","Trustworthy,Untrustworthy","","836","","","","decision","","<div class='trialDiv'><img src='Fruit/Kiwi.png'><br><font class='baseline'><strong>Kiwi Kash</strong><p>Choose number of points to bet.</font><div class='respPicDiv'><img src='img/responseButtonOffersNo0L.png' class='respPic'></div></div>","2","11","Kiwi Kash","Fruit/Kiwi.png","Won","0.2,0.65","10","0.2","148","31","",""
"html-keyboard-response","101","170181","0.0-11.0-2.30","5fb3d39a2ceaab00087faddb","bdp_rwlrn","Wed Mar 15 2023 14:07:20 GMT-0500 (Central Daylight Time)","386115","Trustworthy,Untrustworthy","","null","","","","decisionFB","","<div class='trialDiv'><img src='Fruit/Kiwi.png'><br><font class='baseline'><strong>Kiwi Kash</strong><p>Choose number of points to bet.</font><div class='respPicDiv'><img src='img/responseButtonOffersNo0L2.png' class='respPic'></div></div>","null","11","Kiwi Kash","Fruit/Kiwi.png","Won","0.2,0.65","10","0.2","146","31","",""
"html-keyboard-response","102","171186","0.0-11.0-3.30","5fb3d39a2ceaab00087faddb","bdp_rwlrn","Wed Mar 15 2023 14:07:20 GMT-0500 (Central Daylight Time)","386115","Trustworthy,Untrustworthy","","null","","","","feedback","","<div class='respPicDiv'><img src='img/responseButtonOffersNo0_wht.png' class='respPic'></div><div class='trialDiv'><img src='Fruit/Kiwi.png'><br><font class='baseline'><strong>Kiwi Kash</strong><p><strong><font class='posOutcome'>You WON</font><p>You bet: 2</strong></font> &nbsp; &nbsp; &nbsp; &nbsp; &nbsp; &nbsp;<font class='posOutcome'>you receive: <strong>4</strong></font></div>","null","11","Kiwi Kash","Fruit/Kiwi.png","Won","0.2,0.65","10","0.2","150","31","",""
"html-keyboard-response","103","172059","0.0-11.0-1.31","5fb3d39a2ceaab00087faddb","bdp_rwlrn","Wed Mar 15 2023 14:07:20 GMT-0500 (Central Daylight Time)","386115","Trustworthy,Untrustworthy","","872","","","","decision","","<div class='trialDiv'><img src='Fruit/grapes.png'><br><font class='baseline'><strong>Great Grapes</strong><p>Choose number of points to bet.</font><div class='respPicDiv'><img src='img/responseButtonOffersNo0L.png' class='respPic'></div></div>","1","11","Great Grapes","Fruit/grapes.png","Lost","0.65,0.2","8","0.65","155","32","",""
"html-keyboard-response","104","172312","0.0-11.0-2.31","5fb3d39a2ceaab00087faddb","bdp_rwlrn","Wed Mar 15 2023 14:07:20 GMT-0500 (Central Daylight Time)","386115","Trustworthy,Untrustworthy","","null","","","","decisionFB","","<div class='trialDiv'><img src='Fruit/grapes.png'><br><font class='baseline'><strong>Great Grapes</strong><p>Choose number of points to bet.</font><div class='respPicDiv'><img src='img/responseButtonOffersNo0L1.png' class='respPic'></div></div>","null","11","Great Grapes","Fruit/grapes.png","Lost","0.65,0.2","8","0.65","154","32","",""
"html-keyboard-response","105","173324","0.0-11.0-3.31","5fb3d39a2ceaab00087faddb","bdp_rwlrn","Wed Mar 15 2023 14:07:20 GMT-0500 (Central Daylight Time)","386115","Trustworthy,Untrustworthy","","null","","","","feedback","","<div class='respPicDiv'><img src='img/responseButtonOffersNo0_wht.png' class='respPic'></div><div class='trialDiv'><img src='Fruit/grapes.png'><br><font class='baseline'><strong>Great Grapes</strong><p><strong><font class='negOutcome'>You LOST</font><p>You bet: 1</strong></font> &nbsp; &nbsp; &nbsp; &nbsp; &nbsp; &nbsp;<font class='negOutcome'>You receive: <strong>0</strong></font></div>","null","11","Great Grapes","Fruit/grapes.png","Lost","0.65,0.2","8","0.65","154","32","",""
"html-keyboard-response","106","174108","0.0-11.0-1.32","5fb3d39a2ceaab00087faddb","bdp_rwlrn","Wed Mar 15 2023 14:07:20 GMT-0500 (Central Daylight Time)","386115","Trustworthy,Untrustworthy","","783","","","","decision","","<div class='trialDiv'><img src='Fruit/plums1.png'><br><font class='baseline'><strong>Plum Powerball</strong><p>Choose number of points to bet.</font><div class='respPicDiv'><img src='img/responseButtonOffersNo0L.png' class='respPic'></div></div>","3","11","Plum Powerball","Fruit/plums1.png","Lost","0.35,0.65","14","0.35","159","33","",""
"html-keyboard-response","107","174373","0.0-11.0-2.32","5fb3d39a2ceaab00087faddb","bdp_rwlrn","Wed Mar 15 2023 14:07:20 GMT-0500 (Central Daylight Time)","386115","Trustworthy,Untrustworthy","","null","","","","decisionFB","","<div class='trialDiv'><img src='Fruit/plums1.png'><br><font class='baseline'><strong>Plum Powerball</strong><p>Choose number of points to bet.</font><div class='respPicDiv'><img src='img/responseButtonOffersNo0L3.png' class='respPic'></div></div>","null","11","Plum Powerball","Fruit/plums1.png","Lost","0.35,0.65","14","0.35","156","33","",""
"html-keyboard-response","108","175386","0.0-11.0-3.32","5fb3d39a2ceaab00087faddb","bdp_rwlrn","Wed Mar 15 2023 14:07:20 GMT-0500 (Central Daylight Time)","386115","Trustworthy,Untrustworthy","","null","","","","feedback","","<div class='respPicDiv'><img src='img/responseButtonOffersNo0_wht.png' class='respPic'></div><div class='trialDiv'><img src='Fruit/plums1.png'><br><font class='baseline'><strong>Plum Powerball</strong><p><strong><font class='negOutcome'>You LOST</font><p>You bet: 3</strong></font> &nbsp; &nbsp; &nbsp; &nbsp; &nbsp; &nbsp;<font class='negOutcome'>You receive: <strong>0</strong></font></div>","null","11","Plum Powerball","Fruit/plums1.png","Lost","0.35,0.65","14","0.35","156","33","",""
"html-keyboard-response","109","176045","0.0-11.0-1.33","5fb3d39a2ceaab00087faddb","bdp_rwlrn","Wed Mar 15 2023 14:07:20 GMT-0500 (Central Daylight Time)","386115","Trustworthy,Untrustworthy","","659","","","","decision","","<div class='trialDiv'><img src='Fruit/grapes.png'><br><font class='baseline'><strong>Great Grapes</strong><p>Choose number of points to bet.</font><div class='respPicDiv'><img src='img/responseButtonOffersNo0L.png' class='respPic'></div></div>","5","12","Great Grapes","Fruit/grapes.png","Won","0.65,0.2","8","0.65","161","34","",""
"html-keyboard-response","110","176306","0.0-11.0-2.33","5fb3d39a2ceaab00087faddb","bdp_rwlrn","Wed Mar 15 2023 14:07:20 GMT-0500 (Central Daylight Time)","386115","Trustworthy,Untrustworthy","","null","","","","decisionFB","","<div class='trialDiv'><img src='Fruit/grapes.png'><br><font class='baseline'><strong>Great Grapes</strong><p>Choose number of points to bet.</font><div class='respPicDiv'><img src='img/responseButtonOffersNo0L5.png' class='respPic'></div></div>","null","12","Great Grapes","Fruit/grapes.png","Won","0.65,0.2","8","0.65","156","34","",""
"html-keyboard-response","111","177319","0.0-11.0-3.33","5fb3d39a2ceaab00087faddb","bdp_rwlrn","Wed Mar 15 2023 14:07:20 GMT-0500 (Central Daylight Time)","386115","Trustworthy,Untrustworthy","","null","","","","feedback","","<div class='respPicDiv'><img src='img/responseButtonOffersNo0_wht.png' class='respPic'></div><div class='trialDiv'><img src='Fruit/grapes.png'><br><font class='baseline'><strong>Great Grapes</strong><p><strong><font class='posOutcome'>You WON</font><p>You bet: 5</strong></font> &nbsp; &nbsp; &nbsp; &nbsp; &nbsp; &nbsp;<font class='posOutcome'>you receive: <strong>10</strong></font></div>","null","12","Great Grapes","Fruit/grapes.png","Won","0.65,0.2","8","0.65","166","34","",""
"html-keyboard-response","112","178234","0.0-11.0-1.34","5fb3d39a2ceaab00087faddb","bdp_rwlrn","Wed Mar 15 2023 14:07:20 GMT-0500 (Central Daylight Time)","386115","Trustworthy,Untrustworthy","","914","","","","decision","","<div class='trialDiv'><img src='Fruit/Kiwi.png'><br><font class='baseline'><strong>Kiwi Kash</strong><p>Choose number of points to bet.</font><div class='respPicDiv'><img src='img/responseButtonOffersNo0L.png' class='respPic'></div></div>","3","12","Kiwi Kash","Fruit/Kiwi.png","Lost","0.2,0.65","10","0.2","171","35","",""
"html-keyboard-response","113","178490","0.0-11.0-2.34","5fb3d39a2ceaab00087faddb","bdp_rwlrn","Wed Mar 15 2023 14:07:20 GMT-0500 (Central Daylight Time)","386115","Trustworthy,Untrustworthy","","null","","","","decisionFB","","<div class='trialDiv'><img src='Fruit/Kiwi.png'><br><font class='baseline'><strong>Kiwi Kash</strong><p>Choose number of points to bet.</font><div class='respPicDiv'><img src='img/responseButtonOffersNo0L3.png' class='respPic'></div></div>","null","12","Kiwi Kash","Fruit/Kiwi.png","Lost","0.2,0.65","10","0.2","168","35","",""
"html-keyboard-response","114","179508","0.0-11.0-3.34","5fb3d39a2ceaab00087faddb","bdp_rwlrn","Wed Mar 15 2023 14:07:20 GMT-0500 (Central Daylight Time)","386115","Trustworthy,Untrustworthy","","null","","","","feedback","","<div class='respPicDiv'><img src='img/responseButtonOffersNo0_wht.png' class='respPic'></div><div class='trialDiv'><img src='Fruit/Kiwi.png'><br><font class='baseline'><strong>Kiwi Kash</strong><p><strong><font class='negOutcome'>You LOST</font><p>You bet: 3</strong></font> &nbsp; &nbsp; &nbsp; &nbsp; &nbsp; &nbsp;<font class='negOutcome'>You receive: <strong>0</strong></font></div>","null","12","Kiwi Kash","Fruit/Kiwi.png","Lost","0.2,0.65","10","0.2","168","35","",""
"html-keyboard-response","115","180463","0.0-11.0-1.35","5fb3d39a2ceaab00087faddb","bdp_rwlrn","Wed Mar 15 2023 14:07:20 GMT-0500 (Central Daylight Time)","386115","Trustworthy,Untrustworthy","","954","","","","decision","","<div class='trialDiv'><img src='Fruit/plums1.png'><br><font class='baseline'><strong>Plum Powerball</strong><p>Choose number of points to bet.</font><div class='respPicDiv'><img src='img/responseButtonOffersNo0L.png' class='respPic'></div></div>","5","12","Plum Powerball","Fruit/plums1.png","Won","0.35,0.65","14","0.35","173","36","",""
"html-keyboard-response","116","180722","0.0-11.0-2.35","5fb3d39a2ceaab00087faddb","bdp_rwlrn","Wed Mar 15 2023 14:07:20 GMT-0500 (Central Daylight Time)","386115","Trustworthy,Untrustworthy","","null","","","","decisionFB","","<div class='trialDiv'><img src='Fruit/plums1.png'><br><font class='baseline'><strong>Plum Powerball</strong><p>Choose number of points to bet.</font><div class='respPicDiv'><img src='img/responseButtonOffersNo0L5.png' class='respPic'></div></div>","null","12","Plum Powerball","Fruit/plums1.png","Won","0.35,0.65","14","0.35","168","36","",""
"html-keyboard-response","117","181735","0.0-11.0-3.35","5fb3d39a2ceaab00087faddb","bdp_rwlrn","Wed Mar 15 2023 14:07:20 GMT-0500 (Central Daylight Time)","386115","Trustworthy,Untrustworthy","","null","","","","feedback","","<div class='respPicDiv'><img src='img/responseButtonOffersNo0_wht.png' class='respPic'></div><div class='trialDiv'><img src='Fruit/plums1.png'><br><font class='baseline'><strong>Plum Powerball</strong><p><strong><font class='posOutcome'>You WON</font><p>You bet: 5</strong></font> &nbsp; &nbsp; &nbsp; &nbsp; &nbsp; &nbsp;<font class='posOutcome'>you receive: <strong>10</strong></font></div>","null","12","Plum Powerball","Fruit/plums1.png","Won","0.35,0.65","14","0.35","178","36","",""
"html-keyboard-response","118","182434","0.0-11.0-1.36","5fb3d39a2ceaab00087faddb","bdp_rwlrn","Wed Mar 15 2023 14:07:20 GMT-0500 (Central Daylight Time)","386115","Trustworthy,Untrustworthy","","699","","","","decision","","<div class='trialDiv'><img src='Fruit/grapes.png'><br><font class='baseline'><strong>Great Grapes</strong><p>Choose number of points to bet.</font><div class='respPicDiv'><img src='img/responseButtonOffersNo0L.png' class='respPic'></div></div>","5","13","Great Grapes","Fruit/grapes.png","Lost","0.65,0.2","8","0.65","183","37","",""
"html-keyboard-response","119","182701","0.0-11.0-2.36","5fb3d39a2ceaab00087faddb","bdp_rwlrn","Wed Mar 15 2023 14:07:20 GMT-0500 (Central Daylight Time)","386115","Trustworthy,Untrustworthy","","null","","","","decisionFB","","<div class='trialDiv'><img src='Fruit/grapes.png'><br><font class='baseline'><strong>Great Grapes</strong><p>Choose number of points to bet.</font><div class='respPicDiv'><img src='img/responseButtonOffersNo0L5.png' class='respPic'></div></div>","null","13","Great Grapes","Fruit/grapes.png","Lost","0.65,0.2","8","0.65","178","37","",""
"html-keyboard-response","120","183717","0.0-11.0-3.36","5fb3d39a2ceaab00087faddb","bdp_rwlrn","Wed Mar 15 2023 14:07:20 GMT-0500 (Central Daylight Time)","386115","Trustworthy,Untrustworthy","","null","","","","feedback","","<div class='respPicDiv'><img src='img/responseButtonOffersNo0_wht.png' class='respPic'></div><div class='trialDiv'><img src='Fruit/grapes.png'><br><font class='baseline'><strong>Great Grapes</strong><p><strong><font class='negOutcome'>You LOST</font><p>You bet: 5</strong></font> &nbsp; &nbsp; &nbsp; &nbsp; &nbsp; &nbsp;<font class='negOutcome'>You receive: <strong>0</strong></font></div>","null","13","Great Grapes","Fruit/grapes.png","Lost","0.65,0.2","8","0.65","178","37","",""
"html-keyboard-response","121","184641","0.0-11.0-1.37","5fb3d39a2ceaab00087faddb","bdp_rwlrn","Wed Mar 15 2023 14:07:20 GMT-0500 (Central Daylight Time)","386115","Trustworthy,Untrustworthy","","923","","","","decision","","<div class='trialDiv'><img src='Fruit/Kiwi.png'><br><font class='baseline'><strong>Kiwi Kash</strong><p>Choose number of points to bet.</font><div class='respPicDiv'><img src='img/responseButtonOffersNo0L.png' class='respPic'></div></div>","5","13","Kiwi Kash","Fruit/Kiwi.png","Won","0.2,0.65","10","0.2","183","38","",""
"html-keyboard-response","122","184904","0.0-11.0-2.37","5fb3d39a2ceaab00087faddb","bdp_rwlrn","Wed Mar 15 2023 14:07:20 GMT-0500 (Central Daylight Time)","386115","Trustworthy,Untrustworthy","","null","","","","decisionFB","","<div class='trialDiv'><img src='Fruit/Kiwi.png'><br><font class='baseline'><strong>Kiwi Kash</strong><p>Choose number of points to bet.</font><div class='respPicDiv'><img src='img/responseButtonOffersNo0L5.png' class='respPic'></div></div>","null","13","Kiwi Kash","Fruit/Kiwi.png","Won","0.2,0.65","10","0.2","178","38","",""
"html-keyboard-response","123","185920","0.0-11.0-3.37","5fb3d39a2ceaab00087faddb","bdp_rwlrn","Wed Mar 15 2023 14:07:20 GMT-0500 (Central Daylight Time)","386115","Trustworthy,Untrustworthy","","null","","","","feedback","","<div class='respPicDiv'><img src='img/responseButtonOffersNo0_wht.png' class='respPic'></div><div class='trialDiv'><img src='Fruit/Kiwi.png'><br><font class='baseline'><strong>Kiwi Kash</strong><p><strong><font class='posOutcome'>You WON</font><p>You bet: 5</strong></font> &nbsp; &nbsp; &nbsp; &nbsp; &nbsp; &nbsp;<font class='posOutcome'>you receive: <strong>10</strong></font></div>","null","13","Kiwi Kash","Fruit/Kiwi.png","Won","0.2,0.65","10","0.2","188","38","",""
"html-keyboard-response","124","186791","0.0-11.0-1.38","5fb3d39a2ceaab00087faddb","bdp_rwlrn","Wed Mar 15 2023 14:07:20 GMT-0500 (Central Daylight Time)","386115","Trustworthy,Untrustworthy","","869","","","","decision","","<div class='trialDiv'><img src='Fruit/plums1.png'><br><font class='baseline'><strong>Plum Powerball</strong><p>Choose number of points to bet.</font><div class='respPicDiv'><img src='img/responseButtonOffersNo0L.png' class='respPic'></div></div>","3","13","Plum Powerball","Fruit/plums1.png","Won","0.35,0.65","14","0.35","193","39","",""
"html-keyboard-response","125","187056","0.0-11.0-2.38","5fb3d39a2ceaab00087faddb","bdp_rwlrn","Wed Mar 15 2023 14:07:20 GMT-0500 (Central Daylight Time)","386115","Trustworthy,Untrustworthy","","null","","","","decisionFB","","<div class='trialDiv'><img src='Fruit/plums1.png'><br><font class='baseline'><strong>Plum Powerball</strong><p>Choose number of points to bet.</font><div class='respPicDiv'><img src='img/responseButtonOffersNo0L3.png' class='respPic'></div></div>","null","13","Plum Powerball","Fruit/plums1.png","Won","0.35,0.65","14","0.35","190","39","",""
"html-keyboard-response","126","188073","0.0-11.0-3.38","5fb3d39a2ceaab00087faddb","bdp_rwlrn","Wed Mar 15 2023 14:07:20 GMT-0500 (Central Daylight Time)","386115","Trustworthy,Untrustworthy","","null","","","","feedback","","<div class='respPicDiv'><img src='img/responseButtonOffersNo0_wht.png' class='respPic'></div><div class='trialDiv'><img src='Fruit/plums1.png'><br><font class='baseline'><strong>Plum Powerball</strong><p><strong><font class='posOutcome'>You WON</font><p>You bet: 3</strong></font> &nbsp; &nbsp; &nbsp; &nbsp; &nbsp; &nbsp;<font class='posOutcome'>you receive: <strong>6</strong></font></div>","null","13","Plum Powerball","Fruit/plums1.png","Won","0.35,0.65","14","0.35","196","39","",""
"html-keyboard-response","127","188780","0.0-11.0-1.39","5fb3d39a2ceaab00087faddb","bdp_rwlrn","Wed Mar 15 2023 14:07:20 GMT-0500 (Central Daylight Time)","386115","Trustworthy,Untrustworthy","","707","","","","decision","","<div class='trialDiv'><img src='Fruit/grapes.png'><br><font class='baseline'><strong>Great Grapes</strong><p>Choose number of points to bet.</font><div class='respPicDiv'><img src='img/responseButtonOffersNo0L.png' class='respPic'></div></div>","5","14","Great Grapes","Fruit/grapes.png","Lost","0.65,0.2","8","0.65","201","40","",""
"html-keyboard-response","128","189039","0.0-11.0-2.39","5fb3d39a2ceaab00087faddb","bdp_rwlrn","Wed Mar 15 2023 14:07:20 GMT-0500 (Central Daylight Time)","386115","Trustworthy,Untrustworthy","","null","","","","decisionFB","","<div class='trialDiv'><img src='Fruit/grapes.png'><br><font class='baseline'><strong>Great Grapes</strong><p>Choose number of points to bet.</font><div class='respPicDiv'><img src='img/responseButtonOffersNo0L5.png' class='respPic'></div></div>","null","14","Great Grapes","Fruit/grapes.png","Lost","0.65,0.2","8","0.65","196","40","",""
"html-keyboard-response","129","190049","0.0-11.0-3.39","5fb3d39a2ceaab00087faddb","bdp_rwlrn","Wed Mar 15 2023 14:07:20 GMT-0500 (Central Daylight Time)","386115","Trustworthy,Untrustworthy","","null","","","","feedback","","<div class='respPicDiv'><img src='img/responseButtonOffersNo0_wht.png' class='respPic'></div><div class='trialDiv'><img src='Fruit/grapes.png'><br><font class='baseline'><strong>Great Grapes</strong><p><strong><font class='negOutcome'>You LOST</font><p>You bet: 5</strong></font> &nbsp; &nbsp; &nbsp; &nbsp; &nbsp; &nbsp;<font class='negOutcome'>You receive: <strong>0</strong></font></div>","null","14","Great Grapes","Fruit/grapes.png","Lost","0.65,0.2","8","0.65","196","40","",""
"html-keyboard-response","130","190797","0.0-11.0-1.40","5fb3d39a2ceaab00087faddb","bdp_rwlrn","Wed Mar 15 2023 14:07:20 GMT-0500 (Central Daylight Time)","386115","Trustworthy,Untrustworthy","","748","","","","decision","","<div class='trialDiv'><img src='Fruit/plums1.png'><br><font class='baseline'><strong>Plum Powerball</strong><p>Choose number of points to bet.</font><div class='respPicDiv'><img src='img/responseButtonOffersNo0L.png' class='respPic'></div></div>","5","14","Plum Powerball","Fruit/plums1.png","Lost","0.35,0.65","14","0.35","201","41","",""
"html-keyboard-response","131","191061","0.0-11.0-2.40","5fb3d39a2ceaab00087faddb","bdp_rwlrn","Wed Mar 15 2023 14:07:20 GMT-0500 (Central Daylight Time)","386115","Trustworthy,Untrustworthy","","null","","","","decisionFB","","<div class='trialDiv'><img src='Fruit/plums1.png'><br><font class='baseline'><strong>Plum Powerball</strong><p>Choose number of points to bet.</font><div class='respPicDiv'><img src='img/responseButtonOffersNo0L5.png' class='respPic'></div></div>","null","14","Plum Powerball","Fruit/plums1.png","Lost","0.35,0.65","14","0.35","196","41","",""
"html-keyboard-response","132","192077","0.0-11.0-3.40","5fb3d39a2ceaab00087faddb","bdp_rwlrn","Wed Mar 15 2023 14:07:20 GMT-0500 (Central Daylight Time)","386115","Trustworthy,Untrustworthy","","null","","","","feedback","","<div class='respPicDiv'><img src='img/responseButtonOffersNo0_wht.png' class='respPic'></div><div class='trialDiv'><img src='Fruit/plums1.png'><br><font class='baseline'><strong>Plum Powerball</strong><p><strong><font class='negOutcome'>You LOST</font><p>You bet: 5</strong></font> &nbsp; &nbsp; &nbsp; &nbsp; &nbsp; &nbsp;<font class='negOutcome'>You receive: <strong>0</strong></font></div>","null","14","Plum Powerball","Fruit/plums1.png","Lost","0.35,0.65","14","0.35","196","41","",""
"html-keyboard-response","133","192666","0.0-11.0-1.41","5fb3d39a2ceaab00087faddb","bdp_rwlrn","Wed Mar 15 2023 14:07:20 GMT-0500 (Central Daylight Time)","386115","Trustworthy,Untrustworthy","","589","","","","decision","","<div class='trialDiv'><img src='Fruit/Kiwi.png'><br><font class='baseline'><strong>Kiwi Kash</strong><p>Choose number of points to bet.</font><div class='respPicDiv'><img src='img/responseButtonOffersNo0L.png' class='respPic'></div></div>","4","14","Kiwi Kash","Fruit/Kiwi.png","Lost","0.2,0.65","10","0.2","201","42","",""
"html-keyboard-response","134","192918","0.0-11.0-2.41","5fb3d39a2ceaab00087faddb","bdp_rwlrn","Wed Mar 15 2023 14:07:20 GMT-0500 (Central Daylight Time)","386115","Trustworthy,Untrustworthy","","null","","","","decisionFB","","<div class='trialDiv'><img src='Fruit/Kiwi.png'><br><font class='baseline'><strong>Kiwi Kash</strong><p>Choose number of points to bet.</font><div class='respPicDiv'><img src='img/responseButtonOffersNo0L4.png' class='respPic'></div></div>","null","14","Kiwi Kash","Fruit/Kiwi.png","Lost","0.2,0.65","10","0.2","197","42","",""
"html-keyboard-response","135","193934","0.0-11.0-3.41","5fb3d39a2ceaab00087faddb","bdp_rwlrn","Wed Mar 15 2023 14:07:20 GMT-0500 (Central Daylight Time)","386115","Trustworthy,Untrustworthy","","null","","","","feedback","","<div class='respPicDiv'><img src='img/responseButtonOffersNo0_wht.png' class='respPic'></div><div class='trialDiv'><img src='Fruit/Kiwi.png'><br><font class='baseline'><strong>Kiwi Kash</strong><p><strong><font class='negOutcome'>You LOST</font><p>You bet: 4</strong></font> &nbsp; &nbsp; &nbsp; &nbsp; &nbsp; &nbsp;<font class='negOutcome'>You receive: <strong>0</strong></font></div>","null","14","Kiwi Kash","Fruit/Kiwi.png","Lost","0.2,0.65","10","0.2","197","42","",""
"html-keyboard-response","136","194362","0.0-11.0-1.42","5fb3d39a2ceaab00087faddb","bdp_rwlrn","Wed Mar 15 2023 14:07:20 GMT-0500 (Central Daylight Time)","386115","Trustworthy,Untrustworthy","","428","","","","decision","","<div class='trialDiv'><img src='Fruit/grapes.png'><br><font class='baseline'><strong>Great Grapes</strong><p>Choose number of points to bet.</font><div class='respPicDiv'><img src='img/responseButtonOffersNo0L.png' class='respPic'></div></div>","5","15","Great Grapes","Fruit/grapes.png","Won","0.65,0.2","8","0.65","202","43","",""
"html-keyboard-response","137","194617","0.0-11.0-2.42","5fb3d39a2ceaab00087faddb","bdp_rwlrn","Wed Mar 15 2023 14:07:20 GMT-0500 (Central Daylight Time)","386115","Trustworthy,Untrustworthy","","null","","","","decisionFB","","<div class='trialDiv'><img src='Fruit/grapes.png'><br><font class='baseline'><strong>Great Grapes</strong><p>Choose number of points to bet.</font><div class='respPicDiv'><img src='img/responseButtonOffersNo0L5.png' class='respPic'></div></div>","null","15","Great Grapes","Fruit/grapes.png","Won","0.65,0.2","8","0.65","197","43","",""
"html-keyboard-response","138","195630","0.0-11.0-3.42","5fb3d39a2ceaab00087faddb","bdp_rwlrn","Wed Mar 15 2023 14:07:20 GMT-0500 (Central Daylight Time)","386115","Trustworthy,Untrustworthy","","null","","","","feedback","","<div class='respPicDiv'><img src='img/responseButtonOffersNo0_wht.png' class='respPic'></div><div class='trialDiv'><img src='Fruit/grapes.png'><br><font class='baseline'><strong>Great Grapes</strong><p><strong><font class='posOutcome'>You WON</font><p>You bet: 5</strong></font> &nbsp; &nbsp; &nbsp; &nbsp; &nbsp; &nbsp;<font class='posOutcome'>you receive: <strong>10</strong></font></div>","null","15","Great Grapes","Fruit/grapes.png","Won","0.65,0.2","8","0.65","207","43","",""
"html-keyboard-response","139","196286","0.0-11.0-1.43","5fb3d39a2ceaab00087faddb","bdp_rwlrn","Wed Mar 15 2023 14:07:20 GMT-0500 (Central Daylight Time)","386115","Trustworthy,Untrustworthy","","656","","","","decision","","<div class='trialDiv'><img src='Fruit/Kiwi.png'><br><font class='baseline'><strong>Kiwi Kash</strong><p>Choose number of points to bet.</font><div class='respPicDiv'><img src='img/responseButtonOffersNo0L.png' class='respPic'></div></div>","3","15","Kiwi Kash","Fruit/Kiwi.png","Lost","0.2,0.65","10","0.2","212","44","",""
"html-keyboard-response","140","196551","0.0-11.0-2.43","5fb3d39a2ceaab00087faddb","bdp_rwlrn","Wed Mar 15 2023 14:07:20 GMT-0500 (Central Daylight Time)","386115","Trustworthy,Untrustworthy","","null","","","","decisionFB","","<div class='trialDiv'><img src='Fruit/Kiwi.png'><br><font class='baseline'><strong>Kiwi Kash</strong><p>Choose number of points to bet.</font><div class='respPicDiv'><img src='img/responseButtonOffersNo0L3.png' class='respPic'></div></div>","null","15","Kiwi Kash","Fruit/Kiwi.png","Lost","0.2,0.65","10","0.2","209","44","",""
"html-keyboard-response","141","197564","0.0-11.0-3.43","5fb3d39a2ceaab00087faddb","bdp_rwlrn","Wed Mar 15 2023 14:07:20 GMT-0500 (Central Daylight Time)","386115","Trustworthy,Untrustworthy","","null","","","","feedback","","<div class='respPicDiv'><img src='img/responseButtonOffersNo0_wht.png' class='respPic'></div><div class='trialDiv'><img src='Fruit/Kiwi.png'><br><font class='baseline'><strong>Kiwi Kash</strong><p><strong><font class='negOutcome'>You LOST</font><p>You bet: 3</strong></font> &nbsp; &nbsp; &nbsp; &nbsp; &nbsp; &nbsp;<font class='negOutcome'>You receive: <strong>0</strong></font></div>","null","15","Kiwi Kash","Fruit/Kiwi.png","Lost","0.2,0.65","10","0.2","209","44","",""
"html-keyboard-response","142","198328","0.0-11.0-1.44","5fb3d39a2ceaab00087faddb","bdp_rwlrn","Wed Mar 15 2023 14:07:20 GMT-0500 (Central Daylight Time)","386115","Trustworthy,Untrustworthy","","764","","","","decision","","<div class='trialDiv'><img src='Fruit/plums1.png'><br><font class='baseline'><strong>Plum Powerball</strong><p>Choose number of points to bet.</font><div class='respPicDiv'><img src='img/responseButtonOffersNo0L.png' class='respPic'></div></div>","5","15","Plum Powerball","Fruit/plums1.png","Won","0.35,0.65","14","0.35","214","45","",""
"html-keyboard-response","143","198581","0.0-11.0-2.44","5fb3d39a2ceaab00087faddb","bdp_rwlrn","Wed Mar 15 2023 14:07:20 GMT-0500 (Central Daylight Time)","386115","Trustworthy,Untrustworthy","","null","","","","decisionFB","","<div class='trialDiv'><img src='Fruit/plums1.png'><br><font class='baseline'><strong>Plum Powerball</strong><p>Choose number of points to bet.</font><div class='respPicDiv'><img src='img/responseButtonOffersNo0L5.png' class='respPic'></div></div>","null","15","Plum Powerball","Fruit/plums1.png","Won","0.35,0.65","14","0.35","209","45","",""
"html-keyboard-response","144","199585","0.0-11.0-3.44","5fb3d39a2ceaab00087faddb","bdp_rwlrn","Wed Mar 15 2023 14:07:20 GMT-0500 (Central Daylight Time)","386115","Trustworthy,Untrustworthy","","null","","","","feedback","","<div class='respPicDiv'><img src='img/responseButtonOffersNo0_wht.png' class='respPic'></div><div class='trialDiv'><img src='Fruit/plums1.png'><br><font class='baseline'><strong>Plum Powerball</strong><p><strong><font class='posOutcome'>You WON</font><p>You bet: 5</strong></font> &nbsp; &nbsp; &nbsp; &nbsp; &nbsp; &nbsp;<font class='posOutcome'>you receive: <strong>10</strong></font></div>","null","15","Plum Powerball","Fruit/plums1.png","Won","0.35,0.65","14","0.35","219","45","",""
"html-keyboard-response","145","200382","0.0-11.0-1.45","5fb3d39a2ceaab00087faddb","bdp_rwlrn","Wed Mar 15 2023 14:07:20 GMT-0500 (Central Daylight Time)","386115","Trustworthy,Untrustworthy","","797","","","","decision","","<div class='trialDiv'><img src='Fruit/grapes.png'><br><font class='baseline'><strong>Great Grapes</strong><p>Choose number of points to bet.</font><div class='respPicDiv'><img src='img/responseButtonOffersNo0L.png' class='respPic'></div></div>","5","16","Great Grapes","Fruit/grapes.png","Won","0.65,0.2","8","0.65","224","46","",""
"html-keyboard-response","146","200648","0.0-11.0-2.45","5fb3d39a2ceaab00087faddb","bdp_rwlrn","Wed Mar 15 2023 14:07:20 GMT-0500 (Central Daylight Time)","386115","Trustworthy,Untrustworthy","","null","","","","decisionFB","","<div class='trialDiv'><img src='Fruit/grapes.png'><br><font class='baseline'><strong>Great Grapes</strong><p>Choose number of points to bet.</font><div class='respPicDiv'><img src='img/responseButtonOffersNo0L5.png' class='respPic'></div></div>","null","16","Great Grapes","Fruit/grapes.png","Won","0.65,0.2","8","0.65","219","46","",""
"html-keyboard-response","147","201659","0.0-11.0-3.45","5fb3d39a2ceaab00087faddb","bdp_rwlrn","Wed Mar 15 2023 14:07:20 GMT-0500 (Central Daylight Time)","386115","Trustworthy,Untrustworthy","","null","","","","feedback","","<div class='respPicDiv'><img src='img/responseButtonOffersNo0_wht.png' class='respPic'></div><div class='trialDiv'><img src='Fruit/grapes.png'><br><font class='baseline'><strong>Great Grapes</strong><p><strong><font class='posOutcome'>You WON</font><p>You bet: 5</strong></font> &nbsp; &nbsp; &nbsp; &nbsp; &nbsp; &nbsp;<font class='posOutcome'>you receive: <strong>10</strong></font></div>","null","16","Great Grapes","Fruit/grapes.png","Won","0.65,0.2","8","0.65","229","46","",""
"html-keyboard-response","148","202313","0.0-11.0-1.46","5fb3d39a2ceaab00087faddb","bdp_rwlrn","Wed Mar 15 2023 14:07:20 GMT-0500 (Central Daylight Time)","386115","Trustworthy,Untrustworthy","","654","","","","decision","","<div class='trialDiv'><img src='Fruit/plums1.png'><br><font class='baseline'><strong>Plum Powerball</strong><p>Choose number of points to bet.</font><div class='respPicDiv'><img src='img/responseButtonOffersNo0L.png' class='respPic'></div></div>","5","16","Plum Powerball","Fruit/plums1.png","Won","0.35,0.65","14","0.35","234","47","",""
"html-keyboard-response","149","202577","0.0-11.0-2.46","5fb3d39a2ceaab00087faddb","bdp_rwlrn","Wed Mar 15 2023 14:07:20 GMT-0500 (Central Daylight Time)","386115","Trustworthy,Untrustworthy","","null","","","","decisionFB","","<div class='trialDiv'><img src='Fruit/plums1.png'><br><font class='baseline'><strong>Plum Powerball</strong><p>Choose number of points to bet.</font><div class='respPicDiv'><img src='img/responseButtonOffersNo0L5.png' class='respPic'></div></div>","null","16","Plum Powerball","Fruit/plums1.png","Won","0.35,0.65","14","0.35","229","47","",""
"html-keyboard-response","150","203590","0.0-11.0-3.46","5fb3d39a2ceaab00087faddb","bdp_rwlrn","Wed Mar 15 2023 14:07:20 GMT-0500 (Central Daylight Time)","386115","Trustworthy,Untrustworthy","","null","","","","feedback","","<div class='respPicDiv'><img src='img/responseButtonOffersNo0_wht.png' class='respPic'></div><div class='trialDiv'><img src='Fruit/plums1.png'><br><font class='baseline'><strong>Plum Powerball</strong><p><strong><font class='posOutcome'>You WON</font><p>You bet: 5</strong></font> &nbsp; &nbsp; &nbsp; &nbsp; &nbsp; &nbsp;<font class='posOutcome'>you receive: <strong>10</strong></font></div>","null","16","Plum Powerball","Fruit/plums1.png","Won","0.35,0.65","14","0.35","239","47","",""
"html-keyboard-response","151","204109","0.0-11.0-1.47","5fb3d39a2ceaab00087faddb","bdp_rwlrn","Wed Mar 15 2023 14:07:20 GMT-0500 (Central Daylight Time)","386115","Trustworthy,Untrustworthy","","518","","","","decision","","<div class='trialDiv'><img src='Fruit/Kiwi.png'><br><font class='baseline'><strong>Kiwi Kash</strong><p>Choose number of points to bet.</font><div class='respPicDiv'><img src='img/responseButtonOffersNo0L.png' class='respPic'></div></div>","5","16","Kiwi Kash","Fruit/Kiwi.png","Won","0.2,0.65","10","0.2","244","48","",""
"html-keyboard-response","152","204374","0.0-11.0-2.47","5fb3d39a2ceaab00087faddb","bdp_rwlrn","Wed Mar 15 2023 14:07:20 GMT-0500 (Central Daylight Time)","386115","Trustworthy,Untrustworthy","","null","","","","decisionFB","","<div class='trialDiv'><img src='Fruit/Kiwi.png'><br><font class='baseline'><strong>Kiwi Kash</strong><p>Choose number of points to bet.</font><div class='respPicDiv'><img src='img/responseButtonOffersNo0L5.png' class='respPic'></div></div>","null","16","Kiwi Kash","Fruit/Kiwi.png","Won","0.2,0.65","10","0.2","239","48","",""
"html-keyboard-response","153","205386","0.0-11.0-3.47","5fb3d39a2ceaab00087faddb","bdp_rwlrn","Wed Mar 15 2023 14:07:20 GMT-0500 (Central Daylight Time)","386115","Trustworthy,Untrustworthy","","null","","","","feedback","","<div class='respPicDiv'><img src='img/responseButtonOffersNo0_wht.png' class='respPic'></div><div class='trialDiv'><img src='Fruit/Kiwi.png'><br><font class='baseline'><strong>Kiwi Kash</strong><p><strong><font class='posOutcome'>You WON</font><p>You bet: 5</strong></font> &nbsp; &nbsp; &nbsp; &nbsp; &nbsp; &nbsp;<font class='posOutcome'>you receive: <strong>10</strong></font></div>","null","16","Kiwi Kash","Fruit/Kiwi.png","Won","0.2,0.65","10","0.2","249","48","",""
"html-keyboard-response","154","205996","0.0-11.0-1.48","5fb3d39a2ceaab00087faddb","bdp_rwlrn","Wed Mar 15 2023 14:07:20 GMT-0500 (Central Daylight Time)","386115","Trustworthy,Untrustworthy","","608","","","","decision","","<div class='trialDiv'><img src='Fruit/plums1.png'><br><font class='baseline'><strong>Plum Powerball</strong><p>Choose number of points to bet.</font><div class='respPicDiv'><img src='img/responseButtonOffersNo0L.png' class='respPic'></div></div>","5","17","Plum Powerball","Fruit/plums1.png","Won","0.35,0.65","14","0.35","254","49","",""
"html-keyboard-response","155","206259","0.0-11.0-2.48","5fb3d39a2ceaab00087faddb","bdp_rwlrn","Wed Mar 15 2023 14:07:20 GMT-0500 (Central Daylight Time)","386115","Trustworthy,Untrustworthy","","null","","","","decisionFB","","<div class='trialDiv'><img src='Fruit/plums1.png'><br><font class='baseline'><strong>Plum Powerball</strong><p>Choose number of points to bet.</font><div class='respPicDiv'><img src='img/responseButtonOffersNo0L5.png' class='respPic'></div></div>","null","17","Plum Powerball","Fruit/plums1.png","Won","0.35,0.65","14","0.35","249","49","",""
"html-keyboard-response","156","207263","0.0-11.0-3.48","5fb3d39a2ceaab00087faddb","bdp_rwlrn","Wed Mar 15 2023 14:07:20 GMT-0500 (Central Daylight Time)","386115","Trustworthy,Untrustworthy","","null","","","","feedback","","<div class='respPicDiv'><img src='img/responseButtonOffersNo0_wht.png' class='respPic'></div><div class='trialDiv'><img src='Fruit/plums1.png'><br><font class='baseline'><strong>Plum Powerball</strong><p><strong><font class='posOutcome'>You WON</font><p>You bet: 5</strong></font> &nbsp; &nbsp; &nbsp; &nbsp; &nbsp; &nbsp;<font class='posOutcome'>you receive: <strong>10</strong></font></div>","null","17","Plum Powerball","Fruit/plums1.png","Won","0.35,0.65","14","0.35","259","49","",""
"html-keyboard-response","157","207784","0.0-11.0-1.49","5fb3d39a2ceaab00087faddb","bdp_rwlrn","Wed Mar 15 2023 14:07:20 GMT-0500 (Central Daylight Time)","386115","Trustworthy,Untrustworthy","","520","","","","decision","","<div class='trialDiv'><img src='Fruit/Kiwi.png'><br><font class='baseline'><strong>Kiwi Kash</strong><p>Choose number of points to bet.</font><div class='respPicDiv'><img src='img/responseButtonOffersNo0L.png' class='respPic'></div></div>","5","17","Kiwi Kash","Fruit/Kiwi.png","Lost","0.2,0.65","10","0.2","264","50","",""
"html-keyboard-response","158","208040","0.0-11.0-2.49","5fb3d39a2ceaab00087faddb","bdp_rwlrn","Wed Mar 15 2023 14:07:20 GMT-0500 (Central Daylight Time)","386115","Trustworthy,Untrustworthy","","null","","","","decisionFB","","<div class='trialDiv'><img src='Fruit/Kiwi.png'><br><font class='baseline'><strong>Kiwi Kash</strong><p>Choose number of points to bet.</font><div class='respPicDiv'><img src='img/responseButtonOffersNo0L5.png' class='respPic'></div></div>","null","17","Kiwi Kash","Fruit/Kiwi.png","Lost","0.2,0.65","10","0.2","259","50","",""
"html-keyboard-response","159","209056","0.0-11.0-3.49","5fb3d39a2ceaab00087faddb","bdp_rwlrn","Wed Mar 15 2023 14:07:20 GMT-0500 (Central Daylight Time)","386115","Trustworthy,Untrustworthy","","null","","","","feedback","","<div class='respPicDiv'><img src='img/responseButtonOffersNo0_wht.png' class='respPic'></div><div class='trialDiv'><img src='Fruit/Kiwi.png'><br><font class='baseline'><strong>Kiwi Kash</strong><p><strong><font class='negOutcome'>You LOST</font><p>You bet: 5</strong></font> &nbsp; &nbsp; &nbsp; &nbsp; &nbsp; &nbsp;<font class='negOutcome'>You receive: <strong>0</strong></font></div>","null","17","Kiwi Kash","Fruit/Kiwi.png","Lost","0.2,0.65","10","0.2","259","50","",""
"html-keyboard-response","160","209341","0.0-11.0-1.50","5fb3d39a2ceaab00087faddb","bdp_rwlrn","Wed Mar 15 2023 14:07:20 GMT-0500 (Central Daylight Time)","386115","Trustworthy,Untrustworthy","","282","","","","decision","","<div class='trialDiv'><img src='Fruit/grapes.png'><br><font class='baseline'><strong>Great Grapes</strong><p>Choose number of points to bet.</font><div class='respPicDiv'><img src='img/responseButtonOffersNo0L.png' class='respPic'></div></div>","3","17","Great Grapes","Fruit/grapes.png","Lost","0.65,0.2","8","0.65","264","51","",""
"html-keyboard-response","161","209602","0.0-11.0-2.50","5fb3d39a2ceaab00087faddb","bdp_rwlrn","Wed Mar 15 2023 14:07:20 GMT-0500 (Central Daylight Time)","386115","Trustworthy,Untrustworthy","","null","","","","decisionFB","","<div class='trialDiv'><img src='Fruit/grapes.png'><br><font class='baseline'><strong>Great Grapes</strong><p>Choose number of points to bet.</font><div class='respPicDiv'><img src='img/responseButtonOffersNo0L3.png' class='respPic'></div></div>","null","17","Great Grapes","Fruit/grapes.png","Lost","0.65,0.2","8","0.65","261","51","",""
"html-keyboard-response","162","210618","0.0-11.0-3.50","5fb3d39a2ceaab00087faddb","bdp_rwlrn","Wed Mar 15 2023 14:07:20 GMT-0500 (Central Daylight Time)","386115","Trustworthy,Untrustworthy","","null","","","","feedback","","<div class='respPicDiv'><img src='img/responseButtonOffersNo0_wht.png' class='respPic'></div><div class='trialDiv'><img src='Fruit/grapes.png'><br><font class='baseline'><strong>Great Grapes</strong><p><strong><font class='negOutcome'>You LOST</font><p>You bet: 3</strong></font> &nbsp; &nbsp; &nbsp; &nbsp; &nbsp; &nbsp;<font class='negOutcome'>You receive: <strong>0</strong></font></div>","null","17","Great Grapes","Fruit/grapes.png","Lost","0.65,0.2","8","0.65","261","51","",""
"html-keyboard-response","163","210841","0.0-11.0-1.51","5fb3d39a2ceaab00087faddb","bdp_rwlrn","Wed Mar 15 2023 14:07:20 GMT-0500 (Central Daylight Time)","386115","Trustworthy,Untrustworthy","","222","","","","decision","","<div class='trialDiv'><img src='Fruit/Kiwi.png'><br><font class='baseline'><strong>Kiwi Kash</strong><p>Choose number of points to bet.</font><div class='respPicDiv'><img src='img/responseButtonOffersNo0L.png' class='respPic'></div></div>","4","18","Kiwi Kash","Fruit/Kiwi.png","Won","0.2,0.65","10","0.2","266","52","",""
"html-keyboard-response","164","211103","0.0-11.0-2.51","5fb3d39a2ceaab00087faddb","bdp_rwlrn","Wed Mar 15 2023 14:07:20 GMT-0500 (Central Daylight Time)","386115","Trustworthy,Untrustworthy","","null","","","","decisionFB","","<div class='trialDiv'><img src='Fruit/Kiwi.png'><br><font class='baseline'><strong>Kiwi Kash</strong><p>Choose number of points to bet.</font><div class='respPicDiv'><img src='img/responseButtonOffersNo0L4.png' class='respPic'></div></div>","null","18","Kiwi Kash","Fruit/Kiwi.png","Won","0.2,0.65","10","0.2","262","52","",""
