"trial_type","trial_index","time_elapsed","internal_node_id","subject_id","task","startTime","totalTime","labels","event","trial","time","trialtype","numBlurs","view_history","rt","success","stimulus","key_press","ltround","name","fileID","outcome","lottotype","lottoswpt","lottocurrpshare","point_total","round","faceID","face"
"pavlovia","0","2","0.0-0.0","63dab0380b8791f9560fd329","bdp_rwlrn","Mon Mar 13 2023 13:24:24 GMT-0500 (Central Daylight Time)","419069","Untrustworthy,Trustworthy","","","","","","","","","","","","","","","","","","","","",""
"","","","","63dab0380b8791f9560fd329","bdp_rwlrn","Mon Mar 13 2023 13:24:24 GMT-0500 (Central Daylight Time)","419069","Untrustworthy,Trustworthy","blur","1","660","blurevent","1","","","","","","","","","","","","","","","",""
"","","","","63dab0380b8791f9560fd329","bdp_rwlrn","Mon Mar 13 2023 13:24:24 GMT-0500 (Central Daylight Time)","419069","Untrustworthy,Trustworthy","focus","1","4474","focusevent","","","","","","","","","","","","","","","","",""
"","","","","63dab0380b8791f9560fd329","bdp_rwlrn","Mon Mar 13 2023 13:24:24 GMT-0500 (Central Daylight Time)","419069","Untrustworthy,Trustworthy","blur","1","6764","blurevent","","","","","","","","","","","","","","","","",""
"","","","","63dab0380b8791f9560fd329","bdp_rwlrn","Mon Mar 13 2023 13:24:24 GMT-0500 (Central Daylight Time)","419069","Untrustworthy,Trustworthy","focus","1","24277","focusevent","","","","","","","","","","","","","","","","",""
"instructions","1","25887","0.0-1.0","63dab0380b8791f9560fd329","bdp_rwlrn","Mon Mar 13 2023 13:24:24 GMT-0500 (Central Daylight Time)","419069","Untrustworthy,Trustworthy","","","","","","[{""page_index"":0,""viewing_time"":25885}]","25885","","","","","","","","","","","","","",""
"","","","","63dab0380b8791f9560fd329","bdp_rwlrn","Mon Mar 13 2023 13:24:24 GMT-0500 (Central Daylight Time)","419069","Untrustworthy,Trustworthy","fullscreenenter","2","28115","fullscreenenter","","","","","","","","","","","","","","","","",""
"fullscreen","2","29111","0.0-2.0","63dab0380b8791f9560fd329","bdp_rwlrn","Mon Mar 13 2023 13:24:24 GMT-0500 (Central Daylight Time)","419069","Untrustworthy,Trustworthy","","","","","","","","true","","","","","","","","","","","","",""
"instructions","3","69560","0.0-4.0","63dab0380b8791f9560fd329","bdp_rwlrn","Mon Mar 13 2023 13:24:24 GMT-0500 (Central Daylight Time)","419069","Untrustworthy,Trustworthy","","","","","","[{""page_index"":0,""viewing_time"":8701},{""page_index"":1,""viewing_time"":12340},{""page_index"":2,""viewing_time"":5369},{""page_index"":3,""viewing_time"":2538},{""page_index"":4,""viewing_time"":10183},{""page_index"":5,""viewing_time"":1316}]","40447","","","","","","","","","","","","","",""
"html-keyboard-response","4","72385","0.0-5.0","63dab0380b8791f9560fd329","bdp_rwlrn","Mon Mar 13 2023 13:24:24 GMT-0500 (Central Daylight Time)","419069","Untrustworthy,Trustworthy","","","","","","","2823","","<div class='header' style='text-align:left; position: absolute; top: 5%; left: 5%;'><small>Task 3 of 5</small></div><div class='instruxDiv'><p><strong>1) What is the maximum number of points you can choose to bet on a lottery?</strong></p><p>a) 0</p><p>b) 1</p><p>c) 5</p>","C","","","","","","","","","","",""
"html-keyboard-response","5","73473","0.0-6.0","63dab0380b8791f9560fd329","bdp_rwlrn","Mon Mar 13 2023 13:24:24 GMT-0500 (Central Daylight Time)","419069","Untrustworthy,Trustworthy","","","","","","","987","","<div class='header' style='text-align:left; position: absolute; top: 5%; left: 5%;'><small>Task 3 of 5</small></div><div class='instruxDiv'><p><strong>1) What is the maximum number of points you can choose to bet on a lottery?</strong></p><p>a) 1</p><p>b) 1</p><p style='color:#00FF00'>c) 5</p><h3 style='color:#00FF00'>Correct!</h3><h3 class='center-content'>The correct response is c).</h3><h3 class='center-content'>The maximum number of points you can choose to bet on a lottery is 5 points.</h3><p><em>Press SPACEBAR to continue</em></p></div>"," ","","","","","","","","","","",""
"html-keyboard-response","6","77642","0.0-7.0","63dab0380b8791f9560fd329","bdp_rwlrn","Mon Mar 13 2023 13:24:24 GMT-0500 (Central Daylight Time)","419069","Untrustworthy,Trustworthy","","","","","","","4068","","<div class='header' style='text-align:left; position: absolute; top: 5%; left: 5%;'><small>Task 3 of 5</small></div><div class='instruxDiv'><p><strong>2) How many points can you win each round?</strong></p><p>a) 10 points</p><p>b) Double what you bet</p><p>c) Quadruple what you bet</p>","B","","","","","","","","","","",""
"html-keyboard-response","7","78369","0.0-8.0","63dab0380b8791f9560fd329","bdp_rwlrn","Mon Mar 13 2023 13:24:24 GMT-0500 (Central Daylight Time)","419069","Untrustworthy,Trustworthy","","","","","","","626","","<div class='header' style='text-align:left; position: absolute; top: 5%; left: 5%;'><small>Task 3 of 5</small></div><div class='instruxDiv'><p><strong>2) How many points can you win each round?</strong></p><p>a) 10 points</p><p style='color:#00FF00'>b) Double what you bet</p><p>c) Quadruple what you bet</p><h3 style='color:#00FF00'>Correct!</h3><h3 class='center-content'>The correct response is b).</h3><h3 class='center-content'>You can win double the amount of points you bet.</h3><p><em>Press SPACEBAR to continue</em></p></div>"," ","","","","","","","","","","",""
"html-keyboard-response","8","83471","0.0-9.0","63dab0380b8791f9560fd329","bdp_rwlrn","Mon Mar 13 2023 13:24:24 GMT-0500 (Central Daylight Time)","419069","Untrustworthy,Trustworthy","","","","","","","null","","<div class='header' style='text-align:left; position: absolute; top: 5%; left: 5%;'><small>Task 3 of 5</small></div><div class='instruxDiv'><p>Thank you for completing the quiz<p>These are the actual lotteries you will be playing in the next block:<p><div class='tc' align='center'><img class='introPic' src='Fruit/mixed-berries2.png'><br><strong>Berry Bla$t</strong></div><div class='bl' align='center'><img class='introPic' src='Fruit/mango.png'><br><strong>Mega Mangos</strong></div><div class='br' align='center'><img class='introPic' src='Fruit/watermelon.png'><br><strong>Watermelon Win$</strong></div></div><p>Across <strong>66 rounds</strong> you will play each lottery <strong>22 times</strong> (in random order).<p style='align:center; color:white'><font <em>Press SPACEBAR to continue</em></p>","null","","","","","","","","","","",""
"instructions","9","87273","0.0-10.0","63dab0380b8791f9560fd329","bdp_rwlrn","Mon Mar 13 2023 13:24:24 GMT-0500 (Central Daylight Time)","419069","Untrustworthy,Trustworthy","","","","","","[{""page_index"":0,""viewing_time"":2945},{""page_index"":1,""viewing_time"":856}]","3801","","","","","","","","","","","","","",""
"html-keyboard-response","10","93249","0.0-11.0-1.0","63dab0380b8791f9560fd329","bdp_rwlrn","Mon Mar 13 2023 13:24:24 GMT-0500 (Central Daylight Time)","419069","Untrustworthy,Trustworthy","","","","decision","","","5874","","<div class='trialDiv'><img src='Fruit/mixed-berries2.png'><br><font class='baseline'><strong>Berry Bla$t</strong><p>Choose number of points to bet.</font><div class='respPicDiv'><img src='img/responseButtonOffersNo0L.png' class='respPic'></div></div>","5","1","Berry Bla$t","Fruit/mixed-berries2.png","Lost","0.2,0.65","14","0.2","5","1","",""
"html-keyboard-response","11","93501","0.0-11.0-2.0","63dab0380b8791f9560fd329","bdp_rwlrn","Mon Mar 13 2023 13:24:24 GMT-0500 (Central Daylight Time)","419069","Untrustworthy,Trustworthy","","","","decisionFB","","","null","","<div class='trialDiv'><img src='Fruit/mixed-berries2.png'><br><font class='baseline'><strong>Berry Bla$t</strong><p>Choose number of points to bet.</font><div class='respPicDiv'><img src='img/responseButtonOffersNo0L5.png' class='respPic'></div></div>","null","1","Berry Bla$t","Fruit/mixed-berries2.png","Lost","0.2,0.65","14","0.2","0","1","",""
"html-keyboard-response","12","94503","0.0-11.0-3.0","63dab0380b8791f9560fd329","bdp_rwlrn","Mon Mar 13 2023 13:24:24 GMT-0500 (Central Daylight Time)","419069","Untrustworthy,Trustworthy","","","","feedback","","","null","","<div class='respPicDiv'><img src='img/responseButtonOffersNo0_wht.png' class='respPic'></div><div class='trialDiv'><img src='Fruit/mixed-berries2.png'><br><font class='baseline'><strong>Berry Bla$t</strong><p><strong><font class='negOutcome'>You LOST</font><p>You bet: 5</strong></font> &nbsp; &nbsp; &nbsp; &nbsp; &nbsp; &nbsp;<font class='negOutcome'>You receive: <strong>0</strong></font></div>","null","1","Berry Bla$t","Fruit/mixed-berries2.png","Lost","0.2,0.65","14","0.2","0","1","",""
"html-keyboard-response","13","95333","0.0-11.0-1.1","63dab0380b8791f9560fd329","bdp_rwlrn","Mon Mar 13 2023 13:24:24 GMT-0500 (Central Daylight Time)","419069","Untrustworthy,Trustworthy","","","","decision","","","829","","<div class='trialDiv'><img src='Fruit/watermelon.png'><br><font class='baseline'><strong>Watermelon Win$</strong><p>Choose number of points to bet.</font><div class='respPicDiv'><img src='img/responseButtonOffersNo0L.png' class='respPic'></div></div>","5","1","Watermelon Win$","Fruit/watermelon.png","Won","0.65,0.2","12","0.65","5","2","",""
"html-keyboard-response","14","95595","0.0-11.0-2.1","63dab0380b8791f9560fd329","bdp_rwlrn","Mon Mar 13 2023 13:24:24 GMT-0500 (Central Daylight Time)","419069","Untrustworthy,Trustworthy","","","","decisionFB","","","null","","<div class='trialDiv'><img src='Fruit/watermelon.png'><br><font class='baseline'><strong>Watermelon Win$</strong><p>Choose number of points to bet.</font><div class='respPicDiv'><img src='img/responseButtonOffersNo0L5.png' class='respPic'></div></div>","null","1","Watermelon Win$","Fruit/watermelon.png","Won","0.65,0.2","12","0.65","0","2","",""
"html-keyboard-response","15","96596","0.0-11.0-3.1","63dab0380b8791f9560fd329","bdp_rwlrn","Mon Mar 13 2023 13:24:24 GMT-0500 (Central Daylight Time)","419069","Untrustworthy,Trustworthy","","","","feedback","","","null","","<div class='respPicDiv'><img src='img/responseButtonOffersNo0_wht.png' class='respPic'></div><div class='trialDiv'><img src='Fruit/watermelon.png'><br><font class='baseline'><strong>Watermelon Win$</strong><p><strong><font class='posOutcome'>You WON</font><p>You bet: 5</strong></font> &nbsp; &nbsp; &nbsp; &nbsp; &nbsp; &nbsp;<font class='posOutcome'>you receive: <strong>10</strong></font></div>","null","1","Watermelon Win$","Fruit/watermelon.png","Won","0.65,0.2","12","0.65","10","2","",""
"html-keyboard-response","16","97441","0.0-11.0-1.2","63dab0380b8791f9560fd329","bdp_rwlrn","Mon Mar 13 2023 13:24:24 GMT-0500 (Central Daylight Time)","419069","Untrustworthy,Trustworthy","","","","decision","","","844","","<div class='trialDiv'><img src='Fruit/mango.png'><br><font class='baseline'><strong>Mega Mangos</strong><p>Choose number of points to bet.</font><div class='respPicDiv'><img src='img/responseButtonOffersNo0L.png' class='respPic'></div></div>","5","1","Mega Mangos","Fruit/mango.png","Lost","0.65,0.35","13","0.65","15","3","",""
"html-keyboard-response","17","97693","0.0-11.0-2.2","63dab0380b8791f9560fd329","bdp_rwlrn","Mon Mar 13 2023 13:24:24 GMT-0500 (Central Daylight Time)","419069","Untrustworthy,Trustworthy","","","","decisionFB","","","null","","<div class='trialDiv'><img src='Fruit/mango.png'><br><font class='baseline'><strong>Mega Mangos</strong><p>Choose number of points to bet.</font><div class='respPicDiv'><img src='img/responseButtonOffersNo0L5.png' class='respPic'></div></div>","null","1","Mega Mangos","Fruit/mango.png","Lost","0.65,0.35","13","0.65","10","3","",""
"html-keyboard-response","18","98694","0.0-11.0-3.2","63dab0380b8791f9560fd329","bdp_rwlrn","Mon Mar 13 2023 13:24:24 GMT-0500 (Central Daylight Time)","419069","Untrustworthy,Trustworthy","","","","feedback","","","null","","<div class='respPicDiv'><img src='img/responseButtonOffersNo0_wht.png' class='respPic'></div><div class='trialDiv'><img src='Fruit/mango.png'><br><font class='baseline'><strong>Mega Mangos</strong><p><strong><font class='negOutcome'>You LOST</font><p>You bet: 5</strong></font> &nbsp; &nbsp; &nbsp; &nbsp; &nbsp; &nbsp;<font class='negOutcome'>You receive: <strong>0</strong></font></div>","null","1","Mega Mangos","Fruit/mango.png","Lost","0.65,0.35","13","0.65","10","3","",""
"html-keyboard-response","19","99884","0.0-11.0-1.3","63dab0380b8791f9560fd329","bdp_rwlrn","Mon Mar 13 2023 13:24:24 GMT-0500 (Central Daylight Time)","419069","Untrustworthy,Trustworthy","","","","decision","","","1189","","<div class='trialDiv'><img src='Fruit/mixed-berries2.png'><br><font class='baseline'><strong>Berry Bla$t</strong><p>Choose number of points to bet.</font><div class='respPicDiv'><img src='img/responseButtonOffersNo0L.png' class='respPic'></div></div>","5","2","Berry Bla$t","Fruit/mixed-berries2.png","Lost","0.2,0.65","14","0.2","15","4","",""
"html-keyboard-response","20","100135","0.0-11.0-2.3","63dab0380b8791f9560fd329","bdp_rwlrn","Mon Mar 13 2023 13:24:24 GMT-0500 (Central Daylight Time)","419069","Untrustworthy,Trustworthy","","","","decisionFB","","","null","","<div class='trialDiv'><img src='Fruit/mixed-berries2.png'><br><font class='baseline'><strong>Berry Bla$t</strong><p>Choose number of points to bet.</font><div class='respPicDiv'><img src='img/responseButtonOffersNo0L5.png' class='respPic'></div></div>","null","2","Berry Bla$t","Fruit/mixed-berries2.png","Lost","0.2,0.65","14","0.2","10","4","",""
"html-keyboard-response","21","101136","0.0-11.0-3.3","63dab0380b8791f9560fd329","bdp_rwlrn","Mon Mar 13 2023 13:24:24 GMT-0500 (Central Daylight Time)","419069","Untrustworthy,Trustworthy","","","","feedback","","","null","","<div class='respPicDiv'><img src='img/responseButtonOffersNo0_wht.png' class='respPic'></div><div class='trialDiv'><img src='Fruit/mixed-berries2.png'><br><font class='baseline'><strong>Berry Bla$t</strong><p><strong><font class='negOutcome'>You LOST</font><p>You bet: 5</strong></font> &nbsp; &nbsp; &nbsp; &nbsp; &nbsp; &nbsp;<font class='negOutcome'>You receive: <strong>0</strong></font></div>","null","2","Berry Bla$t","Fruit/mixed-berries2.png","Lost","0.2,0.65","14","0.2","10","4","",""
"html-keyboard-response","22","101593","0.0-11.0-1.4","63dab0380b8791f9560fd329","bdp_rwlrn","Mon Mar 13 2023 13:24:24 GMT-0500 (Central Daylight Time)","419069","Untrustworthy,Trustworthy","","","","decision","","","457","","<div class='trialDiv'><img src='Fruit/watermelon.png'><br><font class='baseline'><strong>Watermelon Win$</strong><p>Choose number of points to bet.</font><div class='respPicDiv'><img src='img/responseButtonOffersNo0L.png' class='respPic'></div></div>","5","2","Watermelon Win$","Fruit/watermelon.png","Won","0.65,0.2","12","0.65","15","5","",""
"html-keyboard-response","23","101845","0.0-11.0-2.4","63dab0380b8791f9560fd329","bdp_rwlrn","Mon Mar 13 2023 13:24:24 GMT-0500 (Central Daylight Time)","419069","Untrustworthy,Trustworthy","","","","decisionFB","","","null","","<div class='trialDiv'><img src='Fruit/watermelon.png'><br><font class='baseline'><strong>Watermelon Win$</strong><p>Choose number of points to bet.</font><div class='respPicDiv'><img src='img/responseButtonOffersNo0L5.png' class='respPic'></div></div>","null","2","Watermelon Win$","Fruit/watermelon.png","Won","0.65,0.2","12","0.65","10","5","",""
"html-keyboard-response","24","102846","0.0-11.0-3.4","63dab0380b8791f9560fd329","bdp_rwlrn","Mon Mar 13 2023 13:24:24 GMT-0500 (Central Daylight Time)","419069","Untrustworthy,Trustworthy","","","","feedback","","","null","","<div class='respPicDiv'><img src='img/responseButtonOffersNo0_wht.png' class='respPic'></div><div class='trialDiv'><img src='Fruit/watermelon.png'><br><font class='baseline'><strong>Watermelon Win$</strong><p><strong><font class='posOutcome'>You WON</font><p>You bet: 5</strong></font> &nbsp; &nbsp; &nbsp; &nbsp; &nbsp; &nbsp;<font class='posOutcome'>you receive: <strong>10</strong></font></div>","null","2","Watermelon Win$","Fruit/watermelon.png","Won","0.65,0.2","12","0.65","20","5","",""
"html-keyboard-response","25","104037","0.0-11.0-1.5","63dab0380b8791f9560fd329","bdp_rwlrn","Mon Mar 13 2023 13:24:24 GMT-0500 (Central Daylight Time)","419069","Untrustworthy,Trustworthy","","","","decision","","","1190","","<div class='trialDiv'><img src='Fruit/mango.png'><br><font class='baseline'><strong>Mega Mangos</strong><p>Choose number of points to bet.</font><div class='respPicDiv'><img src='img/responseButtonOffersNo0L.png' class='respPic'></div></div>","1","2","Mega Mangos","Fruit/mango.png","Won","0.65,0.35","13","0.65","25","6","",""
"html-keyboard-response","26","104289","0.0-11.0-2.5","63dab0380b8791f9560fd329","bdp_rwlrn","Mon Mar 13 2023 13:24:24 GMT-0500 (Central Daylight Time)","419069","Untrustworthy,Trustworthy","","","","decisionFB","","","null","","<div class='trialDiv'><img src='Fruit/mango.png'><br><font class='baseline'><strong>Mega Mangos</strong><p>Choose number of points to bet.</font><div class='respPicDiv'><img src='img/responseButtonOffersNo0L1.png' class='respPic'></div></div>","null","2","Mega Mangos","Fruit/mango.png","Won","0.65,0.35","13","0.65","24","6","",""
"html-keyboard-response","27","105290","0.0-11.0-3.5","63dab0380b8791f9560fd329","bdp_rwlrn","Mon Mar 13 2023 13:24:24 GMT-0500 (Central Daylight Time)","419069","Untrustworthy,Trustworthy","","","","feedback","","","null","","<div class='respPicDiv'><img src='img/responseButtonOffersNo0_wht.png' class='respPic'></div><div class='trialDiv'><img src='Fruit/mango.png'><br><font class='baseline'><strong>Mega Mangos</strong><p><strong><font class='posOutcome'>You WON</font><p>You bet: 1</strong></font> &nbsp; &nbsp; &nbsp; &nbsp; &nbsp; &nbsp;<font class='posOutcome'>you receive: <strong>2</strong></font></div>","null","2","Mega Mangos","Fruit/mango.png","Won","0.65,0.35","13","0.65","26","6","",""
"html-keyboard-response","28","105824","0.0-11.0-1.6","63dab0380b8791f9560fd329","bdp_rwlrn","Mon Mar 13 2023 13:24:24 GMT-0500 (Central Daylight Time)","419069","Untrustworthy,Trustworthy","","","","decision","","","533","","<div class='trialDiv'><img src='Fruit/mixed-berries2.png'><br><font class='baseline'><strong>Berry Bla$t</strong><p>Choose number of points to bet.</font><div class='respPicDiv'><img src='img/responseButtonOffersNo0L.png' class='respPic'></div></div>","1","3","Berry Bla$t","Fruit/mixed-berries2.png","Won","0.2,0.65","14","0.2","31","7","",""
"html-keyboard-response","29","106075","0.0-11.0-2.6","63dab0380b8791f9560fd329","bdp_rwlrn","Mon Mar 13 2023 13:24:24 GMT-0500 (Central Daylight Time)","419069","Untrustworthy,Trustworthy","","","","decisionFB","","","null","","<div class='trialDiv'><img src='Fruit/mixed-berries2.png'><br><font class='baseline'><strong>Berry Bla$t</strong><p>Choose number of points to bet.</font><div class='respPicDiv'><img src='img/responseButtonOffersNo0L1.png' class='respPic'></div></div>","null","3","Berry Bla$t","Fruit/mixed-berries2.png","Won","0.2,0.65","14","0.2","30","7","",""
"html-keyboard-response","30","107077","0.0-11.0-3.6","63dab0380b8791f9560fd329","bdp_rwlrn","Mon Mar 13 2023 13:24:24 GMT-0500 (Central Daylight Time)","419069","Untrustworthy,Trustworthy","","","","feedback","","","null","","<div class='respPicDiv'><img src='img/responseButtonOffersNo0_wht.png' class='respPic'></div><div class='trialDiv'><img src='Fruit/mixed-berries2.png'><br><font class='baseline'><strong>Berry Bla$t</strong><p><strong><font class='posOutcome'>You WON</font><p>You bet: 1</strong></font> &nbsp; &nbsp; &nbsp; &nbsp; &nbsp; &nbsp;<font class='posOutcome'>you receive: <strong>2</strong></font></div>","null","3","Berry Bla$t","Fruit/mixed-berries2.png","Won","0.2,0.65","14","0.2","32","7","",""
"html-keyboard-response","31","107431","0.0-11.0-1.7","63dab0380b8791f9560fd329","bdp_rwlrn","Mon Mar 13 2023 13:24:24 GMT-0500 (Central Daylight Time)","419069","Untrustworthy,Trustworthy","","","","decision","","","353","","<div class='trialDiv'><img src='Fruit/mango.png'><br><font class='baseline'><strong>Mega Mangos</strong><p>Choose number of points to bet.</font><div class='respPicDiv'><img src='img/responseButtonOffersNo0L.png' class='respPic'></div></div>","5","3","Mega Mangos","Fruit/mango.png","Lost","0.65,0.35","13","0.65","37","8","",""
"html-keyboard-response","32","107683","0.0-11.0-2.7","63dab0380b8791f9560fd329","bdp_rwlrn","Mon Mar 13 2023 13:24:24 GMT-0500 (Central Daylight Time)","419069","Untrustworthy,Trustworthy","","","","decisionFB","","","null","","<div class='trialDiv'><img src='Fruit/mango.png'><br><font class='baseline'><strong>Mega Mangos</strong><p>Choose number of points to bet.</font><div class='respPicDiv'><img src='img/responseButtonOffersNo0L5.png' class='respPic'></div></div>","null","3","Mega Mangos","Fruit/mango.png","Lost","0.65,0.35","13","0.65","32","8","",""
"html-keyboard-response","33","108684","0.0-11.0-3.7","63dab0380b8791f9560fd329","bdp_rwlrn","Mon Mar 13 2023 13:24:24 GMT-0500 (Central Daylight Time)","419069","Untrustworthy,Trustworthy","","","","feedback","","","null","","<div class='respPicDiv'><img src='img/responseButtonOffersNo0_wht.png' class='respPic'></div><div class='trialDiv'><img src='Fruit/mango.png'><br><font class='baseline'><strong>Mega Mangos</strong><p><strong><font class='negOutcome'>You LOST</font><p>You bet: 5</strong></font> &nbsp; &nbsp; &nbsp; &nbsp; &nbsp; &nbsp;<font class='negOutcome'>You receive: <strong>0</strong></font></div>","null","3","Mega Mangos","Fruit/mango.png","Lost","0.65,0.35","13","0.65","32","8","",""
"html-keyboard-response","34","109062","0.0-11.0-1.8","63dab0380b8791f9560fd329","bdp_rwlrn","Mon Mar 13 2023 13:24:24 GMT-0500 (Central Daylight Time)","419069","Untrustworthy,Trustworthy","","","","decision","","","377","","<div class='trialDiv'><img src='Fruit/watermelon.png'><br><font class='baseline'><strong>Watermelon Win$</strong><p>Choose number of points to bet.</font><div class='respPicDiv'><img src='img/responseButtonOffersNo0L.png' class='respPic'></div></div>","5","3","Watermelon Win$","Fruit/watermelon.png","Won","0.65,0.2","12","0.65","37","9","",""
"html-keyboard-response","35","109314","0.0-11.0-2.8","63dab0380b8791f9560fd329","bdp_rwlrn","Mon Mar 13 2023 13:24:24 GMT-0500 (Central Daylight Time)","419069","Untrustworthy,Trustworthy","","","","decisionFB","","","null","","<div class='trialDiv'><img src='Fruit/watermelon.png'><br><font class='baseline'><strong>Watermelon Win$</strong><p>Choose number of points to bet.</font><div class='respPicDiv'><img src='img/responseButtonOffersNo0L5.png' class='respPic'></div></div>","null","3","Watermelon Win$","Fruit/watermelon.png","Won","0.65,0.2","12","0.65","32","9","",""
"html-keyboard-response","36","110326","0.0-11.0-3.8","63dab0380b8791f9560fd329","bdp_rwlrn","Mon Mar 13 2023 13:24:24 GMT-0500 (Central Daylight Time)","419069","Untrustworthy,Trustworthy","","","","feedback","","","null","","<div class='respPicDiv'><img src='img/responseButtonOffersNo0_wht.png' class='respPic'></div><div class='trialDiv'><img src='Fruit/watermelon.png'><br><font class='baseline'><strong>Watermelon Win$</strong><p><strong><font class='posOutcome'>You WON</font><p>You bet: 5</strong></font> &nbsp; &nbsp; &nbsp; &nbsp; &nbsp; &nbsp;<font class='posOutcome'>you receive: <strong>10</strong></font></div>","null","3","Watermelon Win$","Fruit/watermelon.png","Won","0.65,0.2","12","0.65","42","9","",""
"html-keyboard-response","37","110837","0.0-11.0-1.9","63dab0380b8791f9560fd329","bdp_rwlrn","Mon Mar 13 2023 13:24:24 GMT-0500 (Central Daylight Time)","419069","Untrustworthy,Trustworthy","","","","decision","","","511","","<div class='trialDiv'><img src='Fruit/mixed-berries2.png'><br><font class='baseline'><strong>Berry Bla$t</strong><p>Choose number of points to bet.</font><div class='respPicDiv'><img src='img/responseButtonOffersNo0L.png' class='respPic'></div></div>","1","4","Berry Bla$t","Fruit/mixed-berries2.png","Lost","0.2,0.65","14","0.2","47","10","",""
"html-keyboard-response","38","111088","0.0-11.0-2.9","63dab0380b8791f9560fd329","bdp_rwlrn","Mon Mar 13 2023 13:24:24 GMT-0500 (Central Daylight Time)","419069","Untrustworthy,Trustworthy","","","","decisionFB","","","null","","<div class='trialDiv'><img src='Fruit/mixed-berries2.png'><br><font class='baseline'><strong>Berry Bla$t</strong><p>Choose number of points to bet.</font><div class='respPicDiv'><img src='img/responseButtonOffersNo0L1.png' class='respPic'></div></div>","null","4","Berry Bla$t","Fruit/mixed-berries2.png","Lost","0.2,0.65","14","0.2","46","10","",""
"html-keyboard-response","39","112089","0.0-11.0-3.9","63dab0380b8791f9560fd329","bdp_rwlrn","Mon Mar 13 2023 13:24:24 GMT-0500 (Central Daylight Time)","419069","Untrustworthy,Trustworthy","","","","feedback","","","null","","<div class='respPicDiv'><img src='img/responseButtonOffersNo0_wht.png' class='respPic'></div><div class='trialDiv'><img src='Fruit/mixed-berries2.png'><br><font class='baseline'><strong>Berry Bla$t</strong><p><strong><font class='negOutcome'>You LOST</font><p>You bet: 1</strong></font> &nbsp; &nbsp; &nbsp; &nbsp; &nbsp; &nbsp;<font class='negOutcome'>You receive: <strong>0</strong></font></div>","null","4","Berry Bla$t","Fruit/mixed-berries2.png","Lost","0.2,0.65","14","0.2","46","10","",""
"html-keyboard-response","40","112768","0.0-11.0-1.10","63dab0380b8791f9560fd329","bdp_rwlrn","Mon Mar 13 2023 13:24:24 GMT-0500 (Central Daylight Time)","419069","Untrustworthy,Trustworthy","","","","decision","","","679","","<div class='trialDiv'><img src='Fruit/mango.png'><br><font class='baseline'><strong>Mega Mangos</strong><p>Choose number of points to bet.</font><div class='respPicDiv'><img src='img/responseButtonOffersNo0L.png' class='respPic'></div></div>","1","4","Mega Mangos","Fruit/mango.png","Won","0.65,0.35","13","0.65","51","11","",""
"html-keyboard-response","41","113020","0.0-11.0-2.10","63dab0380b8791f9560fd329","bdp_rwlrn","Mon Mar 13 2023 13:24:24 GMT-0500 (Central Daylight Time)","419069","Untrustworthy,Trustworthy","","","","decisionFB","","","null","","<div class='trialDiv'><img src='Fruit/mango.png'><br><font class='baseline'><strong>Mega Mangos</strong><p>Choose number of points to bet.</font><div class='respPicDiv'><img src='img/responseButtonOffersNo0L1.png' class='respPic'></div></div>","null","4","Mega Mangos","Fruit/mango.png","Won","0.65,0.35","13","0.65","50","11","",""
"html-keyboard-response","42","114020","0.0-11.0-3.10","63dab0380b8791f9560fd329","bdp_rwlrn","Mon Mar 13 2023 13:24:24 GMT-0500 (Central Daylight Time)","419069","Untrustworthy,Trustworthy","","","","feedback","","","null","","<div class='respPicDiv'><img src='img/responseButtonOffersNo0_wht.png' class='respPic'></div><div class='trialDiv'><img src='Fruit/mango.png'><br><font class='baseline'><strong>Mega Mangos</strong><p><strong><font class='posOutcome'>You WON</font><p>You bet: 1</strong></font> &nbsp; &nbsp; &nbsp; &nbsp; &nbsp; &nbsp;<font class='posOutcome'>you receive: <strong>2</strong></font></div>","null","4","Mega Mangos","Fruit/mango.png","Won","0.65,0.35","13","0.65","52","11","",""
"html-keyboard-response","43","114658","0.0-11.0-1.11","63dab0380b8791f9560fd329","bdp_rwlrn","Mon Mar 13 2023 13:24:24 GMT-0500 (Central Daylight Time)","419069","Untrustworthy,Trustworthy","","","","decision","","","637","","<div class='trialDiv'><img src='Fruit/watermelon.png'><br><font class='baseline'><strong>Watermelon Win$</strong><p>Choose number of points to bet.</font><div class='respPicDiv'><img src='img/responseButtonOffersNo0L.png' class='respPic'></div></div>","5","4","Watermelon Win$","Fruit/watermelon.png","Won","0.65,0.2","12","0.65","57","12","",""
"html-keyboard-response","44","114910","0.0-11.0-2.11","63dab0380b8791f9560fd329","bdp_rwlrn","Mon Mar 13 2023 13:24:24 GMT-0500 (Central Daylight Time)","419069","Untrustworthy,Trustworthy","","","","decisionFB","","","null","","<div class='trialDiv'><img src='Fruit/watermelon.png'><br><font class='baseline'><strong>Watermelon Win$</strong><p>Choose number of points to bet.</font><div class='respPicDiv'><img src='img/responseButtonOffersNo0L5.png' class='respPic'></div></div>","null","4","Watermelon Win$","Fruit/watermelon.png","Won","0.65,0.2","12","0.65","52","12","",""
"html-keyboard-response","45","115923","0.0-11.0-3.11","63dab0380b8791f9560fd329","bdp_rwlrn","Mon Mar 13 2023 13:24:24 GMT-0500 (Central Daylight Time)","419069","Untrustworthy,Trustworthy","","","","feedback","","","null","","<div class='respPicDiv'><img src='img/responseButtonOffersNo0_wht.png' class='respPic'></div><div class='trialDiv'><img src='Fruit/watermelon.png'><br><font class='baseline'><strong>Watermelon Win$</strong><p><strong><font class='posOutcome'>You WON</font><p>You bet: 5</strong></font> &nbsp; &nbsp; &nbsp; &nbsp; &nbsp; &nbsp;<font class='posOutcome'>you receive: <strong>10</strong></font></div>","null","4","Watermelon Win$","Fruit/watermelon.png","Won","0.65,0.2","12","0.65","62","12","",""
"html-keyboard-response","46","117069","0.0-11.0-1.12","63dab0380b8791f9560fd329","bdp_rwlrn","Mon Mar 13 2023 13:24:24 GMT-0500 (Central Daylight Time)","419069","Untrustworthy,Trustworthy","","","","decision","","","1145","","<div class='trialDiv'><img src='Fruit/mango.png'><br><font class='baseline'><strong>Mega Mangos</strong><p>Choose number of points to bet.</font><div class='respPicDiv'><img src='img/responseButtonOffersNo0L.png' class='respPic'></div></div>","1","5","Mega Mangos","Fruit/mango.png","Won","0.65,0.35","13","0.65","67","13","",""
"html-keyboard-response","47","117320","0.0-11.0-2.12","63dab0380b8791f9560fd329","bdp_rwlrn","Mon Mar 13 2023 13:24:24 GMT-0500 (Central Daylight Time)","419069","Untrustworthy,Trustworthy","","","","decisionFB","","","null","","<div class='trialDiv'><img src='Fruit/mango.png'><br><font class='baseline'><strong>Mega Mangos</strong><p>Choose number of points to bet.</font><div class='respPicDiv'><img src='img/responseButtonOffersNo0L1.png' class='respPic'></div></div>","null","5","Mega Mangos","Fruit/mango.png","Won","0.65,0.35","13","0.65","66","13","",""
"html-keyboard-response","48","118322","0.0-11.0-3.12","63dab0380b8791f9560fd329","bdp_rwlrn","Mon Mar 13 2023 13:24:24 GMT-0500 (Central Daylight Time)","419069","Untrustworthy,Trustworthy","","","","feedback","","","null","","<div class='respPicDiv'><img src='img/responseButtonOffersNo0_wht.png' class='respPic'></div><div class='trialDiv'><img src='Fruit/mango.png'><br><font class='baseline'><strong>Mega Mangos</strong><p><strong><font class='posOutcome'>You WON</font><p>You bet: 1</strong></font> &nbsp; &nbsp; &nbsp; &nbsp; &nbsp; &nbsp;<font class='posOutcome'>you receive: <strong>2</strong></font></div>","null","5","Mega Mangos","Fruit/mango.png","Won","0.65,0.35","13","0.65","68","13","",""
"html-keyboard-response","49","118782","0.0-11.0-1.13","63dab0380b8791f9560fd329","bdp_rwlrn","Mon Mar 13 2023 13:24:24 GMT-0500 (Central Daylight Time)","419069","Untrustworthy,Trustworthy","","","","decision","","","460","","<div class='trialDiv'><img src='Fruit/mixed-berries2.png'><br><font class='baseline'><strong>Berry Bla$t</strong><p>Choose number of points to bet.</font><div class='respPicDiv'><img src='img/responseButtonOffersNo0L.png' class='respPic'></div></div>","1","5","Berry Bla$t","Fruit/mixed-berries2.png","Lost","0.2,0.65","14","0.2","73","14","",""
"html-keyboard-response","50","119034","0.0-11.0-2.13","63dab0380b8791f9560fd329","bdp_rwlrn","Mon Mar 13 2023 13:24:24 GMT-0500 (Central Daylight Time)","419069","Untrustworthy,Trustworthy","","","","decisionFB","","","null","","<div class='trialDiv'><img src='Fruit/mixed-berries2.png'><br><font class='baseline'><strong>Berry Bla$t</strong><p>Choose number of points to bet.</font><div class='respPicDiv'><img src='img/responseButtonOffersNo0L1.png' class='respPic'></div></div>","null","5","Berry Bla$t","Fruit/mixed-berries2.png","Lost","0.2,0.65","14","0.2","72","14","",""
"html-keyboard-response","51","120036","0.0-11.0-3.13","63dab0380b8791f9560fd329","bdp_rwlrn","Mon Mar 13 2023 13:24:24 GMT-0500 (Central Daylight Time)","419069","Untrustworthy,Trustworthy","","","","feedback","","","null","","<div class='respPicDiv'><img src='img/responseButtonOffersNo0_wht.png' class='respPic'></div><div class='trialDiv'><img src='Fruit/mixed-berries2.png'><br><font class='baseline'><strong>Berry Bla$t</strong><p><strong><font class='negOutcome'>You LOST</font><p>You bet: 1</strong></font> &nbsp; &nbsp; &nbsp; &nbsp; &nbsp; &nbsp;<font class='negOutcome'>You receive: <strong>0</strong></font></div>","null","5","Berry Bla$t","Fruit/mixed-berries2.png","Lost","0.2,0.65","14","0.2","72","14","",""
"html-keyboard-response","52","120467","0.0-11.0-1.14","63dab0380b8791f9560fd329","bdp_rwlrn","Mon Mar 13 2023 13:24:24 GMT-0500 (Central Daylight Time)","419069","Untrustworthy,Trustworthy","","","","decision","","","430","","<div class='trialDiv'><img src='Fruit/watermelon.png'><br><font class='baseline'><strong>Watermelon Win$</strong><p>Choose number of points to bet.</font><div class='respPicDiv'><img src='img/responseButtonOffersNo0L.png' class='respPic'></div></div>","5","5","Watermelon Win$","Fruit/watermelon.png","Lost","0.65,0.2","12","0.65","77","15","",""
"html-keyboard-response","53","120718","0.0-11.0-2.14","63dab0380b8791f9560fd329","bdp_rwlrn","Mon Mar 13 2023 13:24:24 GMT-0500 (Central Daylight Time)","419069","Untrustworthy,Trustworthy","","","","decisionFB","","","null","","<div class='trialDiv'><img src='Fruit/watermelon.png'><br><font class='baseline'><strong>Watermelon Win$</strong><p>Choose number of points to bet.</font><div class='respPicDiv'><img src='img/responseButtonOffersNo0L5.png' class='respPic'></div></div>","null","5","Watermelon Win$","Fruit/watermelon.png","Lost","0.65,0.2","12","0.65","72","15","",""
"html-keyboard-response","54","121719","0.0-11.0-3.14","63dab0380b8791f9560fd329","bdp_rwlrn","Mon Mar 13 2023 13:24:24 GMT-0500 (Central Daylight Time)","419069","Untrustworthy,Trustworthy","","","","feedback","","","null","","<div class='respPicDiv'><img src='img/responseButtonOffersNo0_wht.png' class='respPic'></div><div class='trialDiv'><img src='Fruit/watermelon.png'><br><font class='baseline'><strong>Watermelon Win$</strong><p><strong><font class='negOutcome'>You LOST</font><p>You bet: 5</strong></font> &nbsp; &nbsp; &nbsp; &nbsp; &nbsp; &nbsp;<font class='negOutcome'>You receive: <strong>0</strong></font></div>","null","5","Watermelon Win$","Fruit/watermelon.png","Lost","0.65,0.2","12","0.65","72","15","",""
"html-keyboard-response","55","122342","0.0-11.0-1.15","63dab0380b8791f9560fd329","bdp_rwlrn","Mon Mar 13 2023 13:24:24 GMT-0500 (Central Daylight Time)","419069","Untrustworthy,Trustworthy","","","","decision","","","621","","<div class='trialDiv'><img src='Fruit/mixed-berries2.png'><br><font class='baseline'><strong>Berry Bla$t</strong><p>Choose number of points to bet.</font><div class='respPicDiv'><img src='img/responseButtonOffersNo0L.png' class='respPic'></div></div>","1","6","Berry Bla$t","Fruit/mixed-berries2.png","Won","0.2,0.65","14","0.2","77","16","",""
"html-keyboard-response","56","122592","0.0-11.0-2.15","63dab0380b8791f9560fd329","bdp_rwlrn","Mon Mar 13 2023 13:24:24 GMT-0500 (Central Daylight Time)","419069","Untrustworthy,Trustworthy","","","","decisionFB","","","null","","<div class='trialDiv'><img src='Fruit/mixed-berries2.png'><br><font class='baseline'><strong>Berry Bla$t</strong><p>Choose number of points to bet.</font><div class='respPicDiv'><img src='img/responseButtonOffersNo0L1.png' class='respPic'></div></div>","null","6","Berry Bla$t","Fruit/mixed-berries2.png","Won","0.2,0.65","14","0.2","76","16","",""
"html-keyboard-response","57","123594","0.0-11.0-3.15","63dab0380b8791f9560fd329","bdp_rwlrn","Mon Mar 13 2023 13:24:24 GMT-0500 (Central Daylight Time)","419069","Untrustworthy,Trustworthy","","","","feedback","","","null","","<div class='respPicDiv'><img src='img/responseButtonOffersNo0_wht.png' class='respPic'></div><div class='trialDiv'><img src='Fruit/mixed-berries2.png'><br><font class='baseline'><strong>Berry Bla$t</strong><p><strong><font class='posOutcome'>You WON</font><p>You bet: 1</strong></font> &nbsp; &nbsp; &nbsp; &nbsp; &nbsp; &nbsp;<font class='posOutcome'>you receive: <strong>2</strong></font></div>","null","6","Berry Bla$t","Fruit/mixed-berries2.png","Won","0.2,0.65","14","0.2","78","16","",""
"html-keyboard-response","58","124202","0.0-11.0-1.16","63dab0380b8791f9560fd329","bdp_rwlrn","Mon Mar 13 2023 13:24:24 GMT-0500 (Central Daylight Time)","419069","Untrustworthy,Trustworthy","","","","decision","","","608","","<div class='trialDiv'><img src='Fruit/mango.png'><br><font class='baseline'><strong>Mega Mangos</strong><p>Choose number of points to bet.</font><div class='respPicDiv'><img src='img/responseButtonOffersNo0L.png' class='respPic'></div></div>","1","6","Mega Mangos","Fruit/mango.png","Won","0.65,0.35","13","0.65","83","17","",""
"html-keyboard-response","59","124454","0.0-11.0-2.16","63dab0380b8791f9560fd329","bdp_rwlrn","Mon Mar 13 2023 13:24:24 GMT-0500 (Central Daylight Time)","419069","Untrustworthy,Trustworthy","","","","decisionFB","","","null","","<div class='trialDiv'><img src='Fruit/mango.png'><br><font class='baseline'><strong>Mega Mangos</strong><p>Choose number of points to bet.</font><div class='respPicDiv'><img src='img/responseButtonOffersNo0L1.png' class='respPic'></div></div>","null","6","Mega Mangos","Fruit/mango.png","Won","0.65,0.35","13","0.65","82","17","",""
"html-keyboard-response","60","125455","0.0-11.0-3.16","63dab0380b8791f9560fd329","bdp_rwlrn","Mon Mar 13 2023 13:24:24 GMT-0500 (Central Daylight Time)","419069","Untrustworthy,Trustworthy","","","","feedback","","","null","","<div class='respPicDiv'><img src='img/responseButtonOffersNo0_wht.png' class='respPic'></div><div class='trialDiv'><img src='Fruit/mango.png'><br><font class='baseline'><strong>Mega Mangos</strong><p><strong><font class='posOutcome'>You WON</font><p>You bet: 1</strong></font> &nbsp; &nbsp; &nbsp; &nbsp; &nbsp; &nbsp;<font class='posOutcome'>you receive: <strong>2</strong></font></div>","null","6","Mega Mangos","Fruit/mango.png","Won","0.65,0.35","13","0.65","84","17","",""
"html-keyboard-response","61","125860","0.0-11.0-1.17","63dab0380b8791f9560fd329","bdp_rwlrn","Mon Mar 13 2023 13:24:24 GMT-0500 (Central Daylight Time)","419069","Untrustworthy,Trustworthy","","","","decision","","","404","","<div class='trialDiv'><img src='Fruit/watermelon.png'><br><font class='baseline'><strong>Watermelon Win$</strong><p>Choose number of points to bet.</font><div class='respPicDiv'><img src='img/responseButtonOffersNo0L.png' class='respPic'></div></div>","5","6","Watermelon Win$","Fruit/watermelon.png","Lost","0.65,0.2","12","0.65","89","18","",""
"html-keyboard-response","62","126112","0.0-11.0-2.17","63dab0380b8791f9560fd329","bdp_rwlrn","Mon Mar 13 2023 13:24:24 GMT-0500 (Central Daylight Time)","419069","Untrustworthy,Trustworthy","","","","decisionFB","","","null","","<div class='trialDiv'><img src='Fruit/watermelon.png'><br><font class='baseline'><strong>Watermelon Win$</strong><p>Choose number of points to bet.</font><div class='respPicDiv'><img src='img/responseButtonOffersNo0L5.png' class='respPic'></div></div>","null","6","Watermelon Win$","Fruit/watermelon.png","Lost","0.65,0.2","12","0.65","84","18","",""
"html-keyboard-response","63","127114","0.0-11.0-3.17","63dab0380b8791f9560fd329","bdp_rwlrn","Mon Mar 13 2023 13:24:24 GMT-0500 (Central Daylight Time)","419069","Untrustworthy,Trustworthy","","","","feedback","","","null","","<div class='respPicDiv'><img src='img/responseButtonOffersNo0_wht.png' class='respPic'></div><div class='trialDiv'><img src='Fruit/watermelon.png'><br><font class='baseline'><strong>Watermelon Win$</strong><p><strong><font class='negOutcome'>You LOST</font><p>You bet: 5</strong></font> &nbsp; &nbsp; &nbsp; &nbsp; &nbsp; &nbsp;<font class='negOutcome'>You receive: <strong>0</strong></font></div>","null","6","Watermelon Win$","Fruit/watermelon.png","Lost","0.65,0.2","12","0.65","84","18","",""
"html-keyboard-response","64","127514","0.0-11.0-1.18","63dab0380b8791f9560fd329","bdp_rwlrn","Mon Mar 13 2023 13:24:24 GMT-0500 (Central Daylight Time)","419069","Untrustworthy,Trustworthy","","","","decision","","","399","","<div class='trialDiv'><img src='Fruit/mango.png'><br><font class='baseline'><strong>Mega Mangos</strong><p>Choose number of points to bet.</font><div class='respPicDiv'><img src='img/responseButtonOffersNo0L.png' class='respPic'></div></div>","1","7","Mega Mangos","Fruit/mango.png","Won","0.65,0.35","13","0.65","89","19","",""
"html-keyboard-response","65","127765","0.0-11.0-2.18","63dab0380b8791f9560fd329","bdp_rwlrn","Mon Mar 13 2023 13:24:24 GMT-0500 (Central Daylight Time)","419069","Untrustworthy,Trustworthy","","","","decisionFB","","","null","","<div class='trialDiv'><img src='Fruit/mango.png'><br><font class='baseline'><strong>Mega Mangos</strong><p>Choose number of points to bet.</font><div class='respPicDiv'><img src='img/responseButtonOffersNo0L1.png' class='respPic'></div></div>","null","7","Mega Mangos","Fruit/mango.png","Won","0.65,0.35","13","0.65","88","19","",""
"html-keyboard-response","66","128767","0.0-11.0-3.18","63dab0380b8791f9560fd329","bdp_rwlrn","Mon Mar 13 2023 13:24:24 GMT-0500 (Central Daylight Time)","419069","Untrustworthy,Trustworthy","","","","feedback","","","null","","<div class='respPicDiv'><img src='img/responseButtonOffersNo0_wht.png' class='respPic'></div><div class='trialDiv'><img src='Fruit/mango.png'><br><font class='baseline'><strong>Mega Mangos</strong><p><strong><font class='posOutcome'>You WON</font><p>You bet: 1</strong></font> &nbsp; &nbsp; &nbsp; &nbsp; &nbsp; &nbsp;<font class='posOutcome'>you receive: <strong>2</strong></font></div>","null","7","Mega Mangos","Fruit/mango.png","Won","0.65,0.35","13","0.65","90","19","",""
"html-keyboard-response","67","129564","0.0-11.0-1.19","63dab0380b8791f9560fd329","bdp_rwlrn","Mon Mar 13 2023 13:24:24 GMT-0500 (Central Daylight Time)","419069","Untrustworthy,Trustworthy","","","","decision","","","797","","<div class='trialDiv'><img src='Fruit/mixed-berries2.png'><br><font class='baseline'><strong>Berry Bla$t</strong><p>Choose number of points to bet.</font><div class='respPicDiv'><img src='img/responseButtonOffersNo0L.png' class='respPic'></div></div>","1","7","Berry Bla$t","Fruit/mixed-berries2.png","Lost","0.2,0.65","14","0.2","95","20","",""
"html-keyboard-response","68","129816","0.0-11.0-2.19","63dab0380b8791f9560fd329","bdp_rwlrn","Mon Mar 13 2023 13:24:24 GMT-0500 (Central Daylight Time)","419069","Untrustworthy,Trustworthy","","","","decisionFB","","","null","","<div class='trialDiv'><img src='Fruit/mixed-berries2.png'><br><font class='baseline'><strong>Berry Bla$t</strong><p>Choose number of points to bet.</font><div class='respPicDiv'><img src='img/responseButtonOffersNo0L1.png' class='respPic'></div></div>","null","7","Berry Bla$t","Fruit/mixed-berries2.png","Lost","0.2,0.65","14","0.2","94","20","",""
"html-keyboard-response","69","130817","0.0-11.0-3.19","63dab0380b8791f9560fd329","bdp_rwlrn","Mon Mar 13 2023 13:24:24 GMT-0500 (Central Daylight Time)","419069","Untrustworthy,Trustworthy","","","","feedback","","","null","","<div class='respPicDiv'><img src='img/responseButtonOffersNo0_wht.png' class='respPic'></div><div class='trialDiv'><img src='Fruit/mixed-berries2.png'><br><font class='baseline'><strong>Berry Bla$t</strong><p><strong><font class='negOutcome'>You LOST</font><p>You bet: 1</strong></font> &nbsp; &nbsp; &nbsp; &nbsp; &nbsp; &nbsp;<font class='negOutcome'>You receive: <strong>0</strong></font></div>","null","7","Berry Bla$t","Fruit/mixed-berries2.png","Lost","0.2,0.65","14","0.2","94","20","",""
"html-keyboard-response","70","131227","0.0-11.0-1.20","63dab0380b8791f9560fd329","bdp_rwlrn","Mon Mar 13 2023 13:24:24 GMT-0500 (Central Daylight Time)","419069","Untrustworthy,Trustworthy","","","","decision","","","410","","<div class='trialDiv'><img src='Fruit/watermelon.png'><br><font class='baseline'><strong>Watermelon Win$</strong><p>Choose number of points to bet.</font><div class='respPicDiv'><img src='img/responseButtonOffersNo0L.png' class='respPic'></div></div>","5","7","Watermelon Win$","Fruit/watermelon.png","Won","0.65,0.2","12","0.65","99","21","",""
"html-keyboard-response","71","131479","0.0-11.0-2.20","63dab0380b8791f9560fd329","bdp_rwlrn","Mon Mar 13 2023 13:24:24 GMT-0500 (Central Daylight Time)","419069","Untrustworthy,Trustworthy","","","","decisionFB","","","null","","<div class='trialDiv'><img src='Fruit/watermelon.png'><br><font class='baseline'><strong>Watermelon Win$</strong><p>Choose number of points to bet.</font><div class='respPicDiv'><img src='img/responseButtonOffersNo0L5.png' class='respPic'></div></div>","null","7","Watermelon Win$","Fruit/watermelon.png","Won","0.65,0.2","12","0.65","94","21","",""
"html-keyboard-response","72","132480","0.0-11.0-3.20","63dab0380b8791f9560fd329","bdp_rwlrn","Mon Mar 13 2023 13:24:24 GMT-0500 (Central Daylight Time)","419069","Untrustworthy,Trustworthy","","","","feedback","","","null","","<div class='respPicDiv'><img src='img/responseButtonOffersNo0_wht.png' class='respPic'></div><div class='trialDiv'><img src='Fruit/watermelon.png'><br><font class='baseline'><strong>Watermelon Win$</strong><p><strong><font class='posOutcome'>You WON</font><p>You bet: 5</strong></font> &nbsp; &nbsp; &nbsp; &nbsp; &nbsp; &nbsp;<font class='posOutcome'>you receive: <strong>10</strong></font></div>","null","7","Watermelon Win$","Fruit/watermelon.png","Won","0.65,0.2","12","0.65","104","21","",""
"html-keyboard-response","73","133230","0.0-11.0-1.21","63dab0380b8791f9560fd329","bdp_rwlrn","Mon Mar 13 2023 13:24:24 GMT-0500 (Central Daylight Time)","419069","Untrustworthy,Trustworthy","","","","decision","","","749","","<div class='trialDiv'><img src='Fruit/mixed-berries2.png'><br><font class='baseline'><strong>Berry Bla$t</strong><p>Choose number of points to bet.</font><div class='respPicDiv'><img src='img/responseButtonOffersNo0L.png' class='respPic'></div></div>","1","8","Berry Bla$t","Fruit/mixed-berries2.png","Lost","0.2,0.65","14","0.2","109","22","",""
"html-keyboard-response","74","133481","0.0-11.0-2.21","63dab0380b8791f9560fd329","bdp_rwlrn","Mon Mar 13 2023 13:24:24 GMT-0500 (Central Daylight Time)","419069","Untrustworthy,Trustworthy","","","","decisionFB","","","null","","<div class='trialDiv'><img src='Fruit/mixed-berries2.png'><br><font class='baseline'><strong>Berry Bla$t</strong><p>Choose number of points to bet.</font><div class='respPicDiv'><img src='img/responseButtonOffersNo0L1.png' class='respPic'></div></div>","null","8","Berry Bla$t","Fruit/mixed-berries2.png","Lost","0.2,0.65","14","0.2","108","22","",""
"html-keyboard-response","75","134482","0.0-11.0-3.21","63dab0380b8791f9560fd329","bdp_rwlrn","Mon Mar 13 2023 13:24:24 GMT-0500 (Central Daylight Time)","419069","Untrustworthy,Trustworthy","","","","feedback","","","null","","<div class='respPicDiv'><img src='img/responseButtonOffersNo0_wht.png' class='respPic'></div><div class='trialDiv'><img src='Fruit/mixed-berries2.png'><br><font class='baseline'><strong>Berry Bla$t</strong><p><strong><font class='negOutcome'>You LOST</font><p>You bet: 1</strong></font> &nbsp; &nbsp; &nbsp; &nbsp; &nbsp; &nbsp;<font class='negOutcome'>You receive: <strong>0</strong></font></div>","null","8","Berry Bla$t","Fruit/mixed-berries2.png","Lost","0.2,0.65","14","0.2","108","22","",""
"html-keyboard-response","76","135248","0.0-11.0-1.22","63dab0380b8791f9560fd329","bdp_rwlrn","Mon Mar 13 2023 13:24:24 GMT-0500 (Central Daylight Time)","419069","Untrustworthy,Trustworthy","","","","decision","","","766","","<div class='trialDiv'><img src='Fruit/watermelon.png'><br><font class='baseline'><strong>Watermelon Win$</strong><p>Choose number of points to bet.</font><div class='respPicDiv'><img src='img/responseButtonOffersNo0L.png' class='respPic'></div></div>","5","8","Watermelon Win$","Fruit/watermelon.png","Won","0.65,0.2","12","0.65","113","23","",""
"html-keyboard-response","77","135499","0.0-11.0-2.22","63dab0380b8791f9560fd329","bdp_rwlrn","Mon Mar 13 2023 13:24:24 GMT-0500 (Central Daylight Time)","419069","Untrustworthy,Trustworthy","","","","decisionFB","","","null","","<div class='trialDiv'><img src='Fruit/watermelon.png'><br><font class='baseline'><strong>Watermelon Win$</strong><p>Choose number of points to bet.</font><div class='respPicDiv'><img src='img/responseButtonOffersNo0L5.png' class='respPic'></div></div>","null","8","Watermelon Win$","Fruit/watermelon.png","Won","0.65,0.2","12","0.65","108","23","",""
"html-keyboard-response","78","136501","0.0-11.0-3.22","63dab0380b8791f9560fd329","bdp_rwlrn","Mon Mar 13 2023 13:24:24 GMT-0500 (Central Daylight Time)","419069","Untrustworthy,Trustworthy","","","","feedback","","","null","","<div class='respPicDiv'><img src='img/responseButtonOffersNo0_wht.png' class='respPic'></div><div class='trialDiv'><img src='Fruit/watermelon.png'><br><font class='baseline'><strong>Watermelon Win$</strong><p><strong><font class='posOutcome'>You WON</font><p>You bet: 5</strong></font> &nbsp; &nbsp; &nbsp; &nbsp; &nbsp; &nbsp;<font class='posOutcome'>you receive: <strong>10</strong></font></div>","null","8","Watermelon Win$","Fruit/watermelon.png","Won","0.65,0.2","12","0.65","118","23","",""
"html-keyboard-response","79","136942","0.0-11.0-1.23","63dab0380b8791f9560fd329","bdp_rwlrn","Mon Mar 13 2023 13:24:24 GMT-0500 (Central Daylight Time)","419069","Untrustworthy,Trustworthy","","","","decision","","","440","","<div class='trialDiv'><img src='Fruit/mango.png'><br><font class='baseline'><strong>Mega Mangos</strong><p>Choose number of points to bet.</font><div class='respPicDiv'><img src='img/responseButtonOffersNo0L.png' class='respPic'></div></div>","5","8","Mega Mangos","Fruit/mango.png","Won","0.65,0.35","13","0.65","123","24","",""
"html-keyboard-response","80","137193","0.0-11.0-2.23","63dab0380b8791f9560fd329","bdp_rwlrn","Mon Mar 13 2023 13:24:24 GMT-0500 (Central Daylight Time)","419069","Untrustworthy,Trustworthy","","","","decisionFB","","","null","","<div class='trialDiv'><img src='Fruit/mango.png'><br><font class='baseline'><strong>Mega Mangos</strong><p>Choose number of points to bet.</font><div class='respPicDiv'><img src='img/responseButtonOffersNo0L5.png' class='respPic'></div></div>","null","8","Mega Mangos","Fruit/mango.png","Won","0.65,0.35","13","0.65","118","24","",""
"html-keyboard-response","81","138194","0.0-11.0-3.23","63dab0380b8791f9560fd329","bdp_rwlrn","Mon Mar 13 2023 13:24:24 GMT-0500 (Central Daylight Time)","419069","Untrustworthy,Trustworthy","","","","feedback","","","null","","<div class='respPicDiv'><img src='img/responseButtonOffersNo0_wht.png' class='respPic'></div><div class='trialDiv'><img src='Fruit/mango.png'><br><font class='baseline'><strong>Mega Mangos</strong><p><strong><font class='posOutcome'>You WON</font><p>You bet: 5</strong></font> &nbsp; &nbsp; &nbsp; &nbsp; &nbsp; &nbsp;<font class='posOutcome'>you receive: <strong>10</strong></font></div>","null","8","Mega Mangos","Fruit/mango.png","Won","0.65,0.35","13","0.65","128","24","",""
"html-keyboard-response","82","138606","0.0-11.0-1.24","63dab0380b8791f9560fd329","bdp_rwlrn","Mon Mar 13 2023 13:24:24 GMT-0500 (Central Daylight Time)","419069","Untrustworthy,Trustworthy","","","","decision","","","412","","<div class='trialDiv'><img src='Fruit/watermelon.png'><br><font class='baseline'><strong>Watermelon Win$</strong><p>Choose number of points to bet.</font><div class='respPicDiv'><img src='img/responseButtonOffersNo0L.png' class='respPic'></div></div>","1","9","Watermelon Win$","Fruit/watermelon.png","Lost","0.65,0.2","12","0.65","133","25","",""
"html-keyboard-response","83","138857","0.0-11.0-2.24","63dab0380b8791f9560fd329","bdp_rwlrn","Mon Mar 13 2023 13:24:24 GMT-0500 (Central Daylight Time)","419069","Untrustworthy,Trustworthy","","","","decisionFB","","","null","","<div class='trialDiv'><img src='Fruit/watermelon.png'><br><font class='baseline'><strong>Watermelon Win$</strong><p>Choose number of points to bet.</font><div class='respPicDiv'><img src='img/responseButtonOffersNo0L1.png' class='respPic'></div></div>","null","9","Watermelon Win$","Fruit/watermelon.png","Lost","0.65,0.2","12","0.65","132","25","",""
"html-keyboard-response","84","139858","0.0-11.0-3.24","63dab0380b8791f9560fd329","bdp_rwlrn","Mon Mar 13 2023 13:24:24 GMT-0500 (Central Daylight Time)","419069","Untrustworthy,Trustworthy","","","","feedback","","","null","","<div class='respPicDiv'><img src='img/responseButtonOffersNo0_wht.png' class='respPic'></div><div class='trialDiv'><img src='Fruit/watermelon.png'><br><font class='baseline'><strong>Watermelon Win$</strong><p><strong><font class='negOutcome'>You LOST</font><p>You bet: 1</strong></font> &nbsp; &nbsp; &nbsp; &nbsp; &nbsp; &nbsp;<font class='negOutcome'>You receive: <strong>0</strong></font></div>","null","9","Watermelon Win$","Fruit/watermelon.png","Lost","0.65,0.2","12","0.65","132","25","",""
"html-keyboard-response","85","140392","0.0-11.0-1.25","63dab0380b8791f9560fd329","bdp_rwlrn","Mon Mar 13 2023 13:24:24 GMT-0500 (Central Daylight Time)","419069","Untrustworthy,Trustworthy","","","","decision","","","533","","<div class='trialDiv'><img src='Fruit/mango.png'><br><font class='baseline'><strong>Mega Mangos</strong><p>Choose number of points to bet.</font><div class='respPicDiv'><img src='img/responseButtonOffersNo0L.png' class='respPic'></div></div>","1","9","Mega Mangos","Fruit/mango.png","Lost","0.65,0.35","13","0.65","137","26","",""
"html-keyboard-response","86","140643","0.0-11.0-2.25","63dab0380b8791f9560fd329","bdp_rwlrn","Mon Mar 13 2023 13:24:24 GMT-0500 (Central Daylight Time)","419069","Untrustworthy,Trustworthy","","","","decisionFB","","","null","","<div class='trialDiv'><img src='Fruit/mango.png'><br><font class='baseline'><strong>Mega Mangos</strong><p>Choose number of points to bet.</font><div class='respPicDiv'><img src='img/responseButtonOffersNo0L1.png' class='respPic'></div></div>","null","9","Mega Mangos","Fruit/mango.png","Lost","0.65,0.35","13","0.65","136","26","",""
"html-keyboard-response","87","141645","0.0-11.0-3.25","63dab0380b8791f9560fd329","bdp_rwlrn","Mon Mar 13 2023 13:24:24 GMT-0500 (Central Daylight Time)","419069","Untrustworthy,Trustworthy","","","","feedback","","","null","","<div class='respPicDiv'><img src='img/responseButtonOffersNo0_wht.png' class='respPic'></div><div class='trialDiv'><img src='Fruit/mango.png'><br><font class='baseline'><strong>Mega Mangos</strong><p><strong><font class='negOutcome'>You LOST</font><p>You bet: 1</strong></font> &nbsp; &nbsp; &nbsp; &nbsp; &nbsp; &nbsp;<font class='negOutcome'>You receive: <strong>0</strong></font></div>","null","9","Mega Mangos","Fruit/mango.png","Lost","0.65,0.35","13","0.65","136","26","",""
"html-keyboard-response","88","142172","0.0-11.0-1.26","63dab0380b8791f9560fd329","bdp_rwlrn","Mon Mar 13 2023 13:24:24 GMT-0500 (Central Daylight Time)","419069","Untrustworthy,Trustworthy","","","","decision","","","527","","<div class='trialDiv'><img src='Fruit/mixed-berries2.png'><br><font class='baseline'><strong>Berry Bla$t</strong><p>Choose number of points to bet.</font><div class='respPicDiv'><img src='img/responseButtonOffersNo0L.png' class='respPic'></div></div>","1","9","Berry Bla$t","Fruit/mixed-berries2.png","Won","0.2,0.65","14","0.2","141","27","",""
"html-keyboard-response","89","142423","0.0-11.0-2.26","63dab0380b8791f9560fd329","bdp_rwlrn","Mon Mar 13 2023 13:24:24 GMT-0500 (Central Daylight Time)","419069","Untrustworthy,Trustworthy","","","","decisionFB","","","null","","<div class='trialDiv'><img src='Fruit/mixed-berries2.png'><br><font class='baseline'><strong>Berry Bla$t</strong><p>Choose number of points to bet.</font><div class='respPicDiv'><img src='img/responseButtonOffersNo0L1.png' class='respPic'></div></div>","null","9","Berry Bla$t","Fruit/mixed-berries2.png","Won","0.2,0.65","14","0.2","140","27","",""
"html-keyboard-response","90","143423","0.0-11.0-3.26","63dab0380b8791f9560fd329","bdp_rwlrn","Mon Mar 13 2023 13:24:24 GMT-0500 (Central Daylight Time)","419069","Untrustworthy,Trustworthy","","","","feedback","","","null","","<div class='respPicDiv'><img src='img/responseButtonOffersNo0_wht.png' class='respPic'></div><div class='trialDiv'><img src='Fruit/mixed-berries2.png'><br><font class='baseline'><strong>Berry Bla$t</strong><p><strong><font class='posOutcome'>You WON</font><p>You bet: 1</strong></font> &nbsp; &nbsp; &nbsp; &nbsp; &nbsp; &nbsp;<font class='posOutcome'>you receive: <strong>2</strong></font></div>","null","9","Berry Bla$t","Fruit/mixed-berries2.png","Won","0.2,0.65","14","0.2","142","27","",""
"html-keyboard-response","91","143938","0.0-11.0-1.27","63dab0380b8791f9560fd329","bdp_rwlrn","Mon Mar 13 2023 13:24:24 GMT-0500 (Central Daylight Time)","419069","Untrustworthy,Trustworthy","","","","decision","","","513","","<div class='trialDiv'><img src='Fruit/mango.png'><br><font class='baseline'><strong>Mega Mangos</strong><p>Choose number of points to bet.</font><div class='respPicDiv'><img src='img/responseButtonOffersNo0L.png' class='respPic'></div></div>","1","10","Mega Mangos","Fruit/mango.png","Won","0.65,0.35","13","0.65","147","28","",""
"html-keyboard-response","92","144189","0.0-11.0-2.27","63dab0380b8791f9560fd329","bdp_rwlrn","Mon Mar 13 2023 13:24:24 GMT-0500 (Central Daylight Time)","419069","Untrustworthy,Trustworthy","","","","decisionFB","","","null","","<div class='trialDiv'><img src='Fruit/mango.png'><br><font class='baseline'><strong>Mega Mangos</strong><p>Choose number of points to bet.</font><div class='respPicDiv'><img src='img/responseButtonOffersNo0L1.png' class='respPic'></div></div>","null","10","Mega Mangos","Fruit/mango.png","Won","0.65,0.35","13","0.65","146","28","",""
"html-keyboard-response","93","145190","0.0-11.0-3.27","63dab0380b8791f9560fd329","bdp_rwlrn","Mon Mar 13 2023 13:24:24 GMT-0500 (Central Daylight Time)","419069","Untrustworthy,Trustworthy","","","","feedback","","","null","","<div class='respPicDiv'><img src='img/responseButtonOffersNo0_wht.png' class='respPic'></div><div class='trialDiv'><img src='Fruit/mango.png'><br><font class='baseline'><strong>Mega Mangos</strong><p><strong><font class='posOutcome'>You WON</font><p>You bet: 1</strong></font> &nbsp; &nbsp; &nbsp; &nbsp; &nbsp; &nbsp;<font class='posOutcome'>you receive: <strong>2</strong></font></div>","null","10","Mega Mangos","Fruit/mango.png","Won","0.65,0.35","13","0.65","148","28","",""
"html-keyboard-response","94","145517","0.0-11.0-1.28","63dab0380b8791f9560fd329","bdp_rwlrn","Mon Mar 13 2023 13:24:24 GMT-0500 (Central Daylight Time)","419069","Untrustworthy,Trustworthy","","","","decision","","","325","","<div class='trialDiv'><img src='Fruit/watermelon.png'><br><font class='baseline'><strong>Watermelon Win$</strong><p>Choose number of points to bet.</font><div class='respPicDiv'><img src='img/responseButtonOffersNo0L.png' class='respPic'></div></div>","5","10","Watermelon Win$","Fruit/watermelon.png","Lost","0.65,0.2","12","0.65","153","29","",""
"html-keyboard-response","95","145768","0.0-11.0-2.28","63dab0380b8791f9560fd329","bdp_rwlrn","Mon Mar 13 2023 13:24:24 GMT-0500 (Central Daylight Time)","419069","Untrustworthy,Trustworthy","","","","decisionFB","","","null","","<div class='trialDiv'><img src='Fruit/watermelon.png'><br><font class='baseline'><strong>Watermelon Win$</strong><p>Choose number of points to bet.</font><div class='respPicDiv'><img src='img/responseButtonOffersNo0L5.png' class='respPic'></div></div>","null","10","Watermelon Win$","Fruit/watermelon.png","Lost","0.65,0.2","12","0.65","148","29","",""
"html-keyboard-response","96","146770","0.0-11.0-3.28","63dab0380b8791f9560fd329","bdp_rwlrn","Mon Mar 13 2023 13:24:24 GMT-0500 (Central Daylight Time)","419069","Untrustworthy,Trustworthy","","","","feedback","","","null","","<div class='respPicDiv'><img src='img/responseButtonOffersNo0_wht.png' class='respPic'></div><div class='trialDiv'><img src='Fruit/watermelon.png'><br><font class='baseline'><strong>Watermelon Win$</strong><p><strong><font class='negOutcome'>You LOST</font><p>You bet: 5</strong></font> &nbsp; &nbsp; &nbsp; &nbsp; &nbsp; &nbsp;<font class='negOutcome'>You receive: <strong>0</strong></font></div>","null","10","Watermelon Win$","Fruit/watermelon.png","Lost","0.65,0.2","12","0.65","148","29","",""
"html-keyboard-response","97","147344","0.0-11.0-1.29","63dab0380b8791f9560fd329","bdp_rwlrn","Mon Mar 13 2023 13:24:24 GMT-0500 (Central Daylight Time)","419069","Untrustworthy,Trustworthy","","","","decision","","","573","","<div class='trialDiv'><img src='Fruit/mixed-berries2.png'><br><font class='baseline'><strong>Berry Bla$t</strong><p>Choose number of points to bet.</font><div class='respPicDiv'><img src='img/responseButtonOffersNo0L.png' class='respPic'></div></div>","1","10","Berry Bla$t","Fruit/mixed-berries2.png","Lost","0.2,0.65","14","0.2","153","30","",""
"html-keyboard-response","98","147596","0.0-11.0-2.29","63dab0380b8791f9560fd329","bdp_rwlrn","Mon Mar 13 2023 13:24:24 GMT-0500 (Central Daylight Time)","419069","Untrustworthy,Trustworthy","","","","decisionFB","","","null","","<div class='trialDiv'><img src='Fruit/mixed-berries2.png'><br><font class='baseline'><strong>Berry Bla$t</strong><p>Choose number of points to bet.</font><div class='respPicDiv'><img src='img/responseButtonOffersNo0L1.png' class='respPic'></div></div>","null","10","Berry Bla$t","Fruit/mixed-berries2.png","Lost","0.2,0.65","14","0.2","152","30","",""
"html-keyboard-response","99","148599","0.0-11.0-3.29","63dab0380b8791f9560fd329","bdp_rwlrn","Mon Mar 13 2023 13:24:24 GMT-0500 (Central Daylight Time)","419069","Untrustworthy,Trustworthy","","","","feedback","","","null","","<div class='respPicDiv'><img src='img/responseButtonOffersNo0_wht.png' class='respPic'></div><div class='trialDiv'><img src='Fruit/mixed-berries2.png'><br><font class='baseline'><strong>Berry Bla$t</strong><p><strong><font class='negOutcome'>You LOST</font><p>You bet: 1</strong></font> &nbsp; &nbsp; &nbsp; &nbsp; &nbsp; &nbsp;<font class='negOutcome'>You receive: <strong>0</strong></font></div>","null","10","Berry Bla$t","Fruit/mixed-berries2.png","Lost","0.2,0.65","14","0.2","152","30","",""
"html-keyboard-response","100","150169","0.0-11.0-1.30","63dab0380b8791f9560fd329","bdp_rwlrn","Mon Mar 13 2023 13:24:24 GMT-0500 (Central Daylight Time)","419069","Untrustworthy,Trustworthy","","","","decision","","","1570","","<div class='trialDiv'><img src='Fruit/watermelon.png'><br><font class='baseline'><strong>Watermelon Win$</strong><p>Choose number of points to bet.</font><div class='respPicDiv'><img src='img/responseButtonOffersNo0L.png' class='respPic'></div></div>","2","11","Watermelon Win$","Fruit/watermelon.png","Won","0.65,0.2","12","0.65","157","31","",""
"html-keyboard-response","101","150422","0.0-11.0-2.30","63dab0380b8791f9560fd329","bdp_rwlrn","Mon Mar 13 2023 13:24:24 GMT-0500 (Central Daylight Time)","419069","Untrustworthy,Trustworthy","","","","decisionFB","","","null","","<div class='trialDiv'><img src='Fruit/watermelon.png'><br><font class='baseline'><strong>Watermelon Win$</strong><p>Choose number of points to bet.</font><div class='respPicDiv'><img src='img/responseButtonOffersNo0L2.png' class='respPic'></div></div>","null","11","Watermelon Win$","Fruit/watermelon.png","Won","0.65,0.2","12","0.65","155","31","",""
"html-keyboard-response","102","151424","0.0-11.0-3.30","63dab0380b8791f9560fd329","bdp_rwlrn","Mon Mar 13 2023 13:24:24 GMT-0500 (Central Daylight Time)","419069","Untrustworthy,Trustworthy","","","","feedback","","","null","","<div class='respPicDiv'><img src='img/responseButtonOffersNo0_wht.png' class='respPic'></div><div class='trialDiv'><img src='Fruit/watermelon.png'><br><font class='baseline'><strong>Watermelon Win$</strong><p><strong><font class='posOutcome'>You WON</font><p>You bet: 2</strong></font> &nbsp; &nbsp; &nbsp; &nbsp; &nbsp; &nbsp;<font class='posOutcome'>you receive: <strong>4</strong></font></div>","null","11","Watermelon Win$","Fruit/watermelon.png","Won","0.65,0.2","12","0.65","159","31","",""
"html-keyboard-response","103","152789","0.0-11.0-1.31","63dab0380b8791f9560fd329","bdp_rwlrn","Mon Mar 13 2023 13:24:24 GMT-0500 (Central Daylight Time)","419069","Untrustworthy,Trustworthy","","","","decision","","","1364","","<div class='trialDiv'><img src='Fruit/mixed-berries2.png'><br><font class='baseline'><strong>Berry Bla$t</strong><p>Choose number of points to bet.</font><div class='respPicDiv'><img src='img/responseButtonOffersNo0L.png' class='respPic'></div></div>","1","11","Berry Bla$t","Fruit/mixed-berries2.png","Lost","0.2,0.65","14","0.2","164","32","",""
"html-keyboard-response","104","153042","0.0-11.0-2.31","63dab0380b8791f9560fd329","bdp_rwlrn","Mon Mar 13 2023 13:24:24 GMT-0500 (Central Daylight Time)","419069","Untrustworthy,Trustworthy","","","","decisionFB","","","null","","<div class='trialDiv'><img src='Fruit/mixed-berries2.png'><br><font class='baseline'><strong>Berry Bla$t</strong><p>Choose number of points to bet.</font><div class='respPicDiv'><img src='img/responseButtonOffersNo0L1.png' class='respPic'></div></div>","null","11","Berry Bla$t","Fruit/mixed-berries2.png","Lost","0.2,0.65","14","0.2","163","32","",""
"html-keyboard-response","105","154043","0.0-11.0-3.31","63dab0380b8791f9560fd329","bdp_rwlrn","Mon Mar 13 2023 13:24:24 GMT-0500 (Central Daylight Time)","419069","Untrustworthy,Trustworthy","","","","feedback","","","null","","<div class='respPicDiv'><img src='img/responseButtonOffersNo0_wht.png' class='respPic'></div><div class='trialDiv'><img src='Fruit/mixed-berries2.png'><br><font class='baseline'><strong>Berry Bla$t</strong><p><strong><font class='negOutcome'>You LOST</font><p>You bet: 1</strong></font> &nbsp; &nbsp; &nbsp; &nbsp; &nbsp; &nbsp;<font class='negOutcome'>You receive: <strong>0</strong></font></div>","null","11","Berry Bla$t","Fruit/mixed-berries2.png","Lost","0.2,0.65","14","0.2","163","32","",""
"html-keyboard-response","106","154802","0.0-11.0-1.32","63dab0380b8791f9560fd329","bdp_rwlrn","Mon Mar 13 2023 13:24:24 GMT-0500 (Central Daylight Time)","419069","Untrustworthy,Trustworthy","","","","decision","","","759","","<div class='trialDiv'><img src='Fruit/mango.png'><br><font class='baseline'><strong>Mega Mangos</strong><p>Choose number of points to bet.</font><div class='respPicDiv'><img src='img/responseButtonOffersNo0L.png' class='respPic'></div></div>","3","11","Mega Mangos","Fruit/mango.png","Lost","0.65,0.35","13","0.65","168","33","",""
"html-keyboard-response","107","155054","0.0-11.0-2.32","63dab0380b8791f9560fd329","bdp_rwlrn","Mon Mar 13 2023 13:24:24 GMT-0500 (Central Daylight Time)","419069","Untrustworthy,Trustworthy","","","","decisionFB","","","null","","<div class='trialDiv'><img src='Fruit/mango.png'><br><font class='baseline'><strong>Mega Mangos</strong><p>Choose number of points to bet.</font><div class='respPicDiv'><img src='img/responseButtonOffersNo0L3.png' class='respPic'></div></div>","null","11","Mega Mangos","Fruit/mango.png","Lost","0.65,0.35","13","0.65","165","33","",""
"html-keyboard-response","108","156064","0.0-11.0-3.32","63dab0380b8791f9560fd329","bdp_rwlrn","Mon Mar 13 2023 13:24:24 GMT-0500 (Central Daylight Time)","419069","Untrustworthy,Trustworthy","","","","feedback","","","null","","<div class='respPicDiv'><img src='img/responseButtonOffersNo0_wht.png' class='respPic'></div><div class='trialDiv'><img src='Fruit/mango.png'><br><font class='baseline'><strong>Mega Mangos</strong><p><strong><font class='negOutcome'>You LOST</font><p>You bet: 3</strong></font> &nbsp; &nbsp; &nbsp; &nbsp; &nbsp; &nbsp;<font class='negOutcome'>You receive: <strong>0</strong></font></div>","null","11","Mega Mangos","Fruit/mango.png","Lost","0.65,0.35","13","0.65","165","33","",""
"html-keyboard-response","109","156671","0.0-11.0-1.33","63dab0380b8791f9560fd329","bdp_rwlrn","Mon Mar 13 2023 13:24:24 GMT-0500 (Central Daylight Time)","419069","Untrustworthy,Trustworthy","","","","decision","","","606","","<div class='trialDiv'><img src='Fruit/watermelon.png'><br><font class='baseline'><strong>Watermelon Win$</strong><p>Choose number of points to bet.</font><div class='respPicDiv'><img src='img/responseButtonOffersNo0L.png' class='respPic'></div></div>","5","12","Watermelon Win$","Fruit/watermelon.png","Won","0.65,0.2","12","0.65","170","34","",""
"html-keyboard-response","110","156923","0.0-11.0-2.33","63dab0380b8791f9560fd329","bdp_rwlrn","Mon Mar 13 2023 13:24:24 GMT-0500 (Central Daylight Time)","419069","Untrustworthy,Trustworthy","","","","decisionFB","","","null","","<div class='trialDiv'><img src='Fruit/watermelon.png'><br><font class='baseline'><strong>Watermelon Win$</strong><p>Choose number of points to bet.</font><div class='respPicDiv'><img src='img/responseButtonOffersNo0L5.png' class='respPic'></div></div>","null","12","Watermelon Win$","Fruit/watermelon.png","Won","0.65,0.2","12","0.65","165","34","",""
"html-keyboard-response","111","157929","0.0-11.0-3.33","63dab0380b8791f9560fd329","bdp_rwlrn","Mon Mar 13 2023 13:24:24 GMT-0500 (Central Daylight Time)","419069","Untrustworthy,Trustworthy","","","","feedback","","","null","","<div class='respPicDiv'><img src='img/responseButtonOffersNo0_wht.png' class='respPic'></div><div class='trialDiv'><img src='Fruit/watermelon.png'><br><font class='baseline'><strong>Watermelon Win$</strong><p><strong><font class='posOutcome'>You WON</font><p>You bet: 5</strong></font> &nbsp; &nbsp; &nbsp; &nbsp; &nbsp; &nbsp;<font class='posOutcome'>you receive: <strong>10</strong></font></div>","null","12","Watermelon Win$","Fruit/watermelon.png","Won","0.65,0.2","12","0.65","175","34","",""
"html-keyboard-response","112","158674","0.0-11.0-1.34","63dab0380b8791f9560fd329","bdp_rwlrn","Mon Mar 13 2023 13:24:24 GMT-0500 (Central Daylight Time)","419069","Untrustworthy,Trustworthy","","","","decision","","","745","","<div class='trialDiv'><img src='Fruit/mango.png'><br><font class='baseline'><strong>Mega Mangos</strong><p>Choose number of points to bet.</font><div class='respPicDiv'><img src='img/responseButtonOffersNo0L.png' class='respPic'></div></div>","3","12","Mega Mangos","Fruit/mango.png","Won","0.65,0.35","13","0.65","180","35","",""
"html-keyboard-response","113","158926","0.0-11.0-2.34","63dab0380b8791f9560fd329","bdp_rwlrn","Mon Mar 13 2023 13:24:24 GMT-0500 (Central Daylight Time)","419069","Untrustworthy,Trustworthy","","","","decisionFB","","","null","","<div class='trialDiv'><img src='Fruit/mango.png'><br><font class='baseline'><strong>Mega Mangos</strong><p>Choose number of points to bet.</font><div class='respPicDiv'><img src='img/responseButtonOffersNo0L3.png' class='respPic'></div></div>","null","12","Mega Mangos","Fruit/mango.png","Won","0.65,0.35","13","0.65","177","35","",""
"html-keyboard-response","114","159928","0.0-11.0-3.34","63dab0380b8791f9560fd329","bdp_rwlrn","Mon Mar 13 2023 13:24:24 GMT-0500 (Central Daylight Time)","419069","Untrustworthy,Trustworthy","","","","feedback","","","null","","<div class='respPicDiv'><img src='img/responseButtonOffersNo0_wht.png' class='respPic'></div><div class='trialDiv'><img src='Fruit/mango.png'><br><font class='baseline'><strong>Mega Mangos</strong><p><strong><font class='posOutcome'>You WON</font><p>You bet: 3</strong></font> &nbsp; &nbsp; &nbsp; &nbsp; &nbsp; &nbsp;<font class='posOutcome'>you receive: <strong>6</strong></font></div>","null","12","Mega Mangos","Fruit/mango.png","Won","0.65,0.35","13","0.65","183","35","",""
"html-keyboard-response","115","160802","0.0-11.0-1.35","63dab0380b8791f9560fd329","bdp_rwlrn","Mon Mar 13 2023 13:24:24 GMT-0500 (Central Daylight Time)","419069","Untrustworthy,Trustworthy","","","","decision","","","874","","<div class='trialDiv'><img src='Fruit/mixed-berries2.png'><br><font class='baseline'><strong>Berry Bla$t</strong><p>Choose number of points to bet.</font><div class='respPicDiv'><img src='img/responseButtonOffersNo0L.png' class='respPic'></div></div>","1","12","Berry Bla$t","Fruit/mixed-berries2.png","Won","0.2,0.65","14","0.2","188","36","",""
"html-keyboard-response","116","161054","0.0-11.0-2.35","63dab0380b8791f9560fd329","bdp_rwlrn","Mon Mar 13 2023 13:24:24 GMT-0500 (Central Daylight Time)","419069","Untrustworthy,Trustworthy","","","","decisionFB","","","null","","<div class='trialDiv'><img src='Fruit/mixed-berries2.png'><br><font class='baseline'><strong>Berry Bla$t</strong><p>Choose number of points to bet.</font><div class='respPicDiv'><img src='img/responseButtonOffersNo0L1.png' class='respPic'></div></div>","null","12","Berry Bla$t","Fruit/mixed-berries2.png","Won","0.2,0.65","14","0.2","187","36","",""
"html-keyboard-response","117","162055","0.0-11.0-3.35","63dab0380b8791f9560fd329","bdp_rwlrn","Mon Mar 13 2023 13:24:24 GMT-0500 (Central Daylight Time)","419069","Untrustworthy,Trustworthy","","","","feedback","","","null","","<div class='respPicDiv'><img src='img/responseButtonOffersNo0_wht.png' class='respPic'></div><div class='trialDiv'><img src='Fruit/mixed-berries2.png'><br><font class='baseline'><strong>Berry Bla$t</strong><p><strong><font class='posOutcome'>You WON</font><p>You bet: 1</strong></font> &nbsp; &nbsp; &nbsp; &nbsp; &nbsp; &nbsp;<font class='posOutcome'>you receive: <strong>2</strong></font></div>","null","12","Berry Bla$t","Fruit/mixed-berries2.png","Won","0.2,0.65","14","0.2","189","36","",""
"html-keyboard-response","118","163103","0.0-11.0-1.36","63dab0380b8791f9560fd329","bdp_rwlrn","Mon Mar 13 2023 13:24:24 GMT-0500 (Central Daylight Time)","419069","Untrustworthy,Trustworthy","","","","decision","","","1048","","<div class='trialDiv'><img src='Fruit/watermelon.png'><br><font class='baseline'><strong>Watermelon Win$</strong><p>Choose number of points to bet.</font><div class='respPicDiv'><img src='img/responseButtonOffersNo0L.png' class='respPic'></div></div>","5","13","Watermelon Win$","Fruit/watermelon.png","Lost","0.65,0.2","12","0.65","194","37","",""
"html-keyboard-response","119","163355","0.0-11.0-2.36","63dab0380b8791f9560fd329","bdp_rwlrn","Mon Mar 13 2023 13:24:24 GMT-0500 (Central Daylight Time)","419069","Untrustworthy,Trustworthy","","","","decisionFB","","","null","","<div class='trialDiv'><img src='Fruit/watermelon.png'><br><font class='baseline'><strong>Watermelon Win$</strong><p>Choose number of points to bet.</font><div class='respPicDiv'><img src='img/responseButtonOffersNo0L5.png' class='respPic'></div></div>","null","13","Watermelon Win$","Fruit/watermelon.png","Lost","0.65,0.2","12","0.65","189","37","",""
"html-keyboard-response","120","164357","0.0-11.0-3.36","63dab0380b8791f9560fd329","bdp_rwlrn","Mon Mar 13 2023 13:24:24 GMT-0500 (Central Daylight Time)","419069","Untrustworthy,Trustworthy","","","","feedback","","","null","","<div class='respPicDiv'><img src='img/responseButtonOffersNo0_wht.png' class='respPic'></div><div class='trialDiv'><img src='Fruit/watermelon.png'><br><font class='baseline'><strong>Watermelon Win$</strong><p><strong><font class='negOutcome'>You LOST</font><p>You bet: 5</strong></font> &nbsp; &nbsp; &nbsp; &nbsp; &nbsp; &nbsp;<font class='negOutcome'>You receive: <strong>0</strong></font></div>","null","13","Watermelon Win$","Fruit/watermelon.png","Lost","0.65,0.2","12","0.65","189","37","",""
"html-keyboard-response","121","164832","0.0-11.0-1.37","63dab0380b8791f9560fd329","bdp_rwlrn","Mon Mar 13 2023 13:24:24 GMT-0500 (Central Daylight Time)","419069","Untrustworthy,Trustworthy","","","","decision","","","475","","<div class='trialDiv'><img src='Fruit/mixed-berries2.png'><br><font class='baseline'><strong>Berry Bla$t</strong><p>Choose number of points to bet.</font><div class='respPicDiv'><img src='img/responseButtonOffersNo0L.png' class='respPic'></div></div>","1","13","Berry Bla$t","Fruit/mixed-berries2.png","Won","0.2,0.65","14","0.2","194","38","",""
"html-keyboard-response","122","165083","0.0-11.0-2.37","63dab0380b8791f9560fd329","bdp_rwlrn","Mon Mar 13 2023 13:24:24 GMT-0500 (Central Daylight Time)","419069","Untrustworthy,Trustworthy","","","","decisionFB","","","null","","<div class='trialDiv'><img src='Fruit/mixed-berries2.png'><br><font class='baseline'><strong>Berry Bla$t</strong><p>Choose number of points to bet.</font><div class='respPicDiv'><img src='img/responseButtonOffersNo0L1.png' class='respPic'></div></div>","null","13","Berry Bla$t","Fruit/mixed-berries2.png","Won","0.2,0.65","14","0.2","193","38","",""
"html-keyboard-response","123","166085","0.0-11.0-3.37","63dab0380b8791f9560fd329","bdp_rwlrn","Mon Mar 13 2023 13:24:24 GMT-0500 (Central Daylight Time)","419069","Untrustworthy,Trustworthy","","","","feedback","","","null","","<div class='respPicDiv'><img src='img/responseButtonOffersNo0_wht.png' class='respPic'></div><div class='trialDiv'><img src='Fruit/mixed-berries2.png'><br><font class='baseline'><strong>Berry Bla$t</strong><p><strong><font class='posOutcome'>You WON</font><p>You bet: 1</strong></font> &nbsp; &nbsp; &nbsp; &nbsp; &nbsp; &nbsp;<font class='posOutcome'>you receive: <strong>2</strong></font></div>","null","13","Berry Bla$t","Fruit/mixed-berries2.png","Won","0.2,0.65","14","0.2","195","38","",""
"html-keyboard-response","124","166690","0.0-11.0-1.38","63dab0380b8791f9560fd329","bdp_rwlrn","Mon Mar 13 2023 13:24:24 GMT-0500 (Central Daylight Time)","419069","Untrustworthy,Trustworthy","","","","decision","","","605","","<div class='trialDiv'><img src='Fruit/mango.png'><br><font class='baseline'><strong>Mega Mangos</strong><p>Choose number of points to bet.</font><div class='respPicDiv'><img src='img/responseButtonOffersNo0L.png' class='respPic'></div></div>","5","13","Mega Mangos","Fruit/mango.png","Lost","0.65,0.35","13","0.65","200","39","",""
"html-keyboard-response","125","166940","0.0-11.0-2.38","63dab0380b8791f9560fd329","bdp_rwlrn","Mon Mar 13 2023 13:24:24 GMT-0500 (Central Daylight Time)","419069","Untrustworthy,Trustworthy","","","","decisionFB","","","null","","<div class='trialDiv'><img src='Fruit/mango.png'><br><font class='baseline'><strong>Mega Mangos</strong><p>Choose number of points to bet.</font><div class='respPicDiv'><img src='img/responseButtonOffersNo0L5.png' class='respPic'></div></div>","null","13","Mega Mangos","Fruit/mango.png","Lost","0.65,0.35","13","0.65","195","39","",""
"html-keyboard-response","126","167943","0.0-11.0-3.38","63dab0380b8791f9560fd329","bdp_rwlrn","Mon Mar 13 2023 13:24:24 GMT-0500 (Central Daylight Time)","419069","Untrustworthy,Trustworthy","","","","feedback","","","null","","<div class='respPicDiv'><img src='img/responseButtonOffersNo0_wht.png' class='respPic'></div><div class='trialDiv'><img src='Fruit/mango.png'><br><font class='baseline'><strong>Mega Mangos</strong><p><strong><font class='negOutcome'>You LOST</font><p>You bet: 5</strong></font> &nbsp; &nbsp; &nbsp; &nbsp; &nbsp; &nbsp;<font class='negOutcome'>You receive: <strong>0</strong></font></div>","null","13","Mega Mangos","Fruit/mango.png","Lost","0.65,0.35","13","0.65","195","39","",""
"html-keyboard-response","127","168479","0.0-11.0-1.39","63dab0380b8791f9560fd329","bdp_rwlrn","Mon Mar 13 2023 13:24:24 GMT-0500 (Central Daylight Time)","419069","Untrustworthy,Trustworthy","","","","decision","","","536","","<div class='trialDiv'><img src='Fruit/mixed-berries2.png'><br><font class='baseline'><strong>Berry Bla$t</strong><p>Choose number of points to bet.</font><div class='respPicDiv'><img src='img/responseButtonOffersNo0L.png' class='respPic'></div></div>","1","14","Berry Bla$t","Fruit/mixed-berries2.png","Lost","0.2,0.65","14","0.2","200","40","",""
"html-keyboard-response","128","168730","0.0-11.0-2.39","63dab0380b8791f9560fd329","bdp_rwlrn","Mon Mar 13 2023 13:24:24 GMT-0500 (Central Daylight Time)","419069","Untrustworthy,Trustworthy","","","","decisionFB","","","null","","<div class='trialDiv'><img src='Fruit/mixed-berries2.png'><br><font class='baseline'><strong>Berry Bla$t</strong><p>Choose number of points to bet.</font><div class='respPicDiv'><img src='img/responseButtonOffersNo0L1.png' class='respPic'></div></div>","null","14","Berry Bla$t","Fruit/mixed-berries2.png","Lost","0.2,0.65","14","0.2","199","40","",""
"html-keyboard-response","129","169731","0.0-11.0-3.39","63dab0380b8791f9560fd329","bdp_rwlrn","Mon Mar 13 2023 13:24:24 GMT-0500 (Central Daylight Time)","419069","Untrustworthy,Trustworthy","","","","feedback","","","null","","<div class='respPicDiv'><img src='img/responseButtonOffersNo0_wht.png' class='respPic'></div><div class='trialDiv'><img src='Fruit/mixed-berries2.png'><br><font class='baseline'><strong>Berry Bla$t</strong><p><strong><font class='negOutcome'>You LOST</font><p>You bet: 1</strong></font> &nbsp; &nbsp; &nbsp; &nbsp; &nbsp; &nbsp;<font class='negOutcome'>You receive: <strong>0</strong></font></div>","null","14","Berry Bla$t","Fruit/mixed-berries2.png","Lost","0.2,0.65","14","0.2","199","40","",""
"html-keyboard-response","130","170651","0.0-11.0-1.40","63dab0380b8791f9560fd329","bdp_rwlrn","Mon Mar 13 2023 13:24:24 GMT-0500 (Central Daylight Time)","419069","Untrustworthy,Trustworthy","","","","decision","","","918","","<div class='trialDiv'><img src='Fruit/mango.png'><br><font class='baseline'><strong>Mega Mangos</strong><p>Choose number of points to bet.</font><div class='respPicDiv'><img src='img/responseButtonOffersNo0L.png' class='respPic'></div></div>","5","14","Mega Mangos","Fruit/mango.png","Lost","0.65,0.35","13","0.65","204","41","",""
"html-keyboard-response","131","170903","0.0-11.0-2.40","63dab0380b8791f9560fd329","bdp_rwlrn","Mon Mar 13 2023 13:24:24 GMT-0500 (Central Daylight Time)","419069","Untrustworthy,Trustworthy","","","","decisionFB","","","null","","<div class='trialDiv'><img src='Fruit/mango.png'><br><font class='baseline'><strong>Mega Mangos</strong><p>Choose number of points to bet.</font><div class='respPicDiv'><img src='img/responseButtonOffersNo0L5.png' class='respPic'></div></div>","null","14","Mega Mangos","Fruit/mango.png","Lost","0.65,0.35","13","0.65","199","41","",""
"html-keyboard-response","132","171903","0.0-11.0-3.40","63dab0380b8791f9560fd329","bdp_rwlrn","Mon Mar 13 2023 13:24:24 GMT-0500 (Central Daylight Time)","419069","Untrustworthy,Trustworthy","","","","feedback","","","null","","<div class='respPicDiv'><img src='img/responseButtonOffersNo0_wht.png' class='respPic'></div><div class='trialDiv'><img src='Fruit/mango.png'><br><font class='baseline'><strong>Mega Mangos</strong><p><strong><font class='negOutcome'>You LOST</font><p>You bet: 5</strong></font> &nbsp; &nbsp; &nbsp; &nbsp; &nbsp; &nbsp;<font class='negOutcome'>You receive: <strong>0</strong></font></div>","null","14","Mega Mangos","Fruit/mango.png","Lost","0.65,0.35","13","0.65","199","41","",""
"html-keyboard-response","133","172290","0.0-11.0-1.41","63dab0380b8791f9560fd329","bdp_rwlrn","Mon Mar 13 2023 13:24:24 GMT-0500 (Central Daylight Time)","419069","Untrustworthy,Trustworthy","","","","decision","","","385","","<div class='trialDiv'><img src='Fruit/watermelon.png'><br><font class='baseline'><strong>Watermelon Win$</strong><p>Choose number of points to bet.</font><div class='respPicDiv'><img src='img/responseButtonOffersNo0L.png' class='respPic'></div></div>","5","14","Watermelon Win$","Fruit/watermelon.png","Lost","0.65,0.2","12","0.65","204","42","",""
"html-keyboard-response","134","172541","0.0-11.0-2.41","63dab0380b8791f9560fd329","bdp_rwlrn","Mon Mar 13 2023 13:24:24 GMT-0500 (Central Daylight Time)","419069","Untrustworthy,Trustworthy","","","","decisionFB","","","null","","<div class='trialDiv'><img src='Fruit/watermelon.png'><br><font class='baseline'><strong>Watermelon Win$</strong><p>Choose number of points to bet.</font><div class='respPicDiv'><img src='img/responseButtonOffersNo0L5.png' class='respPic'></div></div>","null","14","Watermelon Win$","Fruit/watermelon.png","Lost","0.65,0.2","12","0.65","199","42","",""
"html-keyboard-response","135","173543","0.0-11.0-3.41","63dab0380b8791f9560fd329","bdp_rwlrn","Mon Mar 13 2023 13:24:24 GMT-0500 (Central Daylight Time)","419069","Untrustworthy,Trustworthy","","","","feedback","","","null","","<div class='respPicDiv'><img src='img/responseButtonOffersNo0_wht.png' class='respPic'></div><div class='trialDiv'><img src='Fruit/watermelon.png'><br><font class='baseline'><strong>Watermelon Win$</strong><p><strong><font class='negOutcome'>You LOST</font><p>You bet: 5</strong></font> &nbsp; &nbsp; &nbsp; &nbsp; &nbsp; &nbsp;<font class='negOutcome'>You receive: <strong>0</strong></font></div>","null","14","Watermelon Win$","Fruit/watermelon.png","Lost","0.65,0.2","12","0.65","199","42","",""
"html-keyboard-response","136","174022","0.0-11.0-1.42","63dab0380b8791f9560fd329","bdp_rwlrn","Mon Mar 13 2023 13:24:24 GMT-0500 (Central Daylight Time)","419069","Untrustworthy,Trustworthy","","","","decision","","","479","","<div class='trialDiv'><img src='Fruit/mixed-berries2.png'><br><font class='baseline'><strong>Berry Bla$t</strong><p>Choose number of points to bet.</font><div class='respPicDiv'><img src='img/responseButtonOffersNo0L.png' class='respPic'></div></div>","1","15","Berry Bla$t","Fruit/mixed-berries2.png","Won","0.2,0.65","14","0.2","204","43","",""
"html-keyboard-response","137","174274","0.0-11.0-2.42","63dab0380b8791f9560fd329","bdp_rwlrn","Mon Mar 13 2023 13:24:24 GMT-0500 (Central Daylight Time)","419069","Untrustworthy,Trustworthy","","","","decisionFB","","","null","","<div class='trialDiv'><img src='Fruit/mixed-berries2.png'><br><font class='baseline'><strong>Berry Bla$t</strong><p>Choose number of points to bet.</font><div class='respPicDiv'><img src='img/responseButtonOffersNo0L1.png' class='respPic'></div></div>","null","15","Berry Bla$t","Fruit/mixed-berries2.png","Won","0.2,0.65","14","0.2","203","43","",""
"html-keyboard-response","138","175276","0.0-11.0-3.42","63dab0380b8791f9560fd329","bdp_rwlrn","Mon Mar 13 2023 13:24:24 GMT-0500 (Central Daylight Time)","419069","Untrustworthy,Trustworthy","","","","feedback","","","null","","<div class='respPicDiv'><img src='img/responseButtonOffersNo0_wht.png' class='respPic'></div><div class='trialDiv'><img src='Fruit/mixed-berries2.png'><br><font class='baseline'><strong>Berry Bla$t</strong><p><strong><font class='posOutcome'>You WON</font><p>You bet: 1</strong></font> &nbsp; &nbsp; &nbsp; &nbsp; &nbsp; &nbsp;<font class='posOutcome'>you receive: <strong>2</strong></font></div>","null","15","Berry Bla$t","Fruit/mixed-berries2.png","Won","0.2,0.65","14","0.2","205","43","",""
"html-keyboard-response","139","175975","0.0-11.0-1.43","63dab0380b8791f9560fd329","bdp_rwlrn","Mon Mar 13 2023 13:24:24 GMT-0500 (Central Daylight Time)","419069","Untrustworthy,Trustworthy","","","","decision","","","698","","<div class='trialDiv'><img src='Fruit/mango.png'><br><font class='baseline'><strong>Mega Mangos</strong><p>Choose number of points to bet.</font><div class='respPicDiv'><img src='img/responseButtonOffersNo0L.png' class='respPic'></div></div>","3","15","Mega Mangos","Fruit/mango.png","Lost","0.65,0.35","13","0.65","210","44","",""
"html-keyboard-response","140","176227","0.0-11.0-2.43","63dab0380b8791f9560fd329","bdp_rwlrn","Mon Mar 13 2023 13:24:24 GMT-0500 (Central Daylight Time)","419069","Untrustworthy,Trustworthy","","","","decisionFB","","","null","","<div class='trialDiv'><img src='Fruit/mango.png'><br><font class='baseline'><strong>Mega Mangos</strong><p>Choose number of points to bet.</font><div class='respPicDiv'><img src='img/responseButtonOffersNo0L3.png' class='respPic'></div></div>","null","15","Mega Mangos","Fruit/mango.png","Lost","0.65,0.35","13","0.65","207","44","",""
"html-keyboard-response","141","177228","0.0-11.0-3.43","63dab0380b8791f9560fd329","bdp_rwlrn","Mon Mar 13 2023 13:24:24 GMT-0500 (Central Daylight Time)","419069","Untrustworthy,Trustworthy","","","","feedback","","","null","","<div class='respPicDiv'><img src='img/responseButtonOffersNo0_wht.png' class='respPic'></div><div class='trialDiv'><img src='Fruit/mango.png'><br><font class='baseline'><strong>Mega Mangos</strong><p><strong><font class='negOutcome'>You LOST</font><p>You bet: 3</strong></font> &nbsp; &nbsp; &nbsp; &nbsp; &nbsp; &nbsp;<font class='negOutcome'>You receive: <strong>0</strong></font></div>","null","15","Mega Mangos","Fruit/mango.png","Lost","0.65,0.35","13","0.65","207","44","",""
"html-keyboard-response","142","177531","0.0-11.0-1.44","63dab0380b8791f9560fd329","bdp_rwlrn","Mon Mar 13 2023 13:24:24 GMT-0500 (Central Daylight Time)","419069","Untrustworthy,Trustworthy","","","","decision","","","303","","<div class='trialDiv'><img src='Fruit/watermelon.png'><br><font class='baseline'><strong>Watermelon Win$</strong><p>Choose number of points to bet.</font><div class='respPicDiv'><img src='img/responseButtonOffersNo0L.png' class='respPic'></div></div>","5","15","Watermelon Win$","Fruit/watermelon.png","Lost","0.65,0.2","12","0.65","212","45","",""
"html-keyboard-response","143","177783","0.0-11.0-2.44","63dab0380b8791f9560fd329","bdp_rwlrn","Mon Mar 13 2023 13:24:24 GMT-0500 (Central Daylight Time)","419069","Untrustworthy,Trustworthy","","","","decisionFB","","","null","","<div class='trialDiv'><img src='Fruit/watermelon.png'><br><font class='baseline'><strong>Watermelon Win$</strong><p>Choose number of points to bet.</font><div class='respPicDiv'><img src='img/responseButtonOffersNo0L5.png' class='respPic'></div></div>","null","15","Watermelon Win$","Fruit/watermelon.png","Lost","0.65,0.2","12","0.65","207","45","",""
"html-keyboard-response","144","178784","0.0-11.0-3.44","63dab0380b8791f9560fd329","bdp_rwlrn","Mon Mar 13 2023 13:24:24 GMT-0500 (Central Daylight Time)","419069","Untrustworthy,Trustworthy","","","","feedback","","","null","","<div class='respPicDiv'><img src='img/responseButtonOffersNo0_wht.png' class='respPic'></div><div class='trialDiv'><img src='Fruit/watermelon.png'><br><font class='baseline'><strong>Watermelon Win$</strong><p><strong><font class='negOutcome'>You LOST</font><p>You bet: 5</strong></font> &nbsp; &nbsp; &nbsp; &nbsp; &nbsp; &nbsp;<font class='negOutcome'>You receive: <strong>0</strong></font></div>","null","15","Watermelon Win$","Fruit/watermelon.png","Lost","0.65,0.2","12","0.65","207","45","",""
"html-keyboard-response","145","179006","0.0-11.0-1.45","63dab0380b8791f9560fd329","bdp_rwlrn","Mon Mar 13 2023 13:24:24 GMT-0500 (Central Daylight Time)","419069","Untrustworthy,Trustworthy","","","","decision","","","222","","<div class='trialDiv'><img src='Fruit/mixed-berries2.png'><br><font class='baseline'><strong>Berry Bla$t</strong><p>Choose number of points to bet.</font><div class='respPicDiv'><img src='img/responseButtonOffersNo0L.png' class='respPic'></div></div>","1","16","Berry Bla$t","Fruit/mixed-berries2.png","Won","0.2,0.65","14","0.2","212","46","",""
"html-keyboard-response","146","179258","0.0-11.0-2.45","63dab0380b8791f9560fd329","bdp_rwlrn","Mon Mar 13 2023 13:24:24 GMT-0500 (Central Daylight Time)","419069","Untrustworthy,Trustworthy","","","","decisionFB","","","null","","<div class='trialDiv'><img src='Fruit/mixed-berries2.png'><br><font class='baseline'><strong>Berry Bla$t</strong><p>Choose number of points to bet.</font><div class='respPicDiv'><img src='img/responseButtonOffersNo0L1.png' class='respPic'></div></div>","null","16","Berry Bla$t","Fruit/mixed-berries2.png","Won","0.2,0.65","14","0.2","211","46","",""
"html-keyboard-response","147","180260","0.0-11.0-3.45","63dab0380b8791f9560fd329","bdp_rwlrn","Mon Mar 13 2023 13:24:24 GMT-0500 (Central Daylight Time)","419069","Untrustworthy,Trustworthy","","","","feedback","","","null","","<div class='respPicDiv'><img src='img/responseButtonOffersNo0_wht.png' class='respPic'></div><div class='trialDiv'><img src='Fruit/mixed-berries2.png'><br><font class='baseline'><strong>Berry Bla$t</strong><p><strong><font class='posOutcome'>You WON</font><p>You bet: 1</strong></font> &nbsp; &nbsp; &nbsp; &nbsp; &nbsp; &nbsp;<font class='posOutcome'>you receive: <strong>2</strong></font></div>","null","16","Berry Bla$t","Fruit/mixed-berries2.png","Won","0.2,0.65","14","0.2","213","46","",""
"html-keyboard-response","148","180728","0.0-11.0-1.46","63dab0380b8791f9560fd329","bdp_rwlrn","Mon Mar 13 2023 13:24:24 GMT-0500 (Central Daylight Time)","419069","Untrustworthy,Trustworthy","","","","decision","","","468","","<div class='trialDiv'><img src='Fruit/mango.png'><br><font class='baseline'><strong>Mega Mangos</strong><p>Choose number of points to bet.</font><div class='respPicDiv'><img src='img/responseButtonOffersNo0L.png' class='respPic'></div></div>","3","16","Mega Mangos","Fruit/mango.png","Won","0.65,0.35","13","0.65","218","47","",""
"html-keyboard-response","149","180980","0.0-11.0-2.46","63dab0380b8791f9560fd329","bdp_rwlrn","Mon Mar 13 2023 13:24:24 GMT-0500 (Central Daylight Time)","419069","Untrustworthy,Trustworthy","","","","decisionFB","","","null","","<div class='trialDiv'><img src='Fruit/mango.png'><br><font class='baseline'><strong>Mega Mangos</strong><p>Choose number of points to bet.</font><div class='respPicDiv'><img src='img/responseButtonOffersNo0L3.png' class='respPic'></div></div>","null","16","Mega Mangos","Fruit/mango.png","Won","0.65,0.35","13","0.65","215","47","",""
"html-keyboard-response","150","181982","0.0-11.0-3.46","63dab0380b8791f9560fd329","bdp_rwlrn","Mon Mar 13 2023 13:24:24 GMT-0500 (Central Daylight Time)","419069","Untrustworthy,Trustworthy","","","","feedback","","","null","","<div class='respPicDiv'><img src='img/responseButtonOffersNo0_wht.png' class='respPic'></div><div class='trialDiv'><img src='Fruit/mango.png'><br><font class='baseline'><strong>Mega Mangos</strong><p><strong><font class='posOutcome'>You WON</font><p>You bet: 3</strong></font> &nbsp; &nbsp; &nbsp; &nbsp; &nbsp; &nbsp;<font class='posOutcome'>you receive: <strong>6</strong></font></div>","null","16","Mega Mangos","Fruit/mango.png","Won","0.65,0.35","13","0.65","221","47","",""
"html-keyboard-response","151","182193","0.0-11.0-1.47","63dab0380b8791f9560fd329","bdp_rwlrn","Mon Mar 13 2023 13:24:24 GMT-0500 (Central Daylight Time)","419069","Untrustworthy,Trustworthy","","","","decision","","","211","","<div class='trialDiv'><img src='Fruit/watermelon.png'><br><font class='baseline'><strong>Watermelon Win$</strong><p>Choose number of points to bet.</font><div class='respPicDiv'><img src='img/responseButtonOffersNo0L.png' class='respPic'></div></div>","3","16","Watermelon Win$","Fruit/watermelon.png","Lost","0.65,0.2","12","0.65","226","48","",""
"html-keyboard-response","152","182445","0.0-11.0-2.47","63dab0380b8791f9560fd329","bdp_rwlrn","Mon Mar 13 2023 13:24:24 GMT-0500 (Central Daylight Time)","419069","Untrustworthy,Trustworthy","","","","decisionFB","","","null","","<div class='trialDiv'><img src='Fruit/watermelon.png'><br><font class='baseline'><strong>Watermelon Win$</strong><p>Choose number of points to bet.</font><div class='respPicDiv'><img src='img/responseButtonOffersNo0L3.png' class='respPic'></div></div>","null","16","Watermelon Win$","Fruit/watermelon.png","Lost","0.65,0.2","12","0.65","223","48","",""
"html-keyboard-response","153","183447","0.0-11.0-3.47","63dab0380b8791f9560fd329","bdp_rwlrn","Mon Mar 13 2023 13:24:24 GMT-0500 (Central Daylight Time)","419069","Untrustworthy,Trustworthy","","","","feedback","","","null","","<div class='respPicDiv'><img src='img/responseButtonOffersNo0_wht.png' class='respPic'></div><div class='trialDiv'><img src='Fruit/watermelon.png'><br><font class='baseline'><strong>Watermelon Win$</strong><p><strong><font class='negOutcome'>You LOST</font><p>You bet: 3</strong></font> &nbsp; &nbsp; &nbsp; &nbsp; &nbsp; &nbsp;<font class='negOutcome'>You receive: <strong>0</strong></font></div>","null","16","Watermelon Win$","Fruit/watermelon.png","Lost","0.65,0.2","12","0.65","223","48","",""
"html-keyboard-response","154","183640","0.0-11.0-1.48","63dab0380b8791f9560fd329","bdp_rwlrn","Mon Mar 13 2023 13:24:24 GMT-0500 (Central Daylight Time)","419069","Untrustworthy,Trustworthy","","","","decision","","","193","","<div class='trialDiv'><img src='Fruit/mango.png'><br><font class='baseline'><strong>Mega Mangos</strong><p>Choose number of points to bet.</font><div class='respPicDiv'><img src='img/responseButtonOffersNo0L.png' class='respPic'></div></div>","1","17","Mega Mangos","Fruit/mango.png","Lost","0.65,0.35","13","0.65","228","49","",""
"html-keyboard-response","155","183892","0.0-11.0-2.48","63dab0380b8791f9560fd329","bdp_rwlrn","Mon Mar 13 2023 13:24:24 GMT-0500 (Central Daylight Time)","419069","Untrustworthy,Trustworthy","","","","decisionFB","","","null","","<div class='trialDiv'><img src='Fruit/mango.png'><br><font class='baseline'><strong>Mega Mangos</strong><p>Choose number of points to bet.</font><div class='respPicDiv'><img src='img/responseButtonOffersNo0L1.png' class='respPic'></div></div>","null","17","Mega Mangos","Fruit/mango.png","Lost","0.65,0.35","13","0.65","227","49","",""
"html-keyboard-response","156","184894","0.0-11.0-3.48","63dab0380b8791f9560fd329","bdp_rwlrn","Mon Mar 13 2023 13:24:24 GMT-0500 (Central Daylight Time)","419069","Untrustworthy,Trustworthy","","","","feedback","","","null","","<div class='respPicDiv'><img src='img/responseButtonOffersNo0_wht.png' class='respPic'></div><div class='trialDiv'><img src='Fruit/mango.png'><br><font class='baseline'><strong>Mega Mangos</strong><p><strong><font class='negOutcome'>You LOST</font><p>You bet: 1</strong></font> &nbsp; &nbsp; &nbsp; &nbsp; &nbsp; &nbsp;<font class='negOutcome'>You receive: <strong>0</strong></font></div>","null","17","Mega Mangos","Fruit/mango.png","Lost","0.65,0.35","13","0.65","227","49","",""
"html-keyboard-response","157","185302","0.0-11.0-1.49","63dab0380b8791f9560fd329","bdp_rwlrn","Mon Mar 13 2023 13:24:24 GMT-0500 (Central Daylight Time)","419069","Untrustworthy,Trustworthy","","","","decision","","","408","","<div class='trialDiv'><img src='Fruit/mixed-berries2.png'><br><font class='baseline'><strong>Berry Bla$t</strong><p>Choose number of points to bet.</font><div class='respPicDiv'><img src='img/responseButtonOffersNo0L.png' class='respPic'></div></div>","1","17","Berry Bla$t","Fruit/mixed-berries2.png","Lost","0.2,0.65","14","0.2","232","50","",""
"html-keyboard-response","158","185554","0.0-11.0-2.49","63dab0380b8791f9560fd329","bdp_rwlrn","Mon Mar 13 2023 13:24:24 GMT-0500 (Central Daylight Time)","419069","Untrustworthy,Trustworthy","","","","decisionFB","","","null","","<div class='trialDiv'><img src='Fruit/mixed-berries2.png'><br><font class='baseline'><strong>Berry Bla$t</strong><p>Choose number of points to bet.</font><div class='respPicDiv'><img src='img/responseButtonOffersNo0L1.png' class='respPic'></div></div>","null","17","Berry Bla$t","Fruit/mixed-berries2.png","Lost","0.2,0.65","14","0.2","231","50","",""
"html-keyboard-response","159","186555","0.0-11.0-3.49","63dab0380b8791f9560fd329","bdp_rwlrn","Mon Mar 13 2023 13:24:24 GMT-0500 (Central Daylight Time)","419069","Untrustworthy,Trustworthy","","","","feedback","","","null","","<div class='respPicDiv'><img src='img/responseButtonOffersNo0_wht.png' class='respPic'></div><div class='trialDiv'><img src='Fruit/mixed-berries2.png'><br><font class='baseline'><strong>Berry Bla$t</strong><p><strong><font class='negOutcome'>You LOST</font><p>You bet: 1</strong></font> &nbsp; &nbsp; &nbsp; &nbsp; &nbsp; &nbsp;<font class='negOutcome'>You receive: <strong>0</strong></font></div>","null","17","Berry Bla$t","Fruit/mixed-berries2.png","Lost","0.2,0.65","14","0.2","231","50","",""
