"trial_type","trial_index","time_elapsed","internal_node_id","subject_id","task","startTime","totalTime","labels","view_history","rt","event","trial","time","trialtype","success","stimulus","key_press","ltround","name","fileID","outcome","lottotype","lottoswpt","lottocurrpshare","point_total","round","faceID","face"
"pavlovia","0","24","0.0-0.0","6162341a644c08d5cca4b7bb","bdp_rwlrn","Sun Mar 12 2023 17:10:58 GMT-0400 (Eastern Daylight Time)","481351","Trustworthy,Untrustworthy","","","","","","","","","","","","","","","","","","","",""
"instructions","1","3699","0.0-1.0","6162341a644c08d5cca4b7bb","bdp_rwlrn","Sun Mar 12 2023 17:10:58 GMT-0400 (Eastern Daylight Time)","481351","Trustworthy,Untrustworthy","[{""page_index"":0,""viewing_time"":3675}]","3675","","","","","","","","","","","","","","","","","",""
"","","","","6162341a644c08d5cca4b7bb","bdp_rwlrn","Sun Mar 12 2023 17:10:58 GMT-0400 (Eastern Daylight Time)","481351","Trustworthy,Untrustworthy","","","fullscreenexit","2","5484","fullscreenexit","","","","","","","","","","","","","",""
"fullscreen","2","6268","0.0-2.0","6162341a644c08d5cca4b7bb","bdp_rwlrn","Sun Mar 12 2023 17:10:58 GMT-0400 (Eastern Daylight Time)","481351","Trustworthy,Untrustworthy","","","","","","","true","","","","","","","","","","","","",""
"image-keyboard-response","3","12378","0.0-3.0-0.0","6162341a644c08d5cca4b7bb","bdp_rwlrn","Sun Mar 12 2023 17:10:58 GMT-0400 (Eastern Daylight Time)","481351","Trustworthy,Untrustworthy","","6107","","","","fullscreenfail","","","32","","","","","","","","","","",""
"instructions","4","114985","0.0-4.0","6162341a644c08d5cca4b7bb","bdp_rwlrn","Sun Mar 12 2023 17:10:58 GMT-0400 (Eastern Daylight Time)","481351","Trustworthy,Untrustworthy","[{""page_index"":0,""viewing_time"":14265},{""page_index"":1,""viewing_time"":25020},{""page_index"":2,""viewing_time"":12111},{""page_index"":3,""viewing_time"":5340},{""page_index"":4,""viewing_time"":37832},{""page_index"":5,""viewing_time"":7786}]","102355","","","","","","","","","","","","","","","","","",""
"html-keyboard-response","5","119198","0.0-5.0","6162341a644c08d5cca4b7bb","bdp_rwlrn","Sun Mar 12 2023 17:10:58 GMT-0400 (Eastern Daylight Time)","481351","Trustworthy,Untrustworthy","","4210","","","","","","<div class='header' style='text-align:left; position: absolute; top: 5%; left: 5%;'><small>Task 1 of 5</small></div><div class='instruxDiv'><p><strong>1) What is the maximum number of points you can choose to bet on a lottery?</strong></p><p>a) 0</p><p>b) 1</p><p>c) 5</p>","C","","","","","","","","","","",""
"html-keyboard-response","6","121106","0.0-6.0","6162341a644c08d5cca4b7bb","bdp_rwlrn","Sun Mar 12 2023 17:10:58 GMT-0400 (Eastern Daylight Time)","481351","Trustworthy,Untrustworthy","","1802","","","","","","<div class='header' style='text-align:left; position: absolute; top: 5%; left: 5%;'><small>Task 1 of 5</small></div><div class='instruxDiv'><p><strong>1) What is the maximum number of points you can choose to bet on a lottery?</strong></p><p>a) 1</p><p>b) 1</p><p style='color:#00FF00'>c) 5</p><h3 style='color:#00FF00'>Correct!</h3><h3 class='center-content'>The correct response is c).</h3><h3 class='center-content'>The maximum number of points you can choose to bet on a lottery is 5 points.</h3><p><em>Press SPACEBAR to continue</em></p></div>"," ","","","","","","","","","","",""
"html-keyboard-response","7","124797","0.0-7.0","6162341a644c08d5cca4b7bb","bdp_rwlrn","Sun Mar 12 2023 17:10:58 GMT-0400 (Eastern Daylight Time)","481351","Trustworthy,Untrustworthy","","3588","","","","","","<div class='header' style='text-align:left; position: absolute; top: 5%; left: 5%;'><small>Task 1 of 5</small></div><div class='instruxDiv'><p><strong>2) How many points can you win each round?</strong></p><p>a) 10 points</p><p>b) Double what you bet</p><p>c) Quadruple what you bet</p>","B","","","","","","","","","","",""
"html-keyboard-response","8","127572","0.0-8.0","6162341a644c08d5cca4b7bb","bdp_rwlrn","Sun Mar 12 2023 17:10:58 GMT-0400 (Eastern Daylight Time)","481351","Trustworthy,Untrustworthy","","2672","","","","","","<div class='header' style='text-align:left; position: absolute; top: 5%; left: 5%;'><small>Task 1 of 5</small></div><div class='instruxDiv'><p><strong>2) How many points can you win each round?</strong></p><p>a) 10 points</p><p style='color:#00FF00'>b) Double what you bet</p><p>c) Quadruple what you bet</p><h3 style='color:#00FF00'>Correct!</h3><h3 class='center-content'>The correct response is b).</h3><h3 class='center-content'>You can win double the amount of points you bet.</h3><p><em>Press SPACEBAR to continue</em></p></div>"," ","","","","","","","","","","",""
"html-keyboard-response","9","132676","0.0-9.0","6162341a644c08d5cca4b7bb","bdp_rwlrn","Sun Mar 12 2023 17:10:58 GMT-0400 (Eastern Daylight Time)","481351","Trustworthy,Untrustworthy","","null","","","","","","<div class='header' style='text-align:left; position: absolute; top: 5%; left: 5%;'><small>Task 1 of 5</small></div><div class='instruxDiv'><p>Thank you for completing the quiz<p>These are the actual lotteries you will be playing in the next block:<p><div class='tc' align='center'><img class='introPic' src='Fruit/lime.png'><br><strong>Limin' Large</strong></div><div class='bl' align='center'><img class='introPic' src='Fruit/apple.png'><br><strong>Awesome Apples</strong></div><div class='br' align='center'><img class='introPic' src='Fruit/grapes.png'><br><strong>Great Grapes</strong></div></div><p>Across <strong>66 rounds</strong> you will play each lottery <strong>22 times</strong> (in random order).<p style='align:center; color:white'><font <em>Press SPACEBAR to continue</em></p>","null","","","","","","","","","","",""
"instructions","10","136737","0.0-10.0","6162341a644c08d5cca4b7bb","bdp_rwlrn","Sun Mar 12 2023 17:10:58 GMT-0400 (Eastern Daylight Time)","481351","Trustworthy,Untrustworthy","[{""page_index"":0,""viewing_time"":1993},{""page_index"":1,""viewing_time"":2066}]","4060","","","","","","","","","","","","","","","","","",""
"html-keyboard-response","11","140767","0.0-11.0-1.0","6162341a644c08d5cca4b7bb","bdp_rwlrn","Sun Mar 12 2023 17:10:58 GMT-0400 (Eastern Daylight Time)","481351","Trustworthy,Untrustworthy","","3926","","","","decision","","<div class='trialDiv'><img src='Fruit/lime.png'><br><font class='baseline'><strong>Limin' Large</strong><p>Choose number of points to bet.</font><div class='respPicDiv'><img src='img/responseButtonOffersNo0L.png' class='respPic'></div></div>","3","1","Limin' Large","Fruit/lime.png","Won","0.65,0.2","11","0.65","5","1","",""
"html-keyboard-response","12","141021","0.0-11.0-2.0","6162341a644c08d5cca4b7bb","bdp_rwlrn","Sun Mar 12 2023 17:10:58 GMT-0400 (Eastern Daylight Time)","481351","Trustworthy,Untrustworthy","","null","","","","decisionFB","","<div class='trialDiv'><img src='Fruit/lime.png'><br><font class='baseline'><strong>Limin' Large</strong><p>Choose number of points to bet.</font><div class='respPicDiv'><img src='img/responseButtonOffersNo0L3.png' class='respPic'></div></div>","null","1","Limin' Large","Fruit/lime.png","Won","0.65,0.2","11","0.65","2","1","",""
"html-keyboard-response","13","142023","0.0-11.0-3.0","6162341a644c08d5cca4b7bb","bdp_rwlrn","Sun Mar 12 2023 17:10:58 GMT-0400 (Eastern Daylight Time)","481351","Trustworthy,Untrustworthy","","null","","","","feedback","","<div class='respPicDiv'><img src='img/responseButtonOffersNo0_wht.png' class='respPic'></div><div class='trialDiv'><img src='Fruit/lime.png'><br><font class='baseline'><strong>Limin' Large</strong><p><strong><font class='posOutcome'>You WON</font><p>You bet: 3</strong></font> &nbsp; &nbsp; &nbsp; &nbsp; &nbsp; &nbsp;<font class='posOutcome'>you receive: <strong>6</strong></font></div>","null","1","Limin' Large","Fruit/lime.png","Won","0.65,0.2","11","0.65","8","1","",""
"html-keyboard-response","14","143932","0.0-11.0-1.1","6162341a644c08d5cca4b7bb","bdp_rwlrn","Sun Mar 12 2023 17:10:58 GMT-0400 (Eastern Daylight Time)","481351","Trustworthy,Untrustworthy","","1907","","","","decision","","<div class='trialDiv'><img src='Fruit/apple.png'><br><font class='baseline'><strong>Awesome Apples</strong><p>Choose number of points to bet.</font><div class='respPicDiv'><img src='img/responseButtonOffersNo0L.png' class='respPic'></div></div>","3","1","Awesome Apples","Fruit/apple.png","Won","0.8,0.2","11","0.8","13","2","",""
"html-keyboard-response","15","144184","0.0-11.0-2.1","6162341a644c08d5cca4b7bb","bdp_rwlrn","Sun Mar 12 2023 17:10:58 GMT-0400 (Eastern Daylight Time)","481351","Trustworthy,Untrustworthy","","null","","","","decisionFB","","<div class='trialDiv'><img src='Fruit/apple.png'><br><font class='baseline'><strong>Awesome Apples</strong><p>Choose number of points to bet.</font><div class='respPicDiv'><img src='img/responseButtonOffersNo0L3.png' class='respPic'></div></div>","null","1","Awesome Apples","Fruit/apple.png","Won","0.8,0.2","11","0.8","10","2","",""
"html-keyboard-response","16","145188","0.0-11.0-3.1","6162341a644c08d5cca4b7bb","bdp_rwlrn","Sun Mar 12 2023 17:10:58 GMT-0400 (Eastern Daylight Time)","481351","Trustworthy,Untrustworthy","","null","","","","feedback","","<div class='respPicDiv'><img src='img/responseButtonOffersNo0_wht.png' class='respPic'></div><div class='trialDiv'><img src='Fruit/apple.png'><br><font class='baseline'><strong>Awesome Apples</strong><p><strong><font class='posOutcome'>You WON</font><p>You bet: 3</strong></font> &nbsp; &nbsp; &nbsp; &nbsp; &nbsp; &nbsp;<font class='posOutcome'>you receive: <strong>6</strong></font></div>","null","1","Awesome Apples","Fruit/apple.png","Won","0.8,0.2","11","0.8","16","2","",""
"html-keyboard-response","17","146065","0.0-11.0-1.2","6162341a644c08d5cca4b7bb","bdp_rwlrn","Sun Mar 12 2023 17:10:58 GMT-0400 (Eastern Daylight Time)","481351","Trustworthy,Untrustworthy","","876","","","","decision","","<div class='trialDiv'><img src='Fruit/grapes.png'><br><font class='baseline'><strong>Great Grapes</strong><p>Choose number of points to bet.</font><div class='respPicDiv'><img src='img/responseButtonOffersNo0L.png' class='respPic'></div></div>","3","1","Great Grapes","Fruit/grapes.png","Lost","0.35,0.8","11","0.35","21","3","",""
"html-keyboard-response","18","146317","0.0-11.0-2.2","6162341a644c08d5cca4b7bb","bdp_rwlrn","Sun Mar 12 2023 17:10:58 GMT-0400 (Eastern Daylight Time)","481351","Trustworthy,Untrustworthy","","null","","","","decisionFB","","<div class='trialDiv'><img src='Fruit/grapes.png'><br><font class='baseline'><strong>Great Grapes</strong><p>Choose number of points to bet.</font><div class='respPicDiv'><img src='img/responseButtonOffersNo0L3.png' class='respPic'></div></div>","null","1","Great Grapes","Fruit/grapes.png","Lost","0.35,0.8","11","0.35","18","3","",""
"html-keyboard-response","19","147318","0.0-11.0-3.2","6162341a644c08d5cca4b7bb","bdp_rwlrn","Sun Mar 12 2023 17:10:58 GMT-0400 (Eastern Daylight Time)","481351","Trustworthy,Untrustworthy","","null","","","","feedback","","<div class='respPicDiv'><img src='img/responseButtonOffersNo0_wht.png' class='respPic'></div><div class='trialDiv'><img src='Fruit/grapes.png'><br><font class='baseline'><strong>Great Grapes</strong><p><strong><font class='negOutcome'>You LOST</font><p>You bet: 3</strong></font> &nbsp; &nbsp; &nbsp; &nbsp; &nbsp; &nbsp;<font class='negOutcome'>You receive: <strong>0</strong></font></div>","null","1","Great Grapes","Fruit/grapes.png","Lost","0.35,0.8","11","0.35","18","3","",""
"html-keyboard-response","20","148040","0.0-11.0-1.3","6162341a644c08d5cca4b7bb","bdp_rwlrn","Sun Mar 12 2023 17:10:58 GMT-0400 (Eastern Daylight Time)","481351","Trustworthy,Untrustworthy","","721","","","","decision","","<div class='trialDiv'><img src='Fruit/lime.png'><br><font class='baseline'><strong>Limin' Large</strong><p>Choose number of points to bet.</font><div class='respPicDiv'><img src='img/responseButtonOffersNo0L.png' class='respPic'></div></div>","3","2","Limin' Large","Fruit/lime.png","Lost","0.65,0.2","11","0.65","23","4","",""
"html-keyboard-response","21","148292","0.0-11.0-2.3","6162341a644c08d5cca4b7bb","bdp_rwlrn","Sun Mar 12 2023 17:10:58 GMT-0400 (Eastern Daylight Time)","481351","Trustworthy,Untrustworthy","","null","","","","decisionFB","","<div class='trialDiv'><img src='Fruit/lime.png'><br><font class='baseline'><strong>Limin' Large</strong><p>Choose number of points to bet.</font><div class='respPicDiv'><img src='img/responseButtonOffersNo0L3.png' class='respPic'></div></div>","null","2","Limin' Large","Fruit/lime.png","Lost","0.65,0.2","11","0.65","20","4","",""
"html-keyboard-response","22","149294","0.0-11.0-3.3","6162341a644c08d5cca4b7bb","bdp_rwlrn","Sun Mar 12 2023 17:10:58 GMT-0400 (Eastern Daylight Time)","481351","Trustworthy,Untrustworthy","","null","","","","feedback","","<div class='respPicDiv'><img src='img/responseButtonOffersNo0_wht.png' class='respPic'></div><div class='trialDiv'><img src='Fruit/lime.png'><br><font class='baseline'><strong>Limin' Large</strong><p><strong><font class='negOutcome'>You LOST</font><p>You bet: 3</strong></font> &nbsp; &nbsp; &nbsp; &nbsp; &nbsp; &nbsp;<font class='negOutcome'>You receive: <strong>0</strong></font></div>","null","2","Limin' Large","Fruit/lime.png","Lost","0.65,0.2","11","0.65","20","4","",""
"html-keyboard-response","23","151227","0.0-11.0-1.4","6162341a644c08d5cca4b7bb","bdp_rwlrn","Sun Mar 12 2023 17:10:58 GMT-0400 (Eastern Daylight Time)","481351","Trustworthy,Untrustworthy","","1933","","","","decision","","<div class='trialDiv'><img src='Fruit/grapes.png'><br><font class='baseline'><strong>Great Grapes</strong><p>Choose number of points to bet.</font><div class='respPicDiv'><img src='img/responseButtonOffersNo0L.png' class='respPic'></div></div>","2","2","Great Grapes","Fruit/grapes.png","Lost","0.35,0.8","11","0.35","25","5","",""
"html-keyboard-response","24","151479","0.0-11.0-2.4","6162341a644c08d5cca4b7bb","bdp_rwlrn","Sun Mar 12 2023 17:10:58 GMT-0400 (Eastern Daylight Time)","481351","Trustworthy,Untrustworthy","","null","","","","decisionFB","","<div class='trialDiv'><img src='Fruit/grapes.png'><br><font class='baseline'><strong>Great Grapes</strong><p>Choose number of points to bet.</font><div class='respPicDiv'><img src='img/responseButtonOffersNo0L2.png' class='respPic'></div></div>","null","2","Great Grapes","Fruit/grapes.png","Lost","0.35,0.8","11","0.35","23","5","",""
"html-keyboard-response","25","152481","0.0-11.0-3.4","6162341a644c08d5cca4b7bb","bdp_rwlrn","Sun Mar 12 2023 17:10:58 GMT-0400 (Eastern Daylight Time)","481351","Trustworthy,Untrustworthy","","null","","","","feedback","","<div class='respPicDiv'><img src='img/responseButtonOffersNo0_wht.png' class='respPic'></div><div class='trialDiv'><img src='Fruit/grapes.png'><br><font class='baseline'><strong>Great Grapes</strong><p><strong><font class='negOutcome'>You LOST</font><p>You bet: 2</strong></font> &nbsp; &nbsp; &nbsp; &nbsp; &nbsp; &nbsp;<font class='negOutcome'>You receive: <strong>0</strong></font></div>","null","2","Great Grapes","Fruit/grapes.png","Lost","0.35,0.8","11","0.35","23","5","",""
"html-keyboard-response","26","155838","0.0-11.0-1.5","6162341a644c08d5cca4b7bb","bdp_rwlrn","Sun Mar 12 2023 17:10:58 GMT-0400 (Eastern Daylight Time)","481351","Trustworthy,Untrustworthy","","3356","","","","decision","","<div class='trialDiv'><img src='Fruit/apple.png'><br><font class='baseline'><strong>Awesome Apples</strong><p>Choose number of points to bet.</font><div class='respPicDiv'><img src='img/responseButtonOffersNo0L.png' class='respPic'></div></div>","5","2","Awesome Apples","Fruit/apple.png","Won","0.8,0.2","11","0.8","28","6","",""
"html-keyboard-response","27","156090","0.0-11.0-2.5","6162341a644c08d5cca4b7bb","bdp_rwlrn","Sun Mar 12 2023 17:10:58 GMT-0400 (Eastern Daylight Time)","481351","Trustworthy,Untrustworthy","","null","","","","decisionFB","","<div class='trialDiv'><img src='Fruit/apple.png'><br><font class='baseline'><strong>Awesome Apples</strong><p>Choose number of points to bet.</font><div class='respPicDiv'><img src='img/responseButtonOffersNo0L5.png' class='respPic'></div></div>","null","2","Awesome Apples","Fruit/apple.png","Won","0.8,0.2","11","0.8","23","6","",""
"html-keyboard-response","28","157093","0.0-11.0-3.5","6162341a644c08d5cca4b7bb","bdp_rwlrn","Sun Mar 12 2023 17:10:58 GMT-0400 (Eastern Daylight Time)","481351","Trustworthy,Untrustworthy","","null","","","","feedback","","<div class='respPicDiv'><img src='img/responseButtonOffersNo0_wht.png' class='respPic'></div><div class='trialDiv'><img src='Fruit/apple.png'><br><font class='baseline'><strong>Awesome Apples</strong><p><strong><font class='posOutcome'>You WON</font><p>You bet: 5</strong></font> &nbsp; &nbsp; &nbsp; &nbsp; &nbsp; &nbsp;<font class='posOutcome'>you receive: <strong>10</strong></font></div>","null","2","Awesome Apples","Fruit/apple.png","Won","0.8,0.2","11","0.8","33","6","",""
"html-keyboard-response","29","158040","0.0-11.0-1.6","6162341a644c08d5cca4b7bb","bdp_rwlrn","Sun Mar 12 2023 17:10:58 GMT-0400 (Eastern Daylight Time)","481351","Trustworthy,Untrustworthy","","946","","","","decision","","<div class='trialDiv'><img src='Fruit/lime.png'><br><font class='baseline'><strong>Limin' Large</strong><p>Choose number of points to bet.</font><div class='respPicDiv'><img src='img/responseButtonOffersNo0L.png' class='respPic'></div></div>","5","3","Limin' Large","Fruit/lime.png","Lost","0.65,0.2","11","0.65","38","7","",""
"html-keyboard-response","30","158293","0.0-11.0-2.6","6162341a644c08d5cca4b7bb","bdp_rwlrn","Sun Mar 12 2023 17:10:58 GMT-0400 (Eastern Daylight Time)","481351","Trustworthy,Untrustworthy","","null","","","","decisionFB","","<div class='trialDiv'><img src='Fruit/lime.png'><br><font class='baseline'><strong>Limin' Large</strong><p>Choose number of points to bet.</font><div class='respPicDiv'><img src='img/responseButtonOffersNo0L5.png' class='respPic'></div></div>","null","3","Limin' Large","Fruit/lime.png","Lost","0.65,0.2","11","0.65","33","7","",""
"html-keyboard-response","31","159294","0.0-11.0-3.6","6162341a644c08d5cca4b7bb","bdp_rwlrn","Sun Mar 12 2023 17:10:58 GMT-0400 (Eastern Daylight Time)","481351","Trustworthy,Untrustworthy","","null","","","","feedback","","<div class='respPicDiv'><img src='img/responseButtonOffersNo0_wht.png' class='respPic'></div><div class='trialDiv'><img src='Fruit/lime.png'><br><font class='baseline'><strong>Limin' Large</strong><p><strong><font class='negOutcome'>You LOST</font><p>You bet: 5</strong></font> &nbsp; &nbsp; &nbsp; &nbsp; &nbsp; &nbsp;<font class='negOutcome'>You receive: <strong>0</strong></font></div>","null","3","Limin' Large","Fruit/lime.png","Lost","0.65,0.2","11","0.65","33","7","",""
"html-keyboard-response","32","160605","0.0-11.0-1.7","6162341a644c08d5cca4b7bb","bdp_rwlrn","Sun Mar 12 2023 17:10:58 GMT-0400 (Eastern Daylight Time)","481351","Trustworthy,Untrustworthy","","1309","","","","decision","","<div class='trialDiv'><img src='Fruit/apple.png'><br><font class='baseline'><strong>Awesome Apples</strong><p>Choose number of points to bet.</font><div class='respPicDiv'><img src='img/responseButtonOffersNo0L.png' class='respPic'></div></div>","1","3","Awesome Apples","Fruit/apple.png","Lost","0.8,0.2","11","0.8","38","8","",""
"html-keyboard-response","33","160856","0.0-11.0-2.7","6162341a644c08d5cca4b7bb","bdp_rwlrn","Sun Mar 12 2023 17:10:58 GMT-0400 (Eastern Daylight Time)","481351","Trustworthy,Untrustworthy","","null","","","","decisionFB","","<div class='trialDiv'><img src='Fruit/apple.png'><br><font class='baseline'><strong>Awesome Apples</strong><p>Choose number of points to bet.</font><div class='respPicDiv'><img src='img/responseButtonOffersNo0L1.png' class='respPic'></div></div>","null","3","Awesome Apples","Fruit/apple.png","Lost","0.8,0.2","11","0.8","37","8","",""
"html-keyboard-response","34","161858","0.0-11.0-3.7","6162341a644c08d5cca4b7bb","bdp_rwlrn","Sun Mar 12 2023 17:10:58 GMT-0400 (Eastern Daylight Time)","481351","Trustworthy,Untrustworthy","","null","","","","feedback","","<div class='respPicDiv'><img src='img/responseButtonOffersNo0_wht.png' class='respPic'></div><div class='trialDiv'><img src='Fruit/apple.png'><br><font class='baseline'><strong>Awesome Apples</strong><p><strong><font class='negOutcome'>You LOST</font><p>You bet: 1</strong></font> &nbsp; &nbsp; &nbsp; &nbsp; &nbsp; &nbsp;<font class='negOutcome'>You receive: <strong>0</strong></font></div>","null","3","Awesome Apples","Fruit/apple.png","Lost","0.8,0.2","11","0.8","37","8","",""
"html-keyboard-response","35","163478","0.0-11.0-1.8","6162341a644c08d5cca4b7bb","bdp_rwlrn","Sun Mar 12 2023 17:10:58 GMT-0400 (Eastern Daylight Time)","481351","Trustworthy,Untrustworthy","","1619","","","","decision","","<div class='trialDiv'><img src='Fruit/grapes.png'><br><font class='baseline'><strong>Great Grapes</strong><p>Choose number of points to bet.</font><div class='respPicDiv'><img src='img/responseButtonOffersNo0L.png' class='respPic'></div></div>","5","3","Great Grapes","Fruit/grapes.png","Won","0.35,0.8","11","0.35","42","9","",""
"html-keyboard-response","36","163729","0.0-11.0-2.8","6162341a644c08d5cca4b7bb","bdp_rwlrn","Sun Mar 12 2023 17:10:58 GMT-0400 (Eastern Daylight Time)","481351","Trustworthy,Untrustworthy","","null","","","","decisionFB","","<div class='trialDiv'><img src='Fruit/grapes.png'><br><font class='baseline'><strong>Great Grapes</strong><p>Choose number of points to bet.</font><div class='respPicDiv'><img src='img/responseButtonOffersNo0L5.png' class='respPic'></div></div>","null","3","Great Grapes","Fruit/grapes.png","Won","0.35,0.8","11","0.35","37","9","",""
"html-keyboard-response","37","164732","0.0-11.0-3.8","6162341a644c08d5cca4b7bb","bdp_rwlrn","Sun Mar 12 2023 17:10:58 GMT-0400 (Eastern Daylight Time)","481351","Trustworthy,Untrustworthy","","null","","","","feedback","","<div class='respPicDiv'><img src='img/responseButtonOffersNo0_wht.png' class='respPic'></div><div class='trialDiv'><img src='Fruit/grapes.png'><br><font class='baseline'><strong>Great Grapes</strong><p><strong><font class='posOutcome'>You WON</font><p>You bet: 5</strong></font> &nbsp; &nbsp; &nbsp; &nbsp; &nbsp; &nbsp;<font class='posOutcome'>you receive: <strong>10</strong></font></div>","null","3","Great Grapes","Fruit/grapes.png","Won","0.35,0.8","11","0.35","47","9","",""
"html-keyboard-response","38","165798","0.0-11.0-1.9","6162341a644c08d5cca4b7bb","bdp_rwlrn","Sun Mar 12 2023 17:10:58 GMT-0400 (Eastern Daylight Time)","481351","Trustworthy,Untrustworthy","","1064","","","","decision","","<div class='trialDiv'><img src='Fruit/lime.png'><br><font class='baseline'><strong>Limin' Large</strong><p>Choose number of points to bet.</font><div class='respPicDiv'><img src='img/responseButtonOffersNo0L.png' class='respPic'></div></div>","5","4","Limin' Large","Fruit/lime.png","Won","0.65,0.2","11","0.65","52","10","",""
"html-keyboard-response","39","166051","0.0-11.0-2.9","6162341a644c08d5cca4b7bb","bdp_rwlrn","Sun Mar 12 2023 17:10:58 GMT-0400 (Eastern Daylight Time)","481351","Trustworthy,Untrustworthy","","null","","","","decisionFB","","<div class='trialDiv'><img src='Fruit/lime.png'><br><font class='baseline'><strong>Limin' Large</strong><p>Choose number of points to bet.</font><div class='respPicDiv'><img src='img/responseButtonOffersNo0L5.png' class='respPic'></div></div>","null","4","Limin' Large","Fruit/lime.png","Won","0.65,0.2","11","0.65","47","10","",""
"html-keyboard-response","40","167053","0.0-11.0-3.9","6162341a644c08d5cca4b7bb","bdp_rwlrn","Sun Mar 12 2023 17:10:58 GMT-0400 (Eastern Daylight Time)","481351","Trustworthy,Untrustworthy","","null","","","","feedback","","<div class='respPicDiv'><img src='img/responseButtonOffersNo0_wht.png' class='respPic'></div><div class='trialDiv'><img src='Fruit/lime.png'><br><font class='baseline'><strong>Limin' Large</strong><p><strong><font class='posOutcome'>You WON</font><p>You bet: 5</strong></font> &nbsp; &nbsp; &nbsp; &nbsp; &nbsp; &nbsp;<font class='posOutcome'>you receive: <strong>10</strong></font></div>","null","4","Limin' Large","Fruit/lime.png","Won","0.65,0.2","11","0.65","57","10","",""
"html-keyboard-response","41","168935","0.0-11.0-1.10","6162341a644c08d5cca4b7bb","bdp_rwlrn","Sun Mar 12 2023 17:10:58 GMT-0400 (Eastern Daylight Time)","481351","Trustworthy,Untrustworthy","","1880","","","","decision","","<div class='trialDiv'><img src='Fruit/apple.png'><br><font class='baseline'><strong>Awesome Apples</strong><p>Choose number of points to bet.</font><div class='respPicDiv'><img src='img/responseButtonOffersNo0L.png' class='respPic'></div></div>","2","4","Awesome Apples","Fruit/apple.png","Won","0.8,0.2","11","0.8","62","11","",""
"html-keyboard-response","42","169186","0.0-11.0-2.10","6162341a644c08d5cca4b7bb","bdp_rwlrn","Sun Mar 12 2023 17:10:58 GMT-0400 (Eastern Daylight Time)","481351","Trustworthy,Untrustworthy","","null","","","","decisionFB","","<div class='trialDiv'><img src='Fruit/apple.png'><br><font class='baseline'><strong>Awesome Apples</strong><p>Choose number of points to bet.</font><div class='respPicDiv'><img src='img/responseButtonOffersNo0L2.png' class='respPic'></div></div>","null","4","Awesome Apples","Fruit/apple.png","Won","0.8,0.2","11","0.8","60","11","",""
"html-keyboard-response","43","170188","0.0-11.0-3.10","6162341a644c08d5cca4b7bb","bdp_rwlrn","Sun Mar 12 2023 17:10:58 GMT-0400 (Eastern Daylight Time)","481351","Trustworthy,Untrustworthy","","null","","","","feedback","","<div class='respPicDiv'><img src='img/responseButtonOffersNo0_wht.png' class='respPic'></div><div class='trialDiv'><img src='Fruit/apple.png'><br><font class='baseline'><strong>Awesome Apples</strong><p><strong><font class='posOutcome'>You WON</font><p>You bet: 2</strong></font> &nbsp; &nbsp; &nbsp; &nbsp; &nbsp; &nbsp;<font class='posOutcome'>you receive: <strong>4</strong></font></div>","null","4","Awesome Apples","Fruit/apple.png","Won","0.8,0.2","11","0.8","64","11","",""
"html-keyboard-response","44","171143","0.0-11.0-1.11","6162341a644c08d5cca4b7bb","bdp_rwlrn","Sun Mar 12 2023 17:10:58 GMT-0400 (Eastern Daylight Time)","481351","Trustworthy,Untrustworthy","","953","","","","decision","","<div class='trialDiv'><img src='Fruit/grapes.png'><br><font class='baseline'><strong>Great Grapes</strong><p>Choose number of points to bet.</font><div class='respPicDiv'><img src='img/responseButtonOffersNo0L.png' class='respPic'></div></div>","5","4","Great Grapes","Fruit/grapes.png","Lost","0.35,0.8","11","0.35","69","12","",""
"html-keyboard-response","45","171395","0.0-11.0-2.11","6162341a644c08d5cca4b7bb","bdp_rwlrn","Sun Mar 12 2023 17:10:58 GMT-0400 (Eastern Daylight Time)","481351","Trustworthy,Untrustworthy","","null","","","","decisionFB","","<div class='trialDiv'><img src='Fruit/grapes.png'><br><font class='baseline'><strong>Great Grapes</strong><p>Choose number of points to bet.</font><div class='respPicDiv'><img src='img/responseButtonOffersNo0L5.png' class='respPic'></div></div>","null","4","Great Grapes","Fruit/grapes.png","Lost","0.35,0.8","11","0.35","64","12","",""
"html-keyboard-response","46","172397","0.0-11.0-3.11","6162341a644c08d5cca4b7bb","bdp_rwlrn","Sun Mar 12 2023 17:10:58 GMT-0400 (Eastern Daylight Time)","481351","Trustworthy,Untrustworthy","","null","","","","feedback","","<div class='respPicDiv'><img src='img/responseButtonOffersNo0_wht.png' class='respPic'></div><div class='trialDiv'><img src='Fruit/grapes.png'><br><font class='baseline'><strong>Great Grapes</strong><p><strong><font class='negOutcome'>You LOST</font><p>You bet: 5</strong></font> &nbsp; &nbsp; &nbsp; &nbsp; &nbsp; &nbsp;<font class='negOutcome'>You receive: <strong>0</strong></font></div>","null","4","Great Grapes","Fruit/grapes.png","Lost","0.35,0.8","11","0.35","64","12","",""
"html-keyboard-response","47","175085","0.0-11.0-1.12","6162341a644c08d5cca4b7bb","bdp_rwlrn","Sun Mar 12 2023 17:10:58 GMT-0400 (Eastern Daylight Time)","481351","Trustworthy,Untrustworthy","","2687","","","","decision","","<div class='trialDiv'><img src='Fruit/apple.png'><br><font class='baseline'><strong>Awesome Apples</strong><p>Choose number of points to bet.</font><div class='respPicDiv'><img src='img/responseButtonOffersNo0L.png' class='respPic'></div></div>","4","5","Awesome Apples","Fruit/apple.png","Won","0.8,0.2","11","0.8","69","13","",""
"html-keyboard-response","48","175337","0.0-11.0-2.12","6162341a644c08d5cca4b7bb","bdp_rwlrn","Sun Mar 12 2023 17:10:58 GMT-0400 (Eastern Daylight Time)","481351","Trustworthy,Untrustworthy","","null","","","","decisionFB","","<div class='trialDiv'><img src='Fruit/apple.png'><br><font class='baseline'><strong>Awesome Apples</strong><p>Choose number of points to bet.</font><div class='respPicDiv'><img src='img/responseButtonOffersNo0L4.png' class='respPic'></div></div>","null","5","Awesome Apples","Fruit/apple.png","Won","0.8,0.2","11","0.8","65","13","",""
"html-keyboard-response","49","176339","0.0-11.0-3.12","6162341a644c08d5cca4b7bb","bdp_rwlrn","Sun Mar 12 2023 17:10:58 GMT-0400 (Eastern Daylight Time)","481351","Trustworthy,Untrustworthy","","null","","","","feedback","","<div class='respPicDiv'><img src='img/responseButtonOffersNo0_wht.png' class='respPic'></div><div class='trialDiv'><img src='Fruit/apple.png'><br><font class='baseline'><strong>Awesome Apples</strong><p><strong><font class='posOutcome'>You WON</font><p>You bet: 4</strong></font> &nbsp; &nbsp; &nbsp; &nbsp; &nbsp; &nbsp;<font class='posOutcome'>you receive: <strong>8</strong></font></div>","null","5","Awesome Apples","Fruit/apple.png","Won","0.8,0.2","11","0.8","73","13","",""
"html-keyboard-response","50","177016","0.0-11.0-1.13","6162341a644c08d5cca4b7bb","bdp_rwlrn","Sun Mar 12 2023 17:10:58 GMT-0400 (Eastern Daylight Time)","481351","Trustworthy,Untrustworthy","","676","","","","decision","","<div class='trialDiv'><img src='Fruit/lime.png'><br><font class='baseline'><strong>Limin' Large</strong><p>Choose number of points to bet.</font><div class='respPicDiv'><img src='img/responseButtonOffersNo0L.png' class='respPic'></div></div>","5","5","Limin' Large","Fruit/lime.png","Won","0.65,0.2","11","0.65","78","14","",""
"html-keyboard-response","51","177268","0.0-11.0-2.13","6162341a644c08d5cca4b7bb","bdp_rwlrn","Sun Mar 12 2023 17:10:58 GMT-0400 (Eastern Daylight Time)","481351","Trustworthy,Untrustworthy","","null","","","","decisionFB","","<div class='trialDiv'><img src='Fruit/lime.png'><br><font class='baseline'><strong>Limin' Large</strong><p>Choose number of points to bet.</font><div class='respPicDiv'><img src='img/responseButtonOffersNo0L5.png' class='respPic'></div></div>","null","5","Limin' Large","Fruit/lime.png","Won","0.65,0.2","11","0.65","73","14","",""
"html-keyboard-response","52","178270","0.0-11.0-3.13","6162341a644c08d5cca4b7bb","bdp_rwlrn","Sun Mar 12 2023 17:10:58 GMT-0400 (Eastern Daylight Time)","481351","Trustworthy,Untrustworthy","","null","","","","feedback","","<div class='respPicDiv'><img src='img/responseButtonOffersNo0_wht.png' class='respPic'></div><div class='trialDiv'><img src='Fruit/lime.png'><br><font class='baseline'><strong>Limin' Large</strong><p><strong><font class='posOutcome'>You WON</font><p>You bet: 5</strong></font> &nbsp; &nbsp; &nbsp; &nbsp; &nbsp; &nbsp;<font class='posOutcome'>you receive: <strong>10</strong></font></div>","null","5","Limin' Large","Fruit/lime.png","Won","0.65,0.2","11","0.65","83","14","",""
"html-keyboard-response","53","179442","0.0-11.0-1.14","6162341a644c08d5cca4b7bb","bdp_rwlrn","Sun Mar 12 2023 17:10:58 GMT-0400 (Eastern Daylight Time)","481351","Trustworthy,Untrustworthy","","1170","","","","decision","","<div class='trialDiv'><img src='Fruit/grapes.png'><br><font class='baseline'><strong>Great Grapes</strong><p>Choose number of points to bet.</font><div class='respPicDiv'><img src='img/responseButtonOffersNo0L.png' class='respPic'></div></div>","1","5","Great Grapes","Fruit/grapes.png","Lost","0.35,0.8","11","0.35","88","15","",""
"html-keyboard-response","54","179693","0.0-11.0-2.14","6162341a644c08d5cca4b7bb","bdp_rwlrn","Sun Mar 12 2023 17:10:58 GMT-0400 (Eastern Daylight Time)","481351","Trustworthy,Untrustworthy","","null","","","","decisionFB","","<div class='trialDiv'><img src='Fruit/grapes.png'><br><font class='baseline'><strong>Great Grapes</strong><p>Choose number of points to bet.</font><div class='respPicDiv'><img src='img/responseButtonOffersNo0L1.png' class='respPic'></div></div>","null","5","Great Grapes","Fruit/grapes.png","Lost","0.35,0.8","11","0.35","87","15","",""
"html-keyboard-response","55","180694","0.0-11.0-3.14","6162341a644c08d5cca4b7bb","bdp_rwlrn","Sun Mar 12 2023 17:10:58 GMT-0400 (Eastern Daylight Time)","481351","Trustworthy,Untrustworthy","","null","","","","feedback","","<div class='respPicDiv'><img src='img/responseButtonOffersNo0_wht.png' class='respPic'></div><div class='trialDiv'><img src='Fruit/grapes.png'><br><font class='baseline'><strong>Great Grapes</strong><p><strong><font class='negOutcome'>You LOST</font><p>You bet: 1</strong></font> &nbsp; &nbsp; &nbsp; &nbsp; &nbsp; &nbsp;<font class='negOutcome'>You receive: <strong>0</strong></font></div>","null","5","Great Grapes","Fruit/grapes.png","Lost","0.35,0.8","11","0.35","87","15","",""
"html-keyboard-response","56","182816","0.0-11.0-1.15","6162341a644c08d5cca4b7bb","bdp_rwlrn","Sun Mar 12 2023 17:10:58 GMT-0400 (Eastern Daylight Time)","481351","Trustworthy,Untrustworthy","","2121","","","","decision","","<div class='trialDiv'><img src='Fruit/apple.png'><br><font class='baseline'><strong>Awesome Apples</strong><p>Choose number of points to bet.</font><div class='respPicDiv'><img src='img/responseButtonOffersNo0L.png' class='respPic'></div></div>","2","6","Awesome Apples","Fruit/apple.png","Won","0.8,0.2","11","0.8","92","16","",""
"html-keyboard-response","57","183069","0.0-11.0-2.15","6162341a644c08d5cca4b7bb","bdp_rwlrn","Sun Mar 12 2023 17:10:58 GMT-0400 (Eastern Daylight Time)","481351","Trustworthy,Untrustworthy","","null","","","","decisionFB","","<div class='trialDiv'><img src='Fruit/apple.png'><br><font class='baseline'><strong>Awesome Apples</strong><p>Choose number of points to bet.</font><div class='respPicDiv'><img src='img/responseButtonOffersNo0L2.png' class='respPic'></div></div>","null","6","Awesome Apples","Fruit/apple.png","Won","0.8,0.2","11","0.8","90","16","",""
"html-keyboard-response","58","184070","0.0-11.0-3.15","6162341a644c08d5cca4b7bb","bdp_rwlrn","Sun Mar 12 2023 17:10:58 GMT-0400 (Eastern Daylight Time)","481351","Trustworthy,Untrustworthy","","null","","","","feedback","","<div class='respPicDiv'><img src='img/responseButtonOffersNo0_wht.png' class='respPic'></div><div class='trialDiv'><img src='Fruit/apple.png'><br><font class='baseline'><strong>Awesome Apples</strong><p><strong><font class='posOutcome'>You WON</font><p>You bet: 2</strong></font> &nbsp; &nbsp; &nbsp; &nbsp; &nbsp; &nbsp;<font class='posOutcome'>you receive: <strong>4</strong></font></div>","null","6","Awesome Apples","Fruit/apple.png","Won","0.8,0.2","11","0.8","94","16","",""
"html-keyboard-response","59","184749","0.0-11.0-1.16","6162341a644c08d5cca4b7bb","bdp_rwlrn","Sun Mar 12 2023 17:10:58 GMT-0400 (Eastern Daylight Time)","481351","Trustworthy,Untrustworthy","","678","","","","decision","","<div class='trialDiv'><img src='Fruit/lime.png'><br><font class='baseline'><strong>Limin' Large</strong><p>Choose number of points to bet.</font><div class='respPicDiv'><img src='img/responseButtonOffersNo0L.png' class='respPic'></div></div>","5","6","Limin' Large","Fruit/lime.png","Won","0.65,0.2","11","0.65","99","17","",""
"html-keyboard-response","60","185000","0.0-11.0-2.16","6162341a644c08d5cca4b7bb","bdp_rwlrn","Sun Mar 12 2023 17:10:58 GMT-0400 (Eastern Daylight Time)","481351","Trustworthy,Untrustworthy","","null","","","","decisionFB","","<div class='trialDiv'><img src='Fruit/lime.png'><br><font class='baseline'><strong>Limin' Large</strong><p>Choose number of points to bet.</font><div class='respPicDiv'><img src='img/responseButtonOffersNo0L5.png' class='respPic'></div></div>","null","6","Limin' Large","Fruit/lime.png","Won","0.65,0.2","11","0.65","94","17","",""
"html-keyboard-response","61","186001","0.0-11.0-3.16","6162341a644c08d5cca4b7bb","bdp_rwlrn","Sun Mar 12 2023 17:10:58 GMT-0400 (Eastern Daylight Time)","481351","Trustworthy,Untrustworthy","","null","","","","feedback","","<div class='respPicDiv'><img src='img/responseButtonOffersNo0_wht.png' class='respPic'></div><div class='trialDiv'><img src='Fruit/lime.png'><br><font class='baseline'><strong>Limin' Large</strong><p><strong><font class='posOutcome'>You WON</font><p>You bet: 5</strong></font> &nbsp; &nbsp; &nbsp; &nbsp; &nbsp; &nbsp;<font class='posOutcome'>you receive: <strong>10</strong></font></div>","null","6","Limin' Large","Fruit/lime.png","Won","0.65,0.2","11","0.65","104","17","",""
"html-keyboard-response","62","186972","0.0-11.0-1.17","6162341a644c08d5cca4b7bb","bdp_rwlrn","Sun Mar 12 2023 17:10:58 GMT-0400 (Eastern Daylight Time)","481351","Trustworthy,Untrustworthy","","969","","","","decision","","<div class='trialDiv'><img src='Fruit/grapes.png'><br><font class='baseline'><strong>Great Grapes</strong><p>Choose number of points to bet.</font><div class='respPicDiv'><img src='img/responseButtonOffersNo0L.png' class='respPic'></div></div>","2","6","Great Grapes","Fruit/grapes.png","Lost","0.35,0.8","11","0.35","109","18","",""
"html-keyboard-response","63","187222","0.0-11.0-2.17","6162341a644c08d5cca4b7bb","bdp_rwlrn","Sun Mar 12 2023 17:10:58 GMT-0400 (Eastern Daylight Time)","481351","Trustworthy,Untrustworthy","","null","","","","decisionFB","","<div class='trialDiv'><img src='Fruit/grapes.png'><br><font class='baseline'><strong>Great Grapes</strong><p>Choose number of points to bet.</font><div class='respPicDiv'><img src='img/responseButtonOffersNo0L2.png' class='respPic'></div></div>","null","6","Great Grapes","Fruit/grapes.png","Lost","0.35,0.8","11","0.35","107","18","",""
"html-keyboard-response","64","188224","0.0-11.0-3.17","6162341a644c08d5cca4b7bb","bdp_rwlrn","Sun Mar 12 2023 17:10:58 GMT-0400 (Eastern Daylight Time)","481351","Trustworthy,Untrustworthy","","null","","","","feedback","","<div class='respPicDiv'><img src='img/responseButtonOffersNo0_wht.png' class='respPic'></div><div class='trialDiv'><img src='Fruit/grapes.png'><br><font class='baseline'><strong>Great Grapes</strong><p><strong><font class='negOutcome'>You LOST</font><p>You bet: 2</strong></font> &nbsp; &nbsp; &nbsp; &nbsp; &nbsp; &nbsp;<font class='negOutcome'>You receive: <strong>0</strong></font></div>","null","6","Great Grapes","Fruit/grapes.png","Lost","0.35,0.8","11","0.35","107","18","",""
"html-keyboard-response","65","188813","0.0-11.0-1.18","6162341a644c08d5cca4b7bb","bdp_rwlrn","Sun Mar 12 2023 17:10:58 GMT-0400 (Eastern Daylight Time)","481351","Trustworthy,Untrustworthy","","588","","","","decision","","<div class='trialDiv'><img src='Fruit/apple.png'><br><font class='baseline'><strong>Awesome Apples</strong><p>Choose number of points to bet.</font><div class='respPicDiv'><img src='img/responseButtonOffersNo0L.png' class='respPic'></div></div>","5","7","Awesome Apples","Fruit/apple.png","Lost","0.8,0.2","11","0.8","112","19","",""
"html-keyboard-response","66","189064","0.0-11.0-2.18","6162341a644c08d5cca4b7bb","bdp_rwlrn","Sun Mar 12 2023 17:10:58 GMT-0400 (Eastern Daylight Time)","481351","Trustworthy,Untrustworthy","","null","","","","decisionFB","","<div class='trialDiv'><img src='Fruit/apple.png'><br><font class='baseline'><strong>Awesome Apples</strong><p>Choose number of points to bet.</font><div class='respPicDiv'><img src='img/responseButtonOffersNo0L5.png' class='respPic'></div></div>","null","7","Awesome Apples","Fruit/apple.png","Lost","0.8,0.2","11","0.8","107","19","",""
"html-keyboard-response","67","190067","0.0-11.0-3.18","6162341a644c08d5cca4b7bb","bdp_rwlrn","Sun Mar 12 2023 17:10:58 GMT-0400 (Eastern Daylight Time)","481351","Trustworthy,Untrustworthy","","null","","","","feedback","","<div class='respPicDiv'><img src='img/responseButtonOffersNo0_wht.png' class='respPic'></div><div class='trialDiv'><img src='Fruit/apple.png'><br><font class='baseline'><strong>Awesome Apples</strong><p><strong><font class='negOutcome'>You LOST</font><p>You bet: 5</strong></font> &nbsp; &nbsp; &nbsp; &nbsp; &nbsp; &nbsp;<font class='negOutcome'>You receive: <strong>0</strong></font></div>","null","7","Awesome Apples","Fruit/apple.png","Lost","0.8,0.2","11","0.8","107","19","",""
"html-keyboard-response","68","190535","0.0-11.0-1.19","6162341a644c08d5cca4b7bb","bdp_rwlrn","Sun Mar 12 2023 17:10:58 GMT-0400 (Eastern Daylight Time)","481351","Trustworthy,Untrustworthy","","467","","","","decision","","<div class='trialDiv'><img src='Fruit/lime.png'><br><font class='baseline'><strong>Limin' Large</strong><p>Choose number of points to bet.</font><div class='respPicDiv'><img src='img/responseButtonOffersNo0L.png' class='respPic'></div></div>","5","7","Limin' Large","Fruit/lime.png","Won","0.65,0.2","11","0.65","112","20","",""
"html-keyboard-response","69","190787","0.0-11.0-2.19","6162341a644c08d5cca4b7bb","bdp_rwlrn","Sun Mar 12 2023 17:10:58 GMT-0400 (Eastern Daylight Time)","481351","Trustworthy,Untrustworthy","","null","","","","decisionFB","","<div class='trialDiv'><img src='Fruit/lime.png'><br><font class='baseline'><strong>Limin' Large</strong><p>Choose number of points to bet.</font><div class='respPicDiv'><img src='img/responseButtonOffersNo0L5.png' class='respPic'></div></div>","null","7","Limin' Large","Fruit/lime.png","Won","0.65,0.2","11","0.65","107","20","",""
"html-keyboard-response","70","191789","0.0-11.0-3.19","6162341a644c08d5cca4b7bb","bdp_rwlrn","Sun Mar 12 2023 17:10:58 GMT-0400 (Eastern Daylight Time)","481351","Trustworthy,Untrustworthy","","null","","","","feedback","","<div class='respPicDiv'><img src='img/responseButtonOffersNo0_wht.png' class='respPic'></div><div class='trialDiv'><img src='Fruit/lime.png'><br><font class='baseline'><strong>Limin' Large</strong><p><strong><font class='posOutcome'>You WON</font><p>You bet: 5</strong></font> &nbsp; &nbsp; &nbsp; &nbsp; &nbsp; &nbsp;<font class='posOutcome'>you receive: <strong>10</strong></font></div>","null","7","Limin' Large","Fruit/lime.png","Won","0.65,0.2","11","0.65","117","20","",""
"html-keyboard-response","71","193032","0.0-11.0-1.20","6162341a644c08d5cca4b7bb","bdp_rwlrn","Sun Mar 12 2023 17:10:58 GMT-0400 (Eastern Daylight Time)","481351","Trustworthy,Untrustworthy","","1242","","","","decision","","<div class='trialDiv'><img src='Fruit/grapes.png'><br><font class='baseline'><strong>Great Grapes</strong><p>Choose number of points to bet.</font><div class='respPicDiv'><img src='img/responseButtonOffersNo0L.png' class='respPic'></div></div>","3","7","Great Grapes","Fruit/grapes.png","Won","0.35,0.8","11","0.35","122","21","",""
"html-keyboard-response","72","193283","0.0-11.0-2.20","6162341a644c08d5cca4b7bb","bdp_rwlrn","Sun Mar 12 2023 17:10:58 GMT-0400 (Eastern Daylight Time)","481351","Trustworthy,Untrustworthy","","null","","","","decisionFB","","<div class='trialDiv'><img src='Fruit/grapes.png'><br><font class='baseline'><strong>Great Grapes</strong><p>Choose number of points to bet.</font><div class='respPicDiv'><img src='img/responseButtonOffersNo0L3.png' class='respPic'></div></div>","null","7","Great Grapes","Fruit/grapes.png","Won","0.35,0.8","11","0.35","119","21","",""
"html-keyboard-response","73","194284","0.0-11.0-3.20","6162341a644c08d5cca4b7bb","bdp_rwlrn","Sun Mar 12 2023 17:10:58 GMT-0400 (Eastern Daylight Time)","481351","Trustworthy,Untrustworthy","","null","","","","feedback","","<div class='respPicDiv'><img src='img/responseButtonOffersNo0_wht.png' class='respPic'></div><div class='trialDiv'><img src='Fruit/grapes.png'><br><font class='baseline'><strong>Great Grapes</strong><p><strong><font class='posOutcome'>You WON</font><p>You bet: 3</strong></font> &nbsp; &nbsp; &nbsp; &nbsp; &nbsp; &nbsp;<font class='posOutcome'>you receive: <strong>6</strong></font></div>","null","7","Great Grapes","Fruit/grapes.png","Won","0.35,0.8","11","0.35","125","21","",""
"html-keyboard-response","74","195762","0.0-11.0-1.21","6162341a644c08d5cca4b7bb","bdp_rwlrn","Sun Mar 12 2023 17:10:58 GMT-0400 (Eastern Daylight Time)","481351","Trustworthy,Untrustworthy","","1477","","","","decision","","<div class='trialDiv'><img src='Fruit/apple.png'><br><font class='baseline'><strong>Awesome Apples</strong><p>Choose number of points to bet.</font><div class='respPicDiv'><img src='img/responseButtonOffersNo0L.png' class='respPic'></div></div>","2","8","Awesome Apples","Fruit/apple.png","Won","0.8,0.2","11","0.8","130","22","",""
"html-keyboard-response","75","196013","0.0-11.0-2.21","6162341a644c08d5cca4b7bb","bdp_rwlrn","Sun Mar 12 2023 17:10:58 GMT-0400 (Eastern Daylight Time)","481351","Trustworthy,Untrustworthy","","null","","","","decisionFB","","<div class='trialDiv'><img src='Fruit/apple.png'><br><font class='baseline'><strong>Awesome Apples</strong><p>Choose number of points to bet.</font><div class='respPicDiv'><img src='img/responseButtonOffersNo0L2.png' class='respPic'></div></div>","null","8","Awesome Apples","Fruit/apple.png","Won","0.8,0.2","11","0.8","128","22","",""
"html-keyboard-response","76","197016","0.0-11.0-3.21","6162341a644c08d5cca4b7bb","bdp_rwlrn","Sun Mar 12 2023 17:10:58 GMT-0400 (Eastern Daylight Time)","481351","Trustworthy,Untrustworthy","","null","","","","feedback","","<div class='respPicDiv'><img src='img/responseButtonOffersNo0_wht.png' class='respPic'></div><div class='trialDiv'><img src='Fruit/apple.png'><br><font class='baseline'><strong>Awesome Apples</strong><p><strong><font class='posOutcome'>You WON</font><p>You bet: 2</strong></font> &nbsp; &nbsp; &nbsp; &nbsp; &nbsp; &nbsp;<font class='posOutcome'>you receive: <strong>4</strong></font></div>","null","8","Awesome Apples","Fruit/apple.png","Won","0.8,0.2","11","0.8","132","22","",""
"html-keyboard-response","77","197443","0.0-11.0-1.22","6162341a644c08d5cca4b7bb","bdp_rwlrn","Sun Mar 12 2023 17:10:58 GMT-0400 (Eastern Daylight Time)","481351","Trustworthy,Untrustworthy","","426","","","","decision","","<div class='trialDiv'><img src='Fruit/lime.png'><br><font class='baseline'><strong>Limin' Large</strong><p>Choose number of points to bet.</font><div class='respPicDiv'><img src='img/responseButtonOffersNo0L.png' class='respPic'></div></div>","5","8","Limin' Large","Fruit/lime.png","Won","0.65,0.2","11","0.65","137","23","",""
"html-keyboard-response","78","197695","0.0-11.0-2.22","6162341a644c08d5cca4b7bb","bdp_rwlrn","Sun Mar 12 2023 17:10:58 GMT-0400 (Eastern Daylight Time)","481351","Trustworthy,Untrustworthy","","null","","","","decisionFB","","<div class='trialDiv'><img src='Fruit/lime.png'><br><font class='baseline'><strong>Limin' Large</strong><p>Choose number of points to bet.</font><div class='respPicDiv'><img src='img/responseButtonOffersNo0L5.png' class='respPic'></div></div>","null","8","Limin' Large","Fruit/lime.png","Won","0.65,0.2","11","0.65","132","23","",""
"html-keyboard-response","79","198696","0.0-11.0-3.22","6162341a644c08d5cca4b7bb","bdp_rwlrn","Sun Mar 12 2023 17:10:58 GMT-0400 (Eastern Daylight Time)","481351","Trustworthy,Untrustworthy","","null","","","","feedback","","<div class='respPicDiv'><img src='img/responseButtonOffersNo0_wht.png' class='respPic'></div><div class='trialDiv'><img src='Fruit/lime.png'><br><font class='baseline'><strong>Limin' Large</strong><p><strong><font class='posOutcome'>You WON</font><p>You bet: 5</strong></font> &nbsp; &nbsp; &nbsp; &nbsp; &nbsp; &nbsp;<font class='posOutcome'>you receive: <strong>10</strong></font></div>","null","8","Limin' Large","Fruit/lime.png","Won","0.65,0.2","11","0.65","142","23","",""
"html-keyboard-response","80","199371","0.0-11.0-1.23","6162341a644c08d5cca4b7bb","bdp_rwlrn","Sun Mar 12 2023 17:10:58 GMT-0400 (Eastern Daylight Time)","481351","Trustworthy,Untrustworthy","","672","","","","decision","","<div class='trialDiv'><img src='Fruit/grapes.png'><br><font class='baseline'><strong>Great Grapes</strong><p>Choose number of points to bet.</font><div class='respPicDiv'><img src='img/responseButtonOffersNo0L.png' class='respPic'></div></div>","3","8","Great Grapes","Fruit/grapes.png","Lost","0.35,0.8","11","0.35","147","24","",""
"html-keyboard-response","81","199622","0.0-11.0-2.23","6162341a644c08d5cca4b7bb","bdp_rwlrn","Sun Mar 12 2023 17:10:58 GMT-0400 (Eastern Daylight Time)","481351","Trustworthy,Untrustworthy","","null","","","","decisionFB","","<div class='trialDiv'><img src='Fruit/grapes.png'><br><font class='baseline'><strong>Great Grapes</strong><p>Choose number of points to bet.</font><div class='respPicDiv'><img src='img/responseButtonOffersNo0L3.png' class='respPic'></div></div>","null","8","Great Grapes","Fruit/grapes.png","Lost","0.35,0.8","11","0.35","144","24","",""
"html-keyboard-response","82","200623","0.0-11.0-3.23","6162341a644c08d5cca4b7bb","bdp_rwlrn","Sun Mar 12 2023 17:10:58 GMT-0400 (Eastern Daylight Time)","481351","Trustworthy,Untrustworthy","","null","","","","feedback","","<div class='respPicDiv'><img src='img/responseButtonOffersNo0_wht.png' class='respPic'></div><div class='trialDiv'><img src='Fruit/grapes.png'><br><font class='baseline'><strong>Great Grapes</strong><p><strong><font class='negOutcome'>You LOST</font><p>You bet: 3</strong></font> &nbsp; &nbsp; &nbsp; &nbsp; &nbsp; &nbsp;<font class='negOutcome'>You receive: <strong>0</strong></font></div>","null","8","Great Grapes","Fruit/grapes.png","Lost","0.35,0.8","11","0.35","144","24","",""
"html-keyboard-response","83","201097","0.0-11.0-1.24","6162341a644c08d5cca4b7bb","bdp_rwlrn","Sun Mar 12 2023 17:10:58 GMT-0400 (Eastern Daylight Time)","481351","Trustworthy,Untrustworthy","","472","","","","decision","","<div class='trialDiv'><img src='Fruit/lime.png'><br><font class='baseline'><strong>Limin' Large</strong><p>Choose number of points to bet.</font><div class='respPicDiv'><img src='img/responseButtonOffersNo0L.png' class='respPic'></div></div>","5","9","Limin' Large","Fruit/lime.png","Lost","0.65,0.2","11","0.65","149","25","",""
"html-keyboard-response","84","201349","0.0-11.0-2.24","6162341a644c08d5cca4b7bb","bdp_rwlrn","Sun Mar 12 2023 17:10:58 GMT-0400 (Eastern Daylight Time)","481351","Trustworthy,Untrustworthy","","null","","","","decisionFB","","<div class='trialDiv'><img src='Fruit/lime.png'><br><font class='baseline'><strong>Limin' Large</strong><p>Choose number of points to bet.</font><div class='respPicDiv'><img src='img/responseButtonOffersNo0L5.png' class='respPic'></div></div>","null","9","Limin' Large","Fruit/lime.png","Lost","0.65,0.2","11","0.65","144","25","",""
"html-keyboard-response","85","202351","0.0-11.0-3.24","6162341a644c08d5cca4b7bb","bdp_rwlrn","Sun Mar 12 2023 17:10:58 GMT-0400 (Eastern Daylight Time)","481351","Trustworthy,Untrustworthy","","null","","","","feedback","","<div class='respPicDiv'><img src='img/responseButtonOffersNo0_wht.png' class='respPic'></div><div class='trialDiv'><img src='Fruit/lime.png'><br><font class='baseline'><strong>Limin' Large</strong><p><strong><font class='negOutcome'>You LOST</font><p>You bet: 5</strong></font> &nbsp; &nbsp; &nbsp; &nbsp; &nbsp; &nbsp;<font class='negOutcome'>You receive: <strong>0</strong></font></div>","null","9","Limin' Large","Fruit/lime.png","Lost","0.65,0.2","11","0.65","144","25","",""
"html-keyboard-response","86","202841","0.0-11.0-1.25","6162341a644c08d5cca4b7bb","bdp_rwlrn","Sun Mar 12 2023 17:10:58 GMT-0400 (Eastern Daylight Time)","481351","Trustworthy,Untrustworthy","","489","","","","decision","","<div class='trialDiv'><img src='Fruit/grapes.png'><br><font class='baseline'><strong>Great Grapes</strong><p>Choose number of points to bet.</font><div class='respPicDiv'><img src='img/responseButtonOffersNo0L.png' class='respPic'></div></div>","5","9","Great Grapes","Fruit/grapes.png","Lost","0.35,0.8","11","0.35","149","26","",""
"html-keyboard-response","87","203093","0.0-11.0-2.25","6162341a644c08d5cca4b7bb","bdp_rwlrn","Sun Mar 12 2023 17:10:58 GMT-0400 (Eastern Daylight Time)","481351","Trustworthy,Untrustworthy","","null","","","","decisionFB","","<div class='trialDiv'><img src='Fruit/grapes.png'><br><font class='baseline'><strong>Great Grapes</strong><p>Choose number of points to bet.</font><div class='respPicDiv'><img src='img/responseButtonOffersNo0L5.png' class='respPic'></div></div>","null","9","Great Grapes","Fruit/grapes.png","Lost","0.35,0.8","11","0.35","144","26","",""
"html-keyboard-response","88","204095","0.0-11.0-3.25","6162341a644c08d5cca4b7bb","bdp_rwlrn","Sun Mar 12 2023 17:10:58 GMT-0400 (Eastern Daylight Time)","481351","Trustworthy,Untrustworthy","","null","","","","feedback","","<div class='respPicDiv'><img src='img/responseButtonOffersNo0_wht.png' class='respPic'></div><div class='trialDiv'><img src='Fruit/grapes.png'><br><font class='baseline'><strong>Great Grapes</strong><p><strong><font class='negOutcome'>You LOST</font><p>You bet: 5</strong></font> &nbsp; &nbsp; &nbsp; &nbsp; &nbsp; &nbsp;<font class='negOutcome'>You receive: <strong>0</strong></font></div>","null","9","Great Grapes","Fruit/grapes.png","Lost","0.35,0.8","11","0.35","144","26","",""
"html-keyboard-response","89","204540","0.0-11.0-1.26","6162341a644c08d5cca4b7bb","bdp_rwlrn","Sun Mar 12 2023 17:10:58 GMT-0400 (Eastern Daylight Time)","481351","Trustworthy,Untrustworthy","","444","","","","decision","","<div class='trialDiv'><img src='Fruit/apple.png'><br><font class='baseline'><strong>Awesome Apples</strong><p>Choose number of points to bet.</font><div class='respPicDiv'><img src='img/responseButtonOffersNo0L.png' class='respPic'></div></div>","5","9","Awesome Apples","Fruit/apple.png","Won","0.8,0.2","11","0.8","149","27","",""
"html-keyboard-response","90","204794","0.0-11.0-2.26","6162341a644c08d5cca4b7bb","bdp_rwlrn","Sun Mar 12 2023 17:10:58 GMT-0400 (Eastern Daylight Time)","481351","Trustworthy,Untrustworthy","","null","","","","decisionFB","","<div class='trialDiv'><img src='Fruit/apple.png'><br><font class='baseline'><strong>Awesome Apples</strong><p>Choose number of points to bet.</font><div class='respPicDiv'><img src='img/responseButtonOffersNo0L5.png' class='respPic'></div></div>","null","9","Awesome Apples","Fruit/apple.png","Won","0.8,0.2","11","0.8","144","27","",""
"html-keyboard-response","91","205795","0.0-11.0-3.26","6162341a644c08d5cca4b7bb","bdp_rwlrn","Sun Mar 12 2023 17:10:58 GMT-0400 (Eastern Daylight Time)","481351","Trustworthy,Untrustworthy","","null","","","","feedback","","<div class='respPicDiv'><img src='img/responseButtonOffersNo0_wht.png' class='respPic'></div><div class='trialDiv'><img src='Fruit/apple.png'><br><font class='baseline'><strong>Awesome Apples</strong><p><strong><font class='posOutcome'>You WON</font><p>You bet: 5</strong></font> &nbsp; &nbsp; &nbsp; &nbsp; &nbsp; &nbsp;<font class='posOutcome'>you receive: <strong>10</strong></font></div>","null","9","Awesome Apples","Fruit/apple.png","Won","0.8,0.2","11","0.8","154","27","",""
"html-keyboard-response","92","206969","0.0-11.0-1.27","6162341a644c08d5cca4b7bb","bdp_rwlrn","Sun Mar 12 2023 17:10:58 GMT-0400 (Eastern Daylight Time)","481351","Trustworthy,Untrustworthy","","1173","","","","decision","","<div class='trialDiv'><img src='Fruit/grapes.png'><br><font class='baseline'><strong>Great Grapes</strong><p>Choose number of points to bet.</font><div class='respPicDiv'><img src='img/responseButtonOffersNo0L.png' class='respPic'></div></div>","2","10","Great Grapes","Fruit/grapes.png","Lost","0.35,0.8","11","0.35","159","28","",""
"html-keyboard-response","93","207222","0.0-11.0-2.27","6162341a644c08d5cca4b7bb","bdp_rwlrn","Sun Mar 12 2023 17:10:58 GMT-0400 (Eastern Daylight Time)","481351","Trustworthy,Untrustworthy","","null","","","","decisionFB","","<div class='trialDiv'><img src='Fruit/grapes.png'><br><font class='baseline'><strong>Great Grapes</strong><p>Choose number of points to bet.</font><div class='respPicDiv'><img src='img/responseButtonOffersNo0L2.png' class='respPic'></div></div>","null","10","Great Grapes","Fruit/grapes.png","Lost","0.35,0.8","11","0.35","157","28","",""
"html-keyboard-response","94","208224","0.0-11.0-3.27","6162341a644c08d5cca4b7bb","bdp_rwlrn","Sun Mar 12 2023 17:10:58 GMT-0400 (Eastern Daylight Time)","481351","Trustworthy,Untrustworthy","","null","","","","feedback","","<div class='respPicDiv'><img src='img/responseButtonOffersNo0_wht.png' class='respPic'></div><div class='trialDiv'><img src='Fruit/grapes.png'><br><font class='baseline'><strong>Great Grapes</strong><p><strong><font class='negOutcome'>You LOST</font><p>You bet: 2</strong></font> &nbsp; &nbsp; &nbsp; &nbsp; &nbsp; &nbsp;<font class='negOutcome'>You receive: <strong>0</strong></font></div>","null","10","Great Grapes","Fruit/grapes.png","Lost","0.35,0.8","11","0.35","157","28","",""
"html-keyboard-response","95","208853","0.0-11.0-1.28","6162341a644c08d5cca4b7bb","bdp_rwlrn","Sun Mar 12 2023 17:10:58 GMT-0400 (Eastern Daylight Time)","481351","Trustworthy,Untrustworthy","","628","","","","decision","","<div class='trialDiv'><img src='Fruit/apple.png'><br><font class='baseline'><strong>Awesome Apples</strong><p>Choose number of points to bet.</font><div class='respPicDiv'><img src='img/responseButtonOffersNo0L.png' class='respPic'></div></div>","3","10","Awesome Apples","Fruit/apple.png","Lost","0.8,0.2","11","0.8","162","29","",""
"html-keyboard-response","96","209105","0.0-11.0-2.28","6162341a644c08d5cca4b7bb","bdp_rwlrn","Sun Mar 12 2023 17:10:58 GMT-0400 (Eastern Daylight Time)","481351","Trustworthy,Untrustworthy","","null","","","","decisionFB","","<div class='trialDiv'><img src='Fruit/apple.png'><br><font class='baseline'><strong>Awesome Apples</strong><p>Choose number of points to bet.</font><div class='respPicDiv'><img src='img/responseButtonOffersNo0L3.png' class='respPic'></div></div>","null","10","Awesome Apples","Fruit/apple.png","Lost","0.8,0.2","11","0.8","159","29","",""
"html-keyboard-response","97","210106","0.0-11.0-3.28","6162341a644c08d5cca4b7bb","bdp_rwlrn","Sun Mar 12 2023 17:10:58 GMT-0400 (Eastern Daylight Time)","481351","Trustworthy,Untrustworthy","","null","","","","feedback","","<div class='respPicDiv'><img src='img/responseButtonOffersNo0_wht.png' class='respPic'></div><div class='trialDiv'><img src='Fruit/apple.png'><br><font class='baseline'><strong>Awesome Apples</strong><p><strong><font class='negOutcome'>You LOST</font><p>You bet: 3</strong></font> &nbsp; &nbsp; &nbsp; &nbsp; &nbsp; &nbsp;<font class='negOutcome'>You receive: <strong>0</strong></font></div>","null","10","Awesome Apples","Fruit/apple.png","Lost","0.8,0.2","11","0.8","159","29","",""
"html-keyboard-response","98","210534","0.0-11.0-1.29","6162341a644c08d5cca4b7bb","bdp_rwlrn","Sun Mar 12 2023 17:10:58 GMT-0400 (Eastern Daylight Time)","481351","Trustworthy,Untrustworthy","","427","","","","decision","","<div class='trialDiv'><img src='Fruit/lime.png'><br><font class='baseline'><strong>Limin' Large</strong><p>Choose number of points to bet.</font><div class='respPicDiv'><img src='img/responseButtonOffersNo0L.png' class='respPic'></div></div>","5","10","Limin' Large","Fruit/lime.png","Won","0.65,0.2","11","0.65","164","30","",""
"html-keyboard-response","99","210786","0.0-11.0-2.29","6162341a644c08d5cca4b7bb","bdp_rwlrn","Sun Mar 12 2023 17:10:58 GMT-0400 (Eastern Daylight Time)","481351","Trustworthy,Untrustworthy","","null","","","","decisionFB","","<div class='trialDiv'><img src='Fruit/lime.png'><br><font class='baseline'><strong>Limin' Large</strong><p>Choose number of points to bet.</font><div class='respPicDiv'><img src='img/responseButtonOffersNo0L5.png' class='respPic'></div></div>","null","10","Limin' Large","Fruit/lime.png","Won","0.65,0.2","11","0.65","159","30","",""
"html-keyboard-response","100","211788","0.0-11.0-3.29","6162341a644c08d5cca4b7bb","bdp_rwlrn","Sun Mar 12 2023 17:10:58 GMT-0400 (Eastern Daylight Time)","481351","Trustworthy,Untrustworthy","","null","","","","feedback","","<div class='respPicDiv'><img src='img/responseButtonOffersNo0_wht.png' class='respPic'></div><div class='trialDiv'><img src='Fruit/lime.png'><br><font class='baseline'><strong>Limin' Large</strong><p><strong><font class='posOutcome'>You WON</font><p>You bet: 5</strong></font> &nbsp; &nbsp; &nbsp; &nbsp; &nbsp; &nbsp;<font class='posOutcome'>you receive: <strong>10</strong></font></div>","null","10","Limin' Large","Fruit/lime.png","Won","0.65,0.2","11","0.65","169","30","",""
"html-keyboard-response","101","212526","0.0-11.0-1.30","6162341a644c08d5cca4b7bb","bdp_rwlrn","Sun Mar 12 2023 17:10:58 GMT-0400 (Eastern Daylight Time)","481351","Trustworthy,Untrustworthy","","737","","","","decision","","<div class='trialDiv'><img src='Fruit/grapes.png'><br><font class='baseline'><strong>Great Grapes</strong><p>Choose number of points to bet.</font><div class='respPicDiv'><img src='img/responseButtonOffersNo0L.png' class='respPic'></div></div>","1","11","Great Grapes","Fruit/grapes.png","Won","0.35,0.8","11","0.35","174","31","",""
"html-keyboard-response","102","212778","0.0-11.0-2.30","6162341a644c08d5cca4b7bb","bdp_rwlrn","Sun Mar 12 2023 17:10:58 GMT-0400 (Eastern Daylight Time)","481351","Trustworthy,Untrustworthy","","null","","","","decisionFB","","<div class='trialDiv'><img src='Fruit/grapes.png'><br><font class='baseline'><strong>Great Grapes</strong><p>Choose number of points to bet.</font><div class='respPicDiv'><img src='img/responseButtonOffersNo0L1.png' class='respPic'></div></div>","null","11","Great Grapes","Fruit/grapes.png","Won","0.35,0.8","11","0.35","173","31","",""
"html-keyboard-response","103","213780","0.0-11.0-3.30","6162341a644c08d5cca4b7bb","bdp_rwlrn","Sun Mar 12 2023 17:10:58 GMT-0400 (Eastern Daylight Time)","481351","Trustworthy,Untrustworthy","","null","","","","feedback","","<div class='respPicDiv'><img src='img/responseButtonOffersNo0_wht.png' class='respPic'></div><div class='trialDiv'><img src='Fruit/grapes.png'><br><font class='baseline'><strong>Great Grapes</strong><p><strong><font class='posOutcome'>You WON</font><p>You bet: 1</strong></font> &nbsp; &nbsp; &nbsp; &nbsp; &nbsp; &nbsp;<font class='posOutcome'>you receive: <strong>2</strong></font></div>","null","11","Great Grapes","Fruit/grapes.png","Won","0.35,0.8","11","0.35","175","31","",""
"html-keyboard-response","104","214780","0.0-11.0-1.31","6162341a644c08d5cca4b7bb","bdp_rwlrn","Sun Mar 12 2023 17:10:58 GMT-0400 (Eastern Daylight Time)","481351","Trustworthy,Untrustworthy","","998","","","","decision","","<div class='trialDiv'><img src='Fruit/apple.png'><br><font class='baseline'><strong>Awesome Apples</strong><p>Choose number of points to bet.</font><div class='respPicDiv'><img src='img/responseButtonOffersNo0L.png' class='respPic'></div></div>","5","11","Awesome Apples","Fruit/apple.png","Lost","0.8,0.2","11","0.8","180","32","",""
"html-keyboard-response","105","215031","0.0-11.0-2.31","6162341a644c08d5cca4b7bb","bdp_rwlrn","Sun Mar 12 2023 17:10:58 GMT-0400 (Eastern Daylight Time)","481351","Trustworthy,Untrustworthy","","null","","","","decisionFB","","<div class='trialDiv'><img src='Fruit/apple.png'><br><font class='baseline'><strong>Awesome Apples</strong><p>Choose number of points to bet.</font><div class='respPicDiv'><img src='img/responseButtonOffersNo0L5.png' class='respPic'></div></div>","null","11","Awesome Apples","Fruit/apple.png","Lost","0.8,0.2","11","0.8","175","32","",""
"html-keyboard-response","106","216033","0.0-11.0-3.31","6162341a644c08d5cca4b7bb","bdp_rwlrn","Sun Mar 12 2023 17:10:58 GMT-0400 (Eastern Daylight Time)","481351","Trustworthy,Untrustworthy","","null","","","","feedback","","<div class='respPicDiv'><img src='img/responseButtonOffersNo0_wht.png' class='respPic'></div><div class='trialDiv'><img src='Fruit/apple.png'><br><font class='baseline'><strong>Awesome Apples</strong><p><strong><font class='negOutcome'>You LOST</font><p>You bet: 5</strong></font> &nbsp; &nbsp; &nbsp; &nbsp; &nbsp; &nbsp;<font class='negOutcome'>You receive: <strong>0</strong></font></div>","null","11","Awesome Apples","Fruit/apple.png","Lost","0.8,0.2","11","0.8","175","32","",""
"html-keyboard-response","107","216434","0.0-11.0-1.32","6162341a644c08d5cca4b7bb","bdp_rwlrn","Sun Mar 12 2023 17:10:58 GMT-0400 (Eastern Daylight Time)","481351","Trustworthy,Untrustworthy","","401","","","","decision","","<div class='trialDiv'><img src='Fruit/lime.png'><br><font class='baseline'><strong>Limin' Large</strong><p>Choose number of points to bet.</font><div class='respPicDiv'><img src='img/responseButtonOffersNo0L.png' class='respPic'></div></div>","5","11","Limin' Large","Fruit/lime.png","Lost","0.65,0.2","11","0.65","180","33","",""
"html-keyboard-response","108","216686","0.0-11.0-2.32","6162341a644c08d5cca4b7bb","bdp_rwlrn","Sun Mar 12 2023 17:10:58 GMT-0400 (Eastern Daylight Time)","481351","Trustworthy,Untrustworthy","","null","","","","decisionFB","","<div class='trialDiv'><img src='Fruit/lime.png'><br><font class='baseline'><strong>Limin' Large</strong><p>Choose number of points to bet.</font><div class='respPicDiv'><img src='img/responseButtonOffersNo0L5.png' class='respPic'></div></div>","null","11","Limin' Large","Fruit/lime.png","Lost","0.65,0.2","11","0.65","175","33","",""
"html-keyboard-response","109","217689","0.0-11.0-3.32","6162341a644c08d5cca4b7bb","bdp_rwlrn","Sun Mar 12 2023 17:10:58 GMT-0400 (Eastern Daylight Time)","481351","Trustworthy,Untrustworthy","","null","","","","feedback","","<div class='respPicDiv'><img src='img/responseButtonOffersNo0_wht.png' class='respPic'></div><div class='trialDiv'><img src='Fruit/lime.png'><br><font class='baseline'><strong>Limin' Large</strong><p><strong><font class='negOutcome'>You LOST</font><p>You bet: 5</strong></font> &nbsp; &nbsp; &nbsp; &nbsp; &nbsp; &nbsp;<font class='negOutcome'>You receive: <strong>0</strong></font></div>","null","11","Limin' Large","Fruit/lime.png","Lost","0.65,0.2","11","0.65","175","33","",""
"html-keyboard-response","110","218154","0.0-11.0-1.33","6162341a644c08d5cca4b7bb","bdp_rwlrn","Sun Mar 12 2023 17:10:58 GMT-0400 (Eastern Daylight Time)","481351","Trustworthy,Untrustworthy","","465","","","","decision","","<div class='trialDiv'><img src='Fruit/apple.png'><br><font class='baseline'><strong>Awesome Apples</strong><p>Choose number of points to bet.</font><div class='respPicDiv'><img src='img/responseButtonOffersNo0L.png' class='respPic'></div></div>","3","12","Awesome Apples","Fruit/apple.png","Lost","0.8,0.2","11","0.8","180","34","",""
"html-keyboard-response","111","218405","0.0-11.0-2.33","6162341a644c08d5cca4b7bb","bdp_rwlrn","Sun Mar 12 2023 17:10:58 GMT-0400 (Eastern Daylight Time)","481351","Trustworthy,Untrustworthy","","null","","","","decisionFB","","<div class='trialDiv'><img src='Fruit/apple.png'><br><font class='baseline'><strong>Awesome Apples</strong><p>Choose number of points to bet.</font><div class='respPicDiv'><img src='img/responseButtonOffersNo0L3.png' class='respPic'></div></div>","null","12","Awesome Apples","Fruit/apple.png","Lost","0.8,0.2","11","0.8","177","34","",""
"html-keyboard-response","112","219408","0.0-11.0-3.33","6162341a644c08d5cca4b7bb","bdp_rwlrn","Sun Mar 12 2023 17:10:58 GMT-0400 (Eastern Daylight Time)","481351","Trustworthy,Untrustworthy","","null","","","","feedback","","<div class='respPicDiv'><img src='img/responseButtonOffersNo0_wht.png' class='respPic'></div><div class='trialDiv'><img src='Fruit/apple.png'><br><font class='baseline'><strong>Awesome Apples</strong><p><strong><font class='negOutcome'>You LOST</font><p>You bet: 3</strong></font> &nbsp; &nbsp; &nbsp; &nbsp; &nbsp; &nbsp;<font class='negOutcome'>You receive: <strong>0</strong></font></div>","null","12","Awesome Apples","Fruit/apple.png","Lost","0.8,0.2","11","0.8","177","34","",""
"html-keyboard-response","113","219950","0.0-11.0-1.34","6162341a644c08d5cca4b7bb","bdp_rwlrn","Sun Mar 12 2023 17:10:58 GMT-0400 (Eastern Daylight Time)","481351","Trustworthy,Untrustworthy","","541","","","","decision","","<div class='trialDiv'><img src='Fruit/lime.png'><br><font class='baseline'><strong>Limin' Large</strong><p>Choose number of points to bet.</font><div class='respPicDiv'><img src='img/responseButtonOffersNo0L.png' class='respPic'></div></div>","5","12","Limin' Large","Fruit/lime.png","Won","0.65,0.2","11","0.65","182","35","",""
"html-keyboard-response","114","220203","0.0-11.0-2.34","6162341a644c08d5cca4b7bb","bdp_rwlrn","Sun Mar 12 2023 17:10:58 GMT-0400 (Eastern Daylight Time)","481351","Trustworthy,Untrustworthy","","null","","","","decisionFB","","<div class='trialDiv'><img src='Fruit/lime.png'><br><font class='baseline'><strong>Limin' Large</strong><p>Choose number of points to bet.</font><div class='respPicDiv'><img src='img/responseButtonOffersNo0L5.png' class='respPic'></div></div>","null","12","Limin' Large","Fruit/lime.png","Won","0.65,0.2","11","0.65","177","35","",""
"html-keyboard-response","115","221205","0.0-11.0-3.34","6162341a644c08d5cca4b7bb","bdp_rwlrn","Sun Mar 12 2023 17:10:58 GMT-0400 (Eastern Daylight Time)","481351","Trustworthy,Untrustworthy","","null","","","","feedback","","<div class='respPicDiv'><img src='img/responseButtonOffersNo0_wht.png' class='respPic'></div><div class='trialDiv'><img src='Fruit/lime.png'><br><font class='baseline'><strong>Limin' Large</strong><p><strong><font class='posOutcome'>You WON</font><p>You bet: 5</strong></font> &nbsp; &nbsp; &nbsp; &nbsp; &nbsp; &nbsp;<font class='posOutcome'>you receive: <strong>10</strong></font></div>","null","12","Limin' Large","Fruit/lime.png","Won","0.65,0.2","11","0.65","187","35","",""
"html-keyboard-response","116","222605","0.0-11.0-1.35","6162341a644c08d5cca4b7bb","bdp_rwlrn","Sun Mar 12 2023 17:10:58 GMT-0400 (Eastern Daylight Time)","481351","Trustworthy,Untrustworthy","","1399","","","","decision","","<div class='trialDiv'><img src='Fruit/grapes.png'><br><font class='baseline'><strong>Great Grapes</strong><p>Choose number of points to bet.</font><div class='respPicDiv'><img src='img/responseButtonOffersNo0L.png' class='respPic'></div></div>","2","12","Great Grapes","Fruit/grapes.png","Won","0.35,0.8","11","0.35","192","36","",""
"html-keyboard-response","117","222856","0.0-11.0-2.35","6162341a644c08d5cca4b7bb","bdp_rwlrn","Sun Mar 12 2023 17:10:58 GMT-0400 (Eastern Daylight Time)","481351","Trustworthy,Untrustworthy","","null","","","","decisionFB","","<div class='trialDiv'><img src='Fruit/grapes.png'><br><font class='baseline'><strong>Great Grapes</strong><p>Choose number of points to bet.</font><div class='respPicDiv'><img src='img/responseButtonOffersNo0L2.png' class='respPic'></div></div>","null","12","Great Grapes","Fruit/grapes.png","Won","0.35,0.8","11","0.35","190","36","",""
"html-keyboard-response","118","223858","0.0-11.0-3.35","6162341a644c08d5cca4b7bb","bdp_rwlrn","Sun Mar 12 2023 17:10:58 GMT-0400 (Eastern Daylight Time)","481351","Trustworthy,Untrustworthy","","null","","","","feedback","","<div class='respPicDiv'><img src='img/responseButtonOffersNo0_wht.png' class='respPic'></div><div class='trialDiv'><img src='Fruit/grapes.png'><br><font class='baseline'><strong>Great Grapes</strong><p><strong><font class='posOutcome'>You WON</font><p>You bet: 2</strong></font> &nbsp; &nbsp; &nbsp; &nbsp; &nbsp; &nbsp;<font class='posOutcome'>you receive: <strong>4</strong></font></div>","null","12","Great Grapes","Fruit/grapes.png","Won","0.35,0.8","11","0.35","194","36","",""
"html-keyboard-response","119","226688","0.0-11.0-1.36","6162341a644c08d5cca4b7bb","bdp_rwlrn","Sun Mar 12 2023 17:10:58 GMT-0400 (Eastern Daylight Time)","481351","Trustworthy,Untrustworthy","","2829","","","","decision","","<div class='trialDiv'><img src='Fruit/lime.png'><br><font class='baseline'><strong>Limin' Large</strong><p>Choose number of points to bet.</font><div class='respPicDiv'><img src='img/responseButtonOffersNo0L.png' class='respPic'></div></div>","4","13","Limin' Large","Fruit/lime.png","Lost","0.65,0.2","11","0.65","199","37","",""
"html-keyboard-response","120","226939","0.0-11.0-2.36","6162341a644c08d5cca4b7bb","bdp_rwlrn","Sun Mar 12 2023 17:10:58 GMT-0400 (Eastern Daylight Time)","481351","Trustworthy,Untrustworthy","","null","","","","decisionFB","","<div class='trialDiv'><img src='Fruit/lime.png'><br><font class='baseline'><strong>Limin' Large</strong><p>Choose number of points to bet.</font><div class='respPicDiv'><img src='img/responseButtonOffersNo0L4.png' class='respPic'></div></div>","null","13","Limin' Large","Fruit/lime.png","Lost","0.65,0.2","11","0.65","195","37","",""
"html-keyboard-response","121","227941","0.0-11.0-3.36","6162341a644c08d5cca4b7bb","bdp_rwlrn","Sun Mar 12 2023 17:10:58 GMT-0400 (Eastern Daylight Time)","481351","Trustworthy,Untrustworthy","","null","","","","feedback","","<div class='respPicDiv'><img src='img/responseButtonOffersNo0_wht.png' class='respPic'></div><div class='trialDiv'><img src='Fruit/lime.png'><br><font class='baseline'><strong>Limin' Large</strong><p><strong><font class='negOutcome'>You LOST</font><p>You bet: 4</strong></font> &nbsp; &nbsp; &nbsp; &nbsp; &nbsp; &nbsp;<font class='negOutcome'>You receive: <strong>0</strong></font></div>","null","13","Limin' Large","Fruit/lime.png","Lost","0.65,0.2","11","0.65","195","37","",""
"html-keyboard-response","122","228319","0.0-11.0-1.37","6162341a644c08d5cca4b7bb","bdp_rwlrn","Sun Mar 12 2023 17:10:58 GMT-0400 (Eastern Daylight Time)","481351","Trustworthy,Untrustworthy","","377","","","","decision","","<div class='trialDiv'><img src='Fruit/apple.png'><br><font class='baseline'><strong>Awesome Apples</strong><p>Choose number of points to bet.</font><div class='respPicDiv'><img src='img/responseButtonOffersNo0L.png' class='respPic'></div></div>","3","13","Awesome Apples","Fruit/apple.png","Lost","0.8,0.2","11","0.8","200","38","",""
"html-keyboard-response","123","228571","0.0-11.0-2.37","6162341a644c08d5cca4b7bb","bdp_rwlrn","Sun Mar 12 2023 17:10:58 GMT-0400 (Eastern Daylight Time)","481351","Trustworthy,Untrustworthy","","null","","","","decisionFB","","<div class='trialDiv'><img src='Fruit/apple.png'><br><font class='baseline'><strong>Awesome Apples</strong><p>Choose number of points to bet.</font><div class='respPicDiv'><img src='img/responseButtonOffersNo0L3.png' class='respPic'></div></div>","null","13","Awesome Apples","Fruit/apple.png","Lost","0.8,0.2","11","0.8","197","38","",""
"html-keyboard-response","124","229574","0.0-11.0-3.37","6162341a644c08d5cca4b7bb","bdp_rwlrn","Sun Mar 12 2023 17:10:58 GMT-0400 (Eastern Daylight Time)","481351","Trustworthy,Untrustworthy","","null","","","","feedback","","<div class='respPicDiv'><img src='img/responseButtonOffersNo0_wht.png' class='respPic'></div><div class='trialDiv'><img src='Fruit/apple.png'><br><font class='baseline'><strong>Awesome Apples</strong><p><strong><font class='negOutcome'>You LOST</font><p>You bet: 3</strong></font> &nbsp; &nbsp; &nbsp; &nbsp; &nbsp; &nbsp;<font class='negOutcome'>You receive: <strong>0</strong></font></div>","null","13","Awesome Apples","Fruit/apple.png","Lost","0.8,0.2","11","0.8","197","38","",""
"html-keyboard-response","125","231527","0.0-11.0-1.38","6162341a644c08d5cca4b7bb","bdp_rwlrn","Sun Mar 12 2023 17:10:58 GMT-0400 (Eastern Daylight Time)","481351","Trustworthy,Untrustworthy","","1951","","","","decision","","<div class='trialDiv'><img src='Fruit/grapes.png'><br><font class='baseline'><strong>Great Grapes</strong><p>Choose number of points to bet.</font><div class='respPicDiv'><img src='img/responseButtonOffersNo0L.png' class='respPic'></div></div>","1","13","Great Grapes","Fruit/grapes.png","Won","0.35,0.8","11","0.35","202","39","",""
"html-keyboard-response","126","231779","0.0-11.0-2.38","6162341a644c08d5cca4b7bb","bdp_rwlrn","Sun Mar 12 2023 17:10:58 GMT-0400 (Eastern Daylight Time)","481351","Trustworthy,Untrustworthy","","null","","","","decisionFB","","<div class='trialDiv'><img src='Fruit/grapes.png'><br><font class='baseline'><strong>Great Grapes</strong><p>Choose number of points to bet.</font><div class='respPicDiv'><img src='img/responseButtonOffersNo0L1.png' class='respPic'></div></div>","null","13","Great Grapes","Fruit/grapes.png","Won","0.35,0.8","11","0.35","201","39","",""
"html-keyboard-response","127","232780","0.0-11.0-3.38","6162341a644c08d5cca4b7bb","bdp_rwlrn","Sun Mar 12 2023 17:10:58 GMT-0400 (Eastern Daylight Time)","481351","Trustworthy,Untrustworthy","","null","","","","feedback","","<div class='respPicDiv'><img src='img/responseButtonOffersNo0_wht.png' class='respPic'></div><div class='trialDiv'><img src='Fruit/grapes.png'><br><font class='baseline'><strong>Great Grapes</strong><p><strong><font class='posOutcome'>You WON</font><p>You bet: 1</strong></font> &nbsp; &nbsp; &nbsp; &nbsp; &nbsp; &nbsp;<font class='posOutcome'>you receive: <strong>2</strong></font></div>","null","13","Great Grapes","Fruit/grapes.png","Won","0.35,0.8","11","0.35","203","39","",""
"html-keyboard-response","128","233598","0.0-11.0-1.39","6162341a644c08d5cca4b7bb","bdp_rwlrn","Sun Mar 12 2023 17:10:58 GMT-0400 (Eastern Daylight Time)","481351","Trustworthy,Untrustworthy","","817","","","","decision","","<div class='trialDiv'><img src='Fruit/lime.png'><br><font class='baseline'><strong>Limin' Large</strong><p>Choose number of points to bet.</font><div class='respPicDiv'><img src='img/responseButtonOffersNo0L.png' class='respPic'></div></div>","5","14","Limin' Large","Fruit/lime.png","Lost","0.65,0.2","11","0.65","208","40","",""
"html-keyboard-response","129","233850","0.0-11.0-2.39","6162341a644c08d5cca4b7bb","bdp_rwlrn","Sun Mar 12 2023 17:10:58 GMT-0400 (Eastern Daylight Time)","481351","Trustworthy,Untrustworthy","","null","","","","decisionFB","","<div class='trialDiv'><img src='Fruit/lime.png'><br><font class='baseline'><strong>Limin' Large</strong><p>Choose number of points to bet.</font><div class='respPicDiv'><img src='img/responseButtonOffersNo0L5.png' class='respPic'></div></div>","null","14","Limin' Large","Fruit/lime.png","Lost","0.65,0.2","11","0.65","203","40","",""
"html-keyboard-response","130","234852","0.0-11.0-3.39","6162341a644c08d5cca4b7bb","bdp_rwlrn","Sun Mar 12 2023 17:10:58 GMT-0400 (Eastern Daylight Time)","481351","Trustworthy,Untrustworthy","","null","","","","feedback","","<div class='respPicDiv'><img src='img/responseButtonOffersNo0_wht.png' class='respPic'></div><div class='trialDiv'><img src='Fruit/lime.png'><br><font class='baseline'><strong>Limin' Large</strong><p><strong><font class='negOutcome'>You LOST</font><p>You bet: 5</strong></font> &nbsp; &nbsp; &nbsp; &nbsp; &nbsp; &nbsp;<font class='negOutcome'>You receive: <strong>0</strong></font></div>","null","14","Limin' Large","Fruit/lime.png","Lost","0.65,0.2","11","0.65","203","40","",""
"html-keyboard-response","131","235660","0.0-11.0-1.40","6162341a644c08d5cca4b7bb","bdp_rwlrn","Sun Mar 12 2023 17:10:58 GMT-0400 (Eastern Daylight Time)","481351","Trustworthy,Untrustworthy","","807","","","","decision","","<div class='trialDiv'><img src='Fruit/apple.png'><br><font class='baseline'><strong>Awesome Apples</strong><p>Choose number of points to bet.</font><div class='respPicDiv'><img src='img/responseButtonOffersNo0L.png' class='respPic'></div></div>","1","14","Awesome Apples","Fruit/apple.png","Won","0.8,0.2","11","0.8","208","41","",""
"html-keyboard-response","132","235911","0.0-11.0-2.40","6162341a644c08d5cca4b7bb","bdp_rwlrn","Sun Mar 12 2023 17:10:58 GMT-0400 (Eastern Daylight Time)","481351","Trustworthy,Untrustworthy","","null","","","","decisionFB","","<div class='trialDiv'><img src='Fruit/apple.png'><br><font class='baseline'><strong>Awesome Apples</strong><p>Choose number of points to bet.</font><div class='respPicDiv'><img src='img/responseButtonOffersNo0L1.png' class='respPic'></div></div>","null","14","Awesome Apples","Fruit/apple.png","Won","0.8,0.2","11","0.8","207","41","",""
"html-keyboard-response","133","236914","0.0-11.0-3.40","6162341a644c08d5cca4b7bb","bdp_rwlrn","Sun Mar 12 2023 17:10:58 GMT-0400 (Eastern Daylight Time)","481351","Trustworthy,Untrustworthy","","null","","","","feedback","","<div class='respPicDiv'><img src='img/responseButtonOffersNo0_wht.png' class='respPic'></div><div class='trialDiv'><img src='Fruit/apple.png'><br><font class='baseline'><strong>Awesome Apples</strong><p><strong><font class='posOutcome'>You WON</font><p>You bet: 1</strong></font> &nbsp; &nbsp; &nbsp; &nbsp; &nbsp; &nbsp;<font class='posOutcome'>you receive: <strong>2</strong></font></div>","null","14","Awesome Apples","Fruit/apple.png","Won","0.8,0.2","11","0.8","209","41","",""
"html-keyboard-response","134","237963","0.0-11.0-1.41","6162341a644c08d5cca4b7bb","bdp_rwlrn","Sun Mar 12 2023 17:10:58 GMT-0400 (Eastern Daylight Time)","481351","Trustworthy,Untrustworthy","","1046","","","","decision","","<div class='trialDiv'><img src='Fruit/grapes.png'><br><font class='baseline'><strong>Great Grapes</strong><p>Choose number of points to bet.</font><div class='respPicDiv'><img src='img/responseButtonOffersNo0L.png' class='respPic'></div></div>","1","14","Great Grapes","Fruit/grapes.png","Won","0.35,0.8","11","0.35","214","42","",""
"html-keyboard-response","135","238215","0.0-11.0-2.41","6162341a644c08d5cca4b7bb","bdp_rwlrn","Sun Mar 12 2023 17:10:58 GMT-0400 (Eastern Daylight Time)","481351","Trustworthy,Untrustworthy","","null","","","","decisionFB","","<div class='trialDiv'><img src='Fruit/grapes.png'><br><font class='baseline'><strong>Great Grapes</strong><p>Choose number of points to bet.</font><div class='respPicDiv'><img src='img/responseButtonOffersNo0L1.png' class='respPic'></div></div>","null","14","Great Grapes","Fruit/grapes.png","Won","0.35,0.8","11","0.35","213","42","",""
"html-keyboard-response","136","239217","0.0-11.0-3.41","6162341a644c08d5cca4b7bb","bdp_rwlrn","Sun Mar 12 2023 17:10:58 GMT-0400 (Eastern Daylight Time)","481351","Trustworthy,Untrustworthy","","null","","","","feedback","","<div class='respPicDiv'><img src='img/responseButtonOffersNo0_wht.png' class='respPic'></div><div class='trialDiv'><img src='Fruit/grapes.png'><br><font class='baseline'><strong>Great Grapes</strong><p><strong><font class='posOutcome'>You WON</font><p>You bet: 1</strong></font> &nbsp; &nbsp; &nbsp; &nbsp; &nbsp; &nbsp;<font class='posOutcome'>you receive: <strong>2</strong></font></div>","null","14","Great Grapes","Fruit/grapes.png","Won","0.35,0.8","11","0.35","215","42","",""
"html-keyboard-response","137","239715","0.0-11.0-1.42","6162341a644c08d5cca4b7bb","bdp_rwlrn","Sun Mar 12 2023 17:10:58 GMT-0400 (Eastern Daylight Time)","481351","Trustworthy,Untrustworthy","","495","","","","decision","","<div class='trialDiv'><img src='Fruit/lime.png'><br><font class='baseline'><strong>Limin' Large</strong><p>Choose number of points to bet.</font><div class='respPicDiv'><img src='img/responseButtonOffersNo0L.png' class='respPic'></div></div>","5","15","Limin' Large","Fruit/lime.png","Lost","0.65,0.2","11","0.65","220","43","",""
"html-keyboard-response","138","239967","0.0-11.0-2.42","6162341a644c08d5cca4b7bb","bdp_rwlrn","Sun Mar 12 2023 17:10:58 GMT-0400 (Eastern Daylight Time)","481351","Trustworthy,Untrustworthy","","null","","","","decisionFB","","<div class='trialDiv'><img src='Fruit/lime.png'><br><font class='baseline'><strong>Limin' Large</strong><p>Choose number of points to bet.</font><div class='respPicDiv'><img src='img/responseButtonOffersNo0L5.png' class='respPic'></div></div>","null","15","Limin' Large","Fruit/lime.png","Lost","0.65,0.2","11","0.65","215","43","",""
"html-keyboard-response","139","240967","0.0-11.0-3.42","6162341a644c08d5cca4b7bb","bdp_rwlrn","Sun Mar 12 2023 17:10:58 GMT-0400 (Eastern Daylight Time)","481351","Trustworthy,Untrustworthy","","null","","","","feedback","","<div class='respPicDiv'><img src='img/responseButtonOffersNo0_wht.png' class='respPic'></div><div class='trialDiv'><img src='Fruit/lime.png'><br><font class='baseline'><strong>Limin' Large</strong><p><strong><font class='negOutcome'>You LOST</font><p>You bet: 5</strong></font> &nbsp; &nbsp; &nbsp; &nbsp; &nbsp; &nbsp;<font class='negOutcome'>You receive: <strong>0</strong></font></div>","null","15","Limin' Large","Fruit/lime.png","Lost","0.65,0.2","11","0.65","215","43","",""
"html-keyboard-response","140","241546","0.0-11.0-1.43","6162341a644c08d5cca4b7bb","bdp_rwlrn","Sun Mar 12 2023 17:10:58 GMT-0400 (Eastern Daylight Time)","481351","Trustworthy,Untrustworthy","","578","","","","decision","","<div class='trialDiv'><img src='Fruit/grapes.png'><br><font class='baseline'><strong>Great Grapes</strong><p>Choose number of points to bet.</font><div class='respPicDiv'><img src='img/responseButtonOffersNo0L.png' class='respPic'></div></div>","1","15","Great Grapes","Fruit/grapes.png","Won","0.35,0.8","11","0.35","220","44","",""
"html-keyboard-response","141","241797","0.0-11.0-2.43","6162341a644c08d5cca4b7bb","bdp_rwlrn","Sun Mar 12 2023 17:10:58 GMT-0400 (Eastern Daylight Time)","481351","Trustworthy,Untrustworthy","","null","","","","decisionFB","","<div class='trialDiv'><img src='Fruit/grapes.png'><br><font class='baseline'><strong>Great Grapes</strong><p>Choose number of points to bet.</font><div class='respPicDiv'><img src='img/responseButtonOffersNo0L1.png' class='respPic'></div></div>","null","15","Great Grapes","Fruit/grapes.png","Won","0.35,0.8","11","0.35","219","44","",""
"html-keyboard-response","142","242799","0.0-11.0-3.43","6162341a644c08d5cca4b7bb","bdp_rwlrn","Sun Mar 12 2023 17:10:58 GMT-0400 (Eastern Daylight Time)","481351","Trustworthy,Untrustworthy","","null","","","","feedback","","<div class='respPicDiv'><img src='img/responseButtonOffersNo0_wht.png' class='respPic'></div><div class='trialDiv'><img src='Fruit/grapes.png'><br><font class='baseline'><strong>Great Grapes</strong><p><strong><font class='posOutcome'>You WON</font><p>You bet: 1</strong></font> &nbsp; &nbsp; &nbsp; &nbsp; &nbsp; &nbsp;<font class='posOutcome'>you receive: <strong>2</strong></font></div>","null","15","Great Grapes","Fruit/grapes.png","Won","0.35,0.8","11","0.35","221","44","",""
"html-keyboard-response","143","243480","0.0-11.0-1.44","6162341a644c08d5cca4b7bb","bdp_rwlrn","Sun Mar 12 2023 17:10:58 GMT-0400 (Eastern Daylight Time)","481351","Trustworthy,Untrustworthy","","681","","","","decision","","<div class='trialDiv'><img src='Fruit/apple.png'><br><font class='baseline'><strong>Awesome Apples</strong><p>Choose number of points to bet.</font><div class='respPicDiv'><img src='img/responseButtonOffersNo0L.png' class='respPic'></div></div>","5","15","Awesome Apples","Fruit/apple.png","Lost","0.8,0.2","11","0.8","226","45","",""
"html-keyboard-response","144","243732","0.0-11.0-2.44","6162341a644c08d5cca4b7bb","bdp_rwlrn","Sun Mar 12 2023 17:10:58 GMT-0400 (Eastern Daylight Time)","481351","Trustworthy,Untrustworthy","","null","","","","decisionFB","","<div class='trialDiv'><img src='Fruit/apple.png'><br><font class='baseline'><strong>Awesome Apples</strong><p>Choose number of points to bet.</font><div class='respPicDiv'><img src='img/responseButtonOffersNo0L5.png' class='respPic'></div></div>","null","15","Awesome Apples","Fruit/apple.png","Lost","0.8,0.2","11","0.8","221","45","",""
"html-keyboard-response","145","244734","0.0-11.0-3.44","6162341a644c08d5cca4b7bb","bdp_rwlrn","Sun Mar 12 2023 17:10:58 GMT-0400 (Eastern Daylight Time)","481351","Trustworthy,Untrustworthy","","null","","","","feedback","","<div class='respPicDiv'><img src='img/responseButtonOffersNo0_wht.png' class='respPic'></div><div class='trialDiv'><img src='Fruit/apple.png'><br><font class='baseline'><strong>Awesome Apples</strong><p><strong><font class='negOutcome'>You LOST</font><p>You bet: 5</strong></font> &nbsp; &nbsp; &nbsp; &nbsp; &nbsp; &nbsp;<font class='negOutcome'>You receive: <strong>0</strong></font></div>","null","15","Awesome Apples","Fruit/apple.png","Lost","0.8,0.2","11","0.8","221","45","",""
"html-keyboard-response","146","245020","0.0-11.0-1.45","6162341a644c08d5cca4b7bb","bdp_rwlrn","Sun Mar 12 2023 17:10:58 GMT-0400 (Eastern Daylight Time)","481351","Trustworthy,Untrustworthy","","285","","","","decision","","<div class='trialDiv'><img src='Fruit/lime.png'><br><font class='baseline'><strong>Limin' Large</strong><p>Choose number of points to bet.</font><div class='respPicDiv'><img src='img/responseButtonOffersNo0L.png' class='respPic'></div></div>","5","16","Limin' Large","Fruit/lime.png","Lost","0.65,0.2","11","0.65","226","46","",""
"html-keyboard-response","147","245271","0.0-11.0-2.45","6162341a644c08d5cca4b7bb","bdp_rwlrn","Sun Mar 12 2023 17:10:58 GMT-0400 (Eastern Daylight Time)","481351","Trustworthy,Untrustworthy","","null","","","","decisionFB","","<div class='trialDiv'><img src='Fruit/lime.png'><br><font class='baseline'><strong>Limin' Large</strong><p>Choose number of points to bet.</font><div class='respPicDiv'><img src='img/responseButtonOffersNo0L5.png' class='respPic'></div></div>","null","16","Limin' Large","Fruit/lime.png","Lost","0.65,0.2","11","0.65","221","46","",""
"html-keyboard-response","148","246272","0.0-11.0-3.45","6162341a644c08d5cca4b7bb","bdp_rwlrn","Sun Mar 12 2023 17:10:58 GMT-0400 (Eastern Daylight Time)","481351","Trustworthy,Untrustworthy","","null","","","","feedback","","<div class='respPicDiv'><img src='img/responseButtonOffersNo0_wht.png' class='respPic'></div><div class='trialDiv'><img src='Fruit/lime.png'><br><font class='baseline'><strong>Limin' Large</strong><p><strong><font class='negOutcome'>You LOST</font><p>You bet: 5</strong></font> &nbsp; &nbsp; &nbsp; &nbsp; &nbsp; &nbsp;<font class='negOutcome'>You receive: <strong>0</strong></font></div>","null","16","Limin' Large","Fruit/lime.png","Lost","0.65,0.2","11","0.65","221","46","",""
"html-keyboard-response","149","246698","0.0-11.0-1.46","6162341a644c08d5cca4b7bb","bdp_rwlrn","Sun Mar 12 2023 17:10:58 GMT-0400 (Eastern Daylight Time)","481351","Trustworthy,Untrustworthy","","425","","","","decision","","<div class='trialDiv'><img src='Fruit/grapes.png'><br><font class='baseline'><strong>Great Grapes</strong><p>Choose number of points to bet.</font><div class='respPicDiv'><img src='img/responseButtonOffersNo0L.png' class='respPic'></div></div>","5","16","Great Grapes","Fruit/grapes.png","Won","0.35,0.8","11","0.35","226","47","",""
"html-keyboard-response","150","246951","0.0-11.0-2.46","6162341a644c08d5cca4b7bb","bdp_rwlrn","Sun Mar 12 2023 17:10:58 GMT-0400 (Eastern Daylight Time)","481351","Trustworthy,Untrustworthy","","null","","","","decisionFB","","<div class='trialDiv'><img src='Fruit/grapes.png'><br><font class='baseline'><strong>Great Grapes</strong><p>Choose number of points to bet.</font><div class='respPicDiv'><img src='img/responseButtonOffersNo0L5.png' class='respPic'></div></div>","null","16","Great Grapes","Fruit/grapes.png","Won","0.35,0.8","11","0.35","221","47","",""
"html-keyboard-response","151","247953","0.0-11.0-3.46","6162341a644c08d5cca4b7bb","bdp_rwlrn","Sun Mar 12 2023 17:10:58 GMT-0400 (Eastern Daylight Time)","481351","Trustworthy,Untrustworthy","","null","","","","feedback","","<div class='respPicDiv'><img src='img/responseButtonOffersNo0_wht.png' class='respPic'></div><div class='trialDiv'><img src='Fruit/grapes.png'><br><font class='baseline'><strong>Great Grapes</strong><p><strong><font class='posOutcome'>You WON</font><p>You bet: 5</strong></font> &nbsp; &nbsp; &nbsp; &nbsp; &nbsp; &nbsp;<font class='posOutcome'>you receive: <strong>10</strong></font></div>","null","16","Great Grapes","Fruit/grapes.png","Won","0.35,0.8","11","0.35","231","47","",""
"html-keyboard-response","152","248647","0.0-11.0-1.47","6162341a644c08d5cca4b7bb","bdp_rwlrn","Sun Mar 12 2023 17:10:58 GMT-0400 (Eastern Daylight Time)","481351","Trustworthy,Untrustworthy","","692","","","","decision","","<div class='trialDiv'><img src='Fruit/apple.png'><br><font class='baseline'><strong>Awesome Apples</strong><p>Choose number of points to bet.</font><div class='respPicDiv'><img src='img/responseButtonOffersNo0L.png' class='respPic'></div></div>","2","16","Awesome Apples","Fruit/apple.png","Lost","0.8,0.2","11","0.8","236","48","",""
"html-keyboard-response","153","248899","0.0-11.0-2.47","6162341a644c08d5cca4b7bb","bdp_rwlrn","Sun Mar 12 2023 17:10:58 GMT-0400 (Eastern Daylight Time)","481351","Trustworthy,Untrustworthy","","null","","","","decisionFB","","<div class='trialDiv'><img src='Fruit/apple.png'><br><font class='baseline'><strong>Awesome Apples</strong><p>Choose number of points to bet.</font><div class='respPicDiv'><img src='img/responseButtonOffersNo0L2.png' class='respPic'></div></div>","null","16","Awesome Apples","Fruit/apple.png","Lost","0.8,0.2","11","0.8","234","48","",""
"html-keyboard-response","154","249901","0.0-11.0-3.47","6162341a644c08d5cca4b7bb","bdp_rwlrn","Sun Mar 12 2023 17:10:58 GMT-0400 (Eastern Daylight Time)","481351","Trustworthy,Untrustworthy","","null","","","","feedback","","<div class='respPicDiv'><img src='img/responseButtonOffersNo0_wht.png' class='respPic'></div><div class='trialDiv'><img src='Fruit/apple.png'><br><font class='baseline'><strong>Awesome Apples</strong><p><strong><font class='negOutcome'>You LOST</font><p>You bet: 2</strong></font> &nbsp; &nbsp; &nbsp; &nbsp; &nbsp; &nbsp;<font class='negOutcome'>You receive: <strong>0</strong></font></div>","null","16","Awesome Apples","Fruit/apple.png","Lost","0.8,0.2","11","0.8","234","48","",""
"html-keyboard-response","155","250233","0.0-11.0-1.48","6162341a644c08d5cca4b7bb","bdp_rwlrn","Sun Mar 12 2023 17:10:58 GMT-0400 (Eastern Daylight Time)","481351","Trustworthy,Untrustworthy","","331","","","","decision","","<div class='trialDiv'><img src='Fruit/grapes.png'><br><font class='baseline'><strong>Great Grapes</strong><p>Choose number of points to bet.</font><div class='respPicDiv'><img src='img/responseButtonOffersNo0L.png' class='respPic'></div></div>","3","17","Great Grapes","Fruit/grapes.png","Won","0.35,0.8","11","0.35","239","49","",""
"html-keyboard-response","156","250485","0.0-11.0-2.48","6162341a644c08d5cca4b7bb","bdp_rwlrn","Sun Mar 12 2023 17:10:58 GMT-0400 (Eastern Daylight Time)","481351","Trustworthy,Untrustworthy","","null","","","","decisionFB","","<div class='trialDiv'><img src='Fruit/grapes.png'><br><font class='baseline'><strong>Great Grapes</strong><p>Choose number of points to bet.</font><div class='respPicDiv'><img src='img/responseButtonOffersNo0L3.png' class='respPic'></div></div>","null","17","Great Grapes","Fruit/grapes.png","Won","0.35,0.8","11","0.35","236","49","",""
"html-keyboard-response","157","251486","0.0-11.0-3.48","6162341a644c08d5cca4b7bb","bdp_rwlrn","Sun Mar 12 2023 17:10:58 GMT-0400 (Eastern Daylight Time)","481351","Trustworthy,Untrustworthy","","null","","","","feedback","","<div class='respPicDiv'><img src='img/responseButtonOffersNo0_wht.png' class='respPic'></div><div class='trialDiv'><img src='Fruit/grapes.png'><br><font class='baseline'><strong>Great Grapes</strong><p><strong><font class='posOutcome'>You WON</font><p>You bet: 3</strong></font> &nbsp; &nbsp; &nbsp; &nbsp; &nbsp; &nbsp;<font class='posOutcome'>you receive: <strong>6</strong></font></div>","null","17","Great Grapes","Fruit/grapes.png","Won","0.35,0.8","11","0.35","242","49","",""
"html-keyboard-response","158","252074","0.0-11.0-1.49","6162341a644c08d5cca4b7bb","bdp_rwlrn","Sun Mar 12 2023 17:10:58 GMT-0400 (Eastern Daylight Time)","481351","Trustworthy,Untrustworthy","","586","","","","decision","","<div class='trialDiv'><img src='Fruit/lime.png'><br><font class='baseline'><strong>Limin' Large</strong><p>Choose number of points to bet.</font><div class='respPicDiv'><img src='img/responseButtonOffersNo0L.png' class='respPic'></div></div>","5","17","Limin' Large","Fruit/lime.png","Lost","0.65,0.2","11","0.65","247","50","",""
"html-keyboard-response","159","252325","0.0-11.0-2.49","6162341a644c08d5cca4b7bb","bdp_rwlrn","Sun Mar 12 2023 17:10:58 GMT-0400 (Eastern Daylight Time)","481351","Trustworthy,Untrustworthy","","null","","","","decisionFB","","<div class='trialDiv'><img src='Fruit/lime.png'><br><font class='baseline'><strong>Limin' Large</strong><p>Choose number of points to bet.</font><div class='respPicDiv'><img src='img/responseButtonOffersNo0L5.png' class='respPic'></div></div>","null","17","Limin' Large","Fruit/lime.png","Lost","0.65,0.2","11","0.65","242","50","",""
"html-keyboard-response","160","253328","0.0-11.0-3.49","6162341a644c08d5cca4b7bb","bdp_rwlrn","Sun Mar 12 2023 17:10:58 GMT-0400 (Eastern Daylight Time)","481351","Trustworthy,Untrustworthy","","null","","","","feedback","","<div class='respPicDiv'><img src='img/responseButtonOffersNo0_wht.png' class='respPic'></div><div class='trialDiv'><img src='Fruit/lime.png'><br><font class='baseline'><strong>Limin' Large</strong><p><strong><font class='negOutcome'>You LOST</font><p>You bet: 5</strong></font> &nbsp; &nbsp; &nbsp; &nbsp; &nbsp; &nbsp;<font class='negOutcome'>You receive: <strong>0</strong></font></div>","null","17","Limin' Large","Fruit/lime.png","Lost","0.65,0.2","11","0.65","242","50","",""
"html-keyboard-response","161","253866","0.0-11.0-1.50","6162341a644c08d5cca4b7bb","bdp_rwlrn","Sun Mar 12 2023 17:10:58 GMT-0400 (Eastern Daylight Time)","481351","Trustworthy,Untrustworthy","","536","","","","decision","","<div class='trialDiv'><img src='Fruit/apple.png'><br><font class='baseline'><strong>Awesome Apples</strong><p>Choose number of points to bet.</font><div class='respPicDiv'><img src='img/responseButtonOffersNo0L.png' class='respPic'></div></div>","5","17","Awesome Apples","Fruit/apple.png","Lost","0.8,0.2","11","0.8","247","51","",""
"html-keyboard-response","162","254118","0.0-11.0-2.50","6162341a644c08d5cca4b7bb","bdp_rwlrn","Sun Mar 12 2023 17:10:58 GMT-0400 (Eastern Daylight Time)","481351","Trustworthy,Untrustworthy","","null","","","","decisionFB","","<div class='trialDiv'><img src='Fruit/apple.png'><br><font class='baseline'><strong>Awesome Apples</strong><p>Choose number of points to bet.</font><div class='respPicDiv'><img src='img/responseButtonOffersNo0L5.png' class='respPic'></div></div>","null","17","Awesome Apples","Fruit/apple.png","Lost","0.8,0.2","11","0.8","242","51","",""
"html-keyboard-response","163","255119","0.0-11.0-3.50","6162341a644c08d5cca4b7bb","bdp_rwlrn","Sun Mar 12 2023 17:10:58 GMT-0400 (Eastern Daylight Time)","481351","Trustworthy,Untrustworthy","","null","","","","feedback","","<div class='respPicDiv'><img src='img/responseButtonOffersNo0_wht.png' class='respPic'></div><div class='trialDiv'><img src='Fruit/apple.png'><br><font class='baseline'><strong>Awesome Apples</strong><p><strong><font class='negOutcome'>You LOST</font><p>You bet: 5</strong></font> &nbsp; &nbsp; &nbsp; &nbsp; &nbsp; &nbsp;<font class='negOutcome'>You receive: <strong>0</strong></font></div>","null","17","Awesome Apples","Fruit/apple.png","Lost","0.8,0.2","11","0.8","242","51","",""
"html-keyboard-response","164","255428","0.0-11.0-1.51","6162341a644c08d5cca4b7bb","bdp_rwlrn","Sun Mar 12 2023 17:10:58 GMT-0400 (Eastern Daylight Time)","481351","Trustworthy,Untrustworthy","","308","","","","decision","","<div class='trialDiv'><img src='Fruit/grapes.png'><br><font class='baseline'><strong>Great Grapes</strong><p>Choose number of points to bet.</font><div class='respPicDiv'><img src='img/responseButtonOffersNo0L.png' class='respPic'></div></div>","5","18","Great Grapes","Fruit/grapes.png","Won","0.35,0.8","11","0.35","247","52","",""
