"event","trial","time","trialtype","subject_id","task","startTime","totalTime","labels","trial_type","trial_index","time_elapsed","internal_node_id","view_history","rt","success","stimulus","key_press","ltround","name","fileID","outcome","lottotype","lottoswpt","lottocurrpshare","point_total","round","faceID","face"
"focus","0","0","focusevent","63f807017a338dfff169fea8","bdp_rwlrn","Wed Mar 15 2023 22:20:53 GMT-0500 (Central Daylight Time)","626480","Trustworthy,Untrustworthy","","","","","","","","","","","","","","","","","","","",""
"focus","0","0","focusevent","63f807017a338dfff169fea8","bdp_rwlrn","Wed Mar 15 2023 22:20:53 GMT-0500 (Central Daylight Time)","626480","Trustworthy,Untrustworthy","","","","","","","","","","","","","","","","","","","",""
"","","","","63f807017a338dfff169fea8","bdp_rwlrn","Wed Mar 15 2023 22:20:53 GMT-0500 (Central Daylight Time)","626480","Trustworthy,Untrustworthy","pavlovia","0","4","0.0-0.0","","","","","","","","","","","","","","","",""
"","","","","63f807017a338dfff169fea8","bdp_rwlrn","Wed Mar 15 2023 22:20:53 GMT-0500 (Central Daylight Time)","626480","Trustworthy,Untrustworthy","instructions","1","5882","0.0-1.0","[{""page_index"":0,""viewing_time"":5877}]","5877","","","","","","","","","","","","","",""
"fullscreenenter","2","9187","fullscreenenter","63f807017a338dfff169fea8","bdp_rwlrn","Wed Mar 15 2023 22:20:53 GMT-0500 (Central Daylight Time)","626480","Trustworthy,Untrustworthy","","","","","","","","","","","","","","","","","","","",""
"","","","","63f807017a338dfff169fea8","bdp_rwlrn","Wed Mar 15 2023 22:20:53 GMT-0500 (Central Daylight Time)","626480","Trustworthy,Untrustworthy","fullscreen","2","10104","0.0-2.0","","","true","","","","","","","","","","","","",""
"","","","","63f807017a338dfff169fea8","bdp_rwlrn","Wed Mar 15 2023 22:20:53 GMT-0500 (Central Daylight Time)","626480","Trustworthy,Untrustworthy","instructions","3","103115","0.0-4.0","[{""page_index"":0,""viewing_time"":13786},{""page_index"":1,""viewing_time"":13393},{""page_index"":2,""viewing_time"":36643},{""page_index"":3,""viewing_time"":6756},{""page_index"":4,""viewing_time"":19903},{""page_index"":5,""viewing_time"":2528}]","93009","","","","","","","","","","","","","",""
"","","","","63f807017a338dfff169fea8","bdp_rwlrn","Wed Mar 15 2023 22:20:53 GMT-0500 (Central Daylight Time)","626480","Trustworthy,Untrustworthy","html-keyboard-response","4","106840","0.0-5.0","","3723","","<div class='header' style='text-align:left; position: absolute; top: 5%; left: 5%;'><small>Task 1 of 5</small></div><div class='instruxDiv'><p><strong>1) What is the maximum number of points you can choose to bet on a lottery?</strong></p><p>a) 0</p><p>b) 1</p><p>c) 5</p>","C","","","","","","","","","","",""
"","","","","63f807017a338dfff169fea8","bdp_rwlrn","Wed Mar 15 2023 22:20:53 GMT-0500 (Central Daylight Time)","626480","Trustworthy,Untrustworthy","html-keyboard-response","5","109207","0.0-6.0","","2259","","<div class='header' style='text-align:left; position: absolute; top: 5%; left: 5%;'><small>Task 1 of 5</small></div><div class='instruxDiv'><p><strong>1) What is the maximum number of points you can choose to bet on a lottery?</strong></p><p>a) 1</p><p>b) 1</p><p style='color:#00FF00'>c) 5</p><h3 style='color:#00FF00'>Correct!</h3><h3 class='center-content'>The correct response is c).</h3><h3 class='center-content'>The maximum number of points you can choose to bet on a lottery is 5 points.</h3><p><em>Press SPACEBAR to continue</em></p></div>"," ","","","","","","","","","","",""
"","","","","63f807017a338dfff169fea8","bdp_rwlrn","Wed Mar 15 2023 22:20:53 GMT-0500 (Central Daylight Time)","626480","Trustworthy,Untrustworthy","html-keyboard-response","6","115056","0.0-7.0","","5742","","<div class='header' style='text-align:left; position: absolute; top: 5%; left: 5%;'><small>Task 1 of 5</small></div><div class='instruxDiv'><p><strong>2) How many points can you win each round?</strong></p><p>a) 10 points</p><p>b) Double what you bet</p><p>c) Quadruple what you bet</p>","B","","","","","","","","","","",""
"","","","","63f807017a338dfff169fea8","bdp_rwlrn","Wed Mar 15 2023 22:20:53 GMT-0500 (Central Daylight Time)","626480","Trustworthy,Untrustworthy","html-keyboard-response","7","116445","0.0-8.0","","1274","","<div class='header' style='text-align:left; position: absolute; top: 5%; left: 5%;'><small>Task 1 of 5</small></div><div class='instruxDiv'><p><strong>2) How many points can you win each round?</strong></p><p>a) 10 points</p><p style='color:#00FF00'>b) Double what you bet</p><p>c) Quadruple what you bet</p><h3 style='color:#00FF00'>Correct!</h3><h3 class='center-content'>The correct response is b).</h3><h3 class='center-content'>You can win double the amount of points you bet.</h3><p><em>Press SPACEBAR to continue</em></p></div>"," ","","","","","","","","","","",""
"","","","","63f807017a338dfff169fea8","bdp_rwlrn","Wed Mar 15 2023 22:20:53 GMT-0500 (Central Daylight Time)","626480","Trustworthy,Untrustworthy","html-keyboard-response","8","121559","0.0-9.0","","null","","<div class='header' style='text-align:left; position: absolute; top: 5%; left: 5%;'><small>Task 1 of 5</small></div><div class='instruxDiv'><p>Thank you for completing the quiz<p>These are the actual lotteries you will be playing in the next block:<p><div class='tc' align='center'><img class='introPic' src='Fruit/lime.png'><br><strong>Limin' Large</strong></div><div class='bl' align='center'><img class='introPic' src='Fruit/apple.png'><br><strong>Awesome Apples</strong></div><div class='br' align='center'><img class='introPic' src='Fruit/lemon.png'><br><strong>Lucky Lemons</strong></div></div><p>Across <strong>66 rounds</strong> you will play each lottery <strong>22 times</strong> (in random order).<p style='align:center; color:white'><font <em>Press SPACEBAR to continue</em></p>","null","","","","","","","","","","",""
"","","","","63f807017a338dfff169fea8","bdp_rwlrn","Wed Mar 15 2023 22:20:53 GMT-0500 (Central Daylight Time)","626480","Trustworthy,Untrustworthy","instructions","9","128108","0.0-10.0","[{""page_index"":0,""viewing_time"":2657},{""page_index"":1,""viewing_time"":3891}]","6548","","","","","","","","","","","","","",""
"","","","decision","63f807017a338dfff169fea8","bdp_rwlrn","Wed Mar 15 2023 22:20:53 GMT-0500 (Central Daylight Time)","626480","Trustworthy,Untrustworthy","html-keyboard-response","10","133547","0.0-11.0-1.0","","5334","","<div class='trialDiv'><img src='Fruit/apple.png'><br><font class='baseline'><strong>Awesome Apples</strong><p>Choose number of points to bet.</font><div class='respPicDiv'><img src='img/responseButtonOffersNo0L.png' class='respPic'></div></div>","1","1","Awesome Apples","Fruit/apple.png","Won","0.8,0.35","13","0.8","5","1","",""
"","","","decisionFB","63f807017a338dfff169fea8","bdp_rwlrn","Wed Mar 15 2023 22:20:53 GMT-0500 (Central Daylight Time)","626480","Trustworthy,Untrustworthy","html-keyboard-response","11","133812","0.0-11.0-2.0","","null","","<div class='trialDiv'><img src='Fruit/apple.png'><br><font class='baseline'><strong>Awesome Apples</strong><p>Choose number of points to bet.</font><div class='respPicDiv'><img src='img/responseButtonOffersNo0L1.png' class='respPic'></div></div>","null","1","Awesome Apples","Fruit/apple.png","Won","0.8,0.35","13","0.8","4","1","",""
"","","","feedback","63f807017a338dfff169fea8","bdp_rwlrn","Wed Mar 15 2023 22:20:53 GMT-0500 (Central Daylight Time)","626480","Trustworthy,Untrustworthy","html-keyboard-response","12","134828","0.0-11.0-3.0","","null","","<div class='respPicDiv'><img src='img/responseButtonOffersNo0_wht.png' class='respPic'></div><div class='trialDiv'><img src='Fruit/apple.png'><br><font class='baseline'><strong>Awesome Apples</strong><p><strong><font class='posOutcome'>You WON</font><p>You bet: 1</strong></font> &nbsp; &nbsp; &nbsp; &nbsp; &nbsp; &nbsp;<font class='posOutcome'>you receive: <strong>2</strong></font></div>","null","1","Awesome Apples","Fruit/apple.png","Won","0.8,0.35","13","0.8","6","1","",""
"","","","decision","63f807017a338dfff169fea8","bdp_rwlrn","Wed Mar 15 2023 22:20:53 GMT-0500 (Central Daylight Time)","626480","Trustworthy,Untrustworthy","html-keyboard-response","13","136217","0.0-11.0-1.1","","1388","","<div class='trialDiv'><img src='Fruit/lemon.png'><br><font class='baseline'><strong>Lucky Lemons</strong><p>Choose number of points to bet.</font><div class='respPicDiv'><img src='img/responseButtonOffersNo0L.png' class='respPic'></div></div>","1","1","Lucky Lemons","Fruit/lemon.png","Lost","0.35,0.8","10","0.35","11","2","",""
"","","","decisionFB","63f807017a338dfff169fea8","bdp_rwlrn","Wed Mar 15 2023 22:20:53 GMT-0500 (Central Daylight Time)","626480","Trustworthy,Untrustworthy","html-keyboard-response","14","136475","0.0-11.0-2.1","","null","","<div class='trialDiv'><img src='Fruit/lemon.png'><br><font class='baseline'><strong>Lucky Lemons</strong><p>Choose number of points to bet.</font><div class='respPicDiv'><img src='img/responseButtonOffersNo0L1.png' class='respPic'></div></div>","null","1","Lucky Lemons","Fruit/lemon.png","Lost","0.35,0.8","10","0.35","10","2","",""
"","","","feedback","63f807017a338dfff169fea8","bdp_rwlrn","Wed Mar 15 2023 22:20:53 GMT-0500 (Central Daylight Time)","626480","Trustworthy,Untrustworthy","html-keyboard-response","15","137489","0.0-11.0-3.1","","null","","<div class='respPicDiv'><img src='img/responseButtonOffersNo0_wht.png' class='respPic'></div><div class='trialDiv'><img src='Fruit/lemon.png'><br><font class='baseline'><strong>Lucky Lemons</strong><p><strong><font class='negOutcome'>You LOST</font><p>You bet: 1</strong></font> &nbsp; &nbsp; &nbsp; &nbsp; &nbsp; &nbsp;<font class='negOutcome'>You receive: <strong>0</strong></font></div>","null","1","Lucky Lemons","Fruit/lemon.png","Lost","0.35,0.8","10","0.35","10","2","",""
"","","","decision","63f807017a338dfff169fea8","bdp_rwlrn","Wed Mar 15 2023 22:20:53 GMT-0500 (Central Daylight Time)","626480","Trustworthy,Untrustworthy","html-keyboard-response","16","140852","0.0-11.0-1.2","","3362","","<div class='trialDiv'><img src='Fruit/lime.png'><br><font class='baseline'><strong>Limin' Large</strong><p>Choose number of points to bet.</font><div class='respPicDiv'><img src='img/responseButtonOffersNo0L.png' class='respPic'></div></div>","1","1","Limin' Large","Fruit/lime.png","Lost","0.2,0.8","13","0.2","15","3","",""
"","","","decisionFB","63f807017a338dfff169fea8","bdp_rwlrn","Wed Mar 15 2023 22:20:53 GMT-0500 (Central Daylight Time)","626480","Trustworthy,Untrustworthy","html-keyboard-response","17","141113","0.0-11.0-2.2","","null","","<div class='trialDiv'><img src='Fruit/lime.png'><br><font class='baseline'><strong>Limin' Large</strong><p>Choose number of points to bet.</font><div class='respPicDiv'><img src='img/responseButtonOffersNo0L1.png' class='respPic'></div></div>","null","1","Limin' Large","Fruit/lime.png","Lost","0.2,0.8","13","0.2","14","3","",""
"","","","feedback","63f807017a338dfff169fea8","bdp_rwlrn","Wed Mar 15 2023 22:20:53 GMT-0500 (Central Daylight Time)","626480","Trustworthy,Untrustworthy","html-keyboard-response","18","142127","0.0-11.0-3.2","","null","","<div class='respPicDiv'><img src='img/responseButtonOffersNo0_wht.png' class='respPic'></div><div class='trialDiv'><img src='Fruit/lime.png'><br><font class='baseline'><strong>Limin' Large</strong><p><strong><font class='negOutcome'>You LOST</font><p>You bet: 1</strong></font> &nbsp; &nbsp; &nbsp; &nbsp; &nbsp; &nbsp;<font class='negOutcome'>You receive: <strong>0</strong></font></div>","null","1","Limin' Large","Fruit/lime.png","Lost","0.2,0.8","13","0.2","14","3","",""
"","","","decision","63f807017a338dfff169fea8","bdp_rwlrn","Wed Mar 15 2023 22:20:53 GMT-0500 (Central Daylight Time)","626480","Trustworthy,Untrustworthy","html-keyboard-response","19","148323","0.0-11.0-1.3","","6196","","<div class='trialDiv'><img src='Fruit/lemon.png'><br><font class='baseline'><strong>Lucky Lemons</strong><p>Choose number of points to bet.</font><div class='respPicDiv'><img src='img/responseButtonOffersNo0L.png' class='respPic'></div></div>","1","2","Lucky Lemons","Fruit/lemon.png","Lost","0.35,0.8","10","0.35","19","4","",""
"","","","decisionFB","63f807017a338dfff169fea8","bdp_rwlrn","Wed Mar 15 2023 22:20:53 GMT-0500 (Central Daylight Time)","626480","Trustworthy,Untrustworthy","html-keyboard-response","20","148578","0.0-11.0-2.3","","null","","<div class='trialDiv'><img src='Fruit/lemon.png'><br><font class='baseline'><strong>Lucky Lemons</strong><p>Choose number of points to bet.</font><div class='respPicDiv'><img src='img/responseButtonOffersNo0L1.png' class='respPic'></div></div>","null","2","Lucky Lemons","Fruit/lemon.png","Lost","0.35,0.8","10","0.35","18","4","",""
"","","","feedback","63f807017a338dfff169fea8","bdp_rwlrn","Wed Mar 15 2023 22:20:53 GMT-0500 (Central Daylight Time)","626480","Trustworthy,Untrustworthy","html-keyboard-response","21","149588","0.0-11.0-3.3","","null","","<div class='respPicDiv'><img src='img/responseButtonOffersNo0_wht.png' class='respPic'></div><div class='trialDiv'><img src='Fruit/lemon.png'><br><font class='baseline'><strong>Lucky Lemons</strong><p><strong><font class='negOutcome'>You LOST</font><p>You bet: 1</strong></font> &nbsp; &nbsp; &nbsp; &nbsp; &nbsp; &nbsp;<font class='negOutcome'>You receive: <strong>0</strong></font></div>","null","2","Lucky Lemons","Fruit/lemon.png","Lost","0.35,0.8","10","0.35","18","4","",""
"","","","decision","63f807017a338dfff169fea8","bdp_rwlrn","Wed Mar 15 2023 22:20:53 GMT-0500 (Central Daylight Time)","626480","Trustworthy,Untrustworthy","html-keyboard-response","22","152077","0.0-11.0-1.4","","2488","","<div class='trialDiv'><img src='Fruit/lime.png'><br><font class='baseline'><strong>Limin' Large</strong><p>Choose number of points to bet.</font><div class='respPicDiv'><img src='img/responseButtonOffersNo0L.png' class='respPic'></div></div>","1","2","Limin' Large","Fruit/lime.png","Lost","0.2,0.8","13","0.2","23","5","",""
"","","","decisionFB","63f807017a338dfff169fea8","bdp_rwlrn","Wed Mar 15 2023 22:20:53 GMT-0500 (Central Daylight Time)","626480","Trustworthy,Untrustworthy","html-keyboard-response","23","152342","0.0-11.0-2.4","","null","","<div class='trialDiv'><img src='Fruit/lime.png'><br><font class='baseline'><strong>Limin' Large</strong><p>Choose number of points to bet.</font><div class='respPicDiv'><img src='img/responseButtonOffersNo0L1.png' class='respPic'></div></div>","null","2","Limin' Large","Fruit/lime.png","Lost","0.2,0.8","13","0.2","22","5","",""
"","","","feedback","63f807017a338dfff169fea8","bdp_rwlrn","Wed Mar 15 2023 22:20:53 GMT-0500 (Central Daylight Time)","626480","Trustworthy,Untrustworthy","html-keyboard-response","24","153358","0.0-11.0-3.4","","null","","<div class='respPicDiv'><img src='img/responseButtonOffersNo0_wht.png' class='respPic'></div><div class='trialDiv'><img src='Fruit/lime.png'><br><font class='baseline'><strong>Limin' Large</strong><p><strong><font class='negOutcome'>You LOST</font><p>You bet: 1</strong></font> &nbsp; &nbsp; &nbsp; &nbsp; &nbsp; &nbsp;<font class='negOutcome'>You receive: <strong>0</strong></font></div>","null","2","Limin' Large","Fruit/lime.png","Lost","0.2,0.8","13","0.2","22","5","",""
"","","","decision","63f807017a338dfff169fea8","bdp_rwlrn","Wed Mar 15 2023 22:20:53 GMT-0500 (Central Daylight Time)","626480","Trustworthy,Untrustworthy","html-keyboard-response","25","155351","0.0-11.0-1.5","","1990","","<div class='trialDiv'><img src='Fruit/apple.png'><br><font class='baseline'><strong>Awesome Apples</strong><p>Choose number of points to bet.</font><div class='respPicDiv'><img src='img/responseButtonOffersNo0L.png' class='respPic'></div></div>","5","2","Awesome Apples","Fruit/apple.png","Won","0.8,0.35","13","0.8","27","6","",""
"","","","decisionFB","63f807017a338dfff169fea8","bdp_rwlrn","Wed Mar 15 2023 22:20:53 GMT-0500 (Central Daylight Time)","626480","Trustworthy,Untrustworthy","html-keyboard-response","26","155616","0.0-11.0-2.5","","null","","<div class='trialDiv'><img src='Fruit/apple.png'><br><font class='baseline'><strong>Awesome Apples</strong><p>Choose number of points to bet.</font><div class='respPicDiv'><img src='img/responseButtonOffersNo0L5.png' class='respPic'></div></div>","null","2","Awesome Apples","Fruit/apple.png","Won","0.8,0.35","13","0.8","22","6","",""
"","","","feedback","63f807017a338dfff169fea8","bdp_rwlrn","Wed Mar 15 2023 22:20:53 GMT-0500 (Central Daylight Time)","626480","Trustworthy,Untrustworthy","html-keyboard-response","27","156630","0.0-11.0-3.5","","null","","<div class='respPicDiv'><img src='img/responseButtonOffersNo0_wht.png' class='respPic'></div><div class='trialDiv'><img src='Fruit/apple.png'><br><font class='baseline'><strong>Awesome Apples</strong><p><strong><font class='posOutcome'>You WON</font><p>You bet: 5</strong></font> &nbsp; &nbsp; &nbsp; &nbsp; &nbsp; &nbsp;<font class='posOutcome'>you receive: <strong>10</strong></font></div>","null","2","Awesome Apples","Fruit/apple.png","Won","0.8,0.35","13","0.8","32","6","",""
"","","","decision","63f807017a338dfff169fea8","bdp_rwlrn","Wed Mar 15 2023 22:20:53 GMT-0500 (Central Daylight Time)","626480","Trustworthy,Untrustworthy","html-keyboard-response","28","158049","0.0-11.0-1.6","","1418","","<div class='trialDiv'><img src='Fruit/lemon.png'><br><font class='baseline'><strong>Lucky Lemons</strong><p>Choose number of points to bet.</font><div class='respPicDiv'><img src='img/responseButtonOffersNo0L.png' class='respPic'></div></div>","1","3","Lucky Lemons","Fruit/lemon.png","Won","0.35,0.8","10","0.35","37","7","",""
"","","","decisionFB","63f807017a338dfff169fea8","bdp_rwlrn","Wed Mar 15 2023 22:20:53 GMT-0500 (Central Daylight Time)","626480","Trustworthy,Untrustworthy","html-keyboard-response","29","158300","0.0-11.0-2.6","","null","","<div class='trialDiv'><img src='Fruit/lemon.png'><br><font class='baseline'><strong>Lucky Lemons</strong><p>Choose number of points to bet.</font><div class='respPicDiv'><img src='img/responseButtonOffersNo0L1.png' class='respPic'></div></div>","null","3","Lucky Lemons","Fruit/lemon.png","Won","0.35,0.8","10","0.35","36","7","",""
"","","","feedback","63f807017a338dfff169fea8","bdp_rwlrn","Wed Mar 15 2023 22:20:53 GMT-0500 (Central Daylight Time)","626480","Trustworthy,Untrustworthy","html-keyboard-response","30","159314","0.0-11.0-3.6","","null","","<div class='respPicDiv'><img src='img/responseButtonOffersNo0_wht.png' class='respPic'></div><div class='trialDiv'><img src='Fruit/lemon.png'><br><font class='baseline'><strong>Lucky Lemons</strong><p><strong><font class='posOutcome'>You WON</font><p>You bet: 1</strong></font> &nbsp; &nbsp; &nbsp; &nbsp; &nbsp; &nbsp;<font class='posOutcome'>you receive: <strong>2</strong></font></div>","null","3","Lucky Lemons","Fruit/lemon.png","Won","0.35,0.8","10","0.35","38","7","",""
"","","","decision","63f807017a338dfff169fea8","bdp_rwlrn","Wed Mar 15 2023 22:20:53 GMT-0500 (Central Daylight Time)","626480","Trustworthy,Untrustworthy","html-keyboard-response","31","163744","0.0-11.0-1.7","","4429","","<div class='trialDiv'><img src='Fruit/apple.png'><br><font class='baseline'><strong>Awesome Apples</strong><p>Choose number of points to bet.</font><div class='respPicDiv'><img src='img/responseButtonOffersNo0L.png' class='respPic'></div></div>","5","3","Awesome Apples","Fruit/apple.png","Won","0.8,0.35","13","0.8","43","8","",""
"","","","decisionFB","63f807017a338dfff169fea8","bdp_rwlrn","Wed Mar 15 2023 22:20:53 GMT-0500 (Central Daylight Time)","626480","Trustworthy,Untrustworthy","html-keyboard-response","32","164004","0.0-11.0-2.7","","null","","<div class='trialDiv'><img src='Fruit/apple.png'><br><font class='baseline'><strong>Awesome Apples</strong><p>Choose number of points to bet.</font><div class='respPicDiv'><img src='img/responseButtonOffersNo0L5.png' class='respPic'></div></div>","null","3","Awesome Apples","Fruit/apple.png","Won","0.8,0.35","13","0.8","38","8","",""
"","","","feedback","63f807017a338dfff169fea8","bdp_rwlrn","Wed Mar 15 2023 22:20:53 GMT-0500 (Central Daylight Time)","626480","Trustworthy,Untrustworthy","html-keyboard-response","33","165020","0.0-11.0-3.7","","null","","<div class='respPicDiv'><img src='img/responseButtonOffersNo0_wht.png' class='respPic'></div><div class='trialDiv'><img src='Fruit/apple.png'><br><font class='baseline'><strong>Awesome Apples</strong><p><strong><font class='posOutcome'>You WON</font><p>You bet: 5</strong></font> &nbsp; &nbsp; &nbsp; &nbsp; &nbsp; &nbsp;<font class='posOutcome'>you receive: <strong>10</strong></font></div>","null","3","Awesome Apples","Fruit/apple.png","Won","0.8,0.35","13","0.8","48","8","",""
"","","","decision","63f807017a338dfff169fea8","bdp_rwlrn","Wed Mar 15 2023 22:20:53 GMT-0500 (Central Daylight Time)","626480","Trustworthy,Untrustworthy","html-keyboard-response","34","166677","0.0-11.0-1.8","","1655","","<div class='trialDiv'><img src='Fruit/lime.png'><br><font class='baseline'><strong>Limin' Large</strong><p>Choose number of points to bet.</font><div class='respPicDiv'><img src='img/responseButtonOffersNo0L.png' class='respPic'></div></div>","1","3","Limin' Large","Fruit/lime.png","Won","0.2,0.8","13","0.2","53","9","",""
"","","","decisionFB","63f807017a338dfff169fea8","bdp_rwlrn","Wed Mar 15 2023 22:20:53 GMT-0500 (Central Daylight Time)","626480","Trustworthy,Untrustworthy","html-keyboard-response","35","166937","0.0-11.0-2.8","","null","","<div class='trialDiv'><img src='Fruit/lime.png'><br><font class='baseline'><strong>Limin' Large</strong><p>Choose number of points to bet.</font><div class='respPicDiv'><img src='img/responseButtonOffersNo0L1.png' class='respPic'></div></div>","null","3","Limin' Large","Fruit/lime.png","Won","0.2,0.8","13","0.2","52","9","",""
"","","","feedback","63f807017a338dfff169fea8","bdp_rwlrn","Wed Mar 15 2023 22:20:53 GMT-0500 (Central Daylight Time)","626480","Trustworthy,Untrustworthy","html-keyboard-response","36","167950","0.0-11.0-3.8","","null","","<div class='respPicDiv'><img src='img/responseButtonOffersNo0_wht.png' class='respPic'></div><div class='trialDiv'><img src='Fruit/lime.png'><br><font class='baseline'><strong>Limin' Large</strong><p><strong><font class='posOutcome'>You WON</font><p>You bet: 1</strong></font> &nbsp; &nbsp; &nbsp; &nbsp; &nbsp; &nbsp;<font class='posOutcome'>you receive: <strong>2</strong></font></div>","null","3","Limin' Large","Fruit/lime.png","Won","0.2,0.8","13","0.2","54","9","",""
"","","","decision","63f807017a338dfff169fea8","bdp_rwlrn","Wed Mar 15 2023 22:20:53 GMT-0500 (Central Daylight Time)","626480","Trustworthy,Untrustworthy","html-keyboard-response","37","173985","0.0-11.0-1.9","","6033","","<div class='trialDiv'><img src='Fruit/lemon.png'><br><font class='baseline'><strong>Lucky Lemons</strong><p>Choose number of points to bet.</font><div class='respPicDiv'><img src='img/responseButtonOffersNo0L.png' class='respPic'></div></div>","3","4","Lucky Lemons","Fruit/lemon.png","Lost","0.35,0.8","10","0.35","59","10","",""
"","","","decisionFB","63f807017a338dfff169fea8","bdp_rwlrn","Wed Mar 15 2023 22:20:53 GMT-0500 (Central Daylight Time)","626480","Trustworthy,Untrustworthy","html-keyboard-response","38","174248","0.0-11.0-2.9","","null","","<div class='trialDiv'><img src='Fruit/lemon.png'><br><font class='baseline'><strong>Lucky Lemons</strong><p>Choose number of points to bet.</font><div class='respPicDiv'><img src='img/responseButtonOffersNo0L3.png' class='respPic'></div></div>","null","4","Lucky Lemons","Fruit/lemon.png","Lost","0.35,0.8","10","0.35","56","10","",""
"","","","feedback","63f807017a338dfff169fea8","bdp_rwlrn","Wed Mar 15 2023 22:20:53 GMT-0500 (Central Daylight Time)","626480","Trustworthy,Untrustworthy","html-keyboard-response","39","175263","0.0-11.0-3.9","","null","","<div class='respPicDiv'><img src='img/responseButtonOffersNo0_wht.png' class='respPic'></div><div class='trialDiv'><img src='Fruit/lemon.png'><br><font class='baseline'><strong>Lucky Lemons</strong><p><strong><font class='negOutcome'>You LOST</font><p>You bet: 3</strong></font> &nbsp; &nbsp; &nbsp; &nbsp; &nbsp; &nbsp;<font class='negOutcome'>You receive: <strong>0</strong></font></div>","null","4","Lucky Lemons","Fruit/lemon.png","Lost","0.35,0.8","10","0.35","56","10","",""
"","","","decision","63f807017a338dfff169fea8","bdp_rwlrn","Wed Mar 15 2023 22:20:53 GMT-0500 (Central Daylight Time)","626480","Trustworthy,Untrustworthy","html-keyboard-response","40","177191","0.0-11.0-1.10","","1928","","<div class='trialDiv'><img src='Fruit/lime.png'><br><font class='baseline'><strong>Limin' Large</strong><p>Choose number of points to bet.</font><div class='respPicDiv'><img src='img/responseButtonOffersNo0L.png' class='respPic'></div></div>","3","4","Limin' Large","Fruit/lime.png","Lost","0.2,0.8","13","0.2","61","11","",""
"","","","decisionFB","63f807017a338dfff169fea8","bdp_rwlrn","Wed Mar 15 2023 22:20:53 GMT-0500 (Central Daylight Time)","626480","Trustworthy,Untrustworthy","html-keyboard-response","41","177448","0.0-11.0-2.10","","null","","<div class='trialDiv'><img src='Fruit/lime.png'><br><font class='baseline'><strong>Limin' Large</strong><p>Choose number of points to bet.</font><div class='respPicDiv'><img src='img/responseButtonOffersNo0L3.png' class='respPic'></div></div>","null","4","Limin' Large","Fruit/lime.png","Lost","0.2,0.8","13","0.2","58","11","",""
"","","","feedback","63f807017a338dfff169fea8","bdp_rwlrn","Wed Mar 15 2023 22:20:53 GMT-0500 (Central Daylight Time)","626480","Trustworthy,Untrustworthy","html-keyboard-response","42","178466","0.0-11.0-3.10","","null","","<div class='respPicDiv'><img src='img/responseButtonOffersNo0_wht.png' class='respPic'></div><div class='trialDiv'><img src='Fruit/lime.png'><br><font class='baseline'><strong>Limin' Large</strong><p><strong><font class='negOutcome'>You LOST</font><p>You bet: 3</strong></font> &nbsp; &nbsp; &nbsp; &nbsp; &nbsp; &nbsp;<font class='negOutcome'>You receive: <strong>0</strong></font></div>","null","4","Limin' Large","Fruit/lime.png","Lost","0.2,0.8","13","0.2","58","11","",""
"","","","decision","63f807017a338dfff169fea8","bdp_rwlrn","Wed Mar 15 2023 22:20:53 GMT-0500 (Central Daylight Time)","626480","Trustworthy,Untrustworthy","html-keyboard-response","43","179925","0.0-11.0-1.11","","1458","","<div class='trialDiv'><img src='Fruit/apple.png'><br><font class='baseline'><strong>Awesome Apples</strong><p>Choose number of points to bet.</font><div class='respPicDiv'><img src='img/responseButtonOffersNo0L.png' class='respPic'></div></div>","5","4","Awesome Apples","Fruit/apple.png","Won","0.8,0.35","13","0.8","63","12","",""
"","","","decisionFB","63f807017a338dfff169fea8","bdp_rwlrn","Wed Mar 15 2023 22:20:53 GMT-0500 (Central Daylight Time)","626480","Trustworthy,Untrustworthy","html-keyboard-response","44","180183","0.0-11.0-2.11","","null","","<div class='trialDiv'><img src='Fruit/apple.png'><br><font class='baseline'><strong>Awesome Apples</strong><p>Choose number of points to bet.</font><div class='respPicDiv'><img src='img/responseButtonOffersNo0L5.png' class='respPic'></div></div>","null","4","Awesome Apples","Fruit/apple.png","Won","0.8,0.35","13","0.8","58","12","",""
"","","","feedback","63f807017a338dfff169fea8","bdp_rwlrn","Wed Mar 15 2023 22:20:53 GMT-0500 (Central Daylight Time)","626480","Trustworthy,Untrustworthy","html-keyboard-response","45","181196","0.0-11.0-3.11","","null","","<div class='respPicDiv'><img src='img/responseButtonOffersNo0_wht.png' class='respPic'></div><div class='trialDiv'><img src='Fruit/apple.png'><br><font class='baseline'><strong>Awesome Apples</strong><p><strong><font class='posOutcome'>You WON</font><p>You bet: 5</strong></font> &nbsp; &nbsp; &nbsp; &nbsp; &nbsp; &nbsp;<font class='posOutcome'>you receive: <strong>10</strong></font></div>","null","4","Awesome Apples","Fruit/apple.png","Won","0.8,0.35","13","0.8","68","12","",""
"","","","decision","63f807017a338dfff169fea8","bdp_rwlrn","Wed Mar 15 2023 22:20:53 GMT-0500 (Central Daylight Time)","626480","Trustworthy,Untrustworthy","html-keyboard-response","46","185709","0.0-11.0-1.12","","4512","","<div class='trialDiv'><img src='Fruit/lime.png'><br><font class='baseline'><strong>Limin' Large</strong><p>Choose number of points to bet.</font><div class='respPicDiv'><img src='img/responseButtonOffersNo0L.png' class='respPic'></div></div>","2","5","Limin' Large","Fruit/lime.png","Lost","0.2,0.8","13","0.2","73","13","",""
"","","","decisionFB","63f807017a338dfff169fea8","bdp_rwlrn","Wed Mar 15 2023 22:20:53 GMT-0500 (Central Daylight Time)","626480","Trustworthy,Untrustworthy","html-keyboard-response","47","185975","0.0-11.0-2.12","","null","","<div class='trialDiv'><img src='Fruit/lime.png'><br><font class='baseline'><strong>Limin' Large</strong><p>Choose number of points to bet.</font><div class='respPicDiv'><img src='img/responseButtonOffersNo0L2.png' class='respPic'></div></div>","null","5","Limin' Large","Fruit/lime.png","Lost","0.2,0.8","13","0.2","71","13","",""
"","","","feedback","63f807017a338dfff169fea8","bdp_rwlrn","Wed Mar 15 2023 22:20:53 GMT-0500 (Central Daylight Time)","626480","Trustworthy,Untrustworthy","html-keyboard-response","48","186992","0.0-11.0-3.12","","null","","<div class='respPicDiv'><img src='img/responseButtonOffersNo0_wht.png' class='respPic'></div><div class='trialDiv'><img src='Fruit/lime.png'><br><font class='baseline'><strong>Limin' Large</strong><p><strong><font class='negOutcome'>You LOST</font><p>You bet: 2</strong></font> &nbsp; &nbsp; &nbsp; &nbsp; &nbsp; &nbsp;<font class='negOutcome'>You receive: <strong>0</strong></font></div>","null","5","Limin' Large","Fruit/lime.png","Lost","0.2,0.8","13","0.2","71","13","",""
"","","","decision","63f807017a338dfff169fea8","bdp_rwlrn","Wed Mar 15 2023 22:20:53 GMT-0500 (Central Daylight Time)","626480","Trustworthy,Untrustworthy","html-keyboard-response","49","187820","0.0-11.0-1.13","","827","","<div class='trialDiv'><img src='Fruit/lemon.png'><br><font class='baseline'><strong>Lucky Lemons</strong><p>Choose number of points to bet.</font><div class='respPicDiv'><img src='img/responseButtonOffersNo0L.png' class='respPic'></div></div>","2","5","Lucky Lemons","Fruit/lemon.png","Lost","0.35,0.8","10","0.35","76","14","",""
"","","","decisionFB","63f807017a338dfff169fea8","bdp_rwlrn","Wed Mar 15 2023 22:20:53 GMT-0500 (Central Daylight Time)","626480","Trustworthy,Untrustworthy","html-keyboard-response","50","188084","0.0-11.0-2.13","","null","","<div class='trialDiv'><img src='Fruit/lemon.png'><br><font class='baseline'><strong>Lucky Lemons</strong><p>Choose number of points to bet.</font><div class='respPicDiv'><img src='img/responseButtonOffersNo0L2.png' class='respPic'></div></div>","null","5","Lucky Lemons","Fruit/lemon.png","Lost","0.35,0.8","10","0.35","74","14","",""
"","","","feedback","63f807017a338dfff169fea8","bdp_rwlrn","Wed Mar 15 2023 22:20:53 GMT-0500 (Central Daylight Time)","626480","Trustworthy,Untrustworthy","html-keyboard-response","51","189096","0.0-11.0-3.13","","null","","<div class='respPicDiv'><img src='img/responseButtonOffersNo0_wht.png' class='respPic'></div><div class='trialDiv'><img src='Fruit/lemon.png'><br><font class='baseline'><strong>Lucky Lemons</strong><p><strong><font class='negOutcome'>You LOST</font><p>You bet: 2</strong></font> &nbsp; &nbsp; &nbsp; &nbsp; &nbsp; &nbsp;<font class='negOutcome'>You receive: <strong>0</strong></font></div>","null","5","Lucky Lemons","Fruit/lemon.png","Lost","0.35,0.8","10","0.35","74","14","",""
"","","","decision","63f807017a338dfff169fea8","bdp_rwlrn","Wed Mar 15 2023 22:20:53 GMT-0500 (Central Daylight Time)","626480","Trustworthy,Untrustworthy","html-keyboard-response","52","190302","0.0-11.0-1.14","","1205","","<div class='trialDiv'><img src='Fruit/apple.png'><br><font class='baseline'><strong>Awesome Apples</strong><p>Choose number of points to bet.</font><div class='respPicDiv'><img src='img/responseButtonOffersNo0L.png' class='respPic'></div></div>","5","5","Awesome Apples","Fruit/apple.png","Won","0.8,0.35","13","0.8","79","15","",""
"","","","decisionFB","63f807017a338dfff169fea8","bdp_rwlrn","Wed Mar 15 2023 22:20:53 GMT-0500 (Central Daylight Time)","626480","Trustworthy,Untrustworthy","html-keyboard-response","53","190561","0.0-11.0-2.14","","null","","<div class='trialDiv'><img src='Fruit/apple.png'><br><font class='baseline'><strong>Awesome Apples</strong><p>Choose number of points to bet.</font><div class='respPicDiv'><img src='img/responseButtonOffersNo0L5.png' class='respPic'></div></div>","null","5","Awesome Apples","Fruit/apple.png","Won","0.8,0.35","13","0.8","74","15","",""
"","","","feedback","63f807017a338dfff169fea8","bdp_rwlrn","Wed Mar 15 2023 22:20:53 GMT-0500 (Central Daylight Time)","626480","Trustworthy,Untrustworthy","html-keyboard-response","54","191577","0.0-11.0-3.14","","null","","<div class='respPicDiv'><img src='img/responseButtonOffersNo0_wht.png' class='respPic'></div><div class='trialDiv'><img src='Fruit/apple.png'><br><font class='baseline'><strong>Awesome Apples</strong><p><strong><font class='posOutcome'>You WON</font><p>You bet: 5</strong></font> &nbsp; &nbsp; &nbsp; &nbsp; &nbsp; &nbsp;<font class='posOutcome'>you receive: <strong>10</strong></font></div>","null","5","Awesome Apples","Fruit/apple.png","Won","0.8,0.35","13","0.8","84","15","",""
"","","","decision","63f807017a338dfff169fea8","bdp_rwlrn","Wed Mar 15 2023 22:20:53 GMT-0500 (Central Daylight Time)","626480","Trustworthy,Untrustworthy","html-keyboard-response","55","193935","0.0-11.0-1.15","","2357","","<div class='trialDiv'><img src='Fruit/lemon.png'><br><font class='baseline'><strong>Lucky Lemons</strong><p>Choose number of points to bet.</font><div class='respPicDiv'><img src='img/responseButtonOffersNo0L.png' class='respPic'></div></div>","2","6","Lucky Lemons","Fruit/lemon.png","Won","0.35,0.8","10","0.35","89","16","",""
"","","","decisionFB","63f807017a338dfff169fea8","bdp_rwlrn","Wed Mar 15 2023 22:20:53 GMT-0500 (Central Daylight Time)","626480","Trustworthy,Untrustworthy","html-keyboard-response","56","194199","0.0-11.0-2.15","","null","","<div class='trialDiv'><img src='Fruit/lemon.png'><br><font class='baseline'><strong>Lucky Lemons</strong><p>Choose number of points to bet.</font><div class='respPicDiv'><img src='img/responseButtonOffersNo0L2.png' class='respPic'></div></div>","null","6","Lucky Lemons","Fruit/lemon.png","Won","0.35,0.8","10","0.35","87","16","",""
"","","","feedback","63f807017a338dfff169fea8","bdp_rwlrn","Wed Mar 15 2023 22:20:53 GMT-0500 (Central Daylight Time)","626480","Trustworthy,Untrustworthy","html-keyboard-response","57","195211","0.0-11.0-3.15","","null","","<div class='respPicDiv'><img src='img/responseButtonOffersNo0_wht.png' class='respPic'></div><div class='trialDiv'><img src='Fruit/lemon.png'><br><font class='baseline'><strong>Lucky Lemons</strong><p><strong><font class='posOutcome'>You WON</font><p>You bet: 2</strong></font> &nbsp; &nbsp; &nbsp; &nbsp; &nbsp; &nbsp;<font class='posOutcome'>you receive: <strong>4</strong></font></div>","null","6","Lucky Lemons","Fruit/lemon.png","Won","0.35,0.8","10","0.35","91","16","",""
"","","","decision","63f807017a338dfff169fea8","bdp_rwlrn","Wed Mar 15 2023 22:20:53 GMT-0500 (Central Daylight Time)","626480","Trustworthy,Untrustworthy","html-keyboard-response","58","198756","0.0-11.0-1.16","","3545","","<div class='trialDiv'><img src='Fruit/lime.png'><br><font class='baseline'><strong>Limin' Large</strong><p>Choose number of points to bet.</font><div class='respPicDiv'><img src='img/responseButtonOffersNo0L.png' class='respPic'></div></div>","1","6","Limin' Large","Fruit/lime.png","Lost","0.2,0.8","13","0.2","96","17","",""
"","","","decisionFB","63f807017a338dfff169fea8","bdp_rwlrn","Wed Mar 15 2023 22:20:53 GMT-0500 (Central Daylight Time)","626480","Trustworthy,Untrustworthy","html-keyboard-response","59","199017","0.0-11.0-2.16","","null","","<div class='trialDiv'><img src='Fruit/lime.png'><br><font class='baseline'><strong>Limin' Large</strong><p>Choose number of points to bet.</font><div class='respPicDiv'><img src='img/responseButtonOffersNo0L1.png' class='respPic'></div></div>","null","6","Limin' Large","Fruit/lime.png","Lost","0.2,0.8","13","0.2","95","17","",""
"","","","feedback","63f807017a338dfff169fea8","bdp_rwlrn","Wed Mar 15 2023 22:20:53 GMT-0500 (Central Daylight Time)","626480","Trustworthy,Untrustworthy","html-keyboard-response","60","200030","0.0-11.0-3.16","","null","","<div class='respPicDiv'><img src='img/responseButtonOffersNo0_wht.png' class='respPic'></div><div class='trialDiv'><img src='Fruit/lime.png'><br><font class='baseline'><strong>Limin' Large</strong><p><strong><font class='negOutcome'>You LOST</font><p>You bet: 1</strong></font> &nbsp; &nbsp; &nbsp; &nbsp; &nbsp; &nbsp;<font class='negOutcome'>You receive: <strong>0</strong></font></div>","null","6","Limin' Large","Fruit/lime.png","Lost","0.2,0.8","13","0.2","95","17","",""
"","","","decision","63f807017a338dfff169fea8","bdp_rwlrn","Wed Mar 15 2023 22:20:53 GMT-0500 (Central Daylight Time)","626480","Trustworthy,Untrustworthy","html-keyboard-response","61","201562","0.0-11.0-1.17","","1531","","<div class='trialDiv'><img src='Fruit/apple.png'><br><font class='baseline'><strong>Awesome Apples</strong><p>Choose number of points to bet.</font><div class='respPicDiv'><img src='img/responseButtonOffersNo0L.png' class='respPic'></div></div>","5","6","Awesome Apples","Fruit/apple.png","Won","0.8,0.35","13","0.8","100","18","",""
"","","","decisionFB","63f807017a338dfff169fea8","bdp_rwlrn","Wed Mar 15 2023 22:20:53 GMT-0500 (Central Daylight Time)","626480","Trustworthy,Untrustworthy","html-keyboard-response","62","201826","0.0-11.0-2.17","","null","","<div class='trialDiv'><img src='Fruit/apple.png'><br><font class='baseline'><strong>Awesome Apples</strong><p>Choose number of points to bet.</font><div class='respPicDiv'><img src='img/responseButtonOffersNo0L5.png' class='respPic'></div></div>","null","6","Awesome Apples","Fruit/apple.png","Won","0.8,0.35","13","0.8","95","18","",""
"","","","feedback","63f807017a338dfff169fea8","bdp_rwlrn","Wed Mar 15 2023 22:20:53 GMT-0500 (Central Daylight Time)","626480","Trustworthy,Untrustworthy","html-keyboard-response","63","202840","0.0-11.0-3.17","","null","","<div class='respPicDiv'><img src='img/responseButtonOffersNo0_wht.png' class='respPic'></div><div class='trialDiv'><img src='Fruit/apple.png'><br><font class='baseline'><strong>Awesome Apples</strong><p><strong><font class='posOutcome'>You WON</font><p>You bet: 5</strong></font> &nbsp; &nbsp; &nbsp; &nbsp; &nbsp; &nbsp;<font class='posOutcome'>you receive: <strong>10</strong></font></div>","null","6","Awesome Apples","Fruit/apple.png","Won","0.8,0.35","13","0.8","105","18","",""
"","","","decision","63f807017a338dfff169fea8","bdp_rwlrn","Wed Mar 15 2023 22:20:53 GMT-0500 (Central Daylight Time)","626480","Trustworthy,Untrustworthy","html-keyboard-response","64","203873","0.0-11.0-1.18","","1032","","<div class='trialDiv'><img src='Fruit/lemon.png'><br><font class='baseline'><strong>Lucky Lemons</strong><p>Choose number of points to bet.</font><div class='respPicDiv'><img src='img/responseButtonOffersNo0L.png' class='respPic'></div></div>","1","7","Lucky Lemons","Fruit/lemon.png","Lost","0.35,0.8","10","0.35","110","19","",""
"","","","decisionFB","63f807017a338dfff169fea8","bdp_rwlrn","Wed Mar 15 2023 22:20:53 GMT-0500 (Central Daylight Time)","626480","Trustworthy,Untrustworthy","html-keyboard-response","65","204129","0.0-11.0-2.18","","null","","<div class='trialDiv'><img src='Fruit/lemon.png'><br><font class='baseline'><strong>Lucky Lemons</strong><p>Choose number of points to bet.</font><div class='respPicDiv'><img src='img/responseButtonOffersNo0L1.png' class='respPic'></div></div>","null","7","Lucky Lemons","Fruit/lemon.png","Lost","0.35,0.8","10","0.35","109","19","",""
"","","","feedback","63f807017a338dfff169fea8","bdp_rwlrn","Wed Mar 15 2023 22:20:53 GMT-0500 (Central Daylight Time)","626480","Trustworthy,Untrustworthy","html-keyboard-response","66","205139","0.0-11.0-3.18","","null","","<div class='respPicDiv'><img src='img/responseButtonOffersNo0_wht.png' class='respPic'></div><div class='trialDiv'><img src='Fruit/lemon.png'><br><font class='baseline'><strong>Lucky Lemons</strong><p><strong><font class='negOutcome'>You LOST</font><p>You bet: 1</strong></font> &nbsp; &nbsp; &nbsp; &nbsp; &nbsp; &nbsp;<font class='negOutcome'>You receive: <strong>0</strong></font></div>","null","7","Lucky Lemons","Fruit/lemon.png","Lost","0.35,0.8","10","0.35","109","19","",""
"","","","decision","63f807017a338dfff169fea8","bdp_rwlrn","Wed Mar 15 2023 22:20:53 GMT-0500 (Central Daylight Time)","626480","Trustworthy,Untrustworthy","html-keyboard-response","67","206348","0.0-11.0-1.19","","1208","","<div class='trialDiv'><img src='Fruit/lime.png'><br><font class='baseline'><strong>Limin' Large</strong><p>Choose number of points to bet.</font><div class='respPicDiv'><img src='img/responseButtonOffersNo0L.png' class='respPic'></div></div>","1","7","Limin' Large","Fruit/lime.png","Lost","0.2,0.8","13","0.2","114","20","",""
"","","","decisionFB","63f807017a338dfff169fea8","bdp_rwlrn","Wed Mar 15 2023 22:20:53 GMT-0500 (Central Daylight Time)","626480","Trustworthy,Untrustworthy","html-keyboard-response","68","206603","0.0-11.0-2.19","","null","","<div class='trialDiv'><img src='Fruit/lime.png'><br><font class='baseline'><strong>Limin' Large</strong><p>Choose number of points to bet.</font><div class='respPicDiv'><img src='img/responseButtonOffersNo0L1.png' class='respPic'></div></div>","null","7","Limin' Large","Fruit/lime.png","Lost","0.2,0.8","13","0.2","113","20","",""
"","","","feedback","63f807017a338dfff169fea8","bdp_rwlrn","Wed Mar 15 2023 22:20:53 GMT-0500 (Central Daylight Time)","626480","Trustworthy,Untrustworthy","html-keyboard-response","69","207606","0.0-11.0-3.19","","null","","<div class='respPicDiv'><img src='img/responseButtonOffersNo0_wht.png' class='respPic'></div><div class='trialDiv'><img src='Fruit/lime.png'><br><font class='baseline'><strong>Limin' Large</strong><p><strong><font class='negOutcome'>You LOST</font><p>You bet: 1</strong></font> &nbsp; &nbsp; &nbsp; &nbsp; &nbsp; &nbsp;<font class='negOutcome'>You receive: <strong>0</strong></font></div>","null","7","Limin' Large","Fruit/lime.png","Lost","0.2,0.8","13","0.2","113","20","",""
"","","","decision","63f807017a338dfff169fea8","bdp_rwlrn","Wed Mar 15 2023 22:20:53 GMT-0500 (Central Daylight Time)","626480","Trustworthy,Untrustworthy","html-keyboard-response","70","208800","0.0-11.0-1.20","","1193","","<div class='trialDiv'><img src='Fruit/apple.png'><br><font class='baseline'><strong>Awesome Apples</strong><p>Choose number of points to bet.</font><div class='respPicDiv'><img src='img/responseButtonOffersNo0L.png' class='respPic'></div></div>","5","7","Awesome Apples","Fruit/apple.png","Won","0.8,0.35","13","0.8","118","21","",""
"","","","decisionFB","63f807017a338dfff169fea8","bdp_rwlrn","Wed Mar 15 2023 22:20:53 GMT-0500 (Central Daylight Time)","626480","Trustworthy,Untrustworthy","html-keyboard-response","71","209057","0.0-11.0-2.20","","null","","<div class='trialDiv'><img src='Fruit/apple.png'><br><font class='baseline'><strong>Awesome Apples</strong><p>Choose number of points to bet.</font><div class='respPicDiv'><img src='img/responseButtonOffersNo0L5.png' class='respPic'></div></div>","null","7","Awesome Apples","Fruit/apple.png","Won","0.8,0.35","13","0.8","113","21","",""
"","","","feedback","63f807017a338dfff169fea8","bdp_rwlrn","Wed Mar 15 2023 22:20:53 GMT-0500 (Central Daylight Time)","626480","Trustworthy,Untrustworthy","html-keyboard-response","72","210067","0.0-11.0-3.20","","null","","<div class='respPicDiv'><img src='img/responseButtonOffersNo0_wht.png' class='respPic'></div><div class='trialDiv'><img src='Fruit/apple.png'><br><font class='baseline'><strong>Awesome Apples</strong><p><strong><font class='posOutcome'>You WON</font><p>You bet: 5</strong></font> &nbsp; &nbsp; &nbsp; &nbsp; &nbsp; &nbsp;<font class='posOutcome'>you receive: <strong>10</strong></font></div>","null","7","Awesome Apples","Fruit/apple.png","Won","0.8,0.35","13","0.8","123","21","",""
"","","","decision","63f807017a338dfff169fea8","bdp_rwlrn","Wed Mar 15 2023 22:20:53 GMT-0500 (Central Daylight Time)","626480","Trustworthy,Untrustworthy","html-keyboard-response","73","210526","0.0-11.0-1.21","","458","","<div class='trialDiv'><img src='Fruit/lemon.png'><br><font class='baseline'><strong>Lucky Lemons</strong><p>Choose number of points to bet.</font><div class='respPicDiv'><img src='img/responseButtonOffersNo0L.png' class='respPic'></div></div>","1","8","Lucky Lemons","Fruit/lemon.png","Lost","0.35,0.8","10","0.35","128","22","",""
"","","","decisionFB","63f807017a338dfff169fea8","bdp_rwlrn","Wed Mar 15 2023 22:20:53 GMT-0500 (Central Daylight Time)","626480","Trustworthy,Untrustworthy","html-keyboard-response","74","210783","0.0-11.0-2.21","","null","","<div class='trialDiv'><img src='Fruit/lemon.png'><br><font class='baseline'><strong>Lucky Lemons</strong><p>Choose number of points to bet.</font><div class='respPicDiv'><img src='img/responseButtonOffersNo0L1.png' class='respPic'></div></div>","null","8","Lucky Lemons","Fruit/lemon.png","Lost","0.35,0.8","10","0.35","127","22","",""
"","","","feedback","63f807017a338dfff169fea8","bdp_rwlrn","Wed Mar 15 2023 22:20:53 GMT-0500 (Central Daylight Time)","626480","Trustworthy,Untrustworthy","html-keyboard-response","75","211794","0.0-11.0-3.21","","null","","<div class='respPicDiv'><img src='img/responseButtonOffersNo0_wht.png' class='respPic'></div><div class='trialDiv'><img src='Fruit/lemon.png'><br><font class='baseline'><strong>Lucky Lemons</strong><p><strong><font class='negOutcome'>You LOST</font><p>You bet: 1</strong></font> &nbsp; &nbsp; &nbsp; &nbsp; &nbsp; &nbsp;<font class='negOutcome'>You receive: <strong>0</strong></font></div>","null","8","Lucky Lemons","Fruit/lemon.png","Lost","0.35,0.8","10","0.35","127","22","",""
"","","","decision","63f807017a338dfff169fea8","bdp_rwlrn","Wed Mar 15 2023 22:20:53 GMT-0500 (Central Daylight Time)","626480","Trustworthy,Untrustworthy","html-keyboard-response","76","213186","0.0-11.0-1.22","","1391","","<div class='trialDiv'><img src='Fruit/apple.png'><br><font class='baseline'><strong>Awesome Apples</strong><p>Choose number of points to bet.</font><div class='respPicDiv'><img src='img/responseButtonOffersNo0L.png' class='respPic'></div></div>","5","8","Awesome Apples","Fruit/apple.png","Won","0.8,0.35","13","0.8","132","23","",""
"","","","decisionFB","63f807017a338dfff169fea8","bdp_rwlrn","Wed Mar 15 2023 22:20:53 GMT-0500 (Central Daylight Time)","626480","Trustworthy,Untrustworthy","html-keyboard-response","77","213442","0.0-11.0-2.22","","null","","<div class='trialDiv'><img src='Fruit/apple.png'><br><font class='baseline'><strong>Awesome Apples</strong><p>Choose number of points to bet.</font><div class='respPicDiv'><img src='img/responseButtonOffersNo0L5.png' class='respPic'></div></div>","null","8","Awesome Apples","Fruit/apple.png","Won","0.8,0.35","13","0.8","127","23","",""
"","","","feedback","63f807017a338dfff169fea8","bdp_rwlrn","Wed Mar 15 2023 22:20:53 GMT-0500 (Central Daylight Time)","626480","Trustworthy,Untrustworthy","html-keyboard-response","78","214457","0.0-11.0-3.22","","null","","<div class='respPicDiv'><img src='img/responseButtonOffersNo0_wht.png' class='respPic'></div><div class='trialDiv'><img src='Fruit/apple.png'><br><font class='baseline'><strong>Awesome Apples</strong><p><strong><font class='posOutcome'>You WON</font><p>You bet: 5</strong></font> &nbsp; &nbsp; &nbsp; &nbsp; &nbsp; &nbsp;<font class='posOutcome'>you receive: <strong>10</strong></font></div>","null","8","Awesome Apples","Fruit/apple.png","Won","0.8,0.35","13","0.8","137","23","",""
"","","","decision","63f807017a338dfff169fea8","bdp_rwlrn","Wed Mar 15 2023 22:20:53 GMT-0500 (Central Daylight Time)","626480","Trustworthy,Untrustworthy","html-keyboard-response","79","215353","0.0-11.0-1.23","","895","","<div class='trialDiv'><img src='Fruit/lime.png'><br><font class='baseline'><strong>Limin' Large</strong><p>Choose number of points to bet.</font><div class='respPicDiv'><img src='img/responseButtonOffersNo0L.png' class='respPic'></div></div>","1","8","Limin' Large","Fruit/lime.png","Won","0.2,0.8","13","0.2","142","24","",""
"","","","decisionFB","63f807017a338dfff169fea8","bdp_rwlrn","Wed Mar 15 2023 22:20:53 GMT-0500 (Central Daylight Time)","626480","Trustworthy,Untrustworthy","html-keyboard-response","80","215609","0.0-11.0-2.23","","null","","<div class='trialDiv'><img src='Fruit/lime.png'><br><font class='baseline'><strong>Limin' Large</strong><p>Choose number of points to bet.</font><div class='respPicDiv'><img src='img/responseButtonOffersNo0L1.png' class='respPic'></div></div>","null","8","Limin' Large","Fruit/lime.png","Won","0.2,0.8","13","0.2","141","24","",""
"","","","feedback","63f807017a338dfff169fea8","bdp_rwlrn","Wed Mar 15 2023 22:20:53 GMT-0500 (Central Daylight Time)","626480","Trustworthy,Untrustworthy","html-keyboard-response","81","216620","0.0-11.0-3.23","","null","","<div class='respPicDiv'><img src='img/responseButtonOffersNo0_wht.png' class='respPic'></div><div class='trialDiv'><img src='Fruit/lime.png'><br><font class='baseline'><strong>Limin' Large</strong><p><strong><font class='posOutcome'>You WON</font><p>You bet: 1</strong></font> &nbsp; &nbsp; &nbsp; &nbsp; &nbsp; &nbsp;<font class='posOutcome'>you receive: <strong>2</strong></font></div>","null","8","Limin' Large","Fruit/lime.png","Won","0.2,0.8","13","0.2","143","24","",""
"","","","decision","63f807017a338dfff169fea8","bdp_rwlrn","Wed Mar 15 2023 22:20:53 GMT-0500 (Central Daylight Time)","626480","Trustworthy,Untrustworthy","html-keyboard-response","82","217605","0.0-11.0-1.24","","984","","<div class='trialDiv'><img src='Fruit/apple.png'><br><font class='baseline'><strong>Awesome Apples</strong><p>Choose number of points to bet.</font><div class='respPicDiv'><img src='img/responseButtonOffersNo0L.png' class='respPic'></div></div>","5","9","Awesome Apples","Fruit/apple.png","Lost","0.8,0.35","13","0.8","148","25","",""
"","","","decisionFB","63f807017a338dfff169fea8","bdp_rwlrn","Wed Mar 15 2023 22:20:53 GMT-0500 (Central Daylight Time)","626480","Trustworthy,Untrustworthy","html-keyboard-response","83","217869","0.0-11.0-2.24","","null","","<div class='trialDiv'><img src='Fruit/apple.png'><br><font class='baseline'><strong>Awesome Apples</strong><p>Choose number of points to bet.</font><div class='respPicDiv'><img src='img/responseButtonOffersNo0L5.png' class='respPic'></div></div>","null","9","Awesome Apples","Fruit/apple.png","Lost","0.8,0.35","13","0.8","143","25","",""
"","","","feedback","63f807017a338dfff169fea8","bdp_rwlrn","Wed Mar 15 2023 22:20:53 GMT-0500 (Central Daylight Time)","626480","Trustworthy,Untrustworthy","html-keyboard-response","84","218878","0.0-11.0-3.24","","null","","<div class='respPicDiv'><img src='img/responseButtonOffersNo0_wht.png' class='respPic'></div><div class='trialDiv'><img src='Fruit/apple.png'><br><font class='baseline'><strong>Awesome Apples</strong><p><strong><font class='negOutcome'>You LOST</font><p>You bet: 5</strong></font> &nbsp; &nbsp; &nbsp; &nbsp; &nbsp; &nbsp;<font class='negOutcome'>You receive: <strong>0</strong></font></div>","null","9","Awesome Apples","Fruit/apple.png","Lost","0.8,0.35","13","0.8","143","25","",""
"","","","decision","63f807017a338dfff169fea8","bdp_rwlrn","Wed Mar 15 2023 22:20:53 GMT-0500 (Central Daylight Time)","626480","Trustworthy,Untrustworthy","html-keyboard-response","85","220771","0.0-11.0-1.25","","1891","","<div class='trialDiv'><img src='Fruit/lemon.png'><br><font class='baseline'><strong>Lucky Lemons</strong><p>Choose number of points to bet.</font><div class='respPicDiv'><img src='img/responseButtonOffersNo0L.png' class='respPic'></div></div>","1","9","Lucky Lemons","Fruit/lemon.png","Lost","0.35,0.8","10","0.35","148","26","",""
"","","","decisionFB","63f807017a338dfff169fea8","bdp_rwlrn","Wed Mar 15 2023 22:20:53 GMT-0500 (Central Daylight Time)","626480","Trustworthy,Untrustworthy","html-keyboard-response","86","221029","0.0-11.0-2.25","","null","","<div class='trialDiv'><img src='Fruit/lemon.png'><br><font class='baseline'><strong>Lucky Lemons</strong><p>Choose number of points to bet.</font><div class='respPicDiv'><img src='img/responseButtonOffersNo0L1.png' class='respPic'></div></div>","null","9","Lucky Lemons","Fruit/lemon.png","Lost","0.35,0.8","10","0.35","147","26","",""
"","","","feedback","63f807017a338dfff169fea8","bdp_rwlrn","Wed Mar 15 2023 22:20:53 GMT-0500 (Central Daylight Time)","626480","Trustworthy,Untrustworthy","html-keyboard-response","87","222042","0.0-11.0-3.25","","null","","<div class='respPicDiv'><img src='img/responseButtonOffersNo0_wht.png' class='respPic'></div><div class='trialDiv'><img src='Fruit/lemon.png'><br><font class='baseline'><strong>Lucky Lemons</strong><p><strong><font class='negOutcome'>You LOST</font><p>You bet: 1</strong></font> &nbsp; &nbsp; &nbsp; &nbsp; &nbsp; &nbsp;<font class='negOutcome'>You receive: <strong>0</strong></font></div>","null","9","Lucky Lemons","Fruit/lemon.png","Lost","0.35,0.8","10","0.35","147","26","",""
"","","","decision","63f807017a338dfff169fea8","bdp_rwlrn","Wed Mar 15 2023 22:20:53 GMT-0500 (Central Daylight Time)","626480","Trustworthy,Untrustworthy","html-keyboard-response","88","222713","0.0-11.0-1.26","","669","","<div class='trialDiv'><img src='Fruit/lime.png'><br><font class='baseline'><strong>Limin' Large</strong><p>Choose number of points to bet.</font><div class='respPicDiv'><img src='img/responseButtonOffersNo0L.png' class='respPic'></div></div>","1","9","Limin' Large","Fruit/lime.png","Lost","0.2,0.8","13","0.2","152","27","",""
"","","","decisionFB","63f807017a338dfff169fea8","bdp_rwlrn","Wed Mar 15 2023 22:20:53 GMT-0500 (Central Daylight Time)","626480","Trustworthy,Untrustworthy","html-keyboard-response","89","222976","0.0-11.0-2.26","","null","","<div class='trialDiv'><img src='Fruit/lime.png'><br><font class='baseline'><strong>Limin' Large</strong><p>Choose number of points to bet.</font><div class='respPicDiv'><img src='img/responseButtonOffersNo0L1.png' class='respPic'></div></div>","null","9","Limin' Large","Fruit/lime.png","Lost","0.2,0.8","13","0.2","151","27","",""
"","","","feedback","63f807017a338dfff169fea8","bdp_rwlrn","Wed Mar 15 2023 22:20:53 GMT-0500 (Central Daylight Time)","626480","Trustworthy,Untrustworthy","html-keyboard-response","90","223990","0.0-11.0-3.26","","null","","<div class='respPicDiv'><img src='img/responseButtonOffersNo0_wht.png' class='respPic'></div><div class='trialDiv'><img src='Fruit/lime.png'><br><font class='baseline'><strong>Limin' Large</strong><p><strong><font class='negOutcome'>You LOST</font><p>You bet: 1</strong></font> &nbsp; &nbsp; &nbsp; &nbsp; &nbsp; &nbsp;<font class='negOutcome'>You receive: <strong>0</strong></font></div>","null","9","Limin' Large","Fruit/lime.png","Lost","0.2,0.8","13","0.2","151","27","",""
"","","","decision","63f807017a338dfff169fea8","bdp_rwlrn","Wed Mar 15 2023 22:20:53 GMT-0500 (Central Daylight Time)","626480","Trustworthy,Untrustworthy","html-keyboard-response","91","224500","0.0-11.0-1.27","","509","","<div class='trialDiv'><img src='Fruit/apple.png'><br><font class='baseline'><strong>Awesome Apples</strong><p>Choose number of points to bet.</font><div class='respPicDiv'><img src='img/responseButtonOffersNo0L.png' class='respPic'></div></div>","5","10","Awesome Apples","Fruit/apple.png","Won","0.8,0.35","13","0.8","156","28","",""
"","","","decisionFB","63f807017a338dfff169fea8","bdp_rwlrn","Wed Mar 15 2023 22:20:53 GMT-0500 (Central Daylight Time)","626480","Trustworthy,Untrustworthy","html-keyboard-response","92","224766","0.0-11.0-2.27","","null","","<div class='trialDiv'><img src='Fruit/apple.png'><br><font class='baseline'><strong>Awesome Apples</strong><p>Choose number of points to bet.</font><div class='respPicDiv'><img src='img/responseButtonOffersNo0L5.png' class='respPic'></div></div>","null","10","Awesome Apples","Fruit/apple.png","Won","0.8,0.35","13","0.8","151","28","",""
"","","","feedback","63f807017a338dfff169fea8","bdp_rwlrn","Wed Mar 15 2023 22:20:53 GMT-0500 (Central Daylight Time)","626480","Trustworthy,Untrustworthy","html-keyboard-response","93","225779","0.0-11.0-3.27","","null","","<div class='respPicDiv'><img src='img/responseButtonOffersNo0_wht.png' class='respPic'></div><div class='trialDiv'><img src='Fruit/apple.png'><br><font class='baseline'><strong>Awesome Apples</strong><p><strong><font class='posOutcome'>You WON</font><p>You bet: 5</strong></font> &nbsp; &nbsp; &nbsp; &nbsp; &nbsp; &nbsp;<font class='posOutcome'>you receive: <strong>10</strong></font></div>","null","10","Awesome Apples","Fruit/apple.png","Won","0.8,0.35","13","0.8","161","28","",""
"","","","decision","63f807017a338dfff169fea8","bdp_rwlrn","Wed Mar 15 2023 22:20:53 GMT-0500 (Central Daylight Time)","626480","Trustworthy,Untrustworthy","html-keyboard-response","94","226705","0.0-11.0-1.28","","924","","<div class='trialDiv'><img src='Fruit/lemon.png'><br><font class='baseline'><strong>Lucky Lemons</strong><p>Choose number of points to bet.</font><div class='respPicDiv'><img src='img/responseButtonOffersNo0L.png' class='respPic'></div></div>","1","10","Lucky Lemons","Fruit/lemon.png","Won","0.35,0.8","10","0.35","166","29","",""
"","","","decisionFB","63f807017a338dfff169fea8","bdp_rwlrn","Wed Mar 15 2023 22:20:53 GMT-0500 (Central Daylight Time)","626480","Trustworthy,Untrustworthy","html-keyboard-response","95","226965","0.0-11.0-2.28","","null","","<div class='trialDiv'><img src='Fruit/lemon.png'><br><font class='baseline'><strong>Lucky Lemons</strong><p>Choose number of points to bet.</font><div class='respPicDiv'><img src='img/responseButtonOffersNo0L1.png' class='respPic'></div></div>","null","10","Lucky Lemons","Fruit/lemon.png","Won","0.35,0.8","10","0.35","165","29","",""
"","","","feedback","63f807017a338dfff169fea8","bdp_rwlrn","Wed Mar 15 2023 22:20:53 GMT-0500 (Central Daylight Time)","626480","Trustworthy,Untrustworthy","html-keyboard-response","96","227976","0.0-11.0-3.28","","null","","<div class='respPicDiv'><img src='img/responseButtonOffersNo0_wht.png' class='respPic'></div><div class='trialDiv'><img src='Fruit/lemon.png'><br><font class='baseline'><strong>Lucky Lemons</strong><p><strong><font class='posOutcome'>You WON</font><p>You bet: 1</strong></font> &nbsp; &nbsp; &nbsp; &nbsp; &nbsp; &nbsp;<font class='posOutcome'>you receive: <strong>2</strong></font></div>","null","10","Lucky Lemons","Fruit/lemon.png","Won","0.35,0.8","10","0.35","167","29","",""
"","","","decision","63f807017a338dfff169fea8","bdp_rwlrn","Wed Mar 15 2023 22:20:53 GMT-0500 (Central Daylight Time)","626480","Trustworthy,Untrustworthy","html-keyboard-response","97","228573","0.0-11.0-1.29","","596","","<div class='trialDiv'><img src='Fruit/lime.png'><br><font class='baseline'><strong>Limin' Large</strong><p>Choose number of points to bet.</font><div class='respPicDiv'><img src='img/responseButtonOffersNo0L.png' class='respPic'></div></div>","1","10","Limin' Large","Fruit/lime.png","Lost","0.2,0.8","13","0.2","172","30","",""
"","","","decisionFB","63f807017a338dfff169fea8","bdp_rwlrn","Wed Mar 15 2023 22:20:53 GMT-0500 (Central Daylight Time)","626480","Trustworthy,Untrustworthy","html-keyboard-response","98","228833","0.0-11.0-2.29","","null","","<div class='trialDiv'><img src='Fruit/lime.png'><br><font class='baseline'><strong>Limin' Large</strong><p>Choose number of points to bet.</font><div class='respPicDiv'><img src='img/responseButtonOffersNo0L1.png' class='respPic'></div></div>","null","10","Limin' Large","Fruit/lime.png","Lost","0.2,0.8","13","0.2","171","30","",""
"","","","feedback","63f807017a338dfff169fea8","bdp_rwlrn","Wed Mar 15 2023 22:20:53 GMT-0500 (Central Daylight Time)","626480","Trustworthy,Untrustworthy","html-keyboard-response","99","229849","0.0-11.0-3.29","","null","","<div class='respPicDiv'><img src='img/responseButtonOffersNo0_wht.png' class='respPic'></div><div class='trialDiv'><img src='Fruit/lime.png'><br><font class='baseline'><strong>Limin' Large</strong><p><strong><font class='negOutcome'>You LOST</font><p>You bet: 1</strong></font> &nbsp; &nbsp; &nbsp; &nbsp; &nbsp; &nbsp;<font class='negOutcome'>You receive: <strong>0</strong></font></div>","null","10","Limin' Large","Fruit/lime.png","Lost","0.2,0.8","13","0.2","171","30","",""
"","","","decision","63f807017a338dfff169fea8","bdp_rwlrn","Wed Mar 15 2023 22:20:53 GMT-0500 (Central Daylight Time)","626480","Trustworthy,Untrustworthy","html-keyboard-response","100","230638","0.0-11.0-1.30","","788","","<div class='trialDiv'><img src='Fruit/apple.png'><br><font class='baseline'><strong>Awesome Apples</strong><p>Choose number of points to bet.</font><div class='respPicDiv'><img src='img/responseButtonOffersNo0L.png' class='respPic'></div></div>","5","11","Awesome Apples","Fruit/apple.png","Won","0.8,0.35","13","0.8","176","31","",""
"","","","decisionFB","63f807017a338dfff169fea8","bdp_rwlrn","Wed Mar 15 2023 22:20:53 GMT-0500 (Central Daylight Time)","626480","Trustworthy,Untrustworthy","html-keyboard-response","101","230895","0.0-11.0-2.30","","null","","<div class='trialDiv'><img src='Fruit/apple.png'><br><font class='baseline'><strong>Awesome Apples</strong><p>Choose number of points to bet.</font><div class='respPicDiv'><img src='img/responseButtonOffersNo0L5.png' class='respPic'></div></div>","null","11","Awesome Apples","Fruit/apple.png","Won","0.8,0.35","13","0.8","171","31","",""
"","","","feedback","63f807017a338dfff169fea8","bdp_rwlrn","Wed Mar 15 2023 22:20:53 GMT-0500 (Central Daylight Time)","626480","Trustworthy,Untrustworthy","html-keyboard-response","102","231910","0.0-11.0-3.30","","null","","<div class='respPicDiv'><img src='img/responseButtonOffersNo0_wht.png' class='respPic'></div><div class='trialDiv'><img src='Fruit/apple.png'><br><font class='baseline'><strong>Awesome Apples</strong><p><strong><font class='posOutcome'>You WON</font><p>You bet: 5</strong></font> &nbsp; &nbsp; &nbsp; &nbsp; &nbsp; &nbsp;<font class='posOutcome'>you receive: <strong>10</strong></font></div>","null","11","Awesome Apples","Fruit/apple.png","Won","0.8,0.35","13","0.8","181","31","",""
"","","","decision","63f807017a338dfff169fea8","bdp_rwlrn","Wed Mar 15 2023 22:20:53 GMT-0500 (Central Daylight Time)","626480","Trustworthy,Untrustworthy","html-keyboard-response","103","232562","0.0-11.0-1.31","","652","","<div class='trialDiv'><img src='Fruit/lemon.png'><br><font class='baseline'><strong>Lucky Lemons</strong><p>Choose number of points to bet.</font><div class='respPicDiv'><img src='img/responseButtonOffersNo0L.png' class='respPic'></div></div>","1","11","Lucky Lemons","Fruit/lemon.png","Won","0.35,0.8","10","0.35","186","32","",""
"","","","decisionFB","63f807017a338dfff169fea8","bdp_rwlrn","Wed Mar 15 2023 22:20:53 GMT-0500 (Central Daylight Time)","626480","Trustworthy,Untrustworthy","html-keyboard-response","104","232827","0.0-11.0-2.31","","null","","<div class='trialDiv'><img src='Fruit/lemon.png'><br><font class='baseline'><strong>Lucky Lemons</strong><p>Choose number of points to bet.</font><div class='respPicDiv'><img src='img/responseButtonOffersNo0L1.png' class='respPic'></div></div>","null","11","Lucky Lemons","Fruit/lemon.png","Won","0.35,0.8","10","0.35","185","32","",""
"","","","feedback","63f807017a338dfff169fea8","bdp_rwlrn","Wed Mar 15 2023 22:20:53 GMT-0500 (Central Daylight Time)","626480","Trustworthy,Untrustworthy","html-keyboard-response","105","233840","0.0-11.0-3.31","","null","","<div class='respPicDiv'><img src='img/responseButtonOffersNo0_wht.png' class='respPic'></div><div class='trialDiv'><img src='Fruit/lemon.png'><br><font class='baseline'><strong>Lucky Lemons</strong><p><strong><font class='posOutcome'>You WON</font><p>You bet: 1</strong></font> &nbsp; &nbsp; &nbsp; &nbsp; &nbsp; &nbsp;<font class='posOutcome'>you receive: <strong>2</strong></font></div>","null","11","Lucky Lemons","Fruit/lemon.png","Won","0.35,0.8","10","0.35","187","32","",""
"","","","decision","63f807017a338dfff169fea8","bdp_rwlrn","Wed Mar 15 2023 22:20:53 GMT-0500 (Central Daylight Time)","626480","Trustworthy,Untrustworthy","html-keyboard-response","106","234457","0.0-11.0-1.32","","615","","<div class='trialDiv'><img src='Fruit/lime.png'><br><font class='baseline'><strong>Limin' Large</strong><p>Choose number of points to bet.</font><div class='respPicDiv'><img src='img/responseButtonOffersNo0L.png' class='respPic'></div></div>","1","11","Limin' Large","Fruit/lime.png","Lost","0.2,0.8","13","0.2","192","33","",""
"","","","decisionFB","63f807017a338dfff169fea8","bdp_rwlrn","Wed Mar 15 2023 22:20:53 GMT-0500 (Central Daylight Time)","626480","Trustworthy,Untrustworthy","html-keyboard-response","107","234712","0.0-11.0-2.32","","null","","<div class='trialDiv'><img src='Fruit/lime.png'><br><font class='baseline'><strong>Limin' Large</strong><p>Choose number of points to bet.</font><div class='respPicDiv'><img src='img/responseButtonOffersNo0L1.png' class='respPic'></div></div>","null","11","Limin' Large","Fruit/lime.png","Lost","0.2,0.8","13","0.2","191","33","",""
"","","","feedback","63f807017a338dfff169fea8","bdp_rwlrn","Wed Mar 15 2023 22:20:53 GMT-0500 (Central Daylight Time)","626480","Trustworthy,Untrustworthy","html-keyboard-response","108","235724","0.0-11.0-3.32","","null","","<div class='respPicDiv'><img src='img/responseButtonOffersNo0_wht.png' class='respPic'></div><div class='trialDiv'><img src='Fruit/lime.png'><br><font class='baseline'><strong>Limin' Large</strong><p><strong><font class='negOutcome'>You LOST</font><p>You bet: 1</strong></font> &nbsp; &nbsp; &nbsp; &nbsp; &nbsp; &nbsp;<font class='negOutcome'>You receive: <strong>0</strong></font></div>","null","11","Limin' Large","Fruit/lime.png","Lost","0.2,0.8","13","0.2","191","33","",""
"","","","decision","63f807017a338dfff169fea8","bdp_rwlrn","Wed Mar 15 2023 22:20:53 GMT-0500 (Central Daylight Time)","626480","Trustworthy,Untrustworthy","html-keyboard-response","109","236399","0.0-11.0-1.33","","674","","<div class='trialDiv'><img src='Fruit/lemon.png'><br><font class='baseline'><strong>Lucky Lemons</strong><p>Choose number of points to bet.</font><div class='respPicDiv'><img src='img/responseButtonOffersNo0L.png' class='respPic'></div></div>","1","12","Lucky Lemons","Fruit/lemon.png","Lost","0.35,0.8","10","0.35","196","34","",""
"","","","decisionFB","63f807017a338dfff169fea8","bdp_rwlrn","Wed Mar 15 2023 22:20:53 GMT-0500 (Central Daylight Time)","626480","Trustworthy,Untrustworthy","html-keyboard-response","110","236659","0.0-11.0-2.33","","null","","<div class='trialDiv'><img src='Fruit/lemon.png'><br><font class='baseline'><strong>Lucky Lemons</strong><p>Choose number of points to bet.</font><div class='respPicDiv'><img src='img/responseButtonOffersNo0L1.png' class='respPic'></div></div>","null","12","Lucky Lemons","Fruit/lemon.png","Lost","0.35,0.8","10","0.35","195","34","",""
"","","","feedback","63f807017a338dfff169fea8","bdp_rwlrn","Wed Mar 15 2023 22:20:53 GMT-0500 (Central Daylight Time)","626480","Trustworthy,Untrustworthy","html-keyboard-response","111","237673","0.0-11.0-3.33","","null","","<div class='respPicDiv'><img src='img/responseButtonOffersNo0_wht.png' class='respPic'></div><div class='trialDiv'><img src='Fruit/lemon.png'><br><font class='baseline'><strong>Lucky Lemons</strong><p><strong><font class='negOutcome'>You LOST</font><p>You bet: 1</strong></font> &nbsp; &nbsp; &nbsp; &nbsp; &nbsp; &nbsp;<font class='negOutcome'>You receive: <strong>0</strong></font></div>","null","12","Lucky Lemons","Fruit/lemon.png","Lost","0.35,0.8","10","0.35","195","34","",""
"","","","decision","63f807017a338dfff169fea8","bdp_rwlrn","Wed Mar 15 2023 22:20:53 GMT-0500 (Central Daylight Time)","626480","Trustworthy,Untrustworthy","html-keyboard-response","112","238288","0.0-11.0-1.34","","614","","<div class='trialDiv'><img src='Fruit/lime.png'><br><font class='baseline'><strong>Limin' Large</strong><p>Choose number of points to bet.</font><div class='respPicDiv'><img src='img/responseButtonOffersNo0L.png' class='respPic'></div></div>","1","12","Limin' Large","Fruit/lime.png","Lost","0.2,0.8","13","0.2","200","35","",""
"","","","decisionFB","63f807017a338dfff169fea8","bdp_rwlrn","Wed Mar 15 2023 22:20:53 GMT-0500 (Central Daylight Time)","626480","Trustworthy,Untrustworthy","html-keyboard-response","113","238547","0.0-11.0-2.34","","null","","<div class='trialDiv'><img src='Fruit/lime.png'><br><font class='baseline'><strong>Limin' Large</strong><p>Choose number of points to bet.</font><div class='respPicDiv'><img src='img/responseButtonOffersNo0L1.png' class='respPic'></div></div>","null","12","Limin' Large","Fruit/lime.png","Lost","0.2,0.8","13","0.2","199","35","",""
"","","","feedback","63f807017a338dfff169fea8","bdp_rwlrn","Wed Mar 15 2023 22:20:53 GMT-0500 (Central Daylight Time)","626480","Trustworthy,Untrustworthy","html-keyboard-response","114","239563","0.0-11.0-3.34","","null","","<div class='respPicDiv'><img src='img/responseButtonOffersNo0_wht.png' class='respPic'></div><div class='trialDiv'><img src='Fruit/lime.png'><br><font class='baseline'><strong>Limin' Large</strong><p><strong><font class='negOutcome'>You LOST</font><p>You bet: 1</strong></font> &nbsp; &nbsp; &nbsp; &nbsp; &nbsp; &nbsp;<font class='negOutcome'>You receive: <strong>0</strong></font></div>","null","12","Limin' Large","Fruit/lime.png","Lost","0.2,0.8","13","0.2","199","35","",""
"","","","decision","63f807017a338dfff169fea8","bdp_rwlrn","Wed Mar 15 2023 22:20:53 GMT-0500 (Central Daylight Time)","626480","Trustworthy,Untrustworthy","html-keyboard-response","115","240135","0.0-11.0-1.35","","571","","<div class='trialDiv'><img src='Fruit/apple.png'><br><font class='baseline'><strong>Awesome Apples</strong><p>Choose number of points to bet.</font><div class='respPicDiv'><img src='img/responseButtonOffersNo0L.png' class='respPic'></div></div>","5","12","Awesome Apples","Fruit/apple.png","Won","0.8,0.35","13","0.8","204","36","",""
"","","","decisionFB","63f807017a338dfff169fea8","bdp_rwlrn","Wed Mar 15 2023 22:20:53 GMT-0500 (Central Daylight Time)","626480","Trustworthy,Untrustworthy","html-keyboard-response","116","240389","0.0-11.0-2.35","","null","","<div class='trialDiv'><img src='Fruit/apple.png'><br><font class='baseline'><strong>Awesome Apples</strong><p>Choose number of points to bet.</font><div class='respPicDiv'><img src='img/responseButtonOffersNo0L5.png' class='respPic'></div></div>","null","12","Awesome Apples","Fruit/apple.png","Won","0.8,0.35","13","0.8","199","36","",""
"","","","feedback","63f807017a338dfff169fea8","bdp_rwlrn","Wed Mar 15 2023 22:20:53 GMT-0500 (Central Daylight Time)","626480","Trustworthy,Untrustworthy","html-keyboard-response","117","241400","0.0-11.0-3.35","","null","","<div class='respPicDiv'><img src='img/responseButtonOffersNo0_wht.png' class='respPic'></div><div class='trialDiv'><img src='Fruit/apple.png'><br><font class='baseline'><strong>Awesome Apples</strong><p><strong><font class='posOutcome'>You WON</font><p>You bet: 5</strong></font> &nbsp; &nbsp; &nbsp; &nbsp; &nbsp; &nbsp;<font class='posOutcome'>you receive: <strong>10</strong></font></div>","null","12","Awesome Apples","Fruit/apple.png","Won","0.8,0.35","13","0.8","209","36","",""
"","","","decision","63f807017a338dfff169fea8","bdp_rwlrn","Wed Mar 15 2023 22:20:53 GMT-0500 (Central Daylight Time)","626480","Trustworthy,Untrustworthy","html-keyboard-response","118","242539","0.0-11.0-1.36","","1138","","<div class='trialDiv'><img src='Fruit/lime.png'><br><font class='baseline'><strong>Limin' Large</strong><p>Choose number of points to bet.</font><div class='respPicDiv'><img src='img/responseButtonOffersNo0L.png' class='respPic'></div></div>","1","13","Limin' Large","Fruit/lime.png","Won","0.2,0.8","13","0.2","214","37","",""
"","","","decisionFB","63f807017a338dfff169fea8","bdp_rwlrn","Wed Mar 15 2023 22:20:53 GMT-0500 (Central Daylight Time)","626480","Trustworthy,Untrustworthy","html-keyboard-response","119","242804","0.0-11.0-2.36","","null","","<div class='trialDiv'><img src='Fruit/lime.png'><br><font class='baseline'><strong>Limin' Large</strong><p>Choose number of points to bet.</font><div class='respPicDiv'><img src='img/responseButtonOffersNo0L1.png' class='respPic'></div></div>","null","13","Limin' Large","Fruit/lime.png","Won","0.2,0.8","13","0.2","213","37","",""
"","","","feedback","63f807017a338dfff169fea8","bdp_rwlrn","Wed Mar 15 2023 22:20:53 GMT-0500 (Central Daylight Time)","626480","Trustworthy,Untrustworthy","html-keyboard-response","120","243815","0.0-11.0-3.36","","null","","<div class='respPicDiv'><img src='img/responseButtonOffersNo0_wht.png' class='respPic'></div><div class='trialDiv'><img src='Fruit/lime.png'><br><font class='baseline'><strong>Limin' Large</strong><p><strong><font class='posOutcome'>You WON</font><p>You bet: 1</strong></font> &nbsp; &nbsp; &nbsp; &nbsp; &nbsp; &nbsp;<font class='posOutcome'>you receive: <strong>2</strong></font></div>","null","13","Limin' Large","Fruit/lime.png","Won","0.2,0.8","13","0.2","215","37","",""
"","","","decision","63f807017a338dfff169fea8","bdp_rwlrn","Wed Mar 15 2023 22:20:53 GMT-0500 (Central Daylight Time)","626480","Trustworthy,Untrustworthy","html-keyboard-response","121","244742","0.0-11.0-1.37","","925","","<div class='trialDiv'><img src='Fruit/apple.png'><br><font class='baseline'><strong>Awesome Apples</strong><p>Choose number of points to bet.</font><div class='respPicDiv'><img src='img/responseButtonOffersNo0L.png' class='respPic'></div></div>","5","13","Awesome Apples","Fruit/apple.png","Won","0.8,0.35","13","0.8","220","38","",""
"","","","decisionFB","63f807017a338dfff169fea8","bdp_rwlrn","Wed Mar 15 2023 22:20:53 GMT-0500 (Central Daylight Time)","626480","Trustworthy,Untrustworthy","html-keyboard-response","122","245007","0.0-11.0-2.37","","null","","<div class='trialDiv'><img src='Fruit/apple.png'><br><font class='baseline'><strong>Awesome Apples</strong><p>Choose number of points to bet.</font><div class='respPicDiv'><img src='img/responseButtonOffersNo0L5.png' class='respPic'></div></div>","null","13","Awesome Apples","Fruit/apple.png","Won","0.8,0.35","13","0.8","215","38","",""
"","","","feedback","63f807017a338dfff169fea8","bdp_rwlrn","Wed Mar 15 2023 22:20:53 GMT-0500 (Central Daylight Time)","626480","Trustworthy,Untrustworthy","html-keyboard-response","123","246019","0.0-11.0-3.37","","null","","<div class='respPicDiv'><img src='img/responseButtonOffersNo0_wht.png' class='respPic'></div><div class='trialDiv'><img src='Fruit/apple.png'><br><font class='baseline'><strong>Awesome Apples</strong><p><strong><font class='posOutcome'>You WON</font><p>You bet: 5</strong></font> &nbsp; &nbsp; &nbsp; &nbsp; &nbsp; &nbsp;<font class='posOutcome'>you receive: <strong>10</strong></font></div>","null","13","Awesome Apples","Fruit/apple.png","Won","0.8,0.35","13","0.8","225","38","",""
"","","","decision","63f807017a338dfff169fea8","bdp_rwlrn","Wed Mar 15 2023 22:20:53 GMT-0500 (Central Daylight Time)","626480","Trustworthy,Untrustworthy","html-keyboard-response","124","249602","0.0-11.0-1.38","","3581","","<div class='trialDiv'><img src='Fruit/lemon.png'><br><font class='baseline'><strong>Lucky Lemons</strong><p>Choose number of points to bet.</font><div class='respPicDiv'><img src='img/responseButtonOffersNo0L.png' class='respPic'></div></div>","1","13","Lucky Lemons","Fruit/lemon.png","Lost","0.35,0.8","10","0.35","230","39","",""
"","","","decisionFB","63f807017a338dfff169fea8","bdp_rwlrn","Wed Mar 15 2023 22:20:53 GMT-0500 (Central Daylight Time)","626480","Trustworthy,Untrustworthy","html-keyboard-response","125","249867","0.0-11.0-2.38","","null","","<div class='trialDiv'><img src='Fruit/lemon.png'><br><font class='baseline'><strong>Lucky Lemons</strong><p>Choose number of points to bet.</font><div class='respPicDiv'><img src='img/responseButtonOffersNo0L1.png' class='respPic'></div></div>","null","13","Lucky Lemons","Fruit/lemon.png","Lost","0.35,0.8","10","0.35","229","39","",""
"","","","feedback","63f807017a338dfff169fea8","bdp_rwlrn","Wed Mar 15 2023 22:20:53 GMT-0500 (Central Daylight Time)","626480","Trustworthy,Untrustworthy","html-keyboard-response","126","250878","0.0-11.0-3.38","","null","","<div class='respPicDiv'><img src='img/responseButtonOffersNo0_wht.png' class='respPic'></div><div class='trialDiv'><img src='Fruit/lemon.png'><br><font class='baseline'><strong>Lucky Lemons</strong><p><strong><font class='negOutcome'>You LOST</font><p>You bet: 1</strong></font> &nbsp; &nbsp; &nbsp; &nbsp; &nbsp; &nbsp;<font class='negOutcome'>You receive: <strong>0</strong></font></div>","null","13","Lucky Lemons","Fruit/lemon.png","Lost","0.35,0.8","10","0.35","229","39","",""
"","","","decision","63f807017a338dfff169fea8","bdp_rwlrn","Wed Mar 15 2023 22:20:53 GMT-0500 (Central Daylight Time)","626480","Trustworthy,Untrustworthy","html-keyboard-response","127","251884","0.0-11.0-1.39","","1005","","<div class='trialDiv'><img src='Fruit/apple.png'><br><font class='baseline'><strong>Awesome Apples</strong><p>Choose number of points to bet.</font><div class='respPicDiv'><img src='img/responseButtonOffersNo0L.png' class='respPic'></div></div>","5","14","Awesome Apples","Fruit/apple.png","Won","0.8,0.35","13","0.8","234","40","",""
"","","","decisionFB","63f807017a338dfff169fea8","bdp_rwlrn","Wed Mar 15 2023 22:20:53 GMT-0500 (Central Daylight Time)","626480","Trustworthy,Untrustworthy","html-keyboard-response","128","252139","0.0-11.0-2.39","","null","","<div class='trialDiv'><img src='Fruit/apple.png'><br><font class='baseline'><strong>Awesome Apples</strong><p>Choose number of points to bet.</font><div class='respPicDiv'><img src='img/responseButtonOffersNo0L5.png' class='respPic'></div></div>","null","14","Awesome Apples","Fruit/apple.png","Won","0.8,0.35","13","0.8","229","40","",""
"","","","feedback","63f807017a338dfff169fea8","bdp_rwlrn","Wed Mar 15 2023 22:20:53 GMT-0500 (Central Daylight Time)","626480","Trustworthy,Untrustworthy","html-keyboard-response","129","253156","0.0-11.0-3.39","","null","","<div class='respPicDiv'><img src='img/responseButtonOffersNo0_wht.png' class='respPic'></div><div class='trialDiv'><img src='Fruit/apple.png'><br><font class='baseline'><strong>Awesome Apples</strong><p><strong><font class='posOutcome'>You WON</font><p>You bet: 5</strong></font> &nbsp; &nbsp; &nbsp; &nbsp; &nbsp; &nbsp;<font class='posOutcome'>you receive: <strong>10</strong></font></div>","null","14","Awesome Apples","Fruit/apple.png","Won","0.8,0.35","13","0.8","239","40","",""
"","","","decision","63f807017a338dfff169fea8","bdp_rwlrn","Wed Mar 15 2023 22:20:53 GMT-0500 (Central Daylight Time)","626480","Trustworthy,Untrustworthy","html-keyboard-response","130","253721","0.0-11.0-1.40","","564","","<div class='trialDiv'><img src='Fruit/lime.png'><br><font class='baseline'><strong>Limin' Large</strong><p>Choose number of points to bet.</font><div class='respPicDiv'><img src='img/responseButtonOffersNo0L.png' class='respPic'></div></div>","1","14","Limin' Large","Fruit/lime.png","Won","0.2,0.8","13","0.2","244","41","",""
"","","","decisionFB","63f807017a338dfff169fea8","bdp_rwlrn","Wed Mar 15 2023 22:20:53 GMT-0500 (Central Daylight Time)","626480","Trustworthy,Untrustworthy","html-keyboard-response","131","253983","0.0-11.0-2.40","","null","","<div class='trialDiv'><img src='Fruit/lime.png'><br><font class='baseline'><strong>Limin' Large</strong><p>Choose number of points to bet.</font><div class='respPicDiv'><img src='img/responseButtonOffersNo0L1.png' class='respPic'></div></div>","null","14","Limin' Large","Fruit/lime.png","Won","0.2,0.8","13","0.2","243","41","",""
"","","","feedback","63f807017a338dfff169fea8","bdp_rwlrn","Wed Mar 15 2023 22:20:53 GMT-0500 (Central Daylight Time)","626480","Trustworthy,Untrustworthy","html-keyboard-response","132","254995","0.0-11.0-3.40","","null","","<div class='respPicDiv'><img src='img/responseButtonOffersNo0_wht.png' class='respPic'></div><div class='trialDiv'><img src='Fruit/lime.png'><br><font class='baseline'><strong>Limin' Large</strong><p><strong><font class='posOutcome'>You WON</font><p>You bet: 1</strong></font> &nbsp; &nbsp; &nbsp; &nbsp; &nbsp; &nbsp;<font class='posOutcome'>you receive: <strong>2</strong></font></div>","null","14","Limin' Large","Fruit/lime.png","Won","0.2,0.8","13","0.2","245","41","",""
"","","","decision","63f807017a338dfff169fea8","bdp_rwlrn","Wed Mar 15 2023 22:20:53 GMT-0500 (Central Daylight Time)","626480","Trustworthy,Untrustworthy","html-keyboard-response","133","256775","0.0-11.0-1.41","","1779","","<div class='trialDiv'><img src='Fruit/lemon.png'><br><font class='baseline'><strong>Lucky Lemons</strong><p>Choose number of points to bet.</font><div class='respPicDiv'><img src='img/responseButtonOffersNo0L.png' class='respPic'></div></div>","1","14","Lucky Lemons","Fruit/lemon.png","Won","0.35,0.8","10","0.35","250","42","",""
"","","","decisionFB","63f807017a338dfff169fea8","bdp_rwlrn","Wed Mar 15 2023 22:20:53 GMT-0500 (Central Daylight Time)","626480","Trustworthy,Untrustworthy","html-keyboard-response","134","257034","0.0-11.0-2.41","","null","","<div class='trialDiv'><img src='Fruit/lemon.png'><br><font class='baseline'><strong>Lucky Lemons</strong><p>Choose number of points to bet.</font><div class='respPicDiv'><img src='img/responseButtonOffersNo0L1.png' class='respPic'></div></div>","null","14","Lucky Lemons","Fruit/lemon.png","Won","0.35,0.8","10","0.35","249","42","",""
"","","","feedback","63f807017a338dfff169fea8","bdp_rwlrn","Wed Mar 15 2023 22:20:53 GMT-0500 (Central Daylight Time)","626480","Trustworthy,Untrustworthy","html-keyboard-response","135","258048","0.0-11.0-3.41","","null","","<div class='respPicDiv'><img src='img/responseButtonOffersNo0_wht.png' class='respPic'></div><div class='trialDiv'><img src='Fruit/lemon.png'><br><font class='baseline'><strong>Lucky Lemons</strong><p><strong><font class='posOutcome'>You WON</font><p>You bet: 1</strong></font> &nbsp; &nbsp; &nbsp; &nbsp; &nbsp; &nbsp;<font class='posOutcome'>you receive: <strong>2</strong></font></div>","null","14","Lucky Lemons","Fruit/lemon.png","Won","0.35,0.8","10","0.35","251","42","",""
"","","","decision","63f807017a338dfff169fea8","bdp_rwlrn","Wed Mar 15 2023 22:20:53 GMT-0500 (Central Daylight Time)","626480","Trustworthy,Untrustworthy","html-keyboard-response","136","259627","0.0-11.0-1.42","","1578","","<div class='trialDiv'><img src='Fruit/lime.png'><br><font class='baseline'><strong>Limin' Large</strong><p>Choose number of points to bet.</font><div class='respPicDiv'><img src='img/responseButtonOffersNo0L.png' class='respPic'></div></div>","2","15","Limin' Large","Fruit/lime.png","Won","0.2,0.8","13","0.2","256","43","",""
"","","","decisionFB","63f807017a338dfff169fea8","bdp_rwlrn","Wed Mar 15 2023 22:20:53 GMT-0500 (Central Daylight Time)","626480","Trustworthy,Untrustworthy","html-keyboard-response","137","259891","0.0-11.0-2.42","","null","","<div class='trialDiv'><img src='Fruit/lime.png'><br><font class='baseline'><strong>Limin' Large</strong><p>Choose number of points to bet.</font><div class='respPicDiv'><img src='img/responseButtonOffersNo0L2.png' class='respPic'></div></div>","null","15","Limin' Large","Fruit/lime.png","Won","0.2,0.8","13","0.2","254","43","",""
"","","","feedback","63f807017a338dfff169fea8","bdp_rwlrn","Wed Mar 15 2023 22:20:53 GMT-0500 (Central Daylight Time)","626480","Trustworthy,Untrustworthy","html-keyboard-response","138","260903","0.0-11.0-3.42","","null","","<div class='respPicDiv'><img src='img/responseButtonOffersNo0_wht.png' class='respPic'></div><div class='trialDiv'><img src='Fruit/lime.png'><br><font class='baseline'><strong>Limin' Large</strong><p><strong><font class='posOutcome'>You WON</font><p>You bet: 2</strong></font> &nbsp; &nbsp; &nbsp; &nbsp; &nbsp; &nbsp;<font class='posOutcome'>you receive: <strong>4</strong></font></div>","null","15","Limin' Large","Fruit/lime.png","Won","0.2,0.8","13","0.2","258","43","",""
"","","","decision","63f807017a338dfff169fea8","bdp_rwlrn","Wed Mar 15 2023 22:20:53 GMT-0500 (Central Daylight Time)","626480","Trustworthy,Untrustworthy","html-keyboard-response","139","263894","0.0-11.0-1.43","","2990","","<div class='trialDiv'><img src='Fruit/lemon.png'><br><font class='baseline'><strong>Lucky Lemons</strong><p>Choose number of points to bet.</font><div class='respPicDiv'><img src='img/responseButtonOffersNo0L.png' class='respPic'></div></div>","1","15","Lucky Lemons","Fruit/lemon.png","Lost","0.35,0.8","10","0.35","263","44","",""
"","","","decisionFB","63f807017a338dfff169fea8","bdp_rwlrn","Wed Mar 15 2023 22:20:53 GMT-0500 (Central Daylight Time)","626480","Trustworthy,Untrustworthy","html-keyboard-response","140","264161","0.0-11.0-2.43","","null","","<div class='trialDiv'><img src='Fruit/lemon.png'><br><font class='baseline'><strong>Lucky Lemons</strong><p>Choose number of points to bet.</font><div class='respPicDiv'><img src='img/responseButtonOffersNo0L1.png' class='respPic'></div></div>","null","15","Lucky Lemons","Fruit/lemon.png","Lost","0.35,0.8","10","0.35","262","44","",""
"","","","feedback","63f807017a338dfff169fea8","bdp_rwlrn","Wed Mar 15 2023 22:20:53 GMT-0500 (Central Daylight Time)","626480","Trustworthy,Untrustworthy","html-keyboard-response","141","265175","0.0-11.0-3.43","","null","","<div class='respPicDiv'><img src='img/responseButtonOffersNo0_wht.png' class='respPic'></div><div class='trialDiv'><img src='Fruit/lemon.png'><br><font class='baseline'><strong>Lucky Lemons</strong><p><strong><font class='negOutcome'>You LOST</font><p>You bet: 1</strong></font> &nbsp; &nbsp; &nbsp; &nbsp; &nbsp; &nbsp;<font class='negOutcome'>You receive: <strong>0</strong></font></div>","null","15","Lucky Lemons","Fruit/lemon.png","Lost","0.35,0.8","10","0.35","262","44","",""
"","","","decision","63f807017a338dfff169fea8","bdp_rwlrn","Wed Mar 15 2023 22:20:53 GMT-0500 (Central Daylight Time)","626480","Trustworthy,Untrustworthy","html-keyboard-response","142","265861","0.0-11.0-1.44","","685","","<div class='trialDiv'><img src='Fruit/apple.png'><br><font class='baseline'><strong>Awesome Apples</strong><p>Choose number of points to bet.</font><div class='respPicDiv'><img src='img/responseButtonOffersNo0L.png' class='respPic'></div></div>","5","15","Awesome Apples","Fruit/apple.png","Won","0.8,0.35","13","0.8","267","45","",""
"","","","decisionFB","63f807017a338dfff169fea8","bdp_rwlrn","Wed Mar 15 2023 22:20:53 GMT-0500 (Central Daylight Time)","626480","Trustworthy,Untrustworthy","html-keyboard-response","143","266113","0.0-11.0-2.44","","null","","<div class='trialDiv'><img src='Fruit/apple.png'><br><font class='baseline'><strong>Awesome Apples</strong><p>Choose number of points to bet.</font><div class='respPicDiv'><img src='img/responseButtonOffersNo0L5.png' class='respPic'></div></div>","null","15","Awesome Apples","Fruit/apple.png","Won","0.8,0.35","13","0.8","262","45","",""
"","","","feedback","63f807017a338dfff169fea8","bdp_rwlrn","Wed Mar 15 2023 22:20:53 GMT-0500 (Central Daylight Time)","626480","Trustworthy,Untrustworthy","html-keyboard-response","144","267125","0.0-11.0-3.44","","null","","<div class='respPicDiv'><img src='img/responseButtonOffersNo0_wht.png' class='respPic'></div><div class='trialDiv'><img src='Fruit/apple.png'><br><font class='baseline'><strong>Awesome Apples</strong><p><strong><font class='posOutcome'>You WON</font><p>You bet: 5</strong></font> &nbsp; &nbsp; &nbsp; &nbsp; &nbsp; &nbsp;<font class='posOutcome'>you receive: <strong>10</strong></font></div>","null","15","Awesome Apples","Fruit/apple.png","Won","0.8,0.35","13","0.8","272","45","",""
"","","","decision","63f807017a338dfff169fea8","bdp_rwlrn","Wed Mar 15 2023 22:20:53 GMT-0500 (Central Daylight Time)","626480","Trustworthy,Untrustworthy","html-keyboard-response","145","268301","0.0-11.0-1.45","","1175","","<div class='trialDiv'><img src='Fruit/lime.png'><br><font class='baseline'><strong>Limin' Large</strong><p>Choose number of points to bet.</font><div class='respPicDiv'><img src='img/responseButtonOffersNo0L.png' class='respPic'></div></div>","2","16","Limin' Large","Fruit/lime.png","Won","0.2,0.8","13","0.2","277","46","",""
"","","","decisionFB","63f807017a338dfff169fea8","bdp_rwlrn","Wed Mar 15 2023 22:20:53 GMT-0500 (Central Daylight Time)","626480","Trustworthy,Untrustworthy","html-keyboard-response","146","268560","0.0-11.0-2.45","","null","","<div class='trialDiv'><img src='Fruit/lime.png'><br><font class='baseline'><strong>Limin' Large</strong><p>Choose number of points to bet.</font><div class='respPicDiv'><img src='img/responseButtonOffersNo0L2.png' class='respPic'></div></div>","null","16","Limin' Large","Fruit/lime.png","Won","0.2,0.8","13","0.2","275","46","",""
"","","","feedback","63f807017a338dfff169fea8","bdp_rwlrn","Wed Mar 15 2023 22:20:53 GMT-0500 (Central Daylight Time)","626480","Trustworthy,Untrustworthy","html-keyboard-response","147","269572","0.0-11.0-3.45","","null","","<div class='respPicDiv'><img src='img/responseButtonOffersNo0_wht.png' class='respPic'></div><div class='trialDiv'><img src='Fruit/lime.png'><br><font class='baseline'><strong>Limin' Large</strong><p><strong><font class='posOutcome'>You WON</font><p>You bet: 2</strong></font> &nbsp; &nbsp; &nbsp; &nbsp; &nbsp; &nbsp;<font class='posOutcome'>you receive: <strong>4</strong></font></div>","null","16","Limin' Large","Fruit/lime.png","Won","0.2,0.8","13","0.2","279","46","",""
"","","","decision","63f807017a338dfff169fea8","bdp_rwlrn","Wed Mar 15 2023 22:20:53 GMT-0500 (Central Daylight Time)","626480","Trustworthy,Untrustworthy","html-keyboard-response","148","270675","0.0-11.0-1.46","","1102","","<div class='trialDiv'><img src='Fruit/apple.png'><br><font class='baseline'><strong>Awesome Apples</strong><p>Choose number of points to bet.</font><div class='respPicDiv'><img src='img/responseButtonOffersNo0L.png' class='respPic'></div></div>","5","16","Awesome Apples","Fruit/apple.png","Won","0.8,0.35","13","0.8","284","47","",""
"","","","decisionFB","63f807017a338dfff169fea8","bdp_rwlrn","Wed Mar 15 2023 22:20:53 GMT-0500 (Central Daylight Time)","626480","Trustworthy,Untrustworthy","html-keyboard-response","149","270927","0.0-11.0-2.46","","null","","<div class='trialDiv'><img src='Fruit/apple.png'><br><font class='baseline'><strong>Awesome Apples</strong><p>Choose number of points to bet.</font><div class='respPicDiv'><img src='img/responseButtonOffersNo0L5.png' class='respPic'></div></div>","null","16","Awesome Apples","Fruit/apple.png","Won","0.8,0.35","13","0.8","279","47","",""
"","","","feedback","63f807017a338dfff169fea8","bdp_rwlrn","Wed Mar 15 2023 22:20:53 GMT-0500 (Central Daylight Time)","626480","Trustworthy,Untrustworthy","html-keyboard-response","150","271933","0.0-11.0-3.46","","null","","<div class='respPicDiv'><img src='img/responseButtonOffersNo0_wht.png' class='respPic'></div><div class='trialDiv'><img src='Fruit/apple.png'><br><font class='baseline'><strong>Awesome Apples</strong><p><strong><font class='posOutcome'>You WON</font><p>You bet: 5</strong></font> &nbsp; &nbsp; &nbsp; &nbsp; &nbsp; &nbsp;<font class='posOutcome'>you receive: <strong>10</strong></font></div>","null","16","Awesome Apples","Fruit/apple.png","Won","0.8,0.35","13","0.8","289","47","",""
"","","","decision","63f807017a338dfff169fea8","bdp_rwlrn","Wed Mar 15 2023 22:20:53 GMT-0500 (Central Daylight Time)","626480","Trustworthy,Untrustworthy","html-keyboard-response","151","272731","0.0-11.0-1.47","","797","","<div class='trialDiv'><img src='Fruit/lemon.png'><br><font class='baseline'><strong>Lucky Lemons</strong><p>Choose number of points to bet.</font><div class='respPicDiv'><img src='img/responseButtonOffersNo0L.png' class='respPic'></div></div>","1","16","Lucky Lemons","Fruit/lemon.png","Lost","0.35,0.8","10","0.35","294","48","",""
"","","","decisionFB","63f807017a338dfff169fea8","bdp_rwlrn","Wed Mar 15 2023 22:20:53 GMT-0500 (Central Daylight Time)","626480","Trustworthy,Untrustworthy","html-keyboard-response","152","272992","0.0-11.0-2.47","","null","","<div class='trialDiv'><img src='Fruit/lemon.png'><br><font class='baseline'><strong>Lucky Lemons</strong><p>Choose number of points to bet.</font><div class='respPicDiv'><img src='img/responseButtonOffersNo0L1.png' class='respPic'></div></div>","null","16","Lucky Lemons","Fruit/lemon.png","Lost","0.35,0.8","10","0.35","293","48","",""
"","","","feedback","63f807017a338dfff169fea8","bdp_rwlrn","Wed Mar 15 2023 22:20:53 GMT-0500 (Central Daylight Time)","626480","Trustworthy,Untrustworthy","html-keyboard-response","153","274006","0.0-11.0-3.47","","null","","<div class='respPicDiv'><img src='img/responseButtonOffersNo0_wht.png' class='respPic'></div><div class='trialDiv'><img src='Fruit/lemon.png'><br><font class='baseline'><strong>Lucky Lemons</strong><p><strong><font class='negOutcome'>You LOST</font><p>You bet: 1</strong></font> &nbsp; &nbsp; &nbsp; &nbsp; &nbsp; &nbsp;<font class='negOutcome'>You receive: <strong>0</strong></font></div>","null","16","Lucky Lemons","Fruit/lemon.png","Lost","0.35,0.8","10","0.35","293","48","",""
"","","","decision","63f807017a338dfff169fea8","bdp_rwlrn","Wed Mar 15 2023 22:20:53 GMT-0500 (Central Daylight Time)","626480","Trustworthy,Untrustworthy","html-keyboard-response","154","274710","0.0-11.0-1.48","","702","","<div class='trialDiv'><img src='Fruit/apple.png'><br><font class='baseline'><strong>Awesome Apples</strong><p>Choose number of points to bet.</font><div class='respPicDiv'><img src='img/responseButtonOffersNo0L.png' class='respPic'></div></div>","5","17","Awesome Apples","Fruit/apple.png","Lost","0.8,0.35","13","0.8","298","49","",""
"","","","decisionFB","63f807017a338dfff169fea8","bdp_rwlrn","Wed Mar 15 2023 22:20:53 GMT-0500 (Central Daylight Time)","626480","Trustworthy,Untrustworthy","html-keyboard-response","155","274975","0.0-11.0-2.48","","null","","<div class='trialDiv'><img src='Fruit/apple.png'><br><font class='baseline'><strong>Awesome Apples</strong><p>Choose number of points to bet.</font><div class='respPicDiv'><img src='img/responseButtonOffersNo0L5.png' class='respPic'></div></div>","null","17","Awesome Apples","Fruit/apple.png","Lost","0.8,0.35","13","0.8","293","49","",""
"","","","feedback","63f807017a338dfff169fea8","bdp_rwlrn","Wed Mar 15 2023 22:20:53 GMT-0500 (Central Daylight Time)","626480","Trustworthy,Untrustworthy","html-keyboard-response","156","275989","0.0-11.0-3.48","","null","","<div class='respPicDiv'><img src='img/responseButtonOffersNo0_wht.png' class='respPic'></div><div class='trialDiv'><img src='Fruit/apple.png'><br><font class='baseline'><strong>Awesome Apples</strong><p><strong><font class='negOutcome'>You LOST</font><p>You bet: 5</strong></font> &nbsp; &nbsp; &nbsp; &nbsp; &nbsp; &nbsp;<font class='negOutcome'>You receive: <strong>0</strong></font></div>","null","17","Awesome Apples","Fruit/apple.png","Lost","0.8,0.35","13","0.8","293","49","",""
"","","","decision","63f807017a338dfff169fea8","bdp_rwlrn","Wed Mar 15 2023 22:20:53 GMT-0500 (Central Daylight Time)","626480","Trustworthy,Untrustworthy","html-keyboard-response","157","276451","0.0-11.0-1.49","","460","","<div class='trialDiv'><img src='Fruit/lime.png'><br><font class='baseline'><strong>Limin' Large</strong><p>Choose number of points to bet.</font><div class='respPicDiv'><img src='img/responseButtonOffersNo0L.png' class='respPic'></div></div>","2","17","Limin' Large","Fruit/lime.png","Won","0.2,0.8","13","0.2","298","50","",""
"","","","decisionFB","63f807017a338dfff169fea8","bdp_rwlrn","Wed Mar 15 2023 22:20:53 GMT-0500 (Central Daylight Time)","626480","Trustworthy,Untrustworthy","html-keyboard-response","158","276708","0.0-11.0-2.49","","null","","<div class='trialDiv'><img src='Fruit/lime.png'><br><font class='baseline'><strong>Limin' Large</strong><p>Choose number of points to bet.</font><div class='respPicDiv'><img src='img/responseButtonOffersNo0L2.png' class='respPic'></div></div>","null","17","Limin' Large","Fruit/lime.png","Won","0.2,0.8","13","0.2","296","50","",""
"","","","feedback","63f807017a338dfff169fea8","bdp_rwlrn","Wed Mar 15 2023 22:20:53 GMT-0500 (Central Daylight Time)","626480","Trustworthy,Untrustworthy","html-keyboard-response","159","277719","0.0-11.0-3.49","","null","","<div class='respPicDiv'><img src='img/responseButtonOffersNo0_wht.png' class='respPic'></div><div class='trialDiv'><img src='Fruit/lime.png'><br><font class='baseline'><strong>Limin' Large</strong><p><strong><font class='posOutcome'>You WON</font><p>You bet: 2</strong></font> &nbsp; &nbsp; &nbsp; &nbsp; &nbsp; &nbsp;<font class='posOutcome'>you receive: <strong>4</strong></font></div>","null","17","Limin' Large","Fruit/lime.png","Won","0.2,0.8","13","0.2","300","50","",""
"","","","decision","63f807017a338dfff169fea8","bdp_rwlrn","Wed Mar 15 2023 22:20:53 GMT-0500 (Central Daylight Time)","626480","Trustworthy,Untrustworthy","html-keyboard-response","160","278659","0.0-11.0-1.50","","939","","<div class='trialDiv'><img src='Fruit/lemon.png'><br><font class='baseline'><strong>Lucky Lemons</strong><p>Choose number of points to bet.</font><div class='respPicDiv'><img src='img/responseButtonOffersNo0L.png' class='respPic'></div></div>","1","17","Lucky Lemons","Fruit/lemon.png","Won","0.35,0.8","10","0.35","305","51","",""
"","","","decisionFB","63f807017a338dfff169fea8","bdp_rwlrn","Wed Mar 15 2023 22:20:53 GMT-0500 (Central Daylight Time)","626480","Trustworthy,Untrustworthy","html-keyboard-response","161","278917","0.0-11.0-2.50","","null","","<div class='trialDiv'><img src='Fruit/lemon.png'><br><font class='baseline'><strong>Lucky Lemons</strong><p>Choose number of points to bet.</font><div class='respPicDiv'><img src='img/responseButtonOffersNo0L1.png' class='respPic'></div></div>","null","17","Lucky Lemons","Fruit/lemon.png","Won","0.35,0.8","10","0.35","304","51","",""
"","","","feedback","63f807017a338dfff169fea8","bdp_rwlrn","Wed Mar 15 2023 22:20:53 GMT-0500 (Central Daylight Time)","626480","Trustworthy,Untrustworthy","html-keyboard-response","162","279926","0.0-11.0-3.50","","null","","<div class='respPicDiv'><img src='img/responseButtonOffersNo0_wht.png' class='respPic'></div><div class='trialDiv'><img src='Fruit/lemon.png'><br><font class='baseline'><strong>Lucky Lemons</strong><p><strong><font class='posOutcome'>You WON</font><p>You bet: 1</strong></font> &nbsp; &nbsp; &nbsp; &nbsp; &nbsp; &nbsp;<font class='posOutcome'>you receive: <strong>2</strong></font></div>","null","17","Lucky Lemons","Fruit/lemon.png","Won","0.35,0.8","10","0.35","306","51","",""
"","","","decision","63f807017a338dfff169fea8","bdp_rwlrn","Wed Mar 15 2023 22:20:53 GMT-0500 (Central Daylight Time)","626480","Trustworthy,Untrustworthy","html-keyboard-response","163","280659","0.0-11.0-1.51","","732","","<div class='trialDiv'><img src='Fruit/apple.png'><br><font class='baseline'><strong>Awesome Apples</strong><p>Choose number of points to bet.</font><div class='respPicDiv'><img src='img/responseButtonOffersNo0L.png' class='respPic'></div></div>","5","18","Awesome Apples","Fruit/apple.png","Won","0.8,0.35","13","0.8","311","52","",""
