"trial_type","trial_index","time_elapsed","internal_node_id","subject_id","task","startTime","totalTime","labels","view_history","rt","event","trial","time","trialtype","success","stimulus","key_press","ltround","name","fileID","outcome","lottotype","lottoswpt","lottocurrpshare","point_total","round","faceID","face"
"pavlovia","0","3","0.0-0.0","5b608617208f1c000100bdeb","bdp_rwlrn","Sat Apr 08 2023 10:59:43 GMT-0400 (Eastern Daylight Time)","455840","Trustworthy,Untrustworthy","","","","","","","","","","","","","","","","","","","",""
"instructions","1","6425","0.0-1.0","5b608617208f1c000100bdeb","bdp_rwlrn","Sat Apr 08 2023 10:59:43 GMT-0400 (Eastern Daylight Time)","455840","Trustworthy,Untrustworthy","[{""page_index"":0,""viewing_time"":6422}]","6422","","","","","","","","","","","","","","","","","",""
"","","","","5b608617208f1c000100bdeb","bdp_rwlrn","Sat Apr 08 2023 10:59:43 GMT-0400 (Eastern Daylight Time)","455840","Trustworthy,Untrustworthy","","","fullscreenenter","2","9208","fullscreenenter","","","","","","","","","","","","","",""
"fullscreen","2","10194","0.0-2.0","5b608617208f1c000100bdeb","bdp_rwlrn","Sat Apr 08 2023 10:59:43 GMT-0400 (Eastern Daylight Time)","455840","Trustworthy,Untrustworthy","","","","","","","true","","","","","","","","","","","","",""
"instructions","3","79278","0.0-4.0","5b608617208f1c000100bdeb","bdp_rwlrn","Sat Apr 08 2023 10:59:43 GMT-0400 (Eastern Daylight Time)","455840","Trustworthy,Untrustworthy","[{""page_index"":0,""viewing_time"":9309},{""page_index"":1,""viewing_time"":12034},{""page_index"":2,""viewing_time"":14196},{""page_index"":3,""viewing_time"":6119},{""page_index"":4,""viewing_time"":14152},{""page_index"":5,""viewing_time"":13273}]","69083","","","","","","","","","","","","","","","","","",""
"html-keyboard-response","4","83751","0.0-5.0","5b608617208f1c000100bdeb","bdp_rwlrn","Sat Apr 08 2023 10:59:43 GMT-0400 (Eastern Daylight Time)","455840","Trustworthy,Untrustworthy","","4472","","","","","","<div class='header' style='text-align:left; position: absolute; top: 5%; left: 5%;'><small>Task 1 of 5</small></div><div class='instruxDiv'><p><strong>1) What is the maximum number of points you can choose to bet on a lottery?</strong></p><p>a) 0</p><p>b) 1</p><p>c) 5</p>","C","","","","","","","","","","",""
"html-keyboard-response","5","86036","0.0-6.0","5b608617208f1c000100bdeb","bdp_rwlrn","Sat Apr 08 2023 10:59:43 GMT-0400 (Eastern Daylight Time)","455840","Trustworthy,Untrustworthy","","2171","","","","","","<div class='header' style='text-align:left; position: absolute; top: 5%; left: 5%;'><small>Task 1 of 5</small></div><div class='instruxDiv'><p><strong>1) What is the maximum number of points you can choose to bet on a lottery?</strong></p><p>a) 1</p><p>b) 1</p><p style='color:#00FF00'>c) 5</p><h3 style='color:#00FF00'>Correct!</h3><h3 class='center-content'>The correct response is c).</h3><h3 class='center-content'>The maximum number of points you can choose to bet on a lottery is 5 points.</h3><p><em>Press SPACEBAR to continue</em></p></div>"," ","","","","","","","","","","",""
"html-keyboard-response","6","90340","0.0-7.0","5b608617208f1c000100bdeb","bdp_rwlrn","Sat Apr 08 2023 10:59:43 GMT-0400 (Eastern Daylight Time)","455840","Trustworthy,Untrustworthy","","4195","","","","","","<div class='header' style='text-align:left; position: absolute; top: 5%; left: 5%;'><small>Task 1 of 5</small></div><div class='instruxDiv'><p><strong>2) How many points can you win each round?</strong></p><p>a) 10 points</p><p>b) Double what you bet</p><p>c) Quadruple what you bet</p>","B","","","","","","","","","","",""
"html-keyboard-response","7","92893","0.0-8.0","5b608617208f1c000100bdeb","bdp_rwlrn","Sat Apr 08 2023 10:59:43 GMT-0400 (Eastern Daylight Time)","455840","Trustworthy,Untrustworthy","","2444","","","","","","<div class='header' style='text-align:left; position: absolute; top: 5%; left: 5%;'><small>Task 1 of 5</small></div><div class='instruxDiv'><p><strong>2) How many points can you win each round?</strong></p><p>a) 10 points</p><p style='color:#00FF00'>b) Double what you bet</p><p>c) Quadruple what you bet</p><h3 style='color:#00FF00'>Correct!</h3><h3 class='center-content'>The correct response is b).</h3><h3 class='center-content'>You can win double the amount of points you bet.</h3><p><em>Press SPACEBAR to continue</em></p></div>"," ","","","","","","","","","","",""
"html-keyboard-response","8","98009","0.0-9.0","5b608617208f1c000100bdeb","bdp_rwlrn","Sat Apr 08 2023 10:59:43 GMT-0400 (Eastern Daylight Time)","455840","Trustworthy,Untrustworthy","","null","","","","","","<div class='header' style='text-align:left; position: absolute; top: 5%; left: 5%;'><small>Task 1 of 5</small></div><div class='instruxDiv'><p>Thank you for completing the quiz<p>These are the actual lotteries you will be playing in the next block:<p><div class='tc' align='center'><img class='introPic' src='Fruit/pineapple.png'><br><strong>Primo Pineapple</strong></div><div class='bl' align='center'><img class='introPic' src='Fruit/bananas.png'><br><strong>Banana Bonanza</strong></div><div class='br' align='center'><img class='introPic' src='Fruit/lime.png'><br><strong>Limin' Large</strong></div></div><p>Across <strong>66 rounds</strong> you will play each lottery <strong>22 times</strong> (in random order).<p style='align:center; color:white'><font <em>Press SPACEBAR to continue</em></p>","null","","","","","","","","","","",""
"instructions","9","103887","0.0-10.0","5b608617208f1c000100bdeb","bdp_rwlrn","Sat Apr 08 2023 10:59:43 GMT-0400 (Eastern Daylight Time)","455840","Trustworthy,Untrustworthy","[{""page_index"":0,""viewing_time"":2581},{""page_index"":1,""viewing_time"":3296}]","5877","","","","","","","","","","","","","","","","","",""
"html-keyboard-response","10","108540","0.0-11.0-1.0","5b608617208f1c000100bdeb","bdp_rwlrn","Sat Apr 08 2023 10:59:43 GMT-0400 (Eastern Daylight Time)","455840","Trustworthy,Untrustworthy","","4537","","","","decision","","<div class='trialDiv'><img src='Fruit/lime.png'><br><font class='baseline'><strong>Limin' Large</strong><p>Choose number of points to bet.</font><div class='respPicDiv'><img src='img/responseButtonOffersNo0L.png' class='respPic'></div></div>","4","1","Limin' Large","Fruit/lime.png","Lost","0.8,0.35","12","0.8","5","1","",""
"html-keyboard-response","11","108797","0.0-11.0-2.0","5b608617208f1c000100bdeb","bdp_rwlrn","Sat Apr 08 2023 10:59:43 GMT-0400 (Eastern Daylight Time)","455840","Trustworthy,Untrustworthy","","null","","","","decisionFB","","<div class='trialDiv'><img src='Fruit/lime.png'><br><font class='baseline'><strong>Limin' Large</strong><p>Choose number of points to bet.</font><div class='respPicDiv'><img src='img/responseButtonOffersNo0L4.png' class='respPic'></div></div>","null","1","Limin' Large","Fruit/lime.png","Lost","0.8,0.35","12","0.8","1","1","",""
"html-keyboard-response","12","109804","0.0-11.0-3.0","5b608617208f1c000100bdeb","bdp_rwlrn","Sat Apr 08 2023 10:59:43 GMT-0400 (Eastern Daylight Time)","455840","Trustworthy,Untrustworthy","","null","","","","feedback","","<div class='respPicDiv'><img src='img/responseButtonOffersNo0_wht.png' class='respPic'></div><div class='trialDiv'><img src='Fruit/lime.png'><br><font class='baseline'><strong>Limin' Large</strong><p><strong><font class='negOutcome'>You LOST</font><p>You bet: 4</strong></font> &nbsp; &nbsp; &nbsp; &nbsp; &nbsp; &nbsp;<font class='negOutcome'>You receive: <strong>0</strong></font></div>","null","1","Limin' Large","Fruit/lime.png","Lost","0.8,0.35","12","0.8","1","1","",""
"html-keyboard-response","13","112306","0.0-11.0-1.1","5b608617208f1c000100bdeb","bdp_rwlrn","Sat Apr 08 2023 10:59:43 GMT-0400 (Eastern Daylight Time)","455840","Trustworthy,Untrustworthy","","2501","","","","decision","","<div class='trialDiv'><img src='Fruit/bananas.png'><br><font class='baseline'><strong>Banana Bonanza</strong><p>Choose number of points to bet.</font><div class='respPicDiv'><img src='img/responseButtonOffersNo0L.png' class='respPic'></div></div>","5","1","Banana Bonanza","Fruit/bananas.png","Won","0.8,0.2","12","0.8","6","2","",""
"html-keyboard-response","14","112559","0.0-11.0-2.1","5b608617208f1c000100bdeb","bdp_rwlrn","Sat Apr 08 2023 10:59:43 GMT-0400 (Eastern Daylight Time)","455840","Trustworthy,Untrustworthy","","null","","","","decisionFB","","<div class='trialDiv'><img src='Fruit/bananas.png'><br><font class='baseline'><strong>Banana Bonanza</strong><p>Choose number of points to bet.</font><div class='respPicDiv'><img src='img/responseButtonOffersNo0L5.png' class='respPic'></div></div>","null","1","Banana Bonanza","Fruit/bananas.png","Won","0.8,0.2","12","0.8","1","2","",""
"html-keyboard-response","15","113565","0.0-11.0-3.1","5b608617208f1c000100bdeb","bdp_rwlrn","Sat Apr 08 2023 10:59:43 GMT-0400 (Eastern Daylight Time)","455840","Trustworthy,Untrustworthy","","null","","","","feedback","","<div class='respPicDiv'><img src='img/responseButtonOffersNo0_wht.png' class='respPic'></div><div class='trialDiv'><img src='Fruit/bananas.png'><br><font class='baseline'><strong>Banana Bonanza</strong><p><strong><font class='posOutcome'>You WON</font><p>You bet: 5</strong></font> &nbsp; &nbsp; &nbsp; &nbsp; &nbsp; &nbsp;<font class='posOutcome'>you receive: <strong>10</strong></font></div>","null","1","Banana Bonanza","Fruit/bananas.png","Won","0.8,0.2","12","0.8","11","2","",""
"html-keyboard-response","16","115850","0.0-11.0-1.2","5b608617208f1c000100bdeb","bdp_rwlrn","Sat Apr 08 2023 10:59:43 GMT-0400 (Eastern Daylight Time)","455840","Trustworthy,Untrustworthy","","2283","","","","decision","","<div class='trialDiv'><img src='Fruit/pineapple.png'><br><font class='baseline'><strong>Primo Pineapple</strong><p>Choose number of points to bet.</font><div class='respPicDiv'><img src='img/responseButtonOffersNo0L.png' class='respPic'></div></div>","5","1","Primo Pineapple","Fruit/pineapple.png","Lost","0.35,0.8","8","0.35","16","3","",""
"html-keyboard-response","17","116102","0.0-11.0-2.2","5b608617208f1c000100bdeb","bdp_rwlrn","Sat Apr 08 2023 10:59:43 GMT-0400 (Eastern Daylight Time)","455840","Trustworthy,Untrustworthy","","null","","","","decisionFB","","<div class='trialDiv'><img src='Fruit/pineapple.png'><br><font class='baseline'><strong>Primo Pineapple</strong><p>Choose number of points to bet.</font><div class='respPicDiv'><img src='img/responseButtonOffersNo0L5.png' class='respPic'></div></div>","null","1","Primo Pineapple","Fruit/pineapple.png","Lost","0.35,0.8","8","0.35","11","3","",""
"html-keyboard-response","18","117110","0.0-11.0-3.2","5b608617208f1c000100bdeb","bdp_rwlrn","Sat Apr 08 2023 10:59:43 GMT-0400 (Eastern Daylight Time)","455840","Trustworthy,Untrustworthy","","null","","","","feedback","","<div class='respPicDiv'><img src='img/responseButtonOffersNo0_wht.png' class='respPic'></div><div class='trialDiv'><img src='Fruit/pineapple.png'><br><font class='baseline'><strong>Primo Pineapple</strong><p><strong><font class='negOutcome'>You LOST</font><p>You bet: 5</strong></font> &nbsp; &nbsp; &nbsp; &nbsp; &nbsp; &nbsp;<font class='negOutcome'>You receive: <strong>0</strong></font></div>","null","1","Primo Pineapple","Fruit/pineapple.png","Lost","0.35,0.8","8","0.35","11","3","",""
"html-keyboard-response","19","119471","0.0-11.0-1.3","5b608617208f1c000100bdeb","bdp_rwlrn","Sat Apr 08 2023 10:59:43 GMT-0400 (Eastern Daylight Time)","455840","Trustworthy,Untrustworthy","","2360","","","","decision","","<div class='trialDiv'><img src='Fruit/bananas.png'><br><font class='baseline'><strong>Banana Bonanza</strong><p>Choose number of points to bet.</font><div class='respPicDiv'><img src='img/responseButtonOffersNo0L.png' class='respPic'></div></div>","5","2","Banana Bonanza","Fruit/bananas.png","Won","0.8,0.2","12","0.8","16","4","",""
"html-keyboard-response","20","119733","0.0-11.0-2.3","5b608617208f1c000100bdeb","bdp_rwlrn","Sat Apr 08 2023 10:59:43 GMT-0400 (Eastern Daylight Time)","455840","Trustworthy,Untrustworthy","","null","","","","decisionFB","","<div class='trialDiv'><img src='Fruit/bananas.png'><br><font class='baseline'><strong>Banana Bonanza</strong><p>Choose number of points to bet.</font><div class='respPicDiv'><img src='img/responseButtonOffersNo0L5.png' class='respPic'></div></div>","null","2","Banana Bonanza","Fruit/bananas.png","Won","0.8,0.2","12","0.8","11","4","",""
"html-keyboard-response","21","120739","0.0-11.0-3.3","5b608617208f1c000100bdeb","bdp_rwlrn","Sat Apr 08 2023 10:59:43 GMT-0400 (Eastern Daylight Time)","455840","Trustworthy,Untrustworthy","","null","","","","feedback","","<div class='respPicDiv'><img src='img/responseButtonOffersNo0_wht.png' class='respPic'></div><div class='trialDiv'><img src='Fruit/bananas.png'><br><font class='baseline'><strong>Banana Bonanza</strong><p><strong><font class='posOutcome'>You WON</font><p>You bet: 5</strong></font> &nbsp; &nbsp; &nbsp; &nbsp; &nbsp; &nbsp;<font class='posOutcome'>you receive: <strong>10</strong></font></div>","null","2","Banana Bonanza","Fruit/bananas.png","Won","0.8,0.2","12","0.8","21","4","",""
"html-keyboard-response","22","124148","0.0-11.0-1.4","5b608617208f1c000100bdeb","bdp_rwlrn","Sat Apr 08 2023 10:59:43 GMT-0400 (Eastern Daylight Time)","455840","Trustworthy,Untrustworthy","","3408","","","","decision","","<div class='trialDiv'><img src='Fruit/pineapple.png'><br><font class='baseline'><strong>Primo Pineapple</strong><p>Choose number of points to bet.</font><div class='respPicDiv'><img src='img/responseButtonOffersNo0L.png' class='respPic'></div></div>","5","2","Primo Pineapple","Fruit/pineapple.png","Lost","0.35,0.8","8","0.35","26","5","",""
"html-keyboard-response","23","124401","0.0-11.0-2.4","5b608617208f1c000100bdeb","bdp_rwlrn","Sat Apr 08 2023 10:59:43 GMT-0400 (Eastern Daylight Time)","455840","Trustworthy,Untrustworthy","","null","","","","decisionFB","","<div class='trialDiv'><img src='Fruit/pineapple.png'><br><font class='baseline'><strong>Primo Pineapple</strong><p>Choose number of points to bet.</font><div class='respPicDiv'><img src='img/responseButtonOffersNo0L5.png' class='respPic'></div></div>","null","2","Primo Pineapple","Fruit/pineapple.png","Lost","0.35,0.8","8","0.35","21","5","",""
"html-keyboard-response","24","125408","0.0-11.0-3.4","5b608617208f1c000100bdeb","bdp_rwlrn","Sat Apr 08 2023 10:59:43 GMT-0400 (Eastern Daylight Time)","455840","Trustworthy,Untrustworthy","","null","","","","feedback","","<div class='respPicDiv'><img src='img/responseButtonOffersNo0_wht.png' class='respPic'></div><div class='trialDiv'><img src='Fruit/pineapple.png'><br><font class='baseline'><strong>Primo Pineapple</strong><p><strong><font class='negOutcome'>You LOST</font><p>You bet: 5</strong></font> &nbsp; &nbsp; &nbsp; &nbsp; &nbsp; &nbsp;<font class='negOutcome'>You receive: <strong>0</strong></font></div>","null","2","Primo Pineapple","Fruit/pineapple.png","Lost","0.35,0.8","8","0.35","21","5","",""
"html-keyboard-response","25","126631","0.0-11.0-1.5","5b608617208f1c000100bdeb","bdp_rwlrn","Sat Apr 08 2023 10:59:43 GMT-0400 (Eastern Daylight Time)","455840","Trustworthy,Untrustworthy","","1222","","","","decision","","<div class='trialDiv'><img src='Fruit/lime.png'><br><font class='baseline'><strong>Limin' Large</strong><p>Choose number of points to bet.</font><div class='respPicDiv'><img src='img/responseButtonOffersNo0L.png' class='respPic'></div></div>","5","2","Limin' Large","Fruit/lime.png","Won","0.8,0.35","12","0.8","26","6","",""
"html-keyboard-response","26","126890","0.0-11.0-2.5","5b608617208f1c000100bdeb","bdp_rwlrn","Sat Apr 08 2023 10:59:43 GMT-0400 (Eastern Daylight Time)","455840","Trustworthy,Untrustworthy","","null","","","","decisionFB","","<div class='trialDiv'><img src='Fruit/lime.png'><br><font class='baseline'><strong>Limin' Large</strong><p>Choose number of points to bet.</font><div class='respPicDiv'><img src='img/responseButtonOffersNo0L5.png' class='respPic'></div></div>","null","2","Limin' Large","Fruit/lime.png","Won","0.8,0.35","12","0.8","21","6","",""
"html-keyboard-response","27","127903","0.0-11.0-3.5","5b608617208f1c000100bdeb","bdp_rwlrn","Sat Apr 08 2023 10:59:43 GMT-0400 (Eastern Daylight Time)","455840","Trustworthy,Untrustworthy","","null","","","","feedback","","<div class='respPicDiv'><img src='img/responseButtonOffersNo0_wht.png' class='respPic'></div><div class='trialDiv'><img src='Fruit/lime.png'><br><font class='baseline'><strong>Limin' Large</strong><p><strong><font class='posOutcome'>You WON</font><p>You bet: 5</strong></font> &nbsp; &nbsp; &nbsp; &nbsp; &nbsp; &nbsp;<font class='posOutcome'>you receive: <strong>10</strong></font></div>","null","2","Limin' Large","Fruit/lime.png","Won","0.8,0.35","12","0.8","31","6","",""
"html-keyboard-response","28","130144","0.0-11.0-1.6","5b608617208f1c000100bdeb","bdp_rwlrn","Sat Apr 08 2023 10:59:43 GMT-0400 (Eastern Daylight Time)","455840","Trustworthy,Untrustworthy","","2239","","","","decision","","<div class='trialDiv'><img src='Fruit/bananas.png'><br><font class='baseline'><strong>Banana Bonanza</strong><p>Choose number of points to bet.</font><div class='respPicDiv'><img src='img/responseButtonOffersNo0L.png' class='respPic'></div></div>","3","3","Banana Bonanza","Fruit/bananas.png","Won","0.8,0.2","12","0.8","36","7","",""
"html-keyboard-response","29","130405","0.0-11.0-2.6","5b608617208f1c000100bdeb","bdp_rwlrn","Sat Apr 08 2023 10:59:43 GMT-0400 (Eastern Daylight Time)","455840","Trustworthy,Untrustworthy","","null","","","","decisionFB","","<div class='trialDiv'><img src='Fruit/bananas.png'><br><font class='baseline'><strong>Banana Bonanza</strong><p>Choose number of points to bet.</font><div class='respPicDiv'><img src='img/responseButtonOffersNo0L3.png' class='respPic'></div></div>","null","3","Banana Bonanza","Fruit/bananas.png","Won","0.8,0.2","12","0.8","33","7","",""
"html-keyboard-response","30","131413","0.0-11.0-3.6","5b608617208f1c000100bdeb","bdp_rwlrn","Sat Apr 08 2023 10:59:43 GMT-0400 (Eastern Daylight Time)","455840","Trustworthy,Untrustworthy","","null","","","","feedback","","<div class='respPicDiv'><img src='img/responseButtonOffersNo0_wht.png' class='respPic'></div><div class='trialDiv'><img src='Fruit/bananas.png'><br><font class='baseline'><strong>Banana Bonanza</strong><p><strong><font class='posOutcome'>You WON</font><p>You bet: 3</strong></font> &nbsp; &nbsp; &nbsp; &nbsp; &nbsp; &nbsp;<font class='posOutcome'>you receive: <strong>6</strong></font></div>","null","3","Banana Bonanza","Fruit/bananas.png","Won","0.8,0.2","12","0.8","39","7","",""
"html-keyboard-response","31","133981","0.0-11.0-1.7","5b608617208f1c000100bdeb","bdp_rwlrn","Sat Apr 08 2023 10:59:43 GMT-0400 (Eastern Daylight Time)","455840","Trustworthy,Untrustworthy","","2568","","","","decision","","<div class='trialDiv'><img src='Fruit/lime.png'><br><font class='baseline'><strong>Limin' Large</strong><p>Choose number of points to bet.</font><div class='respPicDiv'><img src='img/responseButtonOffersNo0L.png' class='respPic'></div></div>","1","3","Limin' Large","Fruit/lime.png","Won","0.8,0.35","12","0.8","44","8","",""
"html-keyboard-response","32","134235","0.0-11.0-2.7","5b608617208f1c000100bdeb","bdp_rwlrn","Sat Apr 08 2023 10:59:43 GMT-0400 (Eastern Daylight Time)","455840","Trustworthy,Untrustworthy","","null","","","","decisionFB","","<div class='trialDiv'><img src='Fruit/lime.png'><br><font class='baseline'><strong>Limin' Large</strong><p>Choose number of points to bet.</font><div class='respPicDiv'><img src='img/responseButtonOffersNo0L1.png' class='respPic'></div></div>","null","3","Limin' Large","Fruit/lime.png","Won","0.8,0.35","12","0.8","43","8","",""
"html-keyboard-response","33","135240","0.0-11.0-3.7","5b608617208f1c000100bdeb","bdp_rwlrn","Sat Apr 08 2023 10:59:43 GMT-0400 (Eastern Daylight Time)","455840","Trustworthy,Untrustworthy","","null","","","","feedback","","<div class='respPicDiv'><img src='img/responseButtonOffersNo0_wht.png' class='respPic'></div><div class='trialDiv'><img src='Fruit/lime.png'><br><font class='baseline'><strong>Limin' Large</strong><p><strong><font class='posOutcome'>You WON</font><p>You bet: 1</strong></font> &nbsp; &nbsp; &nbsp; &nbsp; &nbsp; &nbsp;<font class='posOutcome'>you receive: <strong>2</strong></font></div>","null","3","Limin' Large","Fruit/lime.png","Won","0.8,0.35","12","0.8","45","8","",""
"html-keyboard-response","34","136754","0.0-11.0-1.8","5b608617208f1c000100bdeb","bdp_rwlrn","Sat Apr 08 2023 10:59:43 GMT-0400 (Eastern Daylight Time)","455840","Trustworthy,Untrustworthy","","1513","","","","decision","","<div class='trialDiv'><img src='Fruit/pineapple.png'><br><font class='baseline'><strong>Primo Pineapple</strong><p>Choose number of points to bet.</font><div class='respPicDiv'><img src='img/responseButtonOffersNo0L.png' class='respPic'></div></div>","1","3","Primo Pineapple","Fruit/pineapple.png","Won","0.35,0.8","8","0.35","50","9","",""
"html-keyboard-response","35","137007","0.0-11.0-2.8","5b608617208f1c000100bdeb","bdp_rwlrn","Sat Apr 08 2023 10:59:43 GMT-0400 (Eastern Daylight Time)","455840","Trustworthy,Untrustworthy","","null","","","","decisionFB","","<div class='trialDiv'><img src='Fruit/pineapple.png'><br><font class='baseline'><strong>Primo Pineapple</strong><p>Choose number of points to bet.</font><div class='respPicDiv'><img src='img/responseButtonOffersNo0L1.png' class='respPic'></div></div>","null","3","Primo Pineapple","Fruit/pineapple.png","Won","0.35,0.8","8","0.35","49","9","",""
"html-keyboard-response","36","138013","0.0-11.0-3.8","5b608617208f1c000100bdeb","bdp_rwlrn","Sat Apr 08 2023 10:59:43 GMT-0400 (Eastern Daylight Time)","455840","Trustworthy,Untrustworthy","","null","","","","feedback","","<div class='respPicDiv'><img src='img/responseButtonOffersNo0_wht.png' class='respPic'></div><div class='trialDiv'><img src='Fruit/pineapple.png'><br><font class='baseline'><strong>Primo Pineapple</strong><p><strong><font class='posOutcome'>You WON</font><p>You bet: 1</strong></font> &nbsp; &nbsp; &nbsp; &nbsp; &nbsp; &nbsp;<font class='posOutcome'>you receive: <strong>2</strong></font></div>","null","3","Primo Pineapple","Fruit/pineapple.png","Won","0.35,0.8","8","0.35","51","9","",""
"html-keyboard-response","37","139521","0.0-11.0-1.9","5b608617208f1c000100bdeb","bdp_rwlrn","Sat Apr 08 2023 10:59:43 GMT-0400 (Eastern Daylight Time)","455840","Trustworthy,Untrustworthy","","1506","","","","decision","","<div class='trialDiv'><img src='Fruit/bananas.png'><br><font class='baseline'><strong>Banana Bonanza</strong><p>Choose number of points to bet.</font><div class='respPicDiv'><img src='img/responseButtonOffersNo0L.png' class='respPic'></div></div>","5","4","Banana Bonanza","Fruit/bananas.png","Won","0.8,0.2","12","0.8","56","10","",""
"html-keyboard-response","38","139778","0.0-11.0-2.9","5b608617208f1c000100bdeb","bdp_rwlrn","Sat Apr 08 2023 10:59:43 GMT-0400 (Eastern Daylight Time)","455840","Trustworthy,Untrustworthy","","null","","","","decisionFB","","<div class='trialDiv'><img src='Fruit/bananas.png'><br><font class='baseline'><strong>Banana Bonanza</strong><p>Choose number of points to bet.</font><div class='respPicDiv'><img src='img/responseButtonOffersNo0L5.png' class='respPic'></div></div>","null","4","Banana Bonanza","Fruit/bananas.png","Won","0.8,0.2","12","0.8","51","10","",""
"html-keyboard-response","39","140788","0.0-11.0-3.9","5b608617208f1c000100bdeb","bdp_rwlrn","Sat Apr 08 2023 10:59:43 GMT-0400 (Eastern Daylight Time)","455840","Trustworthy,Untrustworthy","","null","","","","feedback","","<div class='respPicDiv'><img src='img/responseButtonOffersNo0_wht.png' class='respPic'></div><div class='trialDiv'><img src='Fruit/bananas.png'><br><font class='baseline'><strong>Banana Bonanza</strong><p><strong><font class='posOutcome'>You WON</font><p>You bet: 5</strong></font> &nbsp; &nbsp; &nbsp; &nbsp; &nbsp; &nbsp;<font class='posOutcome'>you receive: <strong>10</strong></font></div>","null","4","Banana Bonanza","Fruit/bananas.png","Won","0.8,0.2","12","0.8","61","10","",""
"html-keyboard-response","40","143092","0.0-11.0-1.10","5b608617208f1c000100bdeb","bdp_rwlrn","Sat Apr 08 2023 10:59:43 GMT-0400 (Eastern Daylight Time)","455840","Trustworthy,Untrustworthy","","2302","","","","decision","","<div class='trialDiv'><img src='Fruit/lime.png'><br><font class='baseline'><strong>Limin' Large</strong><p>Choose number of points to bet.</font><div class='respPicDiv'><img src='img/responseButtonOffersNo0L.png' class='respPic'></div></div>","3","4","Limin' Large","Fruit/lime.png","Lost","0.8,0.35","12","0.8","66","11","",""
"html-keyboard-response","41","143356","0.0-11.0-2.10","5b608617208f1c000100bdeb","bdp_rwlrn","Sat Apr 08 2023 10:59:43 GMT-0400 (Eastern Daylight Time)","455840","Trustworthy,Untrustworthy","","null","","","","decisionFB","","<div class='trialDiv'><img src='Fruit/lime.png'><br><font class='baseline'><strong>Limin' Large</strong><p>Choose number of points to bet.</font><div class='respPicDiv'><img src='img/responseButtonOffersNo0L3.png' class='respPic'></div></div>","null","4","Limin' Large","Fruit/lime.png","Lost","0.8,0.35","12","0.8","63","11","",""
"html-keyboard-response","42","144370","0.0-11.0-3.10","5b608617208f1c000100bdeb","bdp_rwlrn","Sat Apr 08 2023 10:59:43 GMT-0400 (Eastern Daylight Time)","455840","Trustworthy,Untrustworthy","","null","","","","feedback","","<div class='respPicDiv'><img src='img/responseButtonOffersNo0_wht.png' class='respPic'></div><div class='trialDiv'><img src='Fruit/lime.png'><br><font class='baseline'><strong>Limin' Large</strong><p><strong><font class='negOutcome'>You LOST</font><p>You bet: 3</strong></font> &nbsp; &nbsp; &nbsp; &nbsp; &nbsp; &nbsp;<font class='negOutcome'>You receive: <strong>0</strong></font></div>","null","4","Limin' Large","Fruit/lime.png","Lost","0.8,0.35","12","0.8","63","11","",""
"html-keyboard-response","43","146004","0.0-11.0-1.11","5b608617208f1c000100bdeb","bdp_rwlrn","Sat Apr 08 2023 10:59:43 GMT-0400 (Eastern Daylight Time)","455840","Trustworthy,Untrustworthy","","1632","","","","decision","","<div class='trialDiv'><img src='Fruit/pineapple.png'><br><font class='baseline'><strong>Primo Pineapple</strong><p>Choose number of points to bet.</font><div class='respPicDiv'><img src='img/responseButtonOffersNo0L.png' class='respPic'></div></div>","5","4","Primo Pineapple","Fruit/pineapple.png","Won","0.35,0.8","8","0.35","68","12","",""
"html-keyboard-response","44","146260","0.0-11.0-2.11","5b608617208f1c000100bdeb","bdp_rwlrn","Sat Apr 08 2023 10:59:43 GMT-0400 (Eastern Daylight Time)","455840","Trustworthy,Untrustworthy","","null","","","","decisionFB","","<div class='trialDiv'><img src='Fruit/pineapple.png'><br><font class='baseline'><strong>Primo Pineapple</strong><p>Choose number of points to bet.</font><div class='respPicDiv'><img src='img/responseButtonOffersNo0L5.png' class='respPic'></div></div>","null","4","Primo Pineapple","Fruit/pineapple.png","Won","0.35,0.8","8","0.35","63","12","",""
"html-keyboard-response","45","147264","0.0-11.0-3.11","5b608617208f1c000100bdeb","bdp_rwlrn","Sat Apr 08 2023 10:59:43 GMT-0400 (Eastern Daylight Time)","455840","Trustworthy,Untrustworthy","","null","","","","feedback","","<div class='respPicDiv'><img src='img/responseButtonOffersNo0_wht.png' class='respPic'></div><div class='trialDiv'><img src='Fruit/pineapple.png'><br><font class='baseline'><strong>Primo Pineapple</strong><p><strong><font class='posOutcome'>You WON</font><p>You bet: 5</strong></font> &nbsp; &nbsp; &nbsp; &nbsp; &nbsp; &nbsp;<font class='posOutcome'>you receive: <strong>10</strong></font></div>","null","4","Primo Pineapple","Fruit/pineapple.png","Won","0.35,0.8","8","0.35","73","12","",""
"html-keyboard-response","46","148090","0.0-11.0-1.12","5b608617208f1c000100bdeb","bdp_rwlrn","Sat Apr 08 2023 10:59:43 GMT-0400 (Eastern Daylight Time)","455840","Trustworthy,Untrustworthy","","825","","","","decision","","<div class='trialDiv'><img src='Fruit/bananas.png'><br><font class='baseline'><strong>Banana Bonanza</strong><p>Choose number of points to bet.</font><div class='respPicDiv'><img src='img/responseButtonOffersNo0L.png' class='respPic'></div></div>","5","5","Banana Bonanza","Fruit/bananas.png","Won","0.8,0.2","12","0.8","78","13","",""
"html-keyboard-response","47","148347","0.0-11.0-2.12","5b608617208f1c000100bdeb","bdp_rwlrn","Sat Apr 08 2023 10:59:43 GMT-0400 (Eastern Daylight Time)","455840","Trustworthy,Untrustworthy","","null","","","","decisionFB","","<div class='trialDiv'><img src='Fruit/bananas.png'><br><font class='baseline'><strong>Banana Bonanza</strong><p>Choose number of points to bet.</font><div class='respPicDiv'><img src='img/responseButtonOffersNo0L5.png' class='respPic'></div></div>","null","5","Banana Bonanza","Fruit/bananas.png","Won","0.8,0.2","12","0.8","73","13","",""
"html-keyboard-response","48","149355","0.0-11.0-3.12","5b608617208f1c000100bdeb","bdp_rwlrn","Sat Apr 08 2023 10:59:43 GMT-0400 (Eastern Daylight Time)","455840","Trustworthy,Untrustworthy","","null","","","","feedback","","<div class='respPicDiv'><img src='img/responseButtonOffersNo0_wht.png' class='respPic'></div><div class='trialDiv'><img src='Fruit/bananas.png'><br><font class='baseline'><strong>Banana Bonanza</strong><p><strong><font class='posOutcome'>You WON</font><p>You bet: 5</strong></font> &nbsp; &nbsp; &nbsp; &nbsp; &nbsp; &nbsp;<font class='posOutcome'>you receive: <strong>10</strong></font></div>","null","5","Banana Bonanza","Fruit/bananas.png","Won","0.8,0.2","12","0.8","83","13","",""
"html-keyboard-response","49","151062","0.0-11.0-1.13","5b608617208f1c000100bdeb","bdp_rwlrn","Sat Apr 08 2023 10:59:43 GMT-0400 (Eastern Daylight Time)","455840","Trustworthy,Untrustworthy","","1705","","","","decision","","<div class='trialDiv'><img src='Fruit/pineapple.png'><br><font class='baseline'><strong>Primo Pineapple</strong><p>Choose number of points to bet.</font><div class='respPicDiv'><img src='img/responseButtonOffersNo0L.png' class='respPic'></div></div>","1","5","Primo Pineapple","Fruit/pineapple.png","Lost","0.35,0.8","8","0.35","88","14","",""
"html-keyboard-response","50","151314","0.0-11.0-2.13","5b608617208f1c000100bdeb","bdp_rwlrn","Sat Apr 08 2023 10:59:43 GMT-0400 (Eastern Daylight Time)","455840","Trustworthy,Untrustworthy","","null","","","","decisionFB","","<div class='trialDiv'><img src='Fruit/pineapple.png'><br><font class='baseline'><strong>Primo Pineapple</strong><p>Choose number of points to bet.</font><div class='respPicDiv'><img src='img/responseButtonOffersNo0L1.png' class='respPic'></div></div>","null","5","Primo Pineapple","Fruit/pineapple.png","Lost","0.35,0.8","8","0.35","87","14","",""
"html-keyboard-response","51","152324","0.0-11.0-3.13","5b608617208f1c000100bdeb","bdp_rwlrn","Sat Apr 08 2023 10:59:43 GMT-0400 (Eastern Daylight Time)","455840","Trustworthy,Untrustworthy","","null","","","","feedback","","<div class='respPicDiv'><img src='img/responseButtonOffersNo0_wht.png' class='respPic'></div><div class='trialDiv'><img src='Fruit/pineapple.png'><br><font class='baseline'><strong>Primo Pineapple</strong><p><strong><font class='negOutcome'>You LOST</font><p>You bet: 1</strong></font> &nbsp; &nbsp; &nbsp; &nbsp; &nbsp; &nbsp;<font class='negOutcome'>You receive: <strong>0</strong></font></div>","null","5","Primo Pineapple","Fruit/pineapple.png","Lost","0.35,0.8","8","0.35","87","14","",""
"html-keyboard-response","52","153286","0.0-11.0-1.14","5b608617208f1c000100bdeb","bdp_rwlrn","Sat Apr 08 2023 10:59:43 GMT-0400 (Eastern Daylight Time)","455840","Trustworthy,Untrustworthy","","960","","","","decision","","<div class='trialDiv'><img src='Fruit/lime.png'><br><font class='baseline'><strong>Limin' Large</strong><p>Choose number of points to bet.</font><div class='respPicDiv'><img src='img/responseButtonOffersNo0L.png' class='respPic'></div></div>","5","5","Limin' Large","Fruit/lime.png","Lost","0.8,0.35","12","0.8","92","15","",""
"html-keyboard-response","53","153544","0.0-11.0-2.14","5b608617208f1c000100bdeb","bdp_rwlrn","Sat Apr 08 2023 10:59:43 GMT-0400 (Eastern Daylight Time)","455840","Trustworthy,Untrustworthy","","null","","","","decisionFB","","<div class='trialDiv'><img src='Fruit/lime.png'><br><font class='baseline'><strong>Limin' Large</strong><p>Choose number of points to bet.</font><div class='respPicDiv'><img src='img/responseButtonOffersNo0L5.png' class='respPic'></div></div>","null","5","Limin' Large","Fruit/lime.png","Lost","0.8,0.35","12","0.8","87","15","",""
"html-keyboard-response","54","154556","0.0-11.0-3.14","5b608617208f1c000100bdeb","bdp_rwlrn","Sat Apr 08 2023 10:59:43 GMT-0400 (Eastern Daylight Time)","455840","Trustworthy,Untrustworthy","","null","","","","feedback","","<div class='respPicDiv'><img src='img/responseButtonOffersNo0_wht.png' class='respPic'></div><div class='trialDiv'><img src='Fruit/lime.png'><br><font class='baseline'><strong>Limin' Large</strong><p><strong><font class='negOutcome'>You LOST</font><p>You bet: 5</strong></font> &nbsp; &nbsp; &nbsp; &nbsp; &nbsp; &nbsp;<font class='negOutcome'>You receive: <strong>0</strong></font></div>","null","5","Limin' Large","Fruit/lime.png","Lost","0.8,0.35","12","0.8","87","15","",""
"html-keyboard-response","55","155301","0.0-11.0-1.15","5b608617208f1c000100bdeb","bdp_rwlrn","Sat Apr 08 2023 10:59:43 GMT-0400 (Eastern Daylight Time)","455840","Trustworthy,Untrustworthy","","744","","","","decision","","<div class='trialDiv'><img src='Fruit/pineapple.png'><br><font class='baseline'><strong>Primo Pineapple</strong><p>Choose number of points to bet.</font><div class='respPicDiv'><img src='img/responseButtonOffersNo0L.png' class='respPic'></div></div>","5","6","Primo Pineapple","Fruit/pineapple.png","Lost","0.35,0.8","8","0.35","92","16","",""
"html-keyboard-response","56","155561","0.0-11.0-2.15","5b608617208f1c000100bdeb","bdp_rwlrn","Sat Apr 08 2023 10:59:43 GMT-0400 (Eastern Daylight Time)","455840","Trustworthy,Untrustworthy","","null","","","","decisionFB","","<div class='trialDiv'><img src='Fruit/pineapple.png'><br><font class='baseline'><strong>Primo Pineapple</strong><p>Choose number of points to bet.</font><div class='respPicDiv'><img src='img/responseButtonOffersNo0L5.png' class='respPic'></div></div>","null","6","Primo Pineapple","Fruit/pineapple.png","Lost","0.35,0.8","8","0.35","87","16","",""
"html-keyboard-response","57","156575","0.0-11.0-3.15","5b608617208f1c000100bdeb","bdp_rwlrn","Sat Apr 08 2023 10:59:43 GMT-0400 (Eastern Daylight Time)","455840","Trustworthy,Untrustworthy","","null","","","","feedback","","<div class='respPicDiv'><img src='img/responseButtonOffersNo0_wht.png' class='respPic'></div><div class='trialDiv'><img src='Fruit/pineapple.png'><br><font class='baseline'><strong>Primo Pineapple</strong><p><strong><font class='negOutcome'>You LOST</font><p>You bet: 5</strong></font> &nbsp; &nbsp; &nbsp; &nbsp; &nbsp; &nbsp;<font class='negOutcome'>You receive: <strong>0</strong></font></div>","null","6","Primo Pineapple","Fruit/pineapple.png","Lost","0.35,0.8","8","0.35","87","16","",""
"html-keyboard-response","58","157578","0.0-11.0-1.16","5b608617208f1c000100bdeb","bdp_rwlrn","Sat Apr 08 2023 10:59:43 GMT-0400 (Eastern Daylight Time)","455840","Trustworthy,Untrustworthy","","1001","","","","decision","","<div class='trialDiv'><img src='Fruit/lime.png'><br><font class='baseline'><strong>Limin' Large</strong><p>Choose number of points to bet.</font><div class='respPicDiv'><img src='img/responseButtonOffersNo0L.png' class='respPic'></div></div>","5","6","Limin' Large","Fruit/lime.png","Won","0.8,0.35","12","0.8","92","17","",""
"html-keyboard-response","59","157830","0.0-11.0-2.16","5b608617208f1c000100bdeb","bdp_rwlrn","Sat Apr 08 2023 10:59:43 GMT-0400 (Eastern Daylight Time)","455840","Trustworthy,Untrustworthy","","null","","","","decisionFB","","<div class='trialDiv'><img src='Fruit/lime.png'><br><font class='baseline'><strong>Limin' Large</strong><p>Choose number of points to bet.</font><div class='respPicDiv'><img src='img/responseButtonOffersNo0L5.png' class='respPic'></div></div>","null","6","Limin' Large","Fruit/lime.png","Won","0.8,0.35","12","0.8","87","17","",""
"html-keyboard-response","60","158841","0.0-11.0-3.16","5b608617208f1c000100bdeb","bdp_rwlrn","Sat Apr 08 2023 10:59:43 GMT-0400 (Eastern Daylight Time)","455840","Trustworthy,Untrustworthy","","null","","","","feedback","","<div class='respPicDiv'><img src='img/responseButtonOffersNo0_wht.png' class='respPic'></div><div class='trialDiv'><img src='Fruit/lime.png'><br><font class='baseline'><strong>Limin' Large</strong><p><strong><font class='posOutcome'>You WON</font><p>You bet: 5</strong></font> &nbsp; &nbsp; &nbsp; &nbsp; &nbsp; &nbsp;<font class='posOutcome'>you receive: <strong>10</strong></font></div>","null","6","Limin' Large","Fruit/lime.png","Won","0.8,0.35","12","0.8","97","17","",""
"html-keyboard-response","61","160219","0.0-11.0-1.17","5b608617208f1c000100bdeb","bdp_rwlrn","Sat Apr 08 2023 10:59:43 GMT-0400 (Eastern Daylight Time)","455840","Trustworthy,Untrustworthy","","1377","","","","decision","","<div class='trialDiv'><img src='Fruit/bananas.png'><br><font class='baseline'><strong>Banana Bonanza</strong><p>Choose number of points to bet.</font><div class='respPicDiv'><img src='img/responseButtonOffersNo0L.png' class='respPic'></div></div>","5","6","Banana Bonanza","Fruit/bananas.png","Won","0.8,0.2","12","0.8","102","18","",""
"html-keyboard-response","62","160484","0.0-11.0-2.17","5b608617208f1c000100bdeb","bdp_rwlrn","Sat Apr 08 2023 10:59:43 GMT-0400 (Eastern Daylight Time)","455840","Trustworthy,Untrustworthy","","null","","","","decisionFB","","<div class='trialDiv'><img src='Fruit/bananas.png'><br><font class='baseline'><strong>Banana Bonanza</strong><p>Choose number of points to bet.</font><div class='respPicDiv'><img src='img/responseButtonOffersNo0L5.png' class='respPic'></div></div>","null","6","Banana Bonanza","Fruit/bananas.png","Won","0.8,0.2","12","0.8","97","18","",""
"html-keyboard-response","63","161497","0.0-11.0-3.17","5b608617208f1c000100bdeb","bdp_rwlrn","Sat Apr 08 2023 10:59:43 GMT-0400 (Eastern Daylight Time)","455840","Trustworthy,Untrustworthy","","null","","","","feedback","","<div class='respPicDiv'><img src='img/responseButtonOffersNo0_wht.png' class='respPic'></div><div class='trialDiv'><img src='Fruit/bananas.png'><br><font class='baseline'><strong>Banana Bonanza</strong><p><strong><font class='posOutcome'>You WON</font><p>You bet: 5</strong></font> &nbsp; &nbsp; &nbsp; &nbsp; &nbsp; &nbsp;<font class='posOutcome'>you receive: <strong>10</strong></font></div>","null","6","Banana Bonanza","Fruit/bananas.png","Won","0.8,0.2","12","0.8","107","18","",""
"html-keyboard-response","64","163433","0.0-11.0-1.18","5b608617208f1c000100bdeb","bdp_rwlrn","Sat Apr 08 2023 10:59:43 GMT-0400 (Eastern Daylight Time)","455840","Trustworthy,Untrustworthy","","1935","","","","decision","","<div class='trialDiv'><img src='Fruit/pineapple.png'><br><font class='baseline'><strong>Primo Pineapple</strong><p>Choose number of points to bet.</font><div class='respPicDiv'><img src='img/responseButtonOffersNo0L.png' class='respPic'></div></div>","1","7","Primo Pineapple","Fruit/pineapple.png","Lost","0.35,0.8","8","0.35","112","19","",""
"html-keyboard-response","65","163687","0.0-11.0-2.18","5b608617208f1c000100bdeb","bdp_rwlrn","Sat Apr 08 2023 10:59:43 GMT-0400 (Eastern Daylight Time)","455840","Trustworthy,Untrustworthy","","null","","","","decisionFB","","<div class='trialDiv'><img src='Fruit/pineapple.png'><br><font class='baseline'><strong>Primo Pineapple</strong><p>Choose number of points to bet.</font><div class='respPicDiv'><img src='img/responseButtonOffersNo0L1.png' class='respPic'></div></div>","null","7","Primo Pineapple","Fruit/pineapple.png","Lost","0.35,0.8","8","0.35","111","19","",""
"html-keyboard-response","66","164705","0.0-11.0-3.18","5b608617208f1c000100bdeb","bdp_rwlrn","Sat Apr 08 2023 10:59:43 GMT-0400 (Eastern Daylight Time)","455840","Trustworthy,Untrustworthy","","null","","","","feedback","","<div class='respPicDiv'><img src='img/responseButtonOffersNo0_wht.png' class='respPic'></div><div class='trialDiv'><img src='Fruit/pineapple.png'><br><font class='baseline'><strong>Primo Pineapple</strong><p><strong><font class='negOutcome'>You LOST</font><p>You bet: 1</strong></font> &nbsp; &nbsp; &nbsp; &nbsp; &nbsp; &nbsp;<font class='negOutcome'>You receive: <strong>0</strong></font></div>","null","7","Primo Pineapple","Fruit/pineapple.png","Lost","0.35,0.8","8","0.35","111","19","",""
"html-keyboard-response","67","165821","0.0-11.0-1.19","5b608617208f1c000100bdeb","bdp_rwlrn","Sat Apr 08 2023 10:59:43 GMT-0400 (Eastern Daylight Time)","455840","Trustworthy,Untrustworthy","","1113","","","","decision","","<div class='trialDiv'><img src='Fruit/lime.png'><br><font class='baseline'><strong>Limin' Large</strong><p>Choose number of points to bet.</font><div class='respPicDiv'><img src='img/responseButtonOffersNo0L.png' class='respPic'></div></div>","5","7","Limin' Large","Fruit/lime.png","Lost","0.8,0.35","12","0.8","116","20","",""
"html-keyboard-response","68","166086","0.0-11.0-2.19","5b608617208f1c000100bdeb","bdp_rwlrn","Sat Apr 08 2023 10:59:43 GMT-0400 (Eastern Daylight Time)","455840","Trustworthy,Untrustworthy","","null","","","","decisionFB","","<div class='trialDiv'><img src='Fruit/lime.png'><br><font class='baseline'><strong>Limin' Large</strong><p>Choose number of points to bet.</font><div class='respPicDiv'><img src='img/responseButtonOffersNo0L5.png' class='respPic'></div></div>","null","7","Limin' Large","Fruit/lime.png","Lost","0.8,0.35","12","0.8","111","20","",""
"html-keyboard-response","69","167094","0.0-11.0-3.19","5b608617208f1c000100bdeb","bdp_rwlrn","Sat Apr 08 2023 10:59:43 GMT-0400 (Eastern Daylight Time)","455840","Trustworthy,Untrustworthy","","null","","","","feedback","","<div class='respPicDiv'><img src='img/responseButtonOffersNo0_wht.png' class='respPic'></div><div class='trialDiv'><img src='Fruit/lime.png'><br><font class='baseline'><strong>Limin' Large</strong><p><strong><font class='negOutcome'>You LOST</font><p>You bet: 5</strong></font> &nbsp; &nbsp; &nbsp; &nbsp; &nbsp; &nbsp;<font class='negOutcome'>You receive: <strong>0</strong></font></div>","null","7","Limin' Large","Fruit/lime.png","Lost","0.8,0.35","12","0.8","111","20","",""
"html-keyboard-response","70","168219","0.0-11.0-1.20","5b608617208f1c000100bdeb","bdp_rwlrn","Sat Apr 08 2023 10:59:43 GMT-0400 (Eastern Daylight Time)","455840","Trustworthy,Untrustworthy","","1123","","","","decision","","<div class='trialDiv'><img src='Fruit/bananas.png'><br><font class='baseline'><strong>Banana Bonanza</strong><p>Choose number of points to bet.</font><div class='respPicDiv'><img src='img/responseButtonOffersNo0L.png' class='respPic'></div></div>","5","7","Banana Bonanza","Fruit/bananas.png","Won","0.8,0.2","12","0.8","116","21","",""
"html-keyboard-response","71","168477","0.0-11.0-2.20","5b608617208f1c000100bdeb","bdp_rwlrn","Sat Apr 08 2023 10:59:43 GMT-0400 (Eastern Daylight Time)","455840","Trustworthy,Untrustworthy","","null","","","","decisionFB","","<div class='trialDiv'><img src='Fruit/bananas.png'><br><font class='baseline'><strong>Banana Bonanza</strong><p>Choose number of points to bet.</font><div class='respPicDiv'><img src='img/responseButtonOffersNo0L5.png' class='respPic'></div></div>","null","7","Banana Bonanza","Fruit/bananas.png","Won","0.8,0.2","12","0.8","111","21","",""
"html-keyboard-response","72","169482","0.0-11.0-3.20","5b608617208f1c000100bdeb","bdp_rwlrn","Sat Apr 08 2023 10:59:43 GMT-0400 (Eastern Daylight Time)","455840","Trustworthy,Untrustworthy","","null","","","","feedback","","<div class='respPicDiv'><img src='img/responseButtonOffersNo0_wht.png' class='respPic'></div><div class='trialDiv'><img src='Fruit/bananas.png'><br><font class='baseline'><strong>Banana Bonanza</strong><p><strong><font class='posOutcome'>You WON</font><p>You bet: 5</strong></font> &nbsp; &nbsp; &nbsp; &nbsp; &nbsp; &nbsp;<font class='posOutcome'>you receive: <strong>10</strong></font></div>","null","7","Banana Bonanza","Fruit/bananas.png","Won","0.8,0.2","12","0.8","121","21","",""
"html-keyboard-response","73","171233","0.0-11.0-1.21","5b608617208f1c000100bdeb","bdp_rwlrn","Sat Apr 08 2023 10:59:43 GMT-0400 (Eastern Daylight Time)","455840","Trustworthy,Untrustworthy","","1749","","","","decision","","<div class='trialDiv'><img src='Fruit/lime.png'><br><font class='baseline'><strong>Limin' Large</strong><p>Choose number of points to bet.</font><div class='respPicDiv'><img src='img/responseButtonOffersNo0L.png' class='respPic'></div></div>","3","8","Limin' Large","Fruit/lime.png","Lost","0.8,0.35","12","0.8","126","22","",""
"html-keyboard-response","74","171496","0.0-11.0-2.21","5b608617208f1c000100bdeb","bdp_rwlrn","Sat Apr 08 2023 10:59:43 GMT-0400 (Eastern Daylight Time)","455840","Trustworthy,Untrustworthy","","null","","","","decisionFB","","<div class='trialDiv'><img src='Fruit/lime.png'><br><font class='baseline'><strong>Limin' Large</strong><p>Choose number of points to bet.</font><div class='respPicDiv'><img src='img/responseButtonOffersNo0L3.png' class='respPic'></div></div>","null","8","Limin' Large","Fruit/lime.png","Lost","0.8,0.35","12","0.8","123","22","",""
"html-keyboard-response","75","172510","0.0-11.0-3.21","5b608617208f1c000100bdeb","bdp_rwlrn","Sat Apr 08 2023 10:59:43 GMT-0400 (Eastern Daylight Time)","455840","Trustworthy,Untrustworthy","","null","","","","feedback","","<div class='respPicDiv'><img src='img/responseButtonOffersNo0_wht.png' class='respPic'></div><div class='trialDiv'><img src='Fruit/lime.png'><br><font class='baseline'><strong>Limin' Large</strong><p><strong><font class='negOutcome'>You LOST</font><p>You bet: 3</strong></font> &nbsp; &nbsp; &nbsp; &nbsp; &nbsp; &nbsp;<font class='negOutcome'>You receive: <strong>0</strong></font></div>","null","8","Limin' Large","Fruit/lime.png","Lost","0.8,0.35","12","0.8","123","22","",""
"html-keyboard-response","76","173465","0.0-11.0-1.22","5b608617208f1c000100bdeb","bdp_rwlrn","Sat Apr 08 2023 10:59:43 GMT-0400 (Eastern Daylight Time)","455840","Trustworthy,Untrustworthy","","954","","","","decision","","<div class='trialDiv'><img src='Fruit/pineapple.png'><br><font class='baseline'><strong>Primo Pineapple</strong><p>Choose number of points to bet.</font><div class='respPicDiv'><img src='img/responseButtonOffersNo0L.png' class='respPic'></div></div>","5","8","Primo Pineapple","Fruit/pineapple.png","Won","0.35,0.8","8","0.35","128","23","",""
"html-keyboard-response","77","173720","0.0-11.0-2.22","5b608617208f1c000100bdeb","bdp_rwlrn","Sat Apr 08 2023 10:59:43 GMT-0400 (Eastern Daylight Time)","455840","Trustworthy,Untrustworthy","","null","","","","decisionFB","","<div class='trialDiv'><img src='Fruit/pineapple.png'><br><font class='baseline'><strong>Primo Pineapple</strong><p>Choose number of points to bet.</font><div class='respPicDiv'><img src='img/responseButtonOffersNo0L5.png' class='respPic'></div></div>","null","8","Primo Pineapple","Fruit/pineapple.png","Won","0.35,0.8","8","0.35","123","23","",""
"html-keyboard-response","78","174723","0.0-11.0-3.22","5b608617208f1c000100bdeb","bdp_rwlrn","Sat Apr 08 2023 10:59:43 GMT-0400 (Eastern Daylight Time)","455840","Trustworthy,Untrustworthy","","null","","","","feedback","","<div class='respPicDiv'><img src='img/responseButtonOffersNo0_wht.png' class='respPic'></div><div class='trialDiv'><img src='Fruit/pineapple.png'><br><font class='baseline'><strong>Primo Pineapple</strong><p><strong><font class='posOutcome'>You WON</font><p>You bet: 5</strong></font> &nbsp; &nbsp; &nbsp; &nbsp; &nbsp; &nbsp;<font class='posOutcome'>you receive: <strong>10</strong></font></div>","null","8","Primo Pineapple","Fruit/pineapple.png","Won","0.35,0.8","8","0.35","133","23","",""
"html-keyboard-response","79","176622","0.0-11.0-1.23","5b608617208f1c000100bdeb","bdp_rwlrn","Sat Apr 08 2023 10:59:43 GMT-0400 (Eastern Daylight Time)","455840","Trustworthy,Untrustworthy","","1896","","","","decision","","<div class='trialDiv'><img src='Fruit/bananas.png'><br><font class='baseline'><strong>Banana Bonanza</strong><p>Choose number of points to bet.</font><div class='respPicDiv'><img src='img/responseButtonOffersNo0L.png' class='respPic'></div></div>","1","8","Banana Bonanza","Fruit/bananas.png","Won","0.8,0.2","12","0.8","138","24","",""
"html-keyboard-response","80","176880","0.0-11.0-2.23","5b608617208f1c000100bdeb","bdp_rwlrn","Sat Apr 08 2023 10:59:43 GMT-0400 (Eastern Daylight Time)","455840","Trustworthy,Untrustworthy","","null","","","","decisionFB","","<div class='trialDiv'><img src='Fruit/bananas.png'><br><font class='baseline'><strong>Banana Bonanza</strong><p>Choose number of points to bet.</font><div class='respPicDiv'><img src='img/responseButtonOffersNo0L1.png' class='respPic'></div></div>","null","8","Banana Bonanza","Fruit/bananas.png","Won","0.8,0.2","12","0.8","137","24","",""
"html-keyboard-response","81","177884","0.0-11.0-3.23","5b608617208f1c000100bdeb","bdp_rwlrn","Sat Apr 08 2023 10:59:43 GMT-0400 (Eastern Daylight Time)","455840","Trustworthy,Untrustworthy","","null","","","","feedback","","<div class='respPicDiv'><img src='img/responseButtonOffersNo0_wht.png' class='respPic'></div><div class='trialDiv'><img src='Fruit/bananas.png'><br><font class='baseline'><strong>Banana Bonanza</strong><p><strong><font class='posOutcome'>You WON</font><p>You bet: 1</strong></font> &nbsp; &nbsp; &nbsp; &nbsp; &nbsp; &nbsp;<font class='posOutcome'>you receive: <strong>2</strong></font></div>","null","8","Banana Bonanza","Fruit/bananas.png","Won","0.8,0.2","12","0.8","139","24","",""
"html-keyboard-response","82","178703","0.0-11.0-1.24","5b608617208f1c000100bdeb","bdp_rwlrn","Sat Apr 08 2023 10:59:43 GMT-0400 (Eastern Daylight Time)","455840","Trustworthy,Untrustworthy","","817","","","","decision","","<div class='trialDiv'><img src='Fruit/pineapple.png'><br><font class='baseline'><strong>Primo Pineapple</strong><p>Choose number of points to bet.</font><div class='respPicDiv'><img src='img/responseButtonOffersNo0L.png' class='respPic'></div></div>","1","9","Primo Pineapple","Fruit/pineapple.png","Won","0.35,0.8","8","0.35","144","25","",""
"html-keyboard-response","83","178956","0.0-11.0-2.24","5b608617208f1c000100bdeb","bdp_rwlrn","Sat Apr 08 2023 10:59:43 GMT-0400 (Eastern Daylight Time)","455840","Trustworthy,Untrustworthy","","null","","","","decisionFB","","<div class='trialDiv'><img src='Fruit/pineapple.png'><br><font class='baseline'><strong>Primo Pineapple</strong><p>Choose number of points to bet.</font><div class='respPicDiv'><img src='img/responseButtonOffersNo0L1.png' class='respPic'></div></div>","null","9","Primo Pineapple","Fruit/pineapple.png","Won","0.35,0.8","8","0.35","143","25","",""
"html-keyboard-response","84","179964","0.0-11.0-3.24","5b608617208f1c000100bdeb","bdp_rwlrn","Sat Apr 08 2023 10:59:43 GMT-0400 (Eastern Daylight Time)","455840","Trustworthy,Untrustworthy","","null","","","","feedback","","<div class='respPicDiv'><img src='img/responseButtonOffersNo0_wht.png' class='respPic'></div><div class='trialDiv'><img src='Fruit/pineapple.png'><br><font class='baseline'><strong>Primo Pineapple</strong><p><strong><font class='posOutcome'>You WON</font><p>You bet: 1</strong></font> &nbsp; &nbsp; &nbsp; &nbsp; &nbsp; &nbsp;<font class='posOutcome'>you receive: <strong>2</strong></font></div>","null","9","Primo Pineapple","Fruit/pineapple.png","Won","0.35,0.8","8","0.35","145","25","",""
"html-keyboard-response","85","181220","0.0-11.0-1.25","5b608617208f1c000100bdeb","bdp_rwlrn","Sat Apr 08 2023 10:59:43 GMT-0400 (Eastern Daylight Time)","455840","Trustworthy,Untrustworthy","","1255","","","","decision","","<div class='trialDiv'><img src='Fruit/bananas.png'><br><font class='baseline'><strong>Banana Bonanza</strong><p>Choose number of points to bet.</font><div class='respPicDiv'><img src='img/responseButtonOffersNo0L.png' class='respPic'></div></div>","1","9","Banana Bonanza","Fruit/bananas.png","Won","0.8,0.2","12","0.8","150","26","",""
"html-keyboard-response","86","181481","0.0-11.0-2.25","5b608617208f1c000100bdeb","bdp_rwlrn","Sat Apr 08 2023 10:59:43 GMT-0400 (Eastern Daylight Time)","455840","Trustworthy,Untrustworthy","","null","","","","decisionFB","","<div class='trialDiv'><img src='Fruit/bananas.png'><br><font class='baseline'><strong>Banana Bonanza</strong><p>Choose number of points to bet.</font><div class='respPicDiv'><img src='img/responseButtonOffersNo0L1.png' class='respPic'></div></div>","null","9","Banana Bonanza","Fruit/bananas.png","Won","0.8,0.2","12","0.8","149","26","",""
"html-keyboard-response","87","182486","0.0-11.0-3.25","5b608617208f1c000100bdeb","bdp_rwlrn","Sat Apr 08 2023 10:59:43 GMT-0400 (Eastern Daylight Time)","455840","Trustworthy,Untrustworthy","","null","","","","feedback","","<div class='respPicDiv'><img src='img/responseButtonOffersNo0_wht.png' class='respPic'></div><div class='trialDiv'><img src='Fruit/bananas.png'><br><font class='baseline'><strong>Banana Bonanza</strong><p><strong><font class='posOutcome'>You WON</font><p>You bet: 1</strong></font> &nbsp; &nbsp; &nbsp; &nbsp; &nbsp; &nbsp;<font class='posOutcome'>you receive: <strong>2</strong></font></div>","null","9","Banana Bonanza","Fruit/bananas.png","Won","0.8,0.2","12","0.8","151","26","",""
"html-keyboard-response","88","183104","0.0-11.0-1.26","5b608617208f1c000100bdeb","bdp_rwlrn","Sat Apr 08 2023 10:59:43 GMT-0400 (Eastern Daylight Time)","455840","Trustworthy,Untrustworthy","","617","","","","decision","","<div class='trialDiv'><img src='Fruit/lime.png'><br><font class='baseline'><strong>Limin' Large</strong><p>Choose number of points to bet.</font><div class='respPicDiv'><img src='img/responseButtonOffersNo0L.png' class='respPic'></div></div>","5","9","Limin' Large","Fruit/lime.png","Won","0.8,0.35","12","0.8","156","27","",""
"html-keyboard-response","89","183369","0.0-11.0-2.26","5b608617208f1c000100bdeb","bdp_rwlrn","Sat Apr 08 2023 10:59:43 GMT-0400 (Eastern Daylight Time)","455840","Trustworthy,Untrustworthy","","null","","","","decisionFB","","<div class='trialDiv'><img src='Fruit/lime.png'><br><font class='baseline'><strong>Limin' Large</strong><p>Choose number of points to bet.</font><div class='respPicDiv'><img src='img/responseButtonOffersNo0L5.png' class='respPic'></div></div>","null","9","Limin' Large","Fruit/lime.png","Won","0.8,0.35","12","0.8","151","27","",""
"html-keyboard-response","90","184376","0.0-11.0-3.26","5b608617208f1c000100bdeb","bdp_rwlrn","Sat Apr 08 2023 10:59:43 GMT-0400 (Eastern Daylight Time)","455840","Trustworthy,Untrustworthy","","null","","","","feedback","","<div class='respPicDiv'><img src='img/responseButtonOffersNo0_wht.png' class='respPic'></div><div class='trialDiv'><img src='Fruit/lime.png'><br><font class='baseline'><strong>Limin' Large</strong><p><strong><font class='posOutcome'>You WON</font><p>You bet: 5</strong></font> &nbsp; &nbsp; &nbsp; &nbsp; &nbsp; &nbsp;<font class='posOutcome'>you receive: <strong>10</strong></font></div>","null","9","Limin' Large","Fruit/lime.png","Won","0.8,0.35","12","0.8","161","27","",""
"html-keyboard-response","91","185204","0.0-11.0-1.27","5b608617208f1c000100bdeb","bdp_rwlrn","Sat Apr 08 2023 10:59:43 GMT-0400 (Eastern Daylight Time)","455840","Trustworthy,Untrustworthy","","825","","","","decision","","<div class='trialDiv'><img src='Fruit/bananas.png'><br><font class='baseline'><strong>Banana Bonanza</strong><p>Choose number of points to bet.</font><div class='respPicDiv'><img src='img/responseButtonOffersNo0L.png' class='respPic'></div></div>","5","10","Banana Bonanza","Fruit/bananas.png","Won","0.8,0.2","12","0.8","166","28","",""
"html-keyboard-response","92","185464","0.0-11.0-2.27","5b608617208f1c000100bdeb","bdp_rwlrn","Sat Apr 08 2023 10:59:43 GMT-0400 (Eastern Daylight Time)","455840","Trustworthy,Untrustworthy","","null","","","","decisionFB","","<div class='trialDiv'><img src='Fruit/bananas.png'><br><font class='baseline'><strong>Banana Bonanza</strong><p>Choose number of points to bet.</font><div class='respPicDiv'><img src='img/responseButtonOffersNo0L5.png' class='respPic'></div></div>","null","10","Banana Bonanza","Fruit/bananas.png","Won","0.8,0.2","12","0.8","161","28","",""
"html-keyboard-response","93","186480","0.0-11.0-3.27","5b608617208f1c000100bdeb","bdp_rwlrn","Sat Apr 08 2023 10:59:43 GMT-0400 (Eastern Daylight Time)","455840","Trustworthy,Untrustworthy","","null","","","","feedback","","<div class='respPicDiv'><img src='img/responseButtonOffersNo0_wht.png' class='respPic'></div><div class='trialDiv'><img src='Fruit/bananas.png'><br><font class='baseline'><strong>Banana Bonanza</strong><p><strong><font class='posOutcome'>You WON</font><p>You bet: 5</strong></font> &nbsp; &nbsp; &nbsp; &nbsp; &nbsp; &nbsp;<font class='posOutcome'>you receive: <strong>10</strong></font></div>","null","10","Banana Bonanza","Fruit/bananas.png","Won","0.8,0.2","12","0.8","171","28","",""
"html-keyboard-response","94","187563","0.0-11.0-1.28","5b608617208f1c000100bdeb","bdp_rwlrn","Sat Apr 08 2023 10:59:43 GMT-0400 (Eastern Daylight Time)","455840","Trustworthy,Untrustworthy","","1081","","","","decision","","<div class='trialDiv'><img src='Fruit/pineapple.png'><br><font class='baseline'><strong>Primo Pineapple</strong><p>Choose number of points to bet.</font><div class='respPicDiv'><img src='img/responseButtonOffersNo0L.png' class='respPic'></div></div>","1","10","Primo Pineapple","Fruit/pineapple.png","Won","0.35,0.8","8","0.35","176","29","",""
"html-keyboard-response","95","187818","0.0-11.0-2.28","5b608617208f1c000100bdeb","bdp_rwlrn","Sat Apr 08 2023 10:59:43 GMT-0400 (Eastern Daylight Time)","455840","Trustworthy,Untrustworthy","","null","","","","decisionFB","","<div class='trialDiv'><img src='Fruit/pineapple.png'><br><font class='baseline'><strong>Primo Pineapple</strong><p>Choose number of points to bet.</font><div class='respPicDiv'><img src='img/responseButtonOffersNo0L1.png' class='respPic'></div></div>","null","10","Primo Pineapple","Fruit/pineapple.png","Won","0.35,0.8","8","0.35","175","29","",""
"html-keyboard-response","96","188832","0.0-11.0-3.28","5b608617208f1c000100bdeb","bdp_rwlrn","Sat Apr 08 2023 10:59:43 GMT-0400 (Eastern Daylight Time)","455840","Trustworthy,Untrustworthy","","null","","","","feedback","","<div class='respPicDiv'><img src='img/responseButtonOffersNo0_wht.png' class='respPic'></div><div class='trialDiv'><img src='Fruit/pineapple.png'><br><font class='baseline'><strong>Primo Pineapple</strong><p><strong><font class='posOutcome'>You WON</font><p>You bet: 1</strong></font> &nbsp; &nbsp; &nbsp; &nbsp; &nbsp; &nbsp;<font class='posOutcome'>you receive: <strong>2</strong></font></div>","null","10","Primo Pineapple","Fruit/pineapple.png","Won","0.35,0.8","8","0.35","177","29","",""
"html-keyboard-response","97","189388","0.0-11.0-1.29","5b608617208f1c000100bdeb","bdp_rwlrn","Sat Apr 08 2023 10:59:43 GMT-0400 (Eastern Daylight Time)","455840","Trustworthy,Untrustworthy","","554","","","","decision","","<div class='trialDiv'><img src='Fruit/lime.png'><br><font class='baseline'><strong>Limin' Large</strong><p>Choose number of points to bet.</font><div class='respPicDiv'><img src='img/responseButtonOffersNo0L.png' class='respPic'></div></div>","5","10","Limin' Large","Fruit/lime.png","Won","0.8,0.35","12","0.8","182","30","",""
"html-keyboard-response","98","189642","0.0-11.0-2.29","5b608617208f1c000100bdeb","bdp_rwlrn","Sat Apr 08 2023 10:59:43 GMT-0400 (Eastern Daylight Time)","455840","Trustworthy,Untrustworthy","","null","","","","decisionFB","","<div class='trialDiv'><img src='Fruit/lime.png'><br><font class='baseline'><strong>Limin' Large</strong><p>Choose number of points to bet.</font><div class='respPicDiv'><img src='img/responseButtonOffersNo0L5.png' class='respPic'></div></div>","null","10","Limin' Large","Fruit/lime.png","Won","0.8,0.35","12","0.8","177","30","",""
"html-keyboard-response","99","190647","0.0-11.0-3.29","5b608617208f1c000100bdeb","bdp_rwlrn","Sat Apr 08 2023 10:59:43 GMT-0400 (Eastern Daylight Time)","455840","Trustworthy,Untrustworthy","","null","","","","feedback","","<div class='respPicDiv'><img src='img/responseButtonOffersNo0_wht.png' class='respPic'></div><div class='trialDiv'><img src='Fruit/lime.png'><br><font class='baseline'><strong>Limin' Large</strong><p><strong><font class='posOutcome'>You WON</font><p>You bet: 5</strong></font> &nbsp; &nbsp; &nbsp; &nbsp; &nbsp; &nbsp;<font class='posOutcome'>you receive: <strong>10</strong></font></div>","null","10","Limin' Large","Fruit/lime.png","Won","0.8,0.35","12","0.8","187","30","",""
"html-keyboard-response","100","191100","0.0-11.0-1.30","5b608617208f1c000100bdeb","bdp_rwlrn","Sat Apr 08 2023 10:59:43 GMT-0400 (Eastern Daylight Time)","455840","Trustworthy,Untrustworthy","","451","","","","decision","","<div class='trialDiv'><img src='Fruit/bananas.png'><br><font class='baseline'><strong>Banana Bonanza</strong><p>Choose number of points to bet.</font><div class='respPicDiv'><img src='img/responseButtonOffersNo0L.png' class='respPic'></div></div>","5","11","Banana Bonanza","Fruit/bananas.png","Won","0.8,0.2","12","0.8","192","31","",""
"html-keyboard-response","101","191358","0.0-11.0-2.30","5b608617208f1c000100bdeb","bdp_rwlrn","Sat Apr 08 2023 10:59:43 GMT-0400 (Eastern Daylight Time)","455840","Trustworthy,Untrustworthy","","null","","","","decisionFB","","<div class='trialDiv'><img src='Fruit/bananas.png'><br><font class='baseline'><strong>Banana Bonanza</strong><p>Choose number of points to bet.</font><div class='respPicDiv'><img src='img/responseButtonOffersNo0L5.png' class='respPic'></div></div>","null","11","Banana Bonanza","Fruit/bananas.png","Won","0.8,0.2","12","0.8","187","31","",""
"html-keyboard-response","102","192363","0.0-11.0-3.30","5b608617208f1c000100bdeb","bdp_rwlrn","Sat Apr 08 2023 10:59:43 GMT-0400 (Eastern Daylight Time)","455840","Trustworthy,Untrustworthy","","null","","","","feedback","","<div class='respPicDiv'><img src='img/responseButtonOffersNo0_wht.png' class='respPic'></div><div class='trialDiv'><img src='Fruit/bananas.png'><br><font class='baseline'><strong>Banana Bonanza</strong><p><strong><font class='posOutcome'>You WON</font><p>You bet: 5</strong></font> &nbsp; &nbsp; &nbsp; &nbsp; &nbsp; &nbsp;<font class='posOutcome'>you receive: <strong>10</strong></font></div>","null","11","Banana Bonanza","Fruit/bananas.png","Won","0.8,0.2","12","0.8","197","31","",""
"html-keyboard-response","103","193524","0.0-11.0-1.31","5b608617208f1c000100bdeb","bdp_rwlrn","Sat Apr 08 2023 10:59:43 GMT-0400 (Eastern Daylight Time)","455840","Trustworthy,Untrustworthy","","1160","","","","decision","","<div class='trialDiv'><img src='Fruit/lime.png'><br><font class='baseline'><strong>Limin' Large</strong><p>Choose number of points to bet.</font><div class='respPicDiv'><img src='img/responseButtonOffersNo0L.png' class='respPic'></div></div>","5","11","Limin' Large","Fruit/lime.png","Won","0.8,0.35","12","0.8","202","32","",""
"html-keyboard-response","104","193779","0.0-11.0-2.31","5b608617208f1c000100bdeb","bdp_rwlrn","Sat Apr 08 2023 10:59:43 GMT-0400 (Eastern Daylight Time)","455840","Trustworthy,Untrustworthy","","null","","","","decisionFB","","<div class='trialDiv'><img src='Fruit/lime.png'><br><font class='baseline'><strong>Limin' Large</strong><p>Choose number of points to bet.</font><div class='respPicDiv'><img src='img/responseButtonOffersNo0L5.png' class='respPic'></div></div>","null","11","Limin' Large","Fruit/lime.png","Won","0.8,0.35","12","0.8","197","32","",""
"html-keyboard-response","105","194788","0.0-11.0-3.31","5b608617208f1c000100bdeb","bdp_rwlrn","Sat Apr 08 2023 10:59:43 GMT-0400 (Eastern Daylight Time)","455840","Trustworthy,Untrustworthy","","null","","","","feedback","","<div class='respPicDiv'><img src='img/responseButtonOffersNo0_wht.png' class='respPic'></div><div class='trialDiv'><img src='Fruit/lime.png'><br><font class='baseline'><strong>Limin' Large</strong><p><strong><font class='posOutcome'>You WON</font><p>You bet: 5</strong></font> &nbsp; &nbsp; &nbsp; &nbsp; &nbsp; &nbsp;<font class='posOutcome'>you receive: <strong>10</strong></font></div>","null","11","Limin' Large","Fruit/lime.png","Won","0.8,0.35","12","0.8","207","32","",""
"html-keyboard-response","106","195504","0.0-11.0-1.32","5b608617208f1c000100bdeb","bdp_rwlrn","Sat Apr 08 2023 10:59:43 GMT-0400 (Eastern Daylight Time)","455840","Trustworthy,Untrustworthy","","715","","","","decision","","<div class='trialDiv'><img src='Fruit/pineapple.png'><br><font class='baseline'><strong>Primo Pineapple</strong><p>Choose number of points to bet.</font><div class='respPicDiv'><img src='img/responseButtonOffersNo0L.png' class='respPic'></div></div>","5","11","Primo Pineapple","Fruit/pineapple.png","Won","0.35,0.8","8","0.35","212","33","",""
"html-keyboard-response","107","195760","0.0-11.0-2.32","5b608617208f1c000100bdeb","bdp_rwlrn","Sat Apr 08 2023 10:59:43 GMT-0400 (Eastern Daylight Time)","455840","Trustworthy,Untrustworthy","","null","","","","decisionFB","","<div class='trialDiv'><img src='Fruit/pineapple.png'><br><font class='baseline'><strong>Primo Pineapple</strong><p>Choose number of points to bet.</font><div class='respPicDiv'><img src='img/responseButtonOffersNo0L5.png' class='respPic'></div></div>","null","11","Primo Pineapple","Fruit/pineapple.png","Won","0.35,0.8","8","0.35","207","33","",""
"html-keyboard-response","108","196774","0.0-11.0-3.32","5b608617208f1c000100bdeb","bdp_rwlrn","Sat Apr 08 2023 10:59:43 GMT-0400 (Eastern Daylight Time)","455840","Trustworthy,Untrustworthy","","null","","","","feedback","","<div class='respPicDiv'><img src='img/responseButtonOffersNo0_wht.png' class='respPic'></div><div class='trialDiv'><img src='Fruit/pineapple.png'><br><font class='baseline'><strong>Primo Pineapple</strong><p><strong><font class='posOutcome'>You WON</font><p>You bet: 5</strong></font> &nbsp; &nbsp; &nbsp; &nbsp; &nbsp; &nbsp;<font class='posOutcome'>you receive: <strong>10</strong></font></div>","null","11","Primo Pineapple","Fruit/pineapple.png","Won","0.35,0.8","8","0.35","217","33","",""
"html-keyboard-response","109","197461","0.0-11.0-1.33","5b608617208f1c000100bdeb","bdp_rwlrn","Sat Apr 08 2023 10:59:43 GMT-0400 (Eastern Daylight Time)","455840","Trustworthy,Untrustworthy","","686","","","","decision","","<div class='trialDiv'><img src='Fruit/lime.png'><br><font class='baseline'><strong>Limin' Large</strong><p>Choose number of points to bet.</font><div class='respPicDiv'><img src='img/responseButtonOffersNo0L.png' class='respPic'></div></div>","5","12","Limin' Large","Fruit/lime.png","Lost","0.8,0.35","12","0.8","222","34","",""
"html-keyboard-response","110","197716","0.0-11.0-2.33","5b608617208f1c000100bdeb","bdp_rwlrn","Sat Apr 08 2023 10:59:43 GMT-0400 (Eastern Daylight Time)","455840","Trustworthy,Untrustworthy","","null","","","","decisionFB","","<div class='trialDiv'><img src='Fruit/lime.png'><br><font class='baseline'><strong>Limin' Large</strong><p>Choose number of points to bet.</font><div class='respPicDiv'><img src='img/responseButtonOffersNo0L5.png' class='respPic'></div></div>","null","12","Limin' Large","Fruit/lime.png","Lost","0.8,0.35","12","0.8","217","34","",""
"html-keyboard-response","111","198720","0.0-11.0-3.33","5b608617208f1c000100bdeb","bdp_rwlrn","Sat Apr 08 2023 10:59:43 GMT-0400 (Eastern Daylight Time)","455840","Trustworthy,Untrustworthy","","null","","","","feedback","","<div class='respPicDiv'><img src='img/responseButtonOffersNo0_wht.png' class='respPic'></div><div class='trialDiv'><img src='Fruit/lime.png'><br><font class='baseline'><strong>Limin' Large</strong><p><strong><font class='negOutcome'>You LOST</font><p>You bet: 5</strong></font> &nbsp; &nbsp; &nbsp; &nbsp; &nbsp; &nbsp;<font class='negOutcome'>You receive: <strong>0</strong></font></div>","null","12","Limin' Large","Fruit/lime.png","Lost","0.8,0.35","12","0.8","217","34","",""
"html-keyboard-response","112","199908","0.0-11.0-1.34","5b608617208f1c000100bdeb","bdp_rwlrn","Sat Apr 08 2023 10:59:43 GMT-0400 (Eastern Daylight Time)","455840","Trustworthy,Untrustworthy","","1187","","","","decision","","<div class='trialDiv'><img src='Fruit/pineapple.png'><br><font class='baseline'><strong>Primo Pineapple</strong><p>Choose number of points to bet.</font><div class='respPicDiv'><img src='img/responseButtonOffersNo0L.png' class='respPic'></div></div>","1","12","Primo Pineapple","Fruit/pineapple.png","Won","0.35,0.8","8","0.35","222","35","",""
"html-keyboard-response","113","200173","0.0-11.0-2.34","5b608617208f1c000100bdeb","bdp_rwlrn","Sat Apr 08 2023 10:59:43 GMT-0400 (Eastern Daylight Time)","455840","Trustworthy,Untrustworthy","","null","","","","decisionFB","","<div class='trialDiv'><img src='Fruit/pineapple.png'><br><font class='baseline'><strong>Primo Pineapple</strong><p>Choose number of points to bet.</font><div class='respPicDiv'><img src='img/responseButtonOffersNo0L1.png' class='respPic'></div></div>","null","12","Primo Pineapple","Fruit/pineapple.png","Won","0.35,0.8","8","0.35","221","35","",""
"html-keyboard-response","114","201183","0.0-11.0-3.34","5b608617208f1c000100bdeb","bdp_rwlrn","Sat Apr 08 2023 10:59:43 GMT-0400 (Eastern Daylight Time)","455840","Trustworthy,Untrustworthy","","null","","","","feedback","","<div class='respPicDiv'><img src='img/responseButtonOffersNo0_wht.png' class='respPic'></div><div class='trialDiv'><img src='Fruit/pineapple.png'><br><font class='baseline'><strong>Primo Pineapple</strong><p><strong><font class='posOutcome'>You WON</font><p>You bet: 1</strong></font> &nbsp; &nbsp; &nbsp; &nbsp; &nbsp; &nbsp;<font class='posOutcome'>you receive: <strong>2</strong></font></div>","null","12","Primo Pineapple","Fruit/pineapple.png","Won","0.35,0.8","8","0.35","223","35","",""
"html-keyboard-response","115","201696","0.0-11.0-1.35","5b608617208f1c000100bdeb","bdp_rwlrn","Sat Apr 08 2023 10:59:43 GMT-0400 (Eastern Daylight Time)","455840","Trustworthy,Untrustworthy","","511","","","","decision","","<div class='trialDiv'><img src='Fruit/bananas.png'><br><font class='baseline'><strong>Banana Bonanza</strong><p>Choose number of points to bet.</font><div class='respPicDiv'><img src='img/responseButtonOffersNo0L.png' class='respPic'></div></div>","5","12","Banana Bonanza","Fruit/bananas.png","Won","0.8,0.2","12","0.8","228","36","",""
"html-keyboard-response","116","201954","0.0-11.0-2.35","5b608617208f1c000100bdeb","bdp_rwlrn","Sat Apr 08 2023 10:59:43 GMT-0400 (Eastern Daylight Time)","455840","Trustworthy,Untrustworthy","","null","","","","decisionFB","","<div class='trialDiv'><img src='Fruit/bananas.png'><br><font class='baseline'><strong>Banana Bonanza</strong><p>Choose number of points to bet.</font><div class='respPicDiv'><img src='img/responseButtonOffersNo0L5.png' class='respPic'></div></div>","null","12","Banana Bonanza","Fruit/bananas.png","Won","0.8,0.2","12","0.8","223","36","",""
"html-keyboard-response","117","202961","0.0-11.0-3.35","5b608617208f1c000100bdeb","bdp_rwlrn","Sat Apr 08 2023 10:59:43 GMT-0400 (Eastern Daylight Time)","455840","Trustworthy,Untrustworthy","","null","","","","feedback","","<div class='respPicDiv'><img src='img/responseButtonOffersNo0_wht.png' class='respPic'></div><div class='trialDiv'><img src='Fruit/bananas.png'><br><font class='baseline'><strong>Banana Bonanza</strong><p><strong><font class='posOutcome'>You WON</font><p>You bet: 5</strong></font> &nbsp; &nbsp; &nbsp; &nbsp; &nbsp; &nbsp;<font class='posOutcome'>you receive: <strong>10</strong></font></div>","null","12","Banana Bonanza","Fruit/bananas.png","Won","0.8,0.2","12","0.8","233","36","",""
"html-keyboard-response","118","203541","0.0-11.0-1.36","5b608617208f1c000100bdeb","bdp_rwlrn","Sat Apr 08 2023 10:59:43 GMT-0400 (Eastern Daylight Time)","455840","Trustworthy,Untrustworthy","","580","","","","decision","","<div class='trialDiv'><img src='Fruit/pineapple.png'><br><font class='baseline'><strong>Primo Pineapple</strong><p>Choose number of points to bet.</font><div class='respPicDiv'><img src='img/responseButtonOffersNo0L.png' class='respPic'></div></div>","5","13","Primo Pineapple","Fruit/pineapple.png","Won","0.35,0.8","8","0.35","238","37","",""
"html-keyboard-response","119","203804","0.0-11.0-2.36","5b608617208f1c000100bdeb","bdp_rwlrn","Sat Apr 08 2023 10:59:43 GMT-0400 (Eastern Daylight Time)","455840","Trustworthy,Untrustworthy","","null","","","","decisionFB","","<div class='trialDiv'><img src='Fruit/pineapple.png'><br><font class='baseline'><strong>Primo Pineapple</strong><p>Choose number of points to bet.</font><div class='respPicDiv'><img src='img/responseButtonOffersNo0L5.png' class='respPic'></div></div>","null","13","Primo Pineapple","Fruit/pineapple.png","Won","0.35,0.8","8","0.35","233","37","",""
"html-keyboard-response","120","204813","0.0-11.0-3.36","5b608617208f1c000100bdeb","bdp_rwlrn","Sat Apr 08 2023 10:59:43 GMT-0400 (Eastern Daylight Time)","455840","Trustworthy,Untrustworthy","","null","","","","feedback","","<div class='respPicDiv'><img src='img/responseButtonOffersNo0_wht.png' class='respPic'></div><div class='trialDiv'><img src='Fruit/pineapple.png'><br><font class='baseline'><strong>Primo Pineapple</strong><p><strong><font class='posOutcome'>You WON</font><p>You bet: 5</strong></font> &nbsp; &nbsp; &nbsp; &nbsp; &nbsp; &nbsp;<font class='posOutcome'>you receive: <strong>10</strong></font></div>","null","13","Primo Pineapple","Fruit/pineapple.png","Won","0.35,0.8","8","0.35","243","37","",""
"html-keyboard-response","121","205520","0.0-11.0-1.37","5b608617208f1c000100bdeb","bdp_rwlrn","Sat Apr 08 2023 10:59:43 GMT-0400 (Eastern Daylight Time)","455840","Trustworthy,Untrustworthy","","706","","","","decision","","<div class='trialDiv'><img src='Fruit/lime.png'><br><font class='baseline'><strong>Limin' Large</strong><p>Choose number of points to bet.</font><div class='respPicDiv'><img src='img/responseButtonOffersNo0L.png' class='respPic'></div></div>","5","13","Limin' Large","Fruit/lime.png","Lost","0.8,0.35","12","0.8","248","38","",""
"html-keyboard-response","122","205789","0.0-11.0-2.37","5b608617208f1c000100bdeb","bdp_rwlrn","Sat Apr 08 2023 10:59:43 GMT-0400 (Eastern Daylight Time)","455840","Trustworthy,Untrustworthy","","null","","","","decisionFB","","<div class='trialDiv'><img src='Fruit/lime.png'><br><font class='baseline'><strong>Limin' Large</strong><p>Choose number of points to bet.</font><div class='respPicDiv'><img src='img/responseButtonOffersNo0L5.png' class='respPic'></div></div>","null","13","Limin' Large","Fruit/lime.png","Lost","0.8,0.35","12","0.8","243","38","",""
"html-keyboard-response","123","206799","0.0-11.0-3.37","5b608617208f1c000100bdeb","bdp_rwlrn","Sat Apr 08 2023 10:59:43 GMT-0400 (Eastern Daylight Time)","455840","Trustworthy,Untrustworthy","","null","","","","feedback","","<div class='respPicDiv'><img src='img/responseButtonOffersNo0_wht.png' class='respPic'></div><div class='trialDiv'><img src='Fruit/lime.png'><br><font class='baseline'><strong>Limin' Large</strong><p><strong><font class='negOutcome'>You LOST</font><p>You bet: 5</strong></font> &nbsp; &nbsp; &nbsp; &nbsp; &nbsp; &nbsp;<font class='negOutcome'>You receive: <strong>0</strong></font></div>","null","13","Limin' Large","Fruit/lime.png","Lost","0.8,0.35","12","0.8","243","38","",""
"html-keyboard-response","124","208202","0.0-11.0-1.38","5b608617208f1c000100bdeb","bdp_rwlrn","Sat Apr 08 2023 10:59:43 GMT-0400 (Eastern Daylight Time)","455840","Trustworthy,Untrustworthy","","1402","","","","decision","","<div class='trialDiv'><img src='Fruit/bananas.png'><br><font class='baseline'><strong>Banana Bonanza</strong><p>Choose number of points to bet.</font><div class='respPicDiv'><img src='img/responseButtonOffersNo0L.png' class='respPic'></div></div>","3","13","Banana Bonanza","Fruit/bananas.png","Lost","0.8,0.2","12","0.8","248","39","",""
"html-keyboard-response","125","208468","0.0-11.0-2.38","5b608617208f1c000100bdeb","bdp_rwlrn","Sat Apr 08 2023 10:59:43 GMT-0400 (Eastern Daylight Time)","455840","Trustworthy,Untrustworthy","","null","","","","decisionFB","","<div class='trialDiv'><img src='Fruit/bananas.png'><br><font class='baseline'><strong>Banana Bonanza</strong><p>Choose number of points to bet.</font><div class='respPicDiv'><img src='img/responseButtonOffersNo0L3.png' class='respPic'></div></div>","null","13","Banana Bonanza","Fruit/bananas.png","Lost","0.8,0.2","12","0.8","245","39","",""
"html-keyboard-response","126","209485","0.0-11.0-3.38","5b608617208f1c000100bdeb","bdp_rwlrn","Sat Apr 08 2023 10:59:43 GMT-0400 (Eastern Daylight Time)","455840","Trustworthy,Untrustworthy","","null","","","","feedback","","<div class='respPicDiv'><img src='img/responseButtonOffersNo0_wht.png' class='respPic'></div><div class='trialDiv'><img src='Fruit/bananas.png'><br><font class='baseline'><strong>Banana Bonanza</strong><p><strong><font class='negOutcome'>You LOST</font><p>You bet: 3</strong></font> &nbsp; &nbsp; &nbsp; &nbsp; &nbsp; &nbsp;<font class='negOutcome'>You receive: <strong>0</strong></font></div>","null","13","Banana Bonanza","Fruit/bananas.png","Lost","0.8,0.2","12","0.8","245","39","",""
"html-keyboard-response","127","210427","0.0-11.0-1.39","5b608617208f1c000100bdeb","bdp_rwlrn","Sat Apr 08 2023 10:59:43 GMT-0400 (Eastern Daylight Time)","455840","Trustworthy,Untrustworthy","","941","","","","decision","","<div class='trialDiv'><img src='Fruit/lime.png'><br><font class='baseline'><strong>Limin' Large</strong><p>Choose number of points to bet.</font><div class='respPicDiv'><img src='img/responseButtonOffersNo0L.png' class='respPic'></div></div>","1","14","Limin' Large","Fruit/lime.png","Lost","0.8,0.35","12","0.8","250","40","",""
"html-keyboard-response","128","210679","0.0-11.0-2.39","5b608617208f1c000100bdeb","bdp_rwlrn","Sat Apr 08 2023 10:59:43 GMT-0400 (Eastern Daylight Time)","455840","Trustworthy,Untrustworthy","","null","","","","decisionFB","","<div class='trialDiv'><img src='Fruit/lime.png'><br><font class='baseline'><strong>Limin' Large</strong><p>Choose number of points to bet.</font><div class='respPicDiv'><img src='img/responseButtonOffersNo0L1.png' class='respPic'></div></div>","null","14","Limin' Large","Fruit/lime.png","Lost","0.8,0.35","12","0.8","249","40","",""
"html-keyboard-response","129","211692","0.0-11.0-3.39","5b608617208f1c000100bdeb","bdp_rwlrn","Sat Apr 08 2023 10:59:43 GMT-0400 (Eastern Daylight Time)","455840","Trustworthy,Untrustworthy","","null","","","","feedback","","<div class='respPicDiv'><img src='img/responseButtonOffersNo0_wht.png' class='respPic'></div><div class='trialDiv'><img src='Fruit/lime.png'><br><font class='baseline'><strong>Limin' Large</strong><p><strong><font class='negOutcome'>You LOST</font><p>You bet: 1</strong></font> &nbsp; &nbsp; &nbsp; &nbsp; &nbsp; &nbsp;<font class='negOutcome'>You receive: <strong>0</strong></font></div>","null","14","Limin' Large","Fruit/lime.png","Lost","0.8,0.35","12","0.8","249","40","",""
"html-keyboard-response","130","212216","0.0-11.0-1.40","5b608617208f1c000100bdeb","bdp_rwlrn","Sat Apr 08 2023 10:59:43 GMT-0400 (Eastern Daylight Time)","455840","Trustworthy,Untrustworthy","","522","","","","decision","","<div class='trialDiv'><img src='Fruit/pineapple.png'><br><font class='baseline'><strong>Primo Pineapple</strong><p>Choose number of points to bet.</font><div class='respPicDiv'><img src='img/responseButtonOffersNo0L.png' class='respPic'></div></div>","5","14","Primo Pineapple","Fruit/pineapple.png","Won","0.35,0.8","8","0.35","254","41","",""
"html-keyboard-response","131","212477","0.0-11.0-2.40","5b608617208f1c000100bdeb","bdp_rwlrn","Sat Apr 08 2023 10:59:43 GMT-0400 (Eastern Daylight Time)","455840","Trustworthy,Untrustworthy","","null","","","","decisionFB","","<div class='trialDiv'><img src='Fruit/pineapple.png'><br><font class='baseline'><strong>Primo Pineapple</strong><p>Choose number of points to bet.</font><div class='respPicDiv'><img src='img/responseButtonOffersNo0L5.png' class='respPic'></div></div>","null","14","Primo Pineapple","Fruit/pineapple.png","Won","0.35,0.8","8","0.35","249","41","",""
"html-keyboard-response","132","213492","0.0-11.0-3.40","5b608617208f1c000100bdeb","bdp_rwlrn","Sat Apr 08 2023 10:59:43 GMT-0400 (Eastern Daylight Time)","455840","Trustworthy,Untrustworthy","","null","","","","feedback","","<div class='respPicDiv'><img src='img/responseButtonOffersNo0_wht.png' class='respPic'></div><div class='trialDiv'><img src='Fruit/pineapple.png'><br><font class='baseline'><strong>Primo Pineapple</strong><p><strong><font class='posOutcome'>You WON</font><p>You bet: 5</strong></font> &nbsp; &nbsp; &nbsp; &nbsp; &nbsp; &nbsp;<font class='posOutcome'>you receive: <strong>10</strong></font></div>","null","14","Primo Pineapple","Fruit/pineapple.png","Won","0.35,0.8","8","0.35","259","41","",""
"html-keyboard-response","133","213853","0.0-11.0-1.41","5b608617208f1c000100bdeb","bdp_rwlrn","Sat Apr 08 2023 10:59:43 GMT-0400 (Eastern Daylight Time)","455840","Trustworthy,Untrustworthy","","360","","","","decision","","<div class='trialDiv'><img src='Fruit/bananas.png'><br><font class='baseline'><strong>Banana Bonanza</strong><p>Choose number of points to bet.</font><div class='respPicDiv'><img src='img/responseButtonOffersNo0L.png' class='respPic'></div></div>","5","14","Banana Bonanza","Fruit/bananas.png","Lost","0.8,0.2","12","0.8","264","42","",""
"html-keyboard-response","134","214114","0.0-11.0-2.41","5b608617208f1c000100bdeb","bdp_rwlrn","Sat Apr 08 2023 10:59:43 GMT-0400 (Eastern Daylight Time)","455840","Trustworthy,Untrustworthy","","null","","","","decisionFB","","<div class='trialDiv'><img src='Fruit/bananas.png'><br><font class='baseline'><strong>Banana Bonanza</strong><p>Choose number of points to bet.</font><div class='respPicDiv'><img src='img/responseButtonOffersNo0L5.png' class='respPic'></div></div>","null","14","Banana Bonanza","Fruit/bananas.png","Lost","0.8,0.2","12","0.8","259","42","",""
"html-keyboard-response","135","215131","0.0-11.0-3.41","5b608617208f1c000100bdeb","bdp_rwlrn","Sat Apr 08 2023 10:59:43 GMT-0400 (Eastern Daylight Time)","455840","Trustworthy,Untrustworthy","","null","","","","feedback","","<div class='respPicDiv'><img src='img/responseButtonOffersNo0_wht.png' class='respPic'></div><div class='trialDiv'><img src='Fruit/bananas.png'><br><font class='baseline'><strong>Banana Bonanza</strong><p><strong><font class='negOutcome'>You LOST</font><p>You bet: 5</strong></font> &nbsp; &nbsp; &nbsp; &nbsp; &nbsp; &nbsp;<font class='negOutcome'>You receive: <strong>0</strong></font></div>","null","14","Banana Bonanza","Fruit/bananas.png","Lost","0.8,0.2","12","0.8","259","42","",""
"html-keyboard-response","136","215535","0.0-11.0-1.42","5b608617208f1c000100bdeb","bdp_rwlrn","Sat Apr 08 2023 10:59:43 GMT-0400 (Eastern Daylight Time)","455840","Trustworthy,Untrustworthy","","403","","","","decision","","<div class='trialDiv'><img src='Fruit/lime.png'><br><font class='baseline'><strong>Limin' Large</strong><p>Choose number of points to bet.</font><div class='respPicDiv'><img src='img/responseButtonOffersNo0L.png' class='respPic'></div></div>","5","15","Limin' Large","Fruit/lime.png","Won","0.8,0.35","12","0.8","264","43","",""
"html-keyboard-response","137","215798","0.0-11.0-2.42","5b608617208f1c000100bdeb","bdp_rwlrn","Sat Apr 08 2023 10:59:43 GMT-0400 (Eastern Daylight Time)","455840","Trustworthy,Untrustworthy","","null","","","","decisionFB","","<div class='trialDiv'><img src='Fruit/lime.png'><br><font class='baseline'><strong>Limin' Large</strong><p>Choose number of points to bet.</font><div class='respPicDiv'><img src='img/responseButtonOffersNo0L5.png' class='respPic'></div></div>","null","15","Limin' Large","Fruit/lime.png","Won","0.8,0.35","12","0.8","259","43","",""
"html-keyboard-response","138","216801","0.0-11.0-3.42","5b608617208f1c000100bdeb","bdp_rwlrn","Sat Apr 08 2023 10:59:43 GMT-0400 (Eastern Daylight Time)","455840","Trustworthy,Untrustworthy","","null","","","","feedback","","<div class='respPicDiv'><img src='img/responseButtonOffersNo0_wht.png' class='respPic'></div><div class='trialDiv'><img src='Fruit/lime.png'><br><font class='baseline'><strong>Limin' Large</strong><p><strong><font class='posOutcome'>You WON</font><p>You bet: 5</strong></font> &nbsp; &nbsp; &nbsp; &nbsp; &nbsp; &nbsp;<font class='posOutcome'>you receive: <strong>10</strong></font></div>","null","15","Limin' Large","Fruit/lime.png","Won","0.8,0.35","12","0.8","269","43","",""
"html-keyboard-response","139","217875","0.0-11.0-1.43","5b608617208f1c000100bdeb","bdp_rwlrn","Sat Apr 08 2023 10:59:43 GMT-0400 (Eastern Daylight Time)","455840","Trustworthy,Untrustworthy","","1072","","","","decision","","<div class='trialDiv'><img src='Fruit/pineapple.png'><br><font class='baseline'><strong>Primo Pineapple</strong><p>Choose number of points to bet.</font><div class='respPicDiv'><img src='img/responseButtonOffersNo0L.png' class='respPic'></div></div>","1","15","Primo Pineapple","Fruit/pineapple.png","Lost","0.35,0.8","8","0.35","274","44","",""
"html-keyboard-response","140","218133","0.0-11.0-2.43","5b608617208f1c000100bdeb","bdp_rwlrn","Sat Apr 08 2023 10:59:43 GMT-0400 (Eastern Daylight Time)","455840","Trustworthy,Untrustworthy","","null","","","","decisionFB","","<div class='trialDiv'><img src='Fruit/pineapple.png'><br><font class='baseline'><strong>Primo Pineapple</strong><p>Choose number of points to bet.</font><div class='respPicDiv'><img src='img/responseButtonOffersNo0L1.png' class='respPic'></div></div>","null","15","Primo Pineapple","Fruit/pineapple.png","Lost","0.35,0.8","8","0.35","273","44","",""
"html-keyboard-response","141","219138","0.0-11.0-3.43","5b608617208f1c000100bdeb","bdp_rwlrn","Sat Apr 08 2023 10:59:43 GMT-0400 (Eastern Daylight Time)","455840","Trustworthy,Untrustworthy","","null","","","","feedback","","<div class='respPicDiv'><img src='img/responseButtonOffersNo0_wht.png' class='respPic'></div><div class='trialDiv'><img src='Fruit/pineapple.png'><br><font class='baseline'><strong>Primo Pineapple</strong><p><strong><font class='negOutcome'>You LOST</font><p>You bet: 1</strong></font> &nbsp; &nbsp; &nbsp; &nbsp; &nbsp; &nbsp;<font class='negOutcome'>You receive: <strong>0</strong></font></div>","null","15","Primo Pineapple","Fruit/pineapple.png","Lost","0.35,0.8","8","0.35","273","44","",""
"html-keyboard-response","142","219638","0.0-11.0-1.44","5b608617208f1c000100bdeb","bdp_rwlrn","Sat Apr 08 2023 10:59:43 GMT-0400 (Eastern Daylight Time)","455840","Trustworthy,Untrustworthy","","498","","","","decision","","<div class='trialDiv'><img src='Fruit/bananas.png'><br><font class='baseline'><strong>Banana Bonanza</strong><p>Choose number of points to bet.</font><div class='respPicDiv'><img src='img/responseButtonOffersNo0L.png' class='respPic'></div></div>","5","15","Banana Bonanza","Fruit/bananas.png","Lost","0.8,0.2","12","0.8","278","45","",""
"html-keyboard-response","143","219892","0.0-11.0-2.44","5b608617208f1c000100bdeb","bdp_rwlrn","Sat Apr 08 2023 10:59:43 GMT-0400 (Eastern Daylight Time)","455840","Trustworthy,Untrustworthy","","null","","","","decisionFB","","<div class='trialDiv'><img src='Fruit/bananas.png'><br><font class='baseline'><strong>Banana Bonanza</strong><p>Choose number of points to bet.</font><div class='respPicDiv'><img src='img/responseButtonOffersNo0L5.png' class='respPic'></div></div>","null","15","Banana Bonanza","Fruit/bananas.png","Lost","0.8,0.2","12","0.8","273","45","",""
"html-keyboard-response","144","220903","0.0-11.0-3.44","5b608617208f1c000100bdeb","bdp_rwlrn","Sat Apr 08 2023 10:59:43 GMT-0400 (Eastern Daylight Time)","455840","Trustworthy,Untrustworthy","","null","","","","feedback","","<div class='respPicDiv'><img src='img/responseButtonOffersNo0_wht.png' class='respPic'></div><div class='trialDiv'><img src='Fruit/bananas.png'><br><font class='baseline'><strong>Banana Bonanza</strong><p><strong><font class='negOutcome'>You LOST</font><p>You bet: 5</strong></font> &nbsp; &nbsp; &nbsp; &nbsp; &nbsp; &nbsp;<font class='negOutcome'>You receive: <strong>0</strong></font></div>","null","15","Banana Bonanza","Fruit/bananas.png","Lost","0.8,0.2","12","0.8","273","45","",""
"html-keyboard-response","145","221635","0.0-11.0-1.45","5b608617208f1c000100bdeb","bdp_rwlrn","Sat Apr 08 2023 10:59:43 GMT-0400 (Eastern Daylight Time)","455840","Trustworthy,Untrustworthy","","731","","","","decision","","<div class='trialDiv'><img src='Fruit/lime.png'><br><font class='baseline'><strong>Limin' Large</strong><p>Choose number of points to bet.</font><div class='respPicDiv'><img src='img/responseButtonOffersNo0L.png' class='respPic'></div></div>","5","16","Limin' Large","Fruit/lime.png","Lost","0.8,0.35","12","0.8","278","46","",""
"html-keyboard-response","146","221888","0.0-11.0-2.45","5b608617208f1c000100bdeb","bdp_rwlrn","Sat Apr 08 2023 10:59:43 GMT-0400 (Eastern Daylight Time)","455840","Trustworthy,Untrustworthy","","null","","","","decisionFB","","<div class='trialDiv'><img src='Fruit/lime.png'><br><font class='baseline'><strong>Limin' Large</strong><p>Choose number of points to bet.</font><div class='respPicDiv'><img src='img/responseButtonOffersNo0L5.png' class='respPic'></div></div>","null","16","Limin' Large","Fruit/lime.png","Lost","0.8,0.35","12","0.8","273","46","",""
"html-keyboard-response","147","222903","0.0-11.0-3.45","5b608617208f1c000100bdeb","bdp_rwlrn","Sat Apr 08 2023 10:59:43 GMT-0400 (Eastern Daylight Time)","455840","Trustworthy,Untrustworthy","","null","","","","feedback","","<div class='respPicDiv'><img src='img/responseButtonOffersNo0_wht.png' class='respPic'></div><div class='trialDiv'><img src='Fruit/lime.png'><br><font class='baseline'><strong>Limin' Large</strong><p><strong><font class='negOutcome'>You LOST</font><p>You bet: 5</strong></font> &nbsp; &nbsp; &nbsp; &nbsp; &nbsp; &nbsp;<font class='negOutcome'>You receive: <strong>0</strong></font></div>","null","16","Limin' Large","Fruit/lime.png","Lost","0.8,0.35","12","0.8","273","46","",""
"html-keyboard-response","148","223524","0.0-11.0-1.46","5b608617208f1c000100bdeb","bdp_rwlrn","Sat Apr 08 2023 10:59:43 GMT-0400 (Eastern Daylight Time)","455840","Trustworthy,Untrustworthy","","619","","","","decision","","<div class='trialDiv'><img src='Fruit/bananas.png'><br><font class='baseline'><strong>Banana Bonanza</strong><p>Choose number of points to bet.</font><div class='respPicDiv'><img src='img/responseButtonOffersNo0L.png' class='respPic'></div></div>","5","16","Banana Bonanza","Fruit/bananas.png","Lost","0.8,0.2","12","0.8","278","47","",""
"html-keyboard-response","149","223781","0.0-11.0-2.46","5b608617208f1c000100bdeb","bdp_rwlrn","Sat Apr 08 2023 10:59:43 GMT-0400 (Eastern Daylight Time)","455840","Trustworthy,Untrustworthy","","null","","","","decisionFB","","<div class='trialDiv'><img src='Fruit/bananas.png'><br><font class='baseline'><strong>Banana Bonanza</strong><p>Choose number of points to bet.</font><div class='respPicDiv'><img src='img/responseButtonOffersNo0L5.png' class='respPic'></div></div>","null","16","Banana Bonanza","Fruit/bananas.png","Lost","0.8,0.2","12","0.8","273","47","",""
"html-keyboard-response","150","224795","0.0-11.0-3.46","5b608617208f1c000100bdeb","bdp_rwlrn","Sat Apr 08 2023 10:59:43 GMT-0400 (Eastern Daylight Time)","455840","Trustworthy,Untrustworthy","","null","","","","feedback","","<div class='respPicDiv'><img src='img/responseButtonOffersNo0_wht.png' class='respPic'></div><div class='trialDiv'><img src='Fruit/bananas.png'><br><font class='baseline'><strong>Banana Bonanza</strong><p><strong><font class='negOutcome'>You LOST</font><p>You bet: 5</strong></font> &nbsp; &nbsp; &nbsp; &nbsp; &nbsp; &nbsp;<font class='negOutcome'>You receive: <strong>0</strong></font></div>","null","16","Banana Bonanza","Fruit/bananas.png","Lost","0.8,0.2","12","0.8","273","47","",""
"html-keyboard-response","151","225243","0.0-11.0-1.47","5b608617208f1c000100bdeb","bdp_rwlrn","Sat Apr 08 2023 10:59:43 GMT-0400 (Eastern Daylight Time)","455840","Trustworthy,Untrustworthy","","447","","","","decision","","<div class='trialDiv'><img src='Fruit/pineapple.png'><br><font class='baseline'><strong>Primo Pineapple</strong><p>Choose number of points to bet.</font><div class='respPicDiv'><img src='img/responseButtonOffersNo0L.png' class='respPic'></div></div>","5","16","Primo Pineapple","Fruit/pineapple.png","Won","0.35,0.8","8","0.35","278","48","",""
"html-keyboard-response","152","225506","0.0-11.0-2.47","5b608617208f1c000100bdeb","bdp_rwlrn","Sat Apr 08 2023 10:59:43 GMT-0400 (Eastern Daylight Time)","455840","Trustworthy,Untrustworthy","","null","","","","decisionFB","","<div class='trialDiv'><img src='Fruit/pineapple.png'><br><font class='baseline'><strong>Primo Pineapple</strong><p>Choose number of points to bet.</font><div class='respPicDiv'><img src='img/responseButtonOffersNo0L5.png' class='respPic'></div></div>","null","16","Primo Pineapple","Fruit/pineapple.png","Won","0.35,0.8","8","0.35","273","48","",""
"html-keyboard-response","153","226513","0.0-11.0-3.47","5b608617208f1c000100bdeb","bdp_rwlrn","Sat Apr 08 2023 10:59:43 GMT-0400 (Eastern Daylight Time)","455840","Trustworthy,Untrustworthy","","null","","","","feedback","","<div class='respPicDiv'><img src='img/responseButtonOffersNo0_wht.png' class='respPic'></div><div class='trialDiv'><img src='Fruit/pineapple.png'><br><font class='baseline'><strong>Primo Pineapple</strong><p><strong><font class='posOutcome'>You WON</font><p>You bet: 5</strong></font> &nbsp; &nbsp; &nbsp; &nbsp; &nbsp; &nbsp;<font class='posOutcome'>you receive: <strong>10</strong></font></div>","null","16","Primo Pineapple","Fruit/pineapple.png","Won","0.35,0.8","8","0.35","283","48","",""
"html-keyboard-response","154","227168","0.0-11.0-1.48","5b608617208f1c000100bdeb","bdp_rwlrn","Sat Apr 08 2023 10:59:43 GMT-0400 (Eastern Daylight Time)","455840","Trustworthy,Untrustworthy","","653","","","","decision","","<div class='trialDiv'><img src='Fruit/lime.png'><br><font class='baseline'><strong>Limin' Large</strong><p>Choose number of points to bet.</font><div class='respPicDiv'><img src='img/responseButtonOffersNo0L.png' class='respPic'></div></div>","5","17","Limin' Large","Fruit/lime.png","Lost","0.8,0.35","12","0.8","288","49","",""
"html-keyboard-response","155","227426","0.0-11.0-2.48","5b608617208f1c000100bdeb","bdp_rwlrn","Sat Apr 08 2023 10:59:43 GMT-0400 (Eastern Daylight Time)","455840","Trustworthy,Untrustworthy","","null","","","","decisionFB","","<div class='trialDiv'><img src='Fruit/lime.png'><br><font class='baseline'><strong>Limin' Large</strong><p>Choose number of points to bet.</font><div class='respPicDiv'><img src='img/responseButtonOffersNo0L5.png' class='respPic'></div></div>","null","17","Limin' Large","Fruit/lime.png","Lost","0.8,0.35","12","0.8","283","49","",""
"html-keyboard-response","156","228440","0.0-11.0-3.48","5b608617208f1c000100bdeb","bdp_rwlrn","Sat Apr 08 2023 10:59:43 GMT-0400 (Eastern Daylight Time)","455840","Trustworthy,Untrustworthy","","null","","","","feedback","","<div class='respPicDiv'><img src='img/responseButtonOffersNo0_wht.png' class='respPic'></div><div class='trialDiv'><img src='Fruit/lime.png'><br><font class='baseline'><strong>Limin' Large</strong><p><strong><font class='negOutcome'>You LOST</font><p>You bet: 5</strong></font> &nbsp; &nbsp; &nbsp; &nbsp; &nbsp; &nbsp;<font class='negOutcome'>You receive: <strong>0</strong></font></div>","null","17","Limin' Large","Fruit/lime.png","Lost","0.8,0.35","12","0.8","283","49","",""
"html-keyboard-response","157","229628","0.0-11.0-1.49","5b608617208f1c000100bdeb","bdp_rwlrn","Sat Apr 08 2023 10:59:43 GMT-0400 (Eastern Daylight Time)","455840","Trustworthy,Untrustworthy","","1187","","","","decision","","<div class='trialDiv'><img src='Fruit/pineapple.png'><br><font class='baseline'><strong>Primo Pineapple</strong><p>Choose number of points to bet.</font><div class='respPicDiv'><img src='img/responseButtonOffersNo0L.png' class='respPic'></div></div>","1","17","Primo Pineapple","Fruit/pineapple.png","Won","0.35,0.8","8","0.35","288","50","",""
"html-keyboard-response","158","229886","0.0-11.0-2.49","5b608617208f1c000100bdeb","bdp_rwlrn","Sat Apr 08 2023 10:59:43 GMT-0400 (Eastern Daylight Time)","455840","Trustworthy,Untrustworthy","","null","","","","decisionFB","","<div class='trialDiv'><img src='Fruit/pineapple.png'><br><font class='baseline'><strong>Primo Pineapple</strong><p>Choose number of points to bet.</font><div class='respPicDiv'><img src='img/responseButtonOffersNo0L1.png' class='respPic'></div></div>","null","17","Primo Pineapple","Fruit/pineapple.png","Won","0.35,0.8","8","0.35","287","50","",""
"html-keyboard-response","159","230890","0.0-11.0-3.49","5b608617208f1c000100bdeb","bdp_rwlrn","Sat Apr 08 2023 10:59:43 GMT-0400 (Eastern Daylight Time)","455840","Trustworthy,Untrustworthy","","null","","","","feedback","","<div class='respPicDiv'><img src='img/responseButtonOffersNo0_wht.png' class='respPic'></div><div class='trialDiv'><img src='Fruit/pineapple.png'><br><font class='baseline'><strong>Primo Pineapple</strong><p><strong><font class='posOutcome'>You WON</font><p>You bet: 1</strong></font> &nbsp; &nbsp; &nbsp; &nbsp; &nbsp; &nbsp;<font class='posOutcome'>you receive: <strong>2</strong></font></div>","null","17","Primo Pineapple","Fruit/pineapple.png","Won","0.35,0.8","8","0.35","289","50","",""
"html-keyboard-response","160","231227","0.0-11.0-1.50","5b608617208f1c000100bdeb","bdp_rwlrn","Sat Apr 08 2023 10:59:43 GMT-0400 (Eastern Daylight Time)","455840","Trustworthy,Untrustworthy","","336","","","","decision","","<div class='trialDiv'><img src='Fruit/bananas.png'><br><font class='baseline'><strong>Banana Bonanza</strong><p>Choose number of points to bet.</font><div class='respPicDiv'><img src='img/responseButtonOffersNo0L.png' class='respPic'></div></div>","5","17","Banana Bonanza","Fruit/bananas.png","Lost","0.8,0.2","12","0.8","294","51","",""
"html-keyboard-response","161","231491","0.0-11.0-2.50","5b608617208f1c000100bdeb","bdp_rwlrn","Sat Apr 08 2023 10:59:43 GMT-0400 (Eastern Daylight Time)","455840","Trustworthy,Untrustworthy","","null","","","","decisionFB","","<div class='trialDiv'><img src='Fruit/bananas.png'><br><font class='baseline'><strong>Banana Bonanza</strong><p>Choose number of points to bet.</font><div class='respPicDiv'><img src='img/responseButtonOffersNo0L5.png' class='respPic'></div></div>","null","17","Banana Bonanza","Fruit/bananas.png","Lost","0.8,0.2","12","0.8","289","51","",""
"html-keyboard-response","162","232505","0.0-11.0-3.50","5b608617208f1c000100bdeb","bdp_rwlrn","Sat Apr 08 2023 10:59:43 GMT-0400 (Eastern Daylight Time)","455840","Trustworthy,Untrustworthy","","null","","","","feedback","","<div class='respPicDiv'><img src='img/responseButtonOffersNo0_wht.png' class='respPic'></div><div class='trialDiv'><img src='Fruit/bananas.png'><br><font class='baseline'><strong>Banana Bonanza</strong><p><strong><font class='negOutcome'>You LOST</font><p>You bet: 5</strong></font> &nbsp; &nbsp; &nbsp; &nbsp; &nbsp; &nbsp;<font class='negOutcome'>You receive: <strong>0</strong></font></div>","null","17","Banana Bonanza","Fruit/bananas.png","Lost","0.8,0.2","12","0.8","289","51","",""
