"trial_type","trial_index","time_elapsed","internal_node_id","subject_id","task","startTime","totalTime","labels","view_history","rt","event","trial","time","trialtype","success","stimulus","key_press","ltround","name","fileID","outcome","lottotype","lottoswpt","lottocurrpshare","point_total","round","faceID","face"
"pavlovia","0","2","0.0-0.0","55e7221441988f000b75cc7a","bdp_rwlrn","Wed Mar 15 2023 14:59:25 GMT-0400 (Eastern Daylight Time)","576794","Trustworthy,Untrustworthy","","","","","","","","","","","","","","","","","","","",""
"instructions","1","22511","0.0-1.0","55e7221441988f000b75cc7a","bdp_rwlrn","Wed Mar 15 2023 14:59:25 GMT-0400 (Eastern Daylight Time)","576794","Trustworthy,Untrustworthy","[{""page_index"":0,""viewing_time"":22509}]","22509","","","","","","","","","","","","","","","","","",""
"","","","","55e7221441988f000b75cc7a","bdp_rwlrn","Wed Mar 15 2023 14:59:25 GMT-0400 (Eastern Daylight Time)","576794","Trustworthy,Untrustworthy","","","fullscreenenter","2","25851","fullscreenenter","","","","","","","","","","","","","",""
"fullscreen","2","26846","0.0-2.0","55e7221441988f000b75cc7a","bdp_rwlrn","Wed Mar 15 2023 14:59:25 GMT-0400 (Eastern Daylight Time)","576794","Trustworthy,Untrustworthy","","","","","","","true","","","","","","","","","","","","",""
"instructions","3","141447","0.0-4.0","55e7221441988f000b75cc7a","bdp_rwlrn","Wed Mar 15 2023 14:59:25 GMT-0400 (Eastern Daylight Time)","576794","Trustworthy,Untrustworthy","[{""page_index"":0,""viewing_time"":11771},{""page_index"":1,""viewing_time"":26114},{""page_index"":2,""viewing_time"":9889},{""page_index"":3,""viewing_time"":29930},{""page_index"":4,""viewing_time"":31486},{""page_index"":5,""viewing_time"":5410}]","114600","","","","","","","","","","","","","","","","","",""
"html-keyboard-response","4","147755","0.0-5.0","55e7221441988f000b75cc7a","bdp_rwlrn","Wed Mar 15 2023 14:59:25 GMT-0400 (Eastern Daylight Time)","576794","Trustworthy,Untrustworthy","","6308","","","","","","<div class='header' style='text-align:left; position: absolute; top: 5%; left: 5%;'><small>Task 1 of 5</small></div><div class='instruxDiv'><p><strong>1) What is the maximum number of points you can choose to bet on a lottery?</strong></p><p>a) 0</p><p>b) 1</p><p>c) 5</p>","C","","","","","","","","","","",""
"html-keyboard-response","5","149748","0.0-6.0","55e7221441988f000b75cc7a","bdp_rwlrn","Wed Mar 15 2023 14:59:25 GMT-0400 (Eastern Daylight Time)","576794","Trustworthy,Untrustworthy","","1890","","","","","","<div class='header' style='text-align:left; position: absolute; top: 5%; left: 5%;'><small>Task 1 of 5</small></div><div class='instruxDiv'><p><strong>1) What is the maximum number of points you can choose to bet on a lottery?</strong></p><p>a) 1</p><p>b) 1</p><p style='color:#00FF00'>c) 5</p><h3 style='color:#00FF00'>Correct!</h3><h3 class='center-content'>The correct response is c).</h3><h3 class='center-content'>The maximum number of points you can choose to bet on a lottery is 5 points.</h3><p><em>Press SPACEBAR to continue</em></p></div>"," ","","","","","","","","","","",""
"html-keyboard-response","6","153691","0.0-7.0","55e7221441988f000b75cc7a","bdp_rwlrn","Wed Mar 15 2023 14:59:25 GMT-0400 (Eastern Daylight Time)","576794","Trustworthy,Untrustworthy","","3836","","","","","","<div class='header' style='text-align:left; position: absolute; top: 5%; left: 5%;'><small>Task 1 of 5</small></div><div class='instruxDiv'><p><strong>2) How many points can you win each round?</strong></p><p>a) 10 points</p><p>b) Double what you bet</p><p>c) Quadruple what you bet</p>","B","","","","","","","","","","",""
"html-keyboard-response","7","155060","0.0-8.0","55e7221441988f000b75cc7a","bdp_rwlrn","Wed Mar 15 2023 14:59:25 GMT-0400 (Eastern Daylight Time)","576794","Trustworthy,Untrustworthy","","1266","","","","","","<div class='header' style='text-align:left; position: absolute; top: 5%; left: 5%;'><small>Task 1 of 5</small></div><div class='instruxDiv'><p><strong>2) How many points can you win each round?</strong></p><p>a) 10 points</p><p style='color:#00FF00'>b) Double what you bet</p><p>c) Quadruple what you bet</p><h3 style='color:#00FF00'>Correct!</h3><h3 class='center-content'>The correct response is b).</h3><h3 class='center-content'>You can win double the amount of points you bet.</h3><p><em>Press SPACEBAR to continue</em></p></div>"," ","","","","","","","","","","",""
"html-keyboard-response","8","160177","0.0-9.0","55e7221441988f000b75cc7a","bdp_rwlrn","Wed Mar 15 2023 14:59:25 GMT-0400 (Eastern Daylight Time)","576794","Trustworthy,Untrustworthy","","null","","","","","","<div class='header' style='text-align:left; position: absolute; top: 5%; left: 5%;'><small>Task 1 of 5</small></div><div class='instruxDiv'><p>Thank you for completing the quiz<p>These are the actual lotteries you will be playing in the next block:<p><div class='tc' align='center'><img class='introPic' src='Fruit/melon.png'><br><strong>Melon Millions</strong></div><div class='bl' align='center'><img class='introPic' src='Fruit/apple.png'><br><strong>Awesome Apples</strong></div><div class='br' align='center'><img class='introPic' src='Fruit/mixed-berries2.png'><br><strong>Berry Bla$t</strong></div></div><p>Across <strong>66 rounds</strong> you will play each lottery <strong>22 times</strong> (in random order).<p style='align:center; color:white'><font <em>Press SPACEBAR to continue</em></p>","null","","","","","","","","","","",""
"instructions","9","168502","0.0-10.0","55e7221441988f000b75cc7a","bdp_rwlrn","Wed Mar 15 2023 14:59:25 GMT-0400 (Eastern Daylight Time)","576794","Trustworthy,Untrustworthy","[{""page_index"":0,""viewing_time"":5928},{""page_index"":1,""viewing_time"":2395}]","8324","","","","","","","","","","","","","","","","","",""
"html-keyboard-response","10","174725","0.0-11.0-1.0","55e7221441988f000b75cc7a","bdp_rwlrn","Wed Mar 15 2023 14:59:25 GMT-0400 (Eastern Daylight Time)","576794","Trustworthy,Untrustworthy","","6119","","","","decision","","<div class='trialDiv'><img src='Fruit/mixed-berries2.png'><br><font class='baseline'><strong>Berry Bla$t</strong><p>Choose number of points to bet.</font><div class='respPicDiv'><img src='img/responseButtonOffersNo0L.png' class='respPic'></div></div>","3","1","Berry Bla$t","Fruit/mixed-berries2.png","Lost","0.35,0.65","8","0.35","5","1","",""
"html-keyboard-response","11","174982","0.0-11.0-2.0","55e7221441988f000b75cc7a","bdp_rwlrn","Wed Mar 15 2023 14:59:25 GMT-0400 (Eastern Daylight Time)","576794","Trustworthy,Untrustworthy","","null","","","","decisionFB","","<div class='trialDiv'><img src='Fruit/mixed-berries2.png'><br><font class='baseline'><strong>Berry Bla$t</strong><p>Choose number of points to bet.</font><div class='respPicDiv'><img src='img/responseButtonOffersNo0L3.png' class='respPic'></div></div>","null","1","Berry Bla$t","Fruit/mixed-berries2.png","Lost","0.35,0.65","8","0.35","2","1","",""
"html-keyboard-response","12","175988","0.0-11.0-3.0","55e7221441988f000b75cc7a","bdp_rwlrn","Wed Mar 15 2023 14:59:25 GMT-0400 (Eastern Daylight Time)","576794","Trustworthy,Untrustworthy","","null","","","","feedback","","<div class='respPicDiv'><img src='img/responseButtonOffersNo0_wht.png' class='respPic'></div><div class='trialDiv'><img src='Fruit/mixed-berries2.png'><br><font class='baseline'><strong>Berry Bla$t</strong><p><strong><font class='negOutcome'>You LOST</font><p>You bet: 3</strong></font> &nbsp; &nbsp; &nbsp; &nbsp; &nbsp; &nbsp;<font class='negOutcome'>You receive: <strong>0</strong></font></div>","null","1","Berry Bla$t","Fruit/mixed-berries2.png","Lost","0.35,0.65","8","0.35","2","1","",""
"html-keyboard-response","13","178179","0.0-11.0-1.1","55e7221441988f000b75cc7a","bdp_rwlrn","Wed Mar 15 2023 14:59:25 GMT-0400 (Eastern Daylight Time)","576794","Trustworthy,Untrustworthy","","2191","","","","decision","","<div class='trialDiv'><img src='Fruit/apple.png'><br><font class='baseline'><strong>Awesome Apples</strong><p>Choose number of points to bet.</font><div class='respPicDiv'><img src='img/responseButtonOffersNo0L.png' class='respPic'></div></div>","3","1","Awesome Apples","Fruit/apple.png","Won","0.35,0.8","13","0.35","7","2","",""
"html-keyboard-response","14","178440","0.0-11.0-2.1","55e7221441988f000b75cc7a","bdp_rwlrn","Wed Mar 15 2023 14:59:25 GMT-0400 (Eastern Daylight Time)","576794","Trustworthy,Untrustworthy","","null","","","","decisionFB","","<div class='trialDiv'><img src='Fruit/apple.png'><br><font class='baseline'><strong>Awesome Apples</strong><p>Choose number of points to bet.</font><div class='respPicDiv'><img src='img/responseButtonOffersNo0L3.png' class='respPic'></div></div>","null","1","Awesome Apples","Fruit/apple.png","Won","0.35,0.8","13","0.35","4","2","",""
"html-keyboard-response","15","179445","0.0-11.0-3.1","55e7221441988f000b75cc7a","bdp_rwlrn","Wed Mar 15 2023 14:59:25 GMT-0400 (Eastern Daylight Time)","576794","Trustworthy,Untrustworthy","","null","","","","feedback","","<div class='respPicDiv'><img src='img/responseButtonOffersNo0_wht.png' class='respPic'></div><div class='trialDiv'><img src='Fruit/apple.png'><br><font class='baseline'><strong>Awesome Apples</strong><p><strong><font class='posOutcome'>You WON</font><p>You bet: 3</strong></font> &nbsp; &nbsp; &nbsp; &nbsp; &nbsp; &nbsp;<font class='posOutcome'>you receive: <strong>6</strong></font></div>","null","1","Awesome Apples","Fruit/apple.png","Won","0.35,0.8","13","0.35","10","2","",""
"html-keyboard-response","16","180679","0.0-11.0-1.2","55e7221441988f000b75cc7a","bdp_rwlrn","Wed Mar 15 2023 14:59:25 GMT-0400 (Eastern Daylight Time)","576794","Trustworthy,Untrustworthy","","1232","","","","decision","","<div class='trialDiv'><img src='Fruit/melon.png'><br><font class='baseline'><strong>Melon Millions</strong><p>Choose number of points to bet.</font><div class='respPicDiv'><img src='img/responseButtonOffersNo0L.png' class='respPic'></div></div>","3","1","Melon Millions","Fruit/melon.png","Won","0.65,0.2","13","0.65","15","3","",""
"html-keyboard-response","17","180934","0.0-11.0-2.2","55e7221441988f000b75cc7a","bdp_rwlrn","Wed Mar 15 2023 14:59:25 GMT-0400 (Eastern Daylight Time)","576794","Trustworthy,Untrustworthy","","null","","","","decisionFB","","<div class='trialDiv'><img src='Fruit/melon.png'><br><font class='baseline'><strong>Melon Millions</strong><p>Choose number of points to bet.</font><div class='respPicDiv'><img src='img/responseButtonOffersNo0L3.png' class='respPic'></div></div>","null","1","Melon Millions","Fruit/melon.png","Won","0.65,0.2","13","0.65","12","3","",""
"html-keyboard-response","18","181938","0.0-11.0-3.2","55e7221441988f000b75cc7a","bdp_rwlrn","Wed Mar 15 2023 14:59:25 GMT-0400 (Eastern Daylight Time)","576794","Trustworthy,Untrustworthy","","null","","","","feedback","","<div class='respPicDiv'><img src='img/responseButtonOffersNo0_wht.png' class='respPic'></div><div class='trialDiv'><img src='Fruit/melon.png'><br><font class='baseline'><strong>Melon Millions</strong><p><strong><font class='posOutcome'>You WON</font><p>You bet: 3</strong></font> &nbsp; &nbsp; &nbsp; &nbsp; &nbsp; &nbsp;<font class='posOutcome'>you receive: <strong>6</strong></font></div>","null","1","Melon Millions","Fruit/melon.png","Won","0.65,0.2","13","0.65","18","3","",""
"html-keyboard-response","19","185397","0.0-11.0-1.3","55e7221441988f000b75cc7a","bdp_rwlrn","Wed Mar 15 2023 14:59:25 GMT-0400 (Eastern Daylight Time)","576794","Trustworthy,Untrustworthy","","3457","","","","decision","","<div class='trialDiv'><img src='Fruit/apple.png'><br><font class='baseline'><strong>Awesome Apples</strong><p>Choose number of points to bet.</font><div class='respPicDiv'><img src='img/responseButtonOffersNo0L.png' class='respPic'></div></div>","3","2","Awesome Apples","Fruit/apple.png","Lost","0.35,0.8","13","0.35","23","4","",""
"html-keyboard-response","20","185661","0.0-11.0-2.3","55e7221441988f000b75cc7a","bdp_rwlrn","Wed Mar 15 2023 14:59:25 GMT-0400 (Eastern Daylight Time)","576794","Trustworthy,Untrustworthy","","null","","","","decisionFB","","<div class='trialDiv'><img src='Fruit/apple.png'><br><font class='baseline'><strong>Awesome Apples</strong><p>Choose number of points to bet.</font><div class='respPicDiv'><img src='img/responseButtonOffersNo0L3.png' class='respPic'></div></div>","null","2","Awesome Apples","Fruit/apple.png","Lost","0.35,0.8","13","0.35","20","4","",""
"html-keyboard-response","21","186674","0.0-11.0-3.3","55e7221441988f000b75cc7a","bdp_rwlrn","Wed Mar 15 2023 14:59:25 GMT-0400 (Eastern Daylight Time)","576794","Trustworthy,Untrustworthy","","null","","","","feedback","","<div class='respPicDiv'><img src='img/responseButtonOffersNo0_wht.png' class='respPic'></div><div class='trialDiv'><img src='Fruit/apple.png'><br><font class='baseline'><strong>Awesome Apples</strong><p><strong><font class='negOutcome'>You LOST</font><p>You bet: 3</strong></font> &nbsp; &nbsp; &nbsp; &nbsp; &nbsp; &nbsp;<font class='negOutcome'>You receive: <strong>0</strong></font></div>","null","2","Awesome Apples","Fruit/apple.png","Lost","0.35,0.8","13","0.35","20","4","",""
"html-keyboard-response","22","187543","0.0-11.0-1.4","55e7221441988f000b75cc7a","bdp_rwlrn","Wed Mar 15 2023 14:59:25 GMT-0400 (Eastern Daylight Time)","576794","Trustworthy,Untrustworthy","","868","","","","decision","","<div class='trialDiv'><img src='Fruit/melon.png'><br><font class='baseline'><strong>Melon Millions</strong><p>Choose number of points to bet.</font><div class='respPicDiv'><img src='img/responseButtonOffersNo0L.png' class='respPic'></div></div>","3","2","Melon Millions","Fruit/melon.png","Lost","0.65,0.2","13","0.65","25","5","",""
"html-keyboard-response","23","187808","0.0-11.0-2.4","55e7221441988f000b75cc7a","bdp_rwlrn","Wed Mar 15 2023 14:59:25 GMT-0400 (Eastern Daylight Time)","576794","Trustworthy,Untrustworthy","","null","","","","decisionFB","","<div class='trialDiv'><img src='Fruit/melon.png'><br><font class='baseline'><strong>Melon Millions</strong><p>Choose number of points to bet.</font><div class='respPicDiv'><img src='img/responseButtonOffersNo0L3.png' class='respPic'></div></div>","null","2","Melon Millions","Fruit/melon.png","Lost","0.65,0.2","13","0.65","22","5","",""
"html-keyboard-response","24","188816","0.0-11.0-3.4","55e7221441988f000b75cc7a","bdp_rwlrn","Wed Mar 15 2023 14:59:25 GMT-0400 (Eastern Daylight Time)","576794","Trustworthy,Untrustworthy","","null","","","","feedback","","<div class='respPicDiv'><img src='img/responseButtonOffersNo0_wht.png' class='respPic'></div><div class='trialDiv'><img src='Fruit/melon.png'><br><font class='baseline'><strong>Melon Millions</strong><p><strong><font class='negOutcome'>You LOST</font><p>You bet: 3</strong></font> &nbsp; &nbsp; &nbsp; &nbsp; &nbsp; &nbsp;<font class='negOutcome'>You receive: <strong>0</strong></font></div>","null","2","Melon Millions","Fruit/melon.png","Lost","0.65,0.2","13","0.65","22","5","",""
"html-keyboard-response","25","189670","0.0-11.0-1.5","55e7221441988f000b75cc7a","bdp_rwlrn","Wed Mar 15 2023 14:59:25 GMT-0400 (Eastern Daylight Time)","576794","Trustworthy,Untrustworthy","","853","","","","decision","","<div class='trialDiv'><img src='Fruit/mixed-berries2.png'><br><font class='baseline'><strong>Berry Bla$t</strong><p>Choose number of points to bet.</font><div class='respPicDiv'><img src='img/responseButtonOffersNo0L.png' class='respPic'></div></div>","3","2","Berry Bla$t","Fruit/mixed-berries2.png","Lost","0.35,0.65","8","0.35","27","6","",""
"html-keyboard-response","26","189927","0.0-11.0-2.5","55e7221441988f000b75cc7a","bdp_rwlrn","Wed Mar 15 2023 14:59:25 GMT-0400 (Eastern Daylight Time)","576794","Trustworthy,Untrustworthy","","null","","","","decisionFB","","<div class='trialDiv'><img src='Fruit/mixed-berries2.png'><br><font class='baseline'><strong>Berry Bla$t</strong><p>Choose number of points to bet.</font><div class='respPicDiv'><img src='img/responseButtonOffersNo0L3.png' class='respPic'></div></div>","null","2","Berry Bla$t","Fruit/mixed-berries2.png","Lost","0.35,0.65","8","0.35","24","6","",""
"html-keyboard-response","27","190940","0.0-11.0-3.5","55e7221441988f000b75cc7a","bdp_rwlrn","Wed Mar 15 2023 14:59:25 GMT-0400 (Eastern Daylight Time)","576794","Trustworthy,Untrustworthy","","null","","","","feedback","","<div class='respPicDiv'><img src='img/responseButtonOffersNo0_wht.png' class='respPic'></div><div class='trialDiv'><img src='Fruit/mixed-berries2.png'><br><font class='baseline'><strong>Berry Bla$t</strong><p><strong><font class='negOutcome'>You LOST</font><p>You bet: 3</strong></font> &nbsp; &nbsp; &nbsp; &nbsp; &nbsp; &nbsp;<font class='negOutcome'>You receive: <strong>0</strong></font></div>","null","2","Berry Bla$t","Fruit/mixed-berries2.png","Lost","0.35,0.65","8","0.35","24","6","",""
"html-keyboard-response","28","192665","0.0-11.0-1.6","55e7221441988f000b75cc7a","bdp_rwlrn","Wed Mar 15 2023 14:59:25 GMT-0400 (Eastern Daylight Time)","576794","Trustworthy,Untrustworthy","","1724","","","","decision","","<div class='trialDiv'><img src='Fruit/melon.png'><br><font class='baseline'><strong>Melon Millions</strong><p>Choose number of points to bet.</font><div class='respPicDiv'><img src='img/responseButtonOffersNo0L.png' class='respPic'></div></div>","3","3","Melon Millions","Fruit/melon.png","Won","0.65,0.2","13","0.65","29","7","",""
"html-keyboard-response","29","192928","0.0-11.0-2.6","55e7221441988f000b75cc7a","bdp_rwlrn","Wed Mar 15 2023 14:59:25 GMT-0400 (Eastern Daylight Time)","576794","Trustworthy,Untrustworthy","","null","","","","decisionFB","","<div class='trialDiv'><img src='Fruit/melon.png'><br><font class='baseline'><strong>Melon Millions</strong><p>Choose number of points to bet.</font><div class='respPicDiv'><img src='img/responseButtonOffersNo0L3.png' class='respPic'></div></div>","null","3","Melon Millions","Fruit/melon.png","Won","0.65,0.2","13","0.65","26","7","",""
"html-keyboard-response","30","193932","0.0-11.0-3.6","55e7221441988f000b75cc7a","bdp_rwlrn","Wed Mar 15 2023 14:59:25 GMT-0400 (Eastern Daylight Time)","576794","Trustworthy,Untrustworthy","","null","","","","feedback","","<div class='respPicDiv'><img src='img/responseButtonOffersNo0_wht.png' class='respPic'></div><div class='trialDiv'><img src='Fruit/melon.png'><br><font class='baseline'><strong>Melon Millions</strong><p><strong><font class='posOutcome'>You WON</font><p>You bet: 3</strong></font> &nbsp; &nbsp; &nbsp; &nbsp; &nbsp; &nbsp;<font class='posOutcome'>you receive: <strong>6</strong></font></div>","null","3","Melon Millions","Fruit/melon.png","Won","0.65,0.2","13","0.65","32","7","",""
"html-keyboard-response","31","195147","0.0-11.0-1.7","55e7221441988f000b75cc7a","bdp_rwlrn","Wed Mar 15 2023 14:59:25 GMT-0400 (Eastern Daylight Time)","576794","Trustworthy,Untrustworthy","","1214","","","","decision","","<div class='trialDiv'><img src='Fruit/apple.png'><br><font class='baseline'><strong>Awesome Apples</strong><p>Choose number of points to bet.</font><div class='respPicDiv'><img src='img/responseButtonOffersNo0L.png' class='respPic'></div></div>","2","3","Awesome Apples","Fruit/apple.png","Won","0.35,0.8","13","0.35","37","8","",""
"html-keyboard-response","32","195411","0.0-11.0-2.7","55e7221441988f000b75cc7a","bdp_rwlrn","Wed Mar 15 2023 14:59:25 GMT-0400 (Eastern Daylight Time)","576794","Trustworthy,Untrustworthy","","null","","","","decisionFB","","<div class='trialDiv'><img src='Fruit/apple.png'><br><font class='baseline'><strong>Awesome Apples</strong><p>Choose number of points to bet.</font><div class='respPicDiv'><img src='img/responseButtonOffersNo0L2.png' class='respPic'></div></div>","null","3","Awesome Apples","Fruit/apple.png","Won","0.35,0.8","13","0.35","35","8","",""
"html-keyboard-response","33","196414","0.0-11.0-3.7","55e7221441988f000b75cc7a","bdp_rwlrn","Wed Mar 15 2023 14:59:25 GMT-0400 (Eastern Daylight Time)","576794","Trustworthy,Untrustworthy","","null","","","","feedback","","<div class='respPicDiv'><img src='img/responseButtonOffersNo0_wht.png' class='respPic'></div><div class='trialDiv'><img src='Fruit/apple.png'><br><font class='baseline'><strong>Awesome Apples</strong><p><strong><font class='posOutcome'>You WON</font><p>You bet: 2</strong></font> &nbsp; &nbsp; &nbsp; &nbsp; &nbsp; &nbsp;<font class='posOutcome'>you receive: <strong>4</strong></font></div>","null","3","Awesome Apples","Fruit/apple.png","Won","0.35,0.8","13","0.35","39","8","",""
"html-keyboard-response","34","197476","0.0-11.0-1.8","55e7221441988f000b75cc7a","bdp_rwlrn","Wed Mar 15 2023 14:59:25 GMT-0400 (Eastern Daylight Time)","576794","Trustworthy,Untrustworthy","","1061","","","","decision","","<div class='trialDiv'><img src='Fruit/mixed-berries2.png'><br><font class='baseline'><strong>Berry Bla$t</strong><p>Choose number of points to bet.</font><div class='respPicDiv'><img src='img/responseButtonOffersNo0L.png' class='respPic'></div></div>","2","3","Berry Bla$t","Fruit/mixed-berries2.png","Won","0.35,0.65","8","0.35","44","9","",""
"html-keyboard-response","35","197740","0.0-11.0-2.8","55e7221441988f000b75cc7a","bdp_rwlrn","Wed Mar 15 2023 14:59:25 GMT-0400 (Eastern Daylight Time)","576794","Trustworthy,Untrustworthy","","null","","","","decisionFB","","<div class='trialDiv'><img src='Fruit/mixed-berries2.png'><br><font class='baseline'><strong>Berry Bla$t</strong><p>Choose number of points to bet.</font><div class='respPicDiv'><img src='img/responseButtonOffersNo0L2.png' class='respPic'></div></div>","null","3","Berry Bla$t","Fruit/mixed-berries2.png","Won","0.35,0.65","8","0.35","42","9","",""
"html-keyboard-response","36","198747","0.0-11.0-3.8","55e7221441988f000b75cc7a","bdp_rwlrn","Wed Mar 15 2023 14:59:25 GMT-0400 (Eastern Daylight Time)","576794","Trustworthy,Untrustworthy","","null","","","","feedback","","<div class='respPicDiv'><img src='img/responseButtonOffersNo0_wht.png' class='respPic'></div><div class='trialDiv'><img src='Fruit/mixed-berries2.png'><br><font class='baseline'><strong>Berry Bla$t</strong><p><strong><font class='posOutcome'>You WON</font><p>You bet: 2</strong></font> &nbsp; &nbsp; &nbsp; &nbsp; &nbsp; &nbsp;<font class='posOutcome'>you receive: <strong>4</strong></font></div>","null","3","Berry Bla$t","Fruit/mixed-berries2.png","Won","0.35,0.65","8","0.35","46","9","",""
"html-keyboard-response","37","202849","0.0-11.0-1.9","55e7221441988f000b75cc7a","bdp_rwlrn","Wed Mar 15 2023 14:59:25 GMT-0400 (Eastern Daylight Time)","576794","Trustworthy,Untrustworthy","","4101","","","","decision","","<div class='trialDiv'><img src='Fruit/apple.png'><br><font class='baseline'><strong>Awesome Apples</strong><p>Choose number of points to bet.</font><div class='respPicDiv'><img src='img/responseButtonOffersNo0L.png' class='respPic'></div></div>","2","4","Awesome Apples","Fruit/apple.png","Won","0.35,0.8","13","0.35","51","10","",""
"html-keyboard-response","38","203107","0.0-11.0-2.9","55e7221441988f000b75cc7a","bdp_rwlrn","Wed Mar 15 2023 14:59:25 GMT-0400 (Eastern Daylight Time)","576794","Trustworthy,Untrustworthy","","null","","","","decisionFB","","<div class='trialDiv'><img src='Fruit/apple.png'><br><font class='baseline'><strong>Awesome Apples</strong><p>Choose number of points to bet.</font><div class='respPicDiv'><img src='img/responseButtonOffersNo0L2.png' class='respPic'></div></div>","null","4","Awesome Apples","Fruit/apple.png","Won","0.35,0.8","13","0.35","49","10","",""
"html-keyboard-response","39","204119","0.0-11.0-3.9","55e7221441988f000b75cc7a","bdp_rwlrn","Wed Mar 15 2023 14:59:25 GMT-0400 (Eastern Daylight Time)","576794","Trustworthy,Untrustworthy","","null","","","","feedback","","<div class='respPicDiv'><img src='img/responseButtonOffersNo0_wht.png' class='respPic'></div><div class='trialDiv'><img src='Fruit/apple.png'><br><font class='baseline'><strong>Awesome Apples</strong><p><strong><font class='posOutcome'>You WON</font><p>You bet: 2</strong></font> &nbsp; &nbsp; &nbsp; &nbsp; &nbsp; &nbsp;<font class='posOutcome'>you receive: <strong>4</strong></font></div>","null","4","Awesome Apples","Fruit/apple.png","Won","0.35,0.8","13","0.35","53","10","",""
"html-keyboard-response","40","205679","0.0-11.0-1.10","55e7221441988f000b75cc7a","bdp_rwlrn","Wed Mar 15 2023 14:59:25 GMT-0400 (Eastern Daylight Time)","576794","Trustworthy,Untrustworthy","","1559","","","","decision","","<div class='trialDiv'><img src='Fruit/melon.png'><br><font class='baseline'><strong>Melon Millions</strong><p>Choose number of points to bet.</font><div class='respPicDiv'><img src='img/responseButtonOffersNo0L.png' class='respPic'></div></div>","4","4","Melon Millions","Fruit/melon.png","Won","0.65,0.2","13","0.65","58","11","",""
"html-keyboard-response","41","205932","0.0-11.0-2.10","55e7221441988f000b75cc7a","bdp_rwlrn","Wed Mar 15 2023 14:59:25 GMT-0400 (Eastern Daylight Time)","576794","Trustworthy,Untrustworthy","","null","","","","decisionFB","","<div class='trialDiv'><img src='Fruit/melon.png'><br><font class='baseline'><strong>Melon Millions</strong><p>Choose number of points to bet.</font><div class='respPicDiv'><img src='img/responseButtonOffersNo0L4.png' class='respPic'></div></div>","null","4","Melon Millions","Fruit/melon.png","Won","0.65,0.2","13","0.65","54","11","",""
"html-keyboard-response","42","206946","0.0-11.0-3.10","55e7221441988f000b75cc7a","bdp_rwlrn","Wed Mar 15 2023 14:59:25 GMT-0400 (Eastern Daylight Time)","576794","Trustworthy,Untrustworthy","","null","","","","feedback","","<div class='respPicDiv'><img src='img/responseButtonOffersNo0_wht.png' class='respPic'></div><div class='trialDiv'><img src='Fruit/melon.png'><br><font class='baseline'><strong>Melon Millions</strong><p><strong><font class='posOutcome'>You WON</font><p>You bet: 4</strong></font> &nbsp; &nbsp; &nbsp; &nbsp; &nbsp; &nbsp;<font class='posOutcome'>you receive: <strong>8</strong></font></div>","null","4","Melon Millions","Fruit/melon.png","Won","0.65,0.2","13","0.65","62","11","",""
"html-keyboard-response","43","207800","0.0-11.0-1.11","55e7221441988f000b75cc7a","bdp_rwlrn","Wed Mar 15 2023 14:59:25 GMT-0400 (Eastern Daylight Time)","576794","Trustworthy,Untrustworthy","","853","","","","decision","","<div class='trialDiv'><img src='Fruit/mixed-berries2.png'><br><font class='baseline'><strong>Berry Bla$t</strong><p>Choose number of points to bet.</font><div class='respPicDiv'><img src='img/responseButtonOffersNo0L.png' class='respPic'></div></div>","2","4","Berry Bla$t","Fruit/mixed-berries2.png","Lost","0.35,0.65","8","0.35","67","12","",""
"html-keyboard-response","44","208061","0.0-11.0-2.11","55e7221441988f000b75cc7a","bdp_rwlrn","Wed Mar 15 2023 14:59:25 GMT-0400 (Eastern Daylight Time)","576794","Trustworthy,Untrustworthy","","null","","","","decisionFB","","<div class='trialDiv'><img src='Fruit/mixed-berries2.png'><br><font class='baseline'><strong>Berry Bla$t</strong><p>Choose number of points to bet.</font><div class='respPicDiv'><img src='img/responseButtonOffersNo0L2.png' class='respPic'></div></div>","null","4","Berry Bla$t","Fruit/mixed-berries2.png","Lost","0.35,0.65","8","0.35","65","12","",""
"html-keyboard-response","45","209076","0.0-11.0-3.11","55e7221441988f000b75cc7a","bdp_rwlrn","Wed Mar 15 2023 14:59:25 GMT-0400 (Eastern Daylight Time)","576794","Trustworthy,Untrustworthy","","null","","","","feedback","","<div class='respPicDiv'><img src='img/responseButtonOffersNo0_wht.png' class='respPic'></div><div class='trialDiv'><img src='Fruit/mixed-berries2.png'><br><font class='baseline'><strong>Berry Bla$t</strong><p><strong><font class='negOutcome'>You LOST</font><p>You bet: 2</strong></font> &nbsp; &nbsp; &nbsp; &nbsp; &nbsp; &nbsp;<font class='negOutcome'>You receive: <strong>0</strong></font></div>","null","4","Berry Bla$t","Fruit/mixed-berries2.png","Lost","0.35,0.65","8","0.35","65","12","",""
"html-keyboard-response","46","211217","0.0-11.0-1.12","55e7221441988f000b75cc7a","bdp_rwlrn","Wed Mar 15 2023 14:59:25 GMT-0400 (Eastern Daylight Time)","576794","Trustworthy,Untrustworthy","","2140","","","","decision","","<div class='trialDiv'><img src='Fruit/apple.png'><br><font class='baseline'><strong>Awesome Apples</strong><p>Choose number of points to bet.</font><div class='respPicDiv'><img src='img/responseButtonOffersNo0L.png' class='respPic'></div></div>","2","5","Awesome Apples","Fruit/apple.png","Won","0.35,0.8","13","0.35","70","13","",""
"html-keyboard-response","47","211476","0.0-11.0-2.12","55e7221441988f000b75cc7a","bdp_rwlrn","Wed Mar 15 2023 14:59:25 GMT-0400 (Eastern Daylight Time)","576794","Trustworthy,Untrustworthy","","null","","","","decisionFB","","<div class='trialDiv'><img src='Fruit/apple.png'><br><font class='baseline'><strong>Awesome Apples</strong><p>Choose number of points to bet.</font><div class='respPicDiv'><img src='img/responseButtonOffersNo0L2.png' class='respPic'></div></div>","null","5","Awesome Apples","Fruit/apple.png","Won","0.35,0.8","13","0.35","68","13","",""
"html-keyboard-response","48","212491","0.0-11.0-3.12","55e7221441988f000b75cc7a","bdp_rwlrn","Wed Mar 15 2023 14:59:25 GMT-0400 (Eastern Daylight Time)","576794","Trustworthy,Untrustworthy","","null","","","","feedback","","<div class='respPicDiv'><img src='img/responseButtonOffersNo0_wht.png' class='respPic'></div><div class='trialDiv'><img src='Fruit/apple.png'><br><font class='baseline'><strong>Awesome Apples</strong><p><strong><font class='posOutcome'>You WON</font><p>You bet: 2</strong></font> &nbsp; &nbsp; &nbsp; &nbsp; &nbsp; &nbsp;<font class='posOutcome'>you receive: <strong>4</strong></font></div>","null","5","Awesome Apples","Fruit/apple.png","Won","0.35,0.8","13","0.35","72","13","",""
"html-keyboard-response","49","213449","0.0-11.0-1.13","55e7221441988f000b75cc7a","bdp_rwlrn","Wed Mar 15 2023 14:59:25 GMT-0400 (Eastern Daylight Time)","576794","Trustworthy,Untrustworthy","","958","","","","decision","","<div class='trialDiv'><img src='Fruit/mixed-berries2.png'><br><font class='baseline'><strong>Berry Bla$t</strong><p>Choose number of points to bet.</font><div class='respPicDiv'><img src='img/responseButtonOffersNo0L.png' class='respPic'></div></div>","2","5","Berry Bla$t","Fruit/mixed-berries2.png","Lost","0.35,0.65","8","0.35","77","14","",""
"html-keyboard-response","50","213705","0.0-11.0-2.13","55e7221441988f000b75cc7a","bdp_rwlrn","Wed Mar 15 2023 14:59:25 GMT-0400 (Eastern Daylight Time)","576794","Trustworthy,Untrustworthy","","null","","","","decisionFB","","<div class='trialDiv'><img src='Fruit/mixed-berries2.png'><br><font class='baseline'><strong>Berry Bla$t</strong><p>Choose number of points to bet.</font><div class='respPicDiv'><img src='img/responseButtonOffersNo0L2.png' class='respPic'></div></div>","null","5","Berry Bla$t","Fruit/mixed-berries2.png","Lost","0.35,0.65","8","0.35","75","14","",""
"html-keyboard-response","51","214717","0.0-11.0-3.13","55e7221441988f000b75cc7a","bdp_rwlrn","Wed Mar 15 2023 14:59:25 GMT-0400 (Eastern Daylight Time)","576794","Trustworthy,Untrustworthy","","null","","","","feedback","","<div class='respPicDiv'><img src='img/responseButtonOffersNo0_wht.png' class='respPic'></div><div class='trialDiv'><img src='Fruit/mixed-berries2.png'><br><font class='baseline'><strong>Berry Bla$t</strong><p><strong><font class='negOutcome'>You LOST</font><p>You bet: 2</strong></font> &nbsp; &nbsp; &nbsp; &nbsp; &nbsp; &nbsp;<font class='negOutcome'>You receive: <strong>0</strong></font></div>","null","5","Berry Bla$t","Fruit/mixed-berries2.png","Lost","0.35,0.65","8","0.35","75","14","",""
"html-keyboard-response","52","215888","0.0-11.0-1.14","55e7221441988f000b75cc7a","bdp_rwlrn","Wed Mar 15 2023 14:59:25 GMT-0400 (Eastern Daylight Time)","576794","Trustworthy,Untrustworthy","","1171","","","","decision","","<div class='trialDiv'><img src='Fruit/melon.png'><br><font class='baseline'><strong>Melon Millions</strong><p>Choose number of points to bet.</font><div class='respPicDiv'><img src='img/responseButtonOffersNo0L.png' class='respPic'></div></div>","3","5","Melon Millions","Fruit/melon.png","Lost","0.65,0.2","13","0.65","80","15","",""
"html-keyboard-response","53","216152","0.0-11.0-2.14","55e7221441988f000b75cc7a","bdp_rwlrn","Wed Mar 15 2023 14:59:25 GMT-0400 (Eastern Daylight Time)","576794","Trustworthy,Untrustworthy","","null","","","","decisionFB","","<div class='trialDiv'><img src='Fruit/melon.png'><br><font class='baseline'><strong>Melon Millions</strong><p>Choose number of points to bet.</font><div class='respPicDiv'><img src='img/responseButtonOffersNo0L3.png' class='respPic'></div></div>","null","5","Melon Millions","Fruit/melon.png","Lost","0.65,0.2","13","0.65","77","15","",""
"html-keyboard-response","54","217154","0.0-11.0-3.14","55e7221441988f000b75cc7a","bdp_rwlrn","Wed Mar 15 2023 14:59:25 GMT-0400 (Eastern Daylight Time)","576794","Trustworthy,Untrustworthy","","null","","","","feedback","","<div class='respPicDiv'><img src='img/responseButtonOffersNo0_wht.png' class='respPic'></div><div class='trialDiv'><img src='Fruit/melon.png'><br><font class='baseline'><strong>Melon Millions</strong><p><strong><font class='negOutcome'>You LOST</font><p>You bet: 3</strong></font> &nbsp; &nbsp; &nbsp; &nbsp; &nbsp; &nbsp;<font class='negOutcome'>You receive: <strong>0</strong></font></div>","null","5","Melon Millions","Fruit/melon.png","Lost","0.65,0.2","13","0.65","77","15","",""
"html-keyboard-response","55","218364","0.0-11.0-1.15","55e7221441988f000b75cc7a","bdp_rwlrn","Wed Mar 15 2023 14:59:25 GMT-0400 (Eastern Daylight Time)","576794","Trustworthy,Untrustworthy","","1210","","","","decision","","<div class='trialDiv'><img src='Fruit/mixed-berries2.png'><br><font class='baseline'><strong>Berry Bla$t</strong><p>Choose number of points to bet.</font><div class='respPicDiv'><img src='img/responseButtonOffersNo0L.png' class='respPic'></div></div>","5","6","Berry Bla$t","Fruit/mixed-berries2.png","Won","0.35,0.65","8","0.35","82","16","",""
"html-keyboard-response","56","218628","0.0-11.0-2.15","55e7221441988f000b75cc7a","bdp_rwlrn","Wed Mar 15 2023 14:59:25 GMT-0400 (Eastern Daylight Time)","576794","Trustworthy,Untrustworthy","","null","","","","decisionFB","","<div class='trialDiv'><img src='Fruit/mixed-berries2.png'><br><font class='baseline'><strong>Berry Bla$t</strong><p>Choose number of points to bet.</font><div class='respPicDiv'><img src='img/responseButtonOffersNo0L5.png' class='respPic'></div></div>","null","6","Berry Bla$t","Fruit/mixed-berries2.png","Won","0.35,0.65","8","0.35","77","16","",""
"html-keyboard-response","57","219633","0.0-11.0-3.15","55e7221441988f000b75cc7a","bdp_rwlrn","Wed Mar 15 2023 14:59:25 GMT-0400 (Eastern Daylight Time)","576794","Trustworthy,Untrustworthy","","null","","","","feedback","","<div class='respPicDiv'><img src='img/responseButtonOffersNo0_wht.png' class='respPic'></div><div class='trialDiv'><img src='Fruit/mixed-berries2.png'><br><font class='baseline'><strong>Berry Bla$t</strong><p><strong><font class='posOutcome'>You WON</font><p>You bet: 5</strong></font> &nbsp; &nbsp; &nbsp; &nbsp; &nbsp; &nbsp;<font class='posOutcome'>you receive: <strong>10</strong></font></div>","null","6","Berry Bla$t","Fruit/mixed-berries2.png","Won","0.35,0.65","8","0.35","87","16","",""
"html-keyboard-response","58","221903","0.0-11.0-1.16","55e7221441988f000b75cc7a","bdp_rwlrn","Wed Mar 15 2023 14:59:25 GMT-0400 (Eastern Daylight Time)","576794","Trustworthy,Untrustworthy","","2270","","","","decision","","<div class='trialDiv'><img src='Fruit/apple.png'><br><font class='baseline'><strong>Awesome Apples</strong><p>Choose number of points to bet.</font><div class='respPicDiv'><img src='img/responseButtonOffersNo0L.png' class='respPic'></div></div>","4","6","Awesome Apples","Fruit/apple.png","Lost","0.35,0.8","13","0.35","92","17","",""
"html-keyboard-response","59","222154","0.0-11.0-2.16","55e7221441988f000b75cc7a","bdp_rwlrn","Wed Mar 15 2023 14:59:25 GMT-0400 (Eastern Daylight Time)","576794","Trustworthy,Untrustworthy","","null","","","","decisionFB","","<div class='trialDiv'><img src='Fruit/apple.png'><br><font class='baseline'><strong>Awesome Apples</strong><p>Choose number of points to bet.</font><div class='respPicDiv'><img src='img/responseButtonOffersNo0L4.png' class='respPic'></div></div>","null","6","Awesome Apples","Fruit/apple.png","Lost","0.35,0.8","13","0.35","88","17","",""
"html-keyboard-response","60","223161","0.0-11.0-3.16","55e7221441988f000b75cc7a","bdp_rwlrn","Wed Mar 15 2023 14:59:25 GMT-0400 (Eastern Daylight Time)","576794","Trustworthy,Untrustworthy","","null","","","","feedback","","<div class='respPicDiv'><img src='img/responseButtonOffersNo0_wht.png' class='respPic'></div><div class='trialDiv'><img src='Fruit/apple.png'><br><font class='baseline'><strong>Awesome Apples</strong><p><strong><font class='negOutcome'>You LOST</font><p>You bet: 4</strong></font> &nbsp; &nbsp; &nbsp; &nbsp; &nbsp; &nbsp;<font class='negOutcome'>You receive: <strong>0</strong></font></div>","null","6","Awesome Apples","Fruit/apple.png","Lost","0.35,0.8","13","0.35","88","17","",""
"html-keyboard-response","61","224073","0.0-11.0-1.17","55e7221441988f000b75cc7a","bdp_rwlrn","Wed Mar 15 2023 14:59:25 GMT-0400 (Eastern Daylight Time)","576794","Trustworthy,Untrustworthy","","912","","","","decision","","<div class='trialDiv'><img src='Fruit/melon.png'><br><font class='baseline'><strong>Melon Millions</strong><p>Choose number of points to bet.</font><div class='respPicDiv'><img src='img/responseButtonOffersNo0L.png' class='respPic'></div></div>","5","6","Melon Millions","Fruit/melon.png","Won","0.65,0.2","13","0.65","93","18","",""
"html-keyboard-response","62","224338","0.0-11.0-2.17","55e7221441988f000b75cc7a","bdp_rwlrn","Wed Mar 15 2023 14:59:25 GMT-0400 (Eastern Daylight Time)","576794","Trustworthy,Untrustworthy","","null","","","","decisionFB","","<div class='trialDiv'><img src='Fruit/melon.png'><br><font class='baseline'><strong>Melon Millions</strong><p>Choose number of points to bet.</font><div class='respPicDiv'><img src='img/responseButtonOffersNo0L5.png' class='respPic'></div></div>","null","6","Melon Millions","Fruit/melon.png","Won","0.65,0.2","13","0.65","88","18","",""
"html-keyboard-response","63","225341","0.0-11.0-3.17","55e7221441988f000b75cc7a","bdp_rwlrn","Wed Mar 15 2023 14:59:25 GMT-0400 (Eastern Daylight Time)","576794","Trustworthy,Untrustworthy","","null","","","","feedback","","<div class='respPicDiv'><img src='img/responseButtonOffersNo0_wht.png' class='respPic'></div><div class='trialDiv'><img src='Fruit/melon.png'><br><font class='baseline'><strong>Melon Millions</strong><p><strong><font class='posOutcome'>You WON</font><p>You bet: 5</strong></font> &nbsp; &nbsp; &nbsp; &nbsp; &nbsp; &nbsp;<font class='posOutcome'>you receive: <strong>10</strong></font></div>","null","6","Melon Millions","Fruit/melon.png","Won","0.65,0.2","13","0.65","98","18","",""
"html-keyboard-response","64","226922","0.0-11.0-1.18","55e7221441988f000b75cc7a","bdp_rwlrn","Wed Mar 15 2023 14:59:25 GMT-0400 (Eastern Daylight Time)","576794","Trustworthy,Untrustworthy","","1581","","","","decision","","<div class='trialDiv'><img src='Fruit/mixed-berries2.png'><br><font class='baseline'><strong>Berry Bla$t</strong><p>Choose number of points to bet.</font><div class='respPicDiv'><img src='img/responseButtonOffersNo0L.png' class='respPic'></div></div>","4","7","Berry Bla$t","Fruit/mixed-berries2.png","Lost","0.35,0.65","8","0.35","103","19","",""
"html-keyboard-response","65","227172","0.0-11.0-2.18","55e7221441988f000b75cc7a","bdp_rwlrn","Wed Mar 15 2023 14:59:25 GMT-0400 (Eastern Daylight Time)","576794","Trustworthy,Untrustworthy","","null","","","","decisionFB","","<div class='trialDiv'><img src='Fruit/mixed-berries2.png'><br><font class='baseline'><strong>Berry Bla$t</strong><p>Choose number of points to bet.</font><div class='respPicDiv'><img src='img/responseButtonOffersNo0L4.png' class='respPic'></div></div>","null","7","Berry Bla$t","Fruit/mixed-berries2.png","Lost","0.35,0.65","8","0.35","99","19","",""
"html-keyboard-response","66","228183","0.0-11.0-3.18","55e7221441988f000b75cc7a","bdp_rwlrn","Wed Mar 15 2023 14:59:25 GMT-0400 (Eastern Daylight Time)","576794","Trustworthy,Untrustworthy","","null","","","","feedback","","<div class='respPicDiv'><img src='img/responseButtonOffersNo0_wht.png' class='respPic'></div><div class='trialDiv'><img src='Fruit/mixed-berries2.png'><br><font class='baseline'><strong>Berry Bla$t</strong><p><strong><font class='negOutcome'>You LOST</font><p>You bet: 4</strong></font> &nbsp; &nbsp; &nbsp; &nbsp; &nbsp; &nbsp;<font class='negOutcome'>You receive: <strong>0</strong></font></div>","null","7","Berry Bla$t","Fruit/mixed-berries2.png","Lost","0.35,0.65","8","0.35","99","19","",""
"html-keyboard-response","67","229404","0.0-11.0-1.19","55e7221441988f000b75cc7a","bdp_rwlrn","Wed Mar 15 2023 14:59:25 GMT-0400 (Eastern Daylight Time)","576794","Trustworthy,Untrustworthy","","1221","","","","decision","","<div class='trialDiv'><img src='Fruit/apple.png'><br><font class='baseline'><strong>Awesome Apples</strong><p>Choose number of points to bet.</font><div class='respPicDiv'><img src='img/responseButtonOffersNo0L.png' class='respPic'></div></div>","3","7","Awesome Apples","Fruit/apple.png","Lost","0.35,0.8","13","0.35","104","20","",""
"html-keyboard-response","68","229664","0.0-11.0-2.19","55e7221441988f000b75cc7a","bdp_rwlrn","Wed Mar 15 2023 14:59:25 GMT-0400 (Eastern Daylight Time)","576794","Trustworthy,Untrustworthy","","null","","","","decisionFB","","<div class='trialDiv'><img src='Fruit/apple.png'><br><font class='baseline'><strong>Awesome Apples</strong><p>Choose number of points to bet.</font><div class='respPicDiv'><img src='img/responseButtonOffersNo0L3.png' class='respPic'></div></div>","null","7","Awesome Apples","Fruit/apple.png","Lost","0.35,0.8","13","0.35","101","20","",""
"html-keyboard-response","69","230668","0.0-11.0-3.19","55e7221441988f000b75cc7a","bdp_rwlrn","Wed Mar 15 2023 14:59:25 GMT-0400 (Eastern Daylight Time)","576794","Trustworthy,Untrustworthy","","null","","","","feedback","","<div class='respPicDiv'><img src='img/responseButtonOffersNo0_wht.png' class='respPic'></div><div class='trialDiv'><img src='Fruit/apple.png'><br><font class='baseline'><strong>Awesome Apples</strong><p><strong><font class='negOutcome'>You LOST</font><p>You bet: 3</strong></font> &nbsp; &nbsp; &nbsp; &nbsp; &nbsp; &nbsp;<font class='negOutcome'>You receive: <strong>0</strong></font></div>","null","7","Awesome Apples","Fruit/apple.png","Lost","0.35,0.8","13","0.35","101","20","",""
"html-keyboard-response","70","231305","0.0-11.0-1.20","55e7221441988f000b75cc7a","bdp_rwlrn","Wed Mar 15 2023 14:59:25 GMT-0400 (Eastern Daylight Time)","576794","Trustworthy,Untrustworthy","","637","","","","decision","","<div class='trialDiv'><img src='Fruit/melon.png'><br><font class='baseline'><strong>Melon Millions</strong><p>Choose number of points to bet.</font><div class='respPicDiv'><img src='img/responseButtonOffersNo0L.png' class='respPic'></div></div>","5","7","Melon Millions","Fruit/melon.png","Lost","0.65,0.2","13","0.65","106","21","",""
"html-keyboard-response","71","231557","0.0-11.0-2.20","55e7221441988f000b75cc7a","bdp_rwlrn","Wed Mar 15 2023 14:59:25 GMT-0400 (Eastern Daylight Time)","576794","Trustworthy,Untrustworthy","","null","","","","decisionFB","","<div class='trialDiv'><img src='Fruit/melon.png'><br><font class='baseline'><strong>Melon Millions</strong><p>Choose number of points to bet.</font><div class='respPicDiv'><img src='img/responseButtonOffersNo0L5.png' class='respPic'></div></div>","null","7","Melon Millions","Fruit/melon.png","Lost","0.65,0.2","13","0.65","101","21","",""
"html-keyboard-response","72","232568","0.0-11.0-3.20","55e7221441988f000b75cc7a","bdp_rwlrn","Wed Mar 15 2023 14:59:25 GMT-0400 (Eastern Daylight Time)","576794","Trustworthy,Untrustworthy","","null","","","","feedback","","<div class='respPicDiv'><img src='img/responseButtonOffersNo0_wht.png' class='respPic'></div><div class='trialDiv'><img src='Fruit/melon.png'><br><font class='baseline'><strong>Melon Millions</strong><p><strong><font class='negOutcome'>You LOST</font><p>You bet: 5</strong></font> &nbsp; &nbsp; &nbsp; &nbsp; &nbsp; &nbsp;<font class='negOutcome'>You receive: <strong>0</strong></font></div>","null","7","Melon Millions","Fruit/melon.png","Lost","0.65,0.2","13","0.65","101","21","",""
"html-keyboard-response","73","233255","0.0-11.0-1.21","55e7221441988f000b75cc7a","bdp_rwlrn","Wed Mar 15 2023 14:59:25 GMT-0400 (Eastern Daylight Time)","576794","Trustworthy,Untrustworthy","","687","","","","decision","","<div class='trialDiv'><img src='Fruit/apple.png'><br><font class='baseline'><strong>Awesome Apples</strong><p>Choose number of points to bet.</font><div class='respPicDiv'><img src='img/responseButtonOffersNo0L.png' class='respPic'></div></div>","5","8","Awesome Apples","Fruit/apple.png","Won","0.35,0.8","13","0.35","106","22","",""
"html-keyboard-response","74","233508","0.0-11.0-2.21","55e7221441988f000b75cc7a","bdp_rwlrn","Wed Mar 15 2023 14:59:25 GMT-0400 (Eastern Daylight Time)","576794","Trustworthy,Untrustworthy","","null","","","","decisionFB","","<div class='trialDiv'><img src='Fruit/apple.png'><br><font class='baseline'><strong>Awesome Apples</strong><p>Choose number of points to bet.</font><div class='respPicDiv'><img src='img/responseButtonOffersNo0L5.png' class='respPic'></div></div>","null","8","Awesome Apples","Fruit/apple.png","Won","0.35,0.8","13","0.35","101","22","",""
"html-keyboard-response","75","234521","0.0-11.0-3.21","55e7221441988f000b75cc7a","bdp_rwlrn","Wed Mar 15 2023 14:59:25 GMT-0400 (Eastern Daylight Time)","576794","Trustworthy,Untrustworthy","","null","","","","feedback","","<div class='respPicDiv'><img src='img/responseButtonOffersNo0_wht.png' class='respPic'></div><div class='trialDiv'><img src='Fruit/apple.png'><br><font class='baseline'><strong>Awesome Apples</strong><p><strong><font class='posOutcome'>You WON</font><p>You bet: 5</strong></font> &nbsp; &nbsp; &nbsp; &nbsp; &nbsp; &nbsp;<font class='posOutcome'>you receive: <strong>10</strong></font></div>","null","8","Awesome Apples","Fruit/apple.png","Won","0.35,0.8","13","0.35","111","22","",""
"html-keyboard-response","76","236721","0.0-11.0-1.22","55e7221441988f000b75cc7a","bdp_rwlrn","Wed Mar 15 2023 14:59:25 GMT-0400 (Eastern Daylight Time)","576794","Trustworthy,Untrustworthy","","2200","","","","decision","","<div class='trialDiv'><img src='Fruit/mixed-berries2.png'><br><font class='baseline'><strong>Berry Bla$t</strong><p>Choose number of points to bet.</font><div class='respPicDiv'><img src='img/responseButtonOffersNo0L.png' class='respPic'></div></div>","5","8","Berry Bla$t","Fruit/mixed-berries2.png","Won","0.35,0.65","8","0.35","116","23","",""
"html-keyboard-response","77","236983","0.0-11.0-2.22","55e7221441988f000b75cc7a","bdp_rwlrn","Wed Mar 15 2023 14:59:25 GMT-0400 (Eastern Daylight Time)","576794","Trustworthy,Untrustworthy","","null","","","","decisionFB","","<div class='trialDiv'><img src='Fruit/mixed-berries2.png'><br><font class='baseline'><strong>Berry Bla$t</strong><p>Choose number of points to bet.</font><div class='respPicDiv'><img src='img/responseButtonOffersNo0L5.png' class='respPic'></div></div>","null","8","Berry Bla$t","Fruit/mixed-berries2.png","Won","0.35,0.65","8","0.35","111","23","",""
"html-keyboard-response","78","237991","0.0-11.0-3.22","55e7221441988f000b75cc7a","bdp_rwlrn","Wed Mar 15 2023 14:59:25 GMT-0400 (Eastern Daylight Time)","576794","Trustworthy,Untrustworthy","","null","","","","feedback","","<div class='respPicDiv'><img src='img/responseButtonOffersNo0_wht.png' class='respPic'></div><div class='trialDiv'><img src='Fruit/mixed-berries2.png'><br><font class='baseline'><strong>Berry Bla$t</strong><p><strong><font class='posOutcome'>You WON</font><p>You bet: 5</strong></font> &nbsp; &nbsp; &nbsp; &nbsp; &nbsp; &nbsp;<font class='posOutcome'>you receive: <strong>10</strong></font></div>","null","8","Berry Bla$t","Fruit/mixed-berries2.png","Won","0.35,0.65","8","0.35","121","23","",""
"html-keyboard-response","79","238635","0.0-11.0-1.23","55e7221441988f000b75cc7a","bdp_rwlrn","Wed Mar 15 2023 14:59:25 GMT-0400 (Eastern Daylight Time)","576794","Trustworthy,Untrustworthy","","644","","","","decision","","<div class='trialDiv'><img src='Fruit/melon.png'><br><font class='baseline'><strong>Melon Millions</strong><p>Choose number of points to bet.</font><div class='respPicDiv'><img src='img/responseButtonOffersNo0L.png' class='respPic'></div></div>","5","8","Melon Millions","Fruit/melon.png","Lost","0.65,0.2","13","0.65","126","24","",""
"html-keyboard-response","80","238893","0.0-11.0-2.23","55e7221441988f000b75cc7a","bdp_rwlrn","Wed Mar 15 2023 14:59:25 GMT-0400 (Eastern Daylight Time)","576794","Trustworthy,Untrustworthy","","null","","","","decisionFB","","<div class='trialDiv'><img src='Fruit/melon.png'><br><font class='baseline'><strong>Melon Millions</strong><p>Choose number of points to bet.</font><div class='respPicDiv'><img src='img/responseButtonOffersNo0L5.png' class='respPic'></div></div>","null","8","Melon Millions","Fruit/melon.png","Lost","0.65,0.2","13","0.65","121","24","",""
"html-keyboard-response","81","239907","0.0-11.0-3.23","55e7221441988f000b75cc7a","bdp_rwlrn","Wed Mar 15 2023 14:59:25 GMT-0400 (Eastern Daylight Time)","576794","Trustworthy,Untrustworthy","","null","","","","feedback","","<div class='respPicDiv'><img src='img/responseButtonOffersNo0_wht.png' class='respPic'></div><div class='trialDiv'><img src='Fruit/melon.png'><br><font class='baseline'><strong>Melon Millions</strong><p><strong><font class='negOutcome'>You LOST</font><p>You bet: 5</strong></font> &nbsp; &nbsp; &nbsp; &nbsp; &nbsp; &nbsp;<font class='negOutcome'>You receive: <strong>0</strong></font></div>","null","8","Melon Millions","Fruit/melon.png","Lost","0.65,0.2","13","0.65","121","24","",""
"html-keyboard-response","82","240273","0.0-11.0-1.24","55e7221441988f000b75cc7a","bdp_rwlrn","Wed Mar 15 2023 14:59:25 GMT-0400 (Eastern Daylight Time)","576794","Trustworthy,Untrustworthy","","366","","","","decision","","<div class='trialDiv'><img src='Fruit/apple.png'><br><font class='baseline'><strong>Awesome Apples</strong><p>Choose number of points to bet.</font><div class='respPicDiv'><img src='img/responseButtonOffersNo0L.png' class='respPic'></div></div>","5","9","Awesome Apples","Fruit/apple.png","Won","0.35,0.8","13","0.35","126","25","",""
"html-keyboard-response","83","240524","0.0-11.0-2.24","55e7221441988f000b75cc7a","bdp_rwlrn","Wed Mar 15 2023 14:59:25 GMT-0400 (Eastern Daylight Time)","576794","Trustworthy,Untrustworthy","","null","","","","decisionFB","","<div class='trialDiv'><img src='Fruit/apple.png'><br><font class='baseline'><strong>Awesome Apples</strong><p>Choose number of points to bet.</font><div class='respPicDiv'><img src='img/responseButtonOffersNo0L5.png' class='respPic'></div></div>","null","9","Awesome Apples","Fruit/apple.png","Won","0.35,0.8","13","0.35","121","25","",""
"html-keyboard-response","84","241533","0.0-11.0-3.24","55e7221441988f000b75cc7a","bdp_rwlrn","Wed Mar 15 2023 14:59:25 GMT-0400 (Eastern Daylight Time)","576794","Trustworthy,Untrustworthy","","null","","","","feedback","","<div class='respPicDiv'><img src='img/responseButtonOffersNo0_wht.png' class='respPic'></div><div class='trialDiv'><img src='Fruit/apple.png'><br><font class='baseline'><strong>Awesome Apples</strong><p><strong><font class='posOutcome'>You WON</font><p>You bet: 5</strong></font> &nbsp; &nbsp; &nbsp; &nbsp; &nbsp; &nbsp;<font class='posOutcome'>you receive: <strong>10</strong></font></div>","null","9","Awesome Apples","Fruit/apple.png","Won","0.35,0.8","13","0.35","131","25","",""
"html-keyboard-response","85","244527","0.0-11.0-1.25","55e7221441988f000b75cc7a","bdp_rwlrn","Wed Mar 15 2023 14:59:25 GMT-0400 (Eastern Daylight Time)","576794","Trustworthy,Untrustworthy","","2994","","","","decision","","<div class='trialDiv'><img src='Fruit/melon.png'><br><font class='baseline'><strong>Melon Millions</strong><p>Choose number of points to bet.</font><div class='respPicDiv'><img src='img/responseButtonOffersNo0L.png' class='respPic'></div></div>","5","9","Melon Millions","Fruit/melon.png","Won","0.65,0.2","13","0.65","136","26","",""
"html-keyboard-response","86","244785","0.0-11.0-2.25","55e7221441988f000b75cc7a","bdp_rwlrn","Wed Mar 15 2023 14:59:25 GMT-0400 (Eastern Daylight Time)","576794","Trustworthy,Untrustworthy","","null","","","","decisionFB","","<div class='trialDiv'><img src='Fruit/melon.png'><br><font class='baseline'><strong>Melon Millions</strong><p>Choose number of points to bet.</font><div class='respPicDiv'><img src='img/responseButtonOffersNo0L5.png' class='respPic'></div></div>","null","9","Melon Millions","Fruit/melon.png","Won","0.65,0.2","13","0.65","131","26","",""
"html-keyboard-response","87","245801","0.0-11.0-3.25","55e7221441988f000b75cc7a","bdp_rwlrn","Wed Mar 15 2023 14:59:25 GMT-0400 (Eastern Daylight Time)","576794","Trustworthy,Untrustworthy","","null","","","","feedback","","<div class='respPicDiv'><img src='img/responseButtonOffersNo0_wht.png' class='respPic'></div><div class='trialDiv'><img src='Fruit/melon.png'><br><font class='baseline'><strong>Melon Millions</strong><p><strong><font class='posOutcome'>You WON</font><p>You bet: 5</strong></font> &nbsp; &nbsp; &nbsp; &nbsp; &nbsp; &nbsp;<font class='posOutcome'>you receive: <strong>10</strong></font></div>","null","9","Melon Millions","Fruit/melon.png","Won","0.65,0.2","13","0.65","141","26","",""
"html-keyboard-response","88","247804","0.0-11.0-1.26","55e7221441988f000b75cc7a","bdp_rwlrn","Wed Mar 15 2023 14:59:25 GMT-0400 (Eastern Daylight Time)","576794","Trustworthy,Untrustworthy","","2003","","","","decision","","<div class='trialDiv'><img src='Fruit/mixed-berries2.png'><br><font class='baseline'><strong>Berry Bla$t</strong><p>Choose number of points to bet.</font><div class='respPicDiv'><img src='img/responseButtonOffersNo0L.png' class='respPic'></div></div>","5","9","Berry Bla$t","Fruit/mixed-berries2.png","Won","0.35,0.65","8","0.35","146","27","",""
"html-keyboard-response","89","248067","0.0-11.0-2.26","55e7221441988f000b75cc7a","bdp_rwlrn","Wed Mar 15 2023 14:59:25 GMT-0400 (Eastern Daylight Time)","576794","Trustworthy,Untrustworthy","","null","","","","decisionFB","","<div class='trialDiv'><img src='Fruit/mixed-berries2.png'><br><font class='baseline'><strong>Berry Bla$t</strong><p>Choose number of points to bet.</font><div class='respPicDiv'><img src='img/responseButtonOffersNo0L5.png' class='respPic'></div></div>","null","9","Berry Bla$t","Fruit/mixed-berries2.png","Won","0.35,0.65","8","0.35","141","27","",""
"html-keyboard-response","90","249068","0.0-11.0-3.26","55e7221441988f000b75cc7a","bdp_rwlrn","Wed Mar 15 2023 14:59:25 GMT-0400 (Eastern Daylight Time)","576794","Trustworthy,Untrustworthy","","null","","","","feedback","","<div class='respPicDiv'><img src='img/responseButtonOffersNo0_wht.png' class='respPic'></div><div class='trialDiv'><img src='Fruit/mixed-berries2.png'><br><font class='baseline'><strong>Berry Bla$t</strong><p><strong><font class='posOutcome'>You WON</font><p>You bet: 5</strong></font> &nbsp; &nbsp; &nbsp; &nbsp; &nbsp; &nbsp;<font class='posOutcome'>you receive: <strong>10</strong></font></div>","null","9","Berry Bla$t","Fruit/mixed-berries2.png","Won","0.35,0.65","8","0.35","151","27","",""
"html-keyboard-response","91","249717","0.0-11.0-1.27","55e7221441988f000b75cc7a","bdp_rwlrn","Wed Mar 15 2023 14:59:25 GMT-0400 (Eastern Daylight Time)","576794","Trustworthy,Untrustworthy","","649","","","","decision","","<div class='trialDiv'><img src='Fruit/apple.png'><br><font class='baseline'><strong>Awesome Apples</strong><p>Choose number of points to bet.</font><div class='respPicDiv'><img src='img/responseButtonOffersNo0L.png' class='respPic'></div></div>","2","10","Awesome Apples","Fruit/apple.png","Won","0.35,0.8","13","0.35","156","28","",""
"html-keyboard-response","92","249979","0.0-11.0-2.27","55e7221441988f000b75cc7a","bdp_rwlrn","Wed Mar 15 2023 14:59:25 GMT-0400 (Eastern Daylight Time)","576794","Trustworthy,Untrustworthy","","null","","","","decisionFB","","<div class='trialDiv'><img src='Fruit/apple.png'><br><font class='baseline'><strong>Awesome Apples</strong><p>Choose number of points to bet.</font><div class='respPicDiv'><img src='img/responseButtonOffersNo0L2.png' class='respPic'></div></div>","null","10","Awesome Apples","Fruit/apple.png","Won","0.35,0.8","13","0.35","154","28","",""
"html-keyboard-response","93","250993","0.0-11.0-3.27","55e7221441988f000b75cc7a","bdp_rwlrn","Wed Mar 15 2023 14:59:25 GMT-0400 (Eastern Daylight Time)","576794","Trustworthy,Untrustworthy","","null","","","","feedback","","<div class='respPicDiv'><img src='img/responseButtonOffersNo0_wht.png' class='respPic'></div><div class='trialDiv'><img src='Fruit/apple.png'><br><font class='baseline'><strong>Awesome Apples</strong><p><strong><font class='posOutcome'>You WON</font><p>You bet: 2</strong></font> &nbsp; &nbsp; &nbsp; &nbsp; &nbsp; &nbsp;<font class='posOutcome'>you receive: <strong>4</strong></font></div>","null","10","Awesome Apples","Fruit/apple.png","Won","0.35,0.8","13","0.35","158","28","",""
"html-keyboard-response","94","252670","0.0-11.0-1.28","55e7221441988f000b75cc7a","bdp_rwlrn","Wed Mar 15 2023 14:59:25 GMT-0400 (Eastern Daylight Time)","576794","Trustworthy,Untrustworthy","","1677","","","","decision","","<div class='trialDiv'><img src='Fruit/melon.png'><br><font class='baseline'><strong>Melon Millions</strong><p>Choose number of points to bet.</font><div class='respPicDiv'><img src='img/responseButtonOffersNo0L.png' class='respPic'></div></div>","2","10","Melon Millions","Fruit/melon.png","Won","0.65,0.2","13","0.65","163","29","",""
"html-keyboard-response","95","252921","0.0-11.0-2.28","55e7221441988f000b75cc7a","bdp_rwlrn","Wed Mar 15 2023 14:59:25 GMT-0400 (Eastern Daylight Time)","576794","Trustworthy,Untrustworthy","","null","","","","decisionFB","","<div class='trialDiv'><img src='Fruit/melon.png'><br><font class='baseline'><strong>Melon Millions</strong><p>Choose number of points to bet.</font><div class='respPicDiv'><img src='img/responseButtonOffersNo0L2.png' class='respPic'></div></div>","null","10","Melon Millions","Fruit/melon.png","Won","0.65,0.2","13","0.65","161","29","",""
"html-keyboard-response","96","253935","0.0-11.0-3.28","55e7221441988f000b75cc7a","bdp_rwlrn","Wed Mar 15 2023 14:59:25 GMT-0400 (Eastern Daylight Time)","576794","Trustworthy,Untrustworthy","","null","","","","feedback","","<div class='respPicDiv'><img src='img/responseButtonOffersNo0_wht.png' class='respPic'></div><div class='trialDiv'><img src='Fruit/melon.png'><br><font class='baseline'><strong>Melon Millions</strong><p><strong><font class='posOutcome'>You WON</font><p>You bet: 2</strong></font> &nbsp; &nbsp; &nbsp; &nbsp; &nbsp; &nbsp;<font class='posOutcome'>you receive: <strong>4</strong></font></div>","null","10","Melon Millions","Fruit/melon.png","Won","0.65,0.2","13","0.65","165","29","",""
"html-keyboard-response","97","256660","0.0-11.0-1.29","55e7221441988f000b75cc7a","bdp_rwlrn","Wed Mar 15 2023 14:59:25 GMT-0400 (Eastern Daylight Time)","576794","Trustworthy,Untrustworthy","","2725","","","","decision","","<div class='trialDiv'><img src='Fruit/mixed-berries2.png'><br><font class='baseline'><strong>Berry Bla$t</strong><p>Choose number of points to bet.</font><div class='respPicDiv'><img src='img/responseButtonOffersNo0L.png' class='respPic'></div></div>","2","10","Berry Bla$t","Fruit/mixed-berries2.png","Won","0.35,0.65","8","0.35","170","30","",""
"html-keyboard-response","98","256912","0.0-11.0-2.29","55e7221441988f000b75cc7a","bdp_rwlrn","Wed Mar 15 2023 14:59:25 GMT-0400 (Eastern Daylight Time)","576794","Trustworthy,Untrustworthy","","null","","","","decisionFB","","<div class='trialDiv'><img src='Fruit/mixed-berries2.png'><br><font class='baseline'><strong>Berry Bla$t</strong><p>Choose number of points to bet.</font><div class='respPicDiv'><img src='img/responseButtonOffersNo0L2.png' class='respPic'></div></div>","null","10","Berry Bla$t","Fruit/mixed-berries2.png","Won","0.35,0.65","8","0.35","168","30","",""
"html-keyboard-response","99","257913","0.0-11.0-3.29","55e7221441988f000b75cc7a","bdp_rwlrn","Wed Mar 15 2023 14:59:25 GMT-0400 (Eastern Daylight Time)","576794","Trustworthy,Untrustworthy","","null","","","","feedback","","<div class='respPicDiv'><img src='img/responseButtonOffersNo0_wht.png' class='respPic'></div><div class='trialDiv'><img src='Fruit/mixed-berries2.png'><br><font class='baseline'><strong>Berry Bla$t</strong><p><strong><font class='posOutcome'>You WON</font><p>You bet: 2</strong></font> &nbsp; &nbsp; &nbsp; &nbsp; &nbsp; &nbsp;<font class='posOutcome'>you receive: <strong>4</strong></font></div>","null","10","Berry Bla$t","Fruit/mixed-berries2.png","Won","0.35,0.65","8","0.35","172","30","",""
"html-keyboard-response","100","258818","0.0-11.0-1.30","55e7221441988f000b75cc7a","bdp_rwlrn","Wed Mar 15 2023 14:59:25 GMT-0400 (Eastern Daylight Time)","576794","Trustworthy,Untrustworthy","","904","","","","decision","","<div class='trialDiv'><img src='Fruit/apple.png'><br><font class='baseline'><strong>Awesome Apples</strong><p>Choose number of points to bet.</font><div class='respPicDiv'><img src='img/responseButtonOffersNo0L.png' class='respPic'></div></div>","2","11","Awesome Apples","Fruit/apple.png","Lost","0.35,0.8","13","0.35","177","31","",""
"html-keyboard-response","101","259070","0.0-11.0-2.30","55e7221441988f000b75cc7a","bdp_rwlrn","Wed Mar 15 2023 14:59:25 GMT-0400 (Eastern Daylight Time)","576794","Trustworthy,Untrustworthy","","null","","","","decisionFB","","<div class='trialDiv'><img src='Fruit/apple.png'><br><font class='baseline'><strong>Awesome Apples</strong><p>Choose number of points to bet.</font><div class='respPicDiv'><img src='img/responseButtonOffersNo0L2.png' class='respPic'></div></div>","null","11","Awesome Apples","Fruit/apple.png","Lost","0.35,0.8","13","0.35","175","31","",""
"html-keyboard-response","102","260075","0.0-11.0-3.30","55e7221441988f000b75cc7a","bdp_rwlrn","Wed Mar 15 2023 14:59:25 GMT-0400 (Eastern Daylight Time)","576794","Trustworthy,Untrustworthy","","null","","","","feedback","","<div class='respPicDiv'><img src='img/responseButtonOffersNo0_wht.png' class='respPic'></div><div class='trialDiv'><img src='Fruit/apple.png'><br><font class='baseline'><strong>Awesome Apples</strong><p><strong><font class='negOutcome'>You LOST</font><p>You bet: 2</strong></font> &nbsp; &nbsp; &nbsp; &nbsp; &nbsp; &nbsp;<font class='negOutcome'>You receive: <strong>0</strong></font></div>","null","11","Awesome Apples","Fruit/apple.png","Lost","0.35,0.8","13","0.35","175","31","",""
"html-keyboard-response","103","264167","0.0-11.0-1.31","55e7221441988f000b75cc7a","bdp_rwlrn","Wed Mar 15 2023 14:59:25 GMT-0400 (Eastern Daylight Time)","576794","Trustworthy,Untrustworthy","","4091","","","","decision","","<div class='trialDiv'><img src='Fruit/melon.png'><br><font class='baseline'><strong>Melon Millions</strong><p>Choose number of points to bet.</font><div class='respPicDiv'><img src='img/responseButtonOffersNo0L.png' class='respPic'></div></div>","3","11","Melon Millions","Fruit/melon.png","Won","0.65,0.2","13","0.65","180","32","",""
"html-keyboard-response","104","264422","0.0-11.0-2.31","55e7221441988f000b75cc7a","bdp_rwlrn","Wed Mar 15 2023 14:59:25 GMT-0400 (Eastern Daylight Time)","576794","Trustworthy,Untrustworthy","","null","","","","decisionFB","","<div class='trialDiv'><img src='Fruit/melon.png'><br><font class='baseline'><strong>Melon Millions</strong><p>Choose number of points to bet.</font><div class='respPicDiv'><img src='img/responseButtonOffersNo0L3.png' class='respPic'></div></div>","null","11","Melon Millions","Fruit/melon.png","Won","0.65,0.2","13","0.65","177","32","",""
"html-keyboard-response","105","265434","0.0-11.0-3.31","55e7221441988f000b75cc7a","bdp_rwlrn","Wed Mar 15 2023 14:59:25 GMT-0400 (Eastern Daylight Time)","576794","Trustworthy,Untrustworthy","","null","","","","feedback","","<div class='respPicDiv'><img src='img/responseButtonOffersNo0_wht.png' class='respPic'></div><div class='trialDiv'><img src='Fruit/melon.png'><br><font class='baseline'><strong>Melon Millions</strong><p><strong><font class='posOutcome'>You WON</font><p>You bet: 3</strong></font> &nbsp; &nbsp; &nbsp; &nbsp; &nbsp; &nbsp;<font class='posOutcome'>you receive: <strong>6</strong></font></div>","null","11","Melon Millions","Fruit/melon.png","Won","0.65,0.2","13","0.65","183","32","",""
"html-keyboard-response","106","268629","0.0-11.0-1.32","55e7221441988f000b75cc7a","bdp_rwlrn","Wed Mar 15 2023 14:59:25 GMT-0400 (Eastern Daylight Time)","576794","Trustworthy,Untrustworthy","","3195","","","","decision","","<div class='trialDiv'><img src='Fruit/mixed-berries2.png'><br><font class='baseline'><strong>Berry Bla$t</strong><p>Choose number of points to bet.</font><div class='respPicDiv'><img src='img/responseButtonOffersNo0L.png' class='respPic'></div></div>","2","11","Berry Bla$t","Fruit/mixed-berries2.png","Lost","0.35,0.65","8","0.35","188","33","",""
"html-keyboard-response","107","268888","0.0-11.0-2.32","55e7221441988f000b75cc7a","bdp_rwlrn","Wed Mar 15 2023 14:59:25 GMT-0400 (Eastern Daylight Time)","576794","Trustworthy,Untrustworthy","","null","","","","decisionFB","","<div class='trialDiv'><img src='Fruit/mixed-berries2.png'><br><font class='baseline'><strong>Berry Bla$t</strong><p>Choose number of points to bet.</font><div class='respPicDiv'><img src='img/responseButtonOffersNo0L2.png' class='respPic'></div></div>","null","11","Berry Bla$t","Fruit/mixed-berries2.png","Lost","0.35,0.65","8","0.35","186","33","",""
"html-keyboard-response","108","269889","0.0-11.0-3.32","55e7221441988f000b75cc7a","bdp_rwlrn","Wed Mar 15 2023 14:59:25 GMT-0400 (Eastern Daylight Time)","576794","Trustworthy,Untrustworthy","","null","","","","feedback","","<div class='respPicDiv'><img src='img/responseButtonOffersNo0_wht.png' class='respPic'></div><div class='trialDiv'><img src='Fruit/mixed-berries2.png'><br><font class='baseline'><strong>Berry Bla$t</strong><p><strong><font class='negOutcome'>You LOST</font><p>You bet: 2</strong></font> &nbsp; &nbsp; &nbsp; &nbsp; &nbsp; &nbsp;<font class='negOutcome'>You receive: <strong>0</strong></font></div>","null","11","Berry Bla$t","Fruit/mixed-berries2.png","Lost","0.35,0.65","8","0.35","186","33","",""
"html-keyboard-response","109","272400","0.0-11.0-1.33","55e7221441988f000b75cc7a","bdp_rwlrn","Wed Mar 15 2023 14:59:25 GMT-0400 (Eastern Daylight Time)","576794","Trustworthy,Untrustworthy","","2510","","","","decision","","<div class='trialDiv'><img src='Fruit/melon.png'><br><font class='baseline'><strong>Melon Millions</strong><p>Choose number of points to bet.</font><div class='respPicDiv'><img src='img/responseButtonOffersNo0L.png' class='respPic'></div></div>","3","12","Melon Millions","Fruit/melon.png","Won","0.65,0.2","13","0.65","191","34","",""
"html-keyboard-response","110","272662","0.0-11.0-2.33","55e7221441988f000b75cc7a","bdp_rwlrn","Wed Mar 15 2023 14:59:25 GMT-0400 (Eastern Daylight Time)","576794","Trustworthy,Untrustworthy","","null","","","","decisionFB","","<div class='trialDiv'><img src='Fruit/melon.png'><br><font class='baseline'><strong>Melon Millions</strong><p>Choose number of points to bet.</font><div class='respPicDiv'><img src='img/responseButtonOffersNo0L3.png' class='respPic'></div></div>","null","12","Melon Millions","Fruit/melon.png","Won","0.65,0.2","13","0.65","188","34","",""
"html-keyboard-response","111","273674","0.0-11.0-3.33","55e7221441988f000b75cc7a","bdp_rwlrn","Wed Mar 15 2023 14:59:25 GMT-0400 (Eastern Daylight Time)","576794","Trustworthy,Untrustworthy","","null","","","","feedback","","<div class='respPicDiv'><img src='img/responseButtonOffersNo0_wht.png' class='respPic'></div><div class='trialDiv'><img src='Fruit/melon.png'><br><font class='baseline'><strong>Melon Millions</strong><p><strong><font class='posOutcome'>You WON</font><p>You bet: 3</strong></font> &nbsp; &nbsp; &nbsp; &nbsp; &nbsp; &nbsp;<font class='posOutcome'>you receive: <strong>6</strong></font></div>","null","12","Melon Millions","Fruit/melon.png","Won","0.65,0.2","13","0.65","194","34","",""
"html-keyboard-response","112","274595","0.0-11.0-1.34","55e7221441988f000b75cc7a","bdp_rwlrn","Wed Mar 15 2023 14:59:25 GMT-0400 (Eastern Daylight Time)","576794","Trustworthy,Untrustworthy","","921","","","","decision","","<div class='trialDiv'><img src='Fruit/apple.png'><br><font class='baseline'><strong>Awesome Apples</strong><p>Choose number of points to bet.</font><div class='respPicDiv'><img src='img/responseButtonOffersNo0L.png' class='respPic'></div></div>","2","12","Awesome Apples","Fruit/apple.png","Lost","0.35,0.8","13","0.35","199","35","",""
"html-keyboard-response","113","274849","0.0-11.0-2.34","55e7221441988f000b75cc7a","bdp_rwlrn","Wed Mar 15 2023 14:59:25 GMT-0400 (Eastern Daylight Time)","576794","Trustworthy,Untrustworthy","","null","","","","decisionFB","","<div class='trialDiv'><img src='Fruit/apple.png'><br><font class='baseline'><strong>Awesome Apples</strong><p>Choose number of points to bet.</font><div class='respPicDiv'><img src='img/responseButtonOffersNo0L2.png' class='respPic'></div></div>","null","12","Awesome Apples","Fruit/apple.png","Lost","0.35,0.8","13","0.35","197","35","",""
"html-keyboard-response","114","275851","0.0-11.0-3.34","55e7221441988f000b75cc7a","bdp_rwlrn","Wed Mar 15 2023 14:59:25 GMT-0400 (Eastern Daylight Time)","576794","Trustworthy,Untrustworthy","","null","","","","feedback","","<div class='respPicDiv'><img src='img/responseButtonOffersNo0_wht.png' class='respPic'></div><div class='trialDiv'><img src='Fruit/apple.png'><br><font class='baseline'><strong>Awesome Apples</strong><p><strong><font class='negOutcome'>You LOST</font><p>You bet: 2</strong></font> &nbsp; &nbsp; &nbsp; &nbsp; &nbsp; &nbsp;<font class='negOutcome'>You receive: <strong>0</strong></font></div>","null","12","Awesome Apples","Fruit/apple.png","Lost","0.35,0.8","13","0.35","197","35","",""
"html-keyboard-response","115","276557","0.0-11.0-1.35","55e7221441988f000b75cc7a","bdp_rwlrn","Wed Mar 15 2023 14:59:25 GMT-0400 (Eastern Daylight Time)","576794","Trustworthy,Untrustworthy","","705","","","","decision","","<div class='trialDiv'><img src='Fruit/mixed-berries2.png'><br><font class='baseline'><strong>Berry Bla$t</strong><p>Choose number of points to bet.</font><div class='respPicDiv'><img src='img/responseButtonOffersNo0L.png' class='respPic'></div></div>","2","12","Berry Bla$t","Fruit/mixed-berries2.png","Lost","0.35,0.65","8","0.35","202","36","",""
"html-keyboard-response","116","276818","0.0-11.0-2.35","55e7221441988f000b75cc7a","bdp_rwlrn","Wed Mar 15 2023 14:59:25 GMT-0400 (Eastern Daylight Time)","576794","Trustworthy,Untrustworthy","","null","","","","decisionFB","","<div class='trialDiv'><img src='Fruit/mixed-berries2.png'><br><font class='baseline'><strong>Berry Bla$t</strong><p>Choose number of points to bet.</font><div class='respPicDiv'><img src='img/responseButtonOffersNo0L2.png' class='respPic'></div></div>","null","12","Berry Bla$t","Fruit/mixed-berries2.png","Lost","0.35,0.65","8","0.35","200","36","",""
"html-keyboard-response","117","277827","0.0-11.0-3.35","55e7221441988f000b75cc7a","bdp_rwlrn","Wed Mar 15 2023 14:59:25 GMT-0400 (Eastern Daylight Time)","576794","Trustworthy,Untrustworthy","","null","","","","feedback","","<div class='respPicDiv'><img src='img/responseButtonOffersNo0_wht.png' class='respPic'></div><div class='trialDiv'><img src='Fruit/mixed-berries2.png'><br><font class='baseline'><strong>Berry Bla$t</strong><p><strong><font class='negOutcome'>You LOST</font><p>You bet: 2</strong></font> &nbsp; &nbsp; &nbsp; &nbsp; &nbsp; &nbsp;<font class='negOutcome'>You receive: <strong>0</strong></font></div>","null","12","Berry Bla$t","Fruit/mixed-berries2.png","Lost","0.35,0.65","8","0.35","200","36","",""
"html-keyboard-response","118","279180","0.0-11.0-1.36","55e7221441988f000b75cc7a","bdp_rwlrn","Wed Mar 15 2023 14:59:25 GMT-0400 (Eastern Daylight Time)","576794","Trustworthy,Untrustworthy","","1353","","","","decision","","<div class='trialDiv'><img src='Fruit/apple.png'><br><font class='baseline'><strong>Awesome Apples</strong><p>Choose number of points to bet.</font><div class='respPicDiv'><img src='img/responseButtonOffersNo0L.png' class='respPic'></div></div>","3","13","Awesome Apples","Fruit/apple.png","Won","0.35,0.8","13","0.35","205","37","",""
"html-keyboard-response","119","279442","0.0-11.0-2.36","55e7221441988f000b75cc7a","bdp_rwlrn","Wed Mar 15 2023 14:59:25 GMT-0400 (Eastern Daylight Time)","576794","Trustworthy,Untrustworthy","","null","","","","decisionFB","","<div class='trialDiv'><img src='Fruit/apple.png'><br><font class='baseline'><strong>Awesome Apples</strong><p>Choose number of points to bet.</font><div class='respPicDiv'><img src='img/responseButtonOffersNo0L3.png' class='respPic'></div></div>","null","13","Awesome Apples","Fruit/apple.png","Won","0.35,0.8","13","0.35","202","37","",""
"html-keyboard-response","120","280446","0.0-11.0-3.36","55e7221441988f000b75cc7a","bdp_rwlrn","Wed Mar 15 2023 14:59:25 GMT-0400 (Eastern Daylight Time)","576794","Trustworthy,Untrustworthy","","null","","","","feedback","","<div class='respPicDiv'><img src='img/responseButtonOffersNo0_wht.png' class='respPic'></div><div class='trialDiv'><img src='Fruit/apple.png'><br><font class='baseline'><strong>Awesome Apples</strong><p><strong><font class='posOutcome'>You WON</font><p>You bet: 3</strong></font> &nbsp; &nbsp; &nbsp; &nbsp; &nbsp; &nbsp;<font class='posOutcome'>you receive: <strong>6</strong></font></div>","null","13","Awesome Apples","Fruit/apple.png","Won","0.35,0.8","13","0.35","208","37","",""
"html-keyboard-response","121","281154","0.0-11.0-1.37","55e7221441988f000b75cc7a","bdp_rwlrn","Wed Mar 15 2023 14:59:25 GMT-0400 (Eastern Daylight Time)","576794","Trustworthy,Untrustworthy","","708","","","","decision","","<div class='trialDiv'><img src='Fruit/melon.png'><br><font class='baseline'><strong>Melon Millions</strong><p>Choose number of points to bet.</font><div class='respPicDiv'><img src='img/responseButtonOffersNo0L.png' class='respPic'></div></div>","5","13","Melon Millions","Fruit/melon.png","Lost","0.65,0.2","13","0.65","213","38","",""
"html-keyboard-response","122","281409","0.0-11.0-2.37","55e7221441988f000b75cc7a","bdp_rwlrn","Wed Mar 15 2023 14:59:25 GMT-0400 (Eastern Daylight Time)","576794","Trustworthy,Untrustworthy","","null","","","","decisionFB","","<div class='trialDiv'><img src='Fruit/melon.png'><br><font class='baseline'><strong>Melon Millions</strong><p>Choose number of points to bet.</font><div class='respPicDiv'><img src='img/responseButtonOffersNo0L5.png' class='respPic'></div></div>","null","13","Melon Millions","Fruit/melon.png","Lost","0.65,0.2","13","0.65","208","38","",""
"html-keyboard-response","123","282423","0.0-11.0-3.37","55e7221441988f000b75cc7a","bdp_rwlrn","Wed Mar 15 2023 14:59:25 GMT-0400 (Eastern Daylight Time)","576794","Trustworthy,Untrustworthy","","null","","","","feedback","","<div class='respPicDiv'><img src='img/responseButtonOffersNo0_wht.png' class='respPic'></div><div class='trialDiv'><img src='Fruit/melon.png'><br><font class='baseline'><strong>Melon Millions</strong><p><strong><font class='negOutcome'>You LOST</font><p>You bet: 5</strong></font> &nbsp; &nbsp; &nbsp; &nbsp; &nbsp; &nbsp;<font class='negOutcome'>You receive: <strong>0</strong></font></div>","null","13","Melon Millions","Fruit/melon.png","Lost","0.65,0.2","13","0.65","208","38","",""
"html-keyboard-response","124","283043","0.0-11.0-1.38","55e7221441988f000b75cc7a","bdp_rwlrn","Wed Mar 15 2023 14:59:25 GMT-0400 (Eastern Daylight Time)","576794","Trustworthy,Untrustworthy","","620","","","","decision","","<div class='trialDiv'><img src='Fruit/mixed-berries2.png'><br><font class='baseline'><strong>Berry Bla$t</strong><p>Choose number of points to bet.</font><div class='respPicDiv'><img src='img/responseButtonOffersNo0L.png' class='respPic'></div></div>","2","13","Berry Bla$t","Fruit/mixed-berries2.png","Won","0.35,0.65","8","0.35","213","39","",""
"html-keyboard-response","125","283298","0.0-11.0-2.38","55e7221441988f000b75cc7a","bdp_rwlrn","Wed Mar 15 2023 14:59:25 GMT-0400 (Eastern Daylight Time)","576794","Trustworthy,Untrustworthy","","null","","","","decisionFB","","<div class='trialDiv'><img src='Fruit/mixed-berries2.png'><br><font class='baseline'><strong>Berry Bla$t</strong><p>Choose number of points to bet.</font><div class='respPicDiv'><img src='img/responseButtonOffersNo0L2.png' class='respPic'></div></div>","null","13","Berry Bla$t","Fruit/mixed-berries2.png","Won","0.35,0.65","8","0.35","211","39","",""
"html-keyboard-response","126","284312","0.0-11.0-3.38","55e7221441988f000b75cc7a","bdp_rwlrn","Wed Mar 15 2023 14:59:25 GMT-0400 (Eastern Daylight Time)","576794","Trustworthy,Untrustworthy","","null","","","","feedback","","<div class='respPicDiv'><img src='img/responseButtonOffersNo0_wht.png' class='respPic'></div><div class='trialDiv'><img src='Fruit/mixed-berries2.png'><br><font class='baseline'><strong>Berry Bla$t</strong><p><strong><font class='posOutcome'>You WON</font><p>You bet: 2</strong></font> &nbsp; &nbsp; &nbsp; &nbsp; &nbsp; &nbsp;<font class='posOutcome'>you receive: <strong>4</strong></font></div>","null","13","Berry Bla$t","Fruit/mixed-berries2.png","Won","0.35,0.65","8","0.35","215","39","",""
"html-keyboard-response","127","284755","0.0-11.0-1.39","55e7221441988f000b75cc7a","bdp_rwlrn","Wed Mar 15 2023 14:59:25 GMT-0400 (Eastern Daylight Time)","576794","Trustworthy,Untrustworthy","","442","","","","decision","","<div class='trialDiv'><img src='Fruit/melon.png'><br><font class='baseline'><strong>Melon Millions</strong><p>Choose number of points to bet.</font><div class='respPicDiv'><img src='img/responseButtonOffersNo0L.png' class='respPic'></div></div>","5","14","Melon Millions","Fruit/melon.png","Lost","0.65,0.2","13","0.65","220","40","",""
"html-keyboard-response","128","285010","0.0-11.0-2.39","55e7221441988f000b75cc7a","bdp_rwlrn","Wed Mar 15 2023 14:59:25 GMT-0400 (Eastern Daylight Time)","576794","Trustworthy,Untrustworthy","","null","","","","decisionFB","","<div class='trialDiv'><img src='Fruit/melon.png'><br><font class='baseline'><strong>Melon Millions</strong><p>Choose number of points to bet.</font><div class='respPicDiv'><img src='img/responseButtonOffersNo0L5.png' class='respPic'></div></div>","null","14","Melon Millions","Fruit/melon.png","Lost","0.65,0.2","13","0.65","215","40","",""
"html-keyboard-response","129","286014","0.0-11.0-3.39","55e7221441988f000b75cc7a","bdp_rwlrn","Wed Mar 15 2023 14:59:25 GMT-0400 (Eastern Daylight Time)","576794","Trustworthy,Untrustworthy","","null","","","","feedback","","<div class='respPicDiv'><img src='img/responseButtonOffersNo0_wht.png' class='respPic'></div><div class='trialDiv'><img src='Fruit/melon.png'><br><font class='baseline'><strong>Melon Millions</strong><p><strong><font class='negOutcome'>You LOST</font><p>You bet: 5</strong></font> &nbsp; &nbsp; &nbsp; &nbsp; &nbsp; &nbsp;<font class='negOutcome'>You receive: <strong>0</strong></font></div>","null","14","Melon Millions","Fruit/melon.png","Lost","0.65,0.2","13","0.65","215","40","",""
"html-keyboard-response","130","286649","0.0-11.0-1.40","55e7221441988f000b75cc7a","bdp_rwlrn","Wed Mar 15 2023 14:59:25 GMT-0400 (Eastern Daylight Time)","576794","Trustworthy,Untrustworthy","","635","","","","decision","","<div class='trialDiv'><img src='Fruit/apple.png'><br><font class='baseline'><strong>Awesome Apples</strong><p>Choose number of points to bet.</font><div class='respPicDiv'><img src='img/responseButtonOffersNo0L.png' class='respPic'></div></div>","5","14","Awesome Apples","Fruit/apple.png","Won","0.35,0.8","13","0.35","220","41","",""
"html-keyboard-response","131","286910","0.0-11.0-2.40","55e7221441988f000b75cc7a","bdp_rwlrn","Wed Mar 15 2023 14:59:25 GMT-0400 (Eastern Daylight Time)","576794","Trustworthy,Untrustworthy","","null","","","","decisionFB","","<div class='trialDiv'><img src='Fruit/apple.png'><br><font class='baseline'><strong>Awesome Apples</strong><p>Choose number of points to bet.</font><div class='respPicDiv'><img src='img/responseButtonOffersNo0L5.png' class='respPic'></div></div>","null","14","Awesome Apples","Fruit/apple.png","Won","0.35,0.8","13","0.35","215","41","",""
"html-keyboard-response","132","287920","0.0-11.0-3.40","55e7221441988f000b75cc7a","bdp_rwlrn","Wed Mar 15 2023 14:59:25 GMT-0400 (Eastern Daylight Time)","576794","Trustworthy,Untrustworthy","","null","","","","feedback","","<div class='respPicDiv'><img src='img/responseButtonOffersNo0_wht.png' class='respPic'></div><div class='trialDiv'><img src='Fruit/apple.png'><br><font class='baseline'><strong>Awesome Apples</strong><p><strong><font class='posOutcome'>You WON</font><p>You bet: 5</strong></font> &nbsp; &nbsp; &nbsp; &nbsp; &nbsp; &nbsp;<font class='posOutcome'>you receive: <strong>10</strong></font></div>","null","14","Awesome Apples","Fruit/apple.png","Won","0.35,0.8","13","0.35","225","41","",""
"html-keyboard-response","133","289039","0.0-11.0-1.41","55e7221441988f000b75cc7a","bdp_rwlrn","Wed Mar 15 2023 14:59:25 GMT-0400 (Eastern Daylight Time)","576794","Trustworthy,Untrustworthy","","1118","","","","decision","","<div class='trialDiv'><img src='Fruit/mixed-berries2.png'><br><font class='baseline'><strong>Berry Bla$t</strong><p>Choose number of points to bet.</font><div class='respPicDiv'><img src='img/responseButtonOffersNo0L.png' class='respPic'></div></div>","5","14","Berry Bla$t","Fruit/mixed-berries2.png","Won","0.35,0.65","8","0.35","230","42","",""
"html-keyboard-response","134","289292","0.0-11.0-2.41","55e7221441988f000b75cc7a","bdp_rwlrn","Wed Mar 15 2023 14:59:25 GMT-0400 (Eastern Daylight Time)","576794","Trustworthy,Untrustworthy","","null","","","","decisionFB","","<div class='trialDiv'><img src='Fruit/mixed-berries2.png'><br><font class='baseline'><strong>Berry Bla$t</strong><p>Choose number of points to bet.</font><div class='respPicDiv'><img src='img/responseButtonOffersNo0L5.png' class='respPic'></div></div>","null","14","Berry Bla$t","Fruit/mixed-berries2.png","Won","0.35,0.65","8","0.35","225","42","",""
"html-keyboard-response","135","290298","0.0-11.0-3.41","55e7221441988f000b75cc7a","bdp_rwlrn","Wed Mar 15 2023 14:59:25 GMT-0400 (Eastern Daylight Time)","576794","Trustworthy,Untrustworthy","","null","","","","feedback","","<div class='respPicDiv'><img src='img/responseButtonOffersNo0_wht.png' class='respPic'></div><div class='trialDiv'><img src='Fruit/mixed-berries2.png'><br><font class='baseline'><strong>Berry Bla$t</strong><p><strong><font class='posOutcome'>You WON</font><p>You bet: 5</strong></font> &nbsp; &nbsp; &nbsp; &nbsp; &nbsp; &nbsp;<font class='posOutcome'>you receive: <strong>10</strong></font></div>","null","14","Berry Bla$t","Fruit/mixed-berries2.png","Won","0.35,0.65","8","0.35","235","42","",""
"html-keyboard-response","136","291240","0.0-11.0-1.42","55e7221441988f000b75cc7a","bdp_rwlrn","Wed Mar 15 2023 14:59:25 GMT-0400 (Eastern Daylight Time)","576794","Trustworthy,Untrustworthy","","942","","","","decision","","<div class='trialDiv'><img src='Fruit/melon.png'><br><font class='baseline'><strong>Melon Millions</strong><p>Choose number of points to bet.</font><div class='respPicDiv'><img src='img/responseButtonOffersNo0L.png' class='respPic'></div></div>","5","15","Melon Millions","Fruit/melon.png","Lost","0.65,0.2","13","0.65","240","43","",""
"html-keyboard-response","137","291499","0.0-11.0-2.42","55e7221441988f000b75cc7a","bdp_rwlrn","Wed Mar 15 2023 14:59:25 GMT-0400 (Eastern Daylight Time)","576794","Trustworthy,Untrustworthy","","null","","","","decisionFB","","<div class='trialDiv'><img src='Fruit/melon.png'><br><font class='baseline'><strong>Melon Millions</strong><p>Choose number of points to bet.</font><div class='respPicDiv'><img src='img/responseButtonOffersNo0L5.png' class='respPic'></div></div>","null","15","Melon Millions","Fruit/melon.png","Lost","0.65,0.2","13","0.65","235","43","",""
"html-keyboard-response","138","292506","0.0-11.0-3.42","55e7221441988f000b75cc7a","bdp_rwlrn","Wed Mar 15 2023 14:59:25 GMT-0400 (Eastern Daylight Time)","576794","Trustworthy,Untrustworthy","","null","","","","feedback","","<div class='respPicDiv'><img src='img/responseButtonOffersNo0_wht.png' class='respPic'></div><div class='trialDiv'><img src='Fruit/melon.png'><br><font class='baseline'><strong>Melon Millions</strong><p><strong><font class='negOutcome'>You LOST</font><p>You bet: 5</strong></font> &nbsp; &nbsp; &nbsp; &nbsp; &nbsp; &nbsp;<font class='negOutcome'>You receive: <strong>0</strong></font></div>","null","15","Melon Millions","Fruit/melon.png","Lost","0.65,0.2","13","0.65","235","43","",""
"html-keyboard-response","139","292945","0.0-11.0-1.43","55e7221441988f000b75cc7a","bdp_rwlrn","Wed Mar 15 2023 14:59:25 GMT-0400 (Eastern Daylight Time)","576794","Trustworthy,Untrustworthy","","438","","","","decision","","<div class='trialDiv'><img src='Fruit/apple.png'><br><font class='baseline'><strong>Awesome Apples</strong><p>Choose number of points to bet.</font><div class='respPicDiv'><img src='img/responseButtonOffersNo0L.png' class='respPic'></div></div>","5","15","Awesome Apples","Fruit/apple.png","Won","0.35,0.8","13","0.35","240","44","",""
"html-keyboard-response","140","293208","0.0-11.0-2.43","55e7221441988f000b75cc7a","bdp_rwlrn","Wed Mar 15 2023 14:59:25 GMT-0400 (Eastern Daylight Time)","576794","Trustworthy,Untrustworthy","","null","","","","decisionFB","","<div class='trialDiv'><img src='Fruit/apple.png'><br><font class='baseline'><strong>Awesome Apples</strong><p>Choose number of points to bet.</font><div class='respPicDiv'><img src='img/responseButtonOffersNo0L5.png' class='respPic'></div></div>","null","15","Awesome Apples","Fruit/apple.png","Won","0.35,0.8","13","0.35","235","44","",""
"html-keyboard-response","141","294219","0.0-11.0-3.43","55e7221441988f000b75cc7a","bdp_rwlrn","Wed Mar 15 2023 14:59:25 GMT-0400 (Eastern Daylight Time)","576794","Trustworthy,Untrustworthy","","null","","","","feedback","","<div class='respPicDiv'><img src='img/responseButtonOffersNo0_wht.png' class='respPic'></div><div class='trialDiv'><img src='Fruit/apple.png'><br><font class='baseline'><strong>Awesome Apples</strong><p><strong><font class='posOutcome'>You WON</font><p>You bet: 5</strong></font> &nbsp; &nbsp; &nbsp; &nbsp; &nbsp; &nbsp;<font class='posOutcome'>you receive: <strong>10</strong></font></div>","null","15","Awesome Apples","Fruit/apple.png","Won","0.35,0.8","13","0.35","245","44","",""
"html-keyboard-response","142","294878","0.0-11.0-1.44","55e7221441988f000b75cc7a","bdp_rwlrn","Wed Mar 15 2023 14:59:25 GMT-0400 (Eastern Daylight Time)","576794","Trustworthy,Untrustworthy","","658","","","","decision","","<div class='trialDiv'><img src='Fruit/mixed-berries2.png'><br><font class='baseline'><strong>Berry Bla$t</strong><p>Choose number of points to bet.</font><div class='respPicDiv'><img src='img/responseButtonOffersNo0L.png' class='respPic'></div></div>","2","15","Berry Bla$t","Fruit/mixed-berries2.png","Won","0.35,0.65","8","0.35","250","45","",""
"html-keyboard-response","143","295142","0.0-11.0-2.44","55e7221441988f000b75cc7a","bdp_rwlrn","Wed Mar 15 2023 14:59:25 GMT-0400 (Eastern Daylight Time)","576794","Trustworthy,Untrustworthy","","null","","","","decisionFB","","<div class='trialDiv'><img src='Fruit/mixed-berries2.png'><br><font class='baseline'><strong>Berry Bla$t</strong><p>Choose number of points to bet.</font><div class='respPicDiv'><img src='img/responseButtonOffersNo0L2.png' class='respPic'></div></div>","null","15","Berry Bla$t","Fruit/mixed-berries2.png","Won","0.35,0.65","8","0.35","248","45","",""
"html-keyboard-response","144","296154","0.0-11.0-3.44","55e7221441988f000b75cc7a","bdp_rwlrn","Wed Mar 15 2023 14:59:25 GMT-0400 (Eastern Daylight Time)","576794","Trustworthy,Untrustworthy","","null","","","","feedback","","<div class='respPicDiv'><img src='img/responseButtonOffersNo0_wht.png' class='respPic'></div><div class='trialDiv'><img src='Fruit/mixed-berries2.png'><br><font class='baseline'><strong>Berry Bla$t</strong><p><strong><font class='posOutcome'>You WON</font><p>You bet: 2</strong></font> &nbsp; &nbsp; &nbsp; &nbsp; &nbsp; &nbsp;<font class='posOutcome'>you receive: <strong>4</strong></font></div>","null","15","Berry Bla$t","Fruit/mixed-berries2.png","Won","0.35,0.65","8","0.35","252","45","",""
"html-keyboard-response","145","297481","0.0-11.0-1.45","55e7221441988f000b75cc7a","bdp_rwlrn","Wed Mar 15 2023 14:59:25 GMT-0400 (Eastern Daylight Time)","576794","Trustworthy,Untrustworthy","","1326","","","","decision","","<div class='trialDiv'><img src='Fruit/melon.png'><br><font class='baseline'><strong>Melon Millions</strong><p>Choose number of points to bet.</font><div class='respPicDiv'><img src='img/responseButtonOffersNo0L.png' class='respPic'></div></div>","4","16","Melon Millions","Fruit/melon.png","Won","0.65,0.2","13","0.65","257","46","",""
"html-keyboard-response","146","297739","0.0-11.0-2.45","55e7221441988f000b75cc7a","bdp_rwlrn","Wed Mar 15 2023 14:59:25 GMT-0400 (Eastern Daylight Time)","576794","Trustworthy,Untrustworthy","","null","","","","decisionFB","","<div class='trialDiv'><img src='Fruit/melon.png'><br><font class='baseline'><strong>Melon Millions</strong><p>Choose number of points to bet.</font><div class='respPicDiv'><img src='img/responseButtonOffersNo0L4.png' class='respPic'></div></div>","null","16","Melon Millions","Fruit/melon.png","Won","0.65,0.2","13","0.65","253","46","",""
"html-keyboard-response","147","298745","0.0-11.0-3.45","55e7221441988f000b75cc7a","bdp_rwlrn","Wed Mar 15 2023 14:59:25 GMT-0400 (Eastern Daylight Time)","576794","Trustworthy,Untrustworthy","","null","","","","feedback","","<div class='respPicDiv'><img src='img/responseButtonOffersNo0_wht.png' class='respPic'></div><div class='trialDiv'><img src='Fruit/melon.png'><br><font class='baseline'><strong>Melon Millions</strong><p><strong><font class='posOutcome'>You WON</font><p>You bet: 4</strong></font> &nbsp; &nbsp; &nbsp; &nbsp; &nbsp; &nbsp;<font class='posOutcome'>you receive: <strong>8</strong></font></div>","null","16","Melon Millions","Fruit/melon.png","Won","0.65,0.2","13","0.65","261","46","",""
"html-keyboard-response","148","299291","0.0-11.0-1.46","55e7221441988f000b75cc7a","bdp_rwlrn","Wed Mar 15 2023 14:59:25 GMT-0400 (Eastern Daylight Time)","576794","Trustworthy,Untrustworthy","","546","","","","decision","","<div class='trialDiv'><img src='Fruit/mixed-berries2.png'><br><font class='baseline'><strong>Berry Bla$t</strong><p>Choose number of points to bet.</font><div class='respPicDiv'><img src='img/responseButtonOffersNo0L.png' class='respPic'></div></div>","2","16","Berry Bla$t","Fruit/mixed-berries2.png","Won","0.35,0.65","8","0.35","266","47","",""
"html-keyboard-response","149","299542","0.0-11.0-2.46","55e7221441988f000b75cc7a","bdp_rwlrn","Wed Mar 15 2023 14:59:25 GMT-0400 (Eastern Daylight Time)","576794","Trustworthy,Untrustworthy","","null","","","","decisionFB","","<div class='trialDiv'><img src='Fruit/mixed-berries2.png'><br><font class='baseline'><strong>Berry Bla$t</strong><p>Choose number of points to bet.</font><div class='respPicDiv'><img src='img/responseButtonOffersNo0L2.png' class='respPic'></div></div>","null","16","Berry Bla$t","Fruit/mixed-berries2.png","Won","0.35,0.65","8","0.35","264","47","",""
"html-keyboard-response","150","300556","0.0-11.0-3.46","55e7221441988f000b75cc7a","bdp_rwlrn","Wed Mar 15 2023 14:59:25 GMT-0400 (Eastern Daylight Time)","576794","Trustworthy,Untrustworthy","","null","","","","feedback","","<div class='respPicDiv'><img src='img/responseButtonOffersNo0_wht.png' class='respPic'></div><div class='trialDiv'><img src='Fruit/mixed-berries2.png'><br><font class='baseline'><strong>Berry Bla$t</strong><p><strong><font class='posOutcome'>You WON</font><p>You bet: 2</strong></font> &nbsp; &nbsp; &nbsp; &nbsp; &nbsp; &nbsp;<font class='posOutcome'>you receive: <strong>4</strong></font></div>","null","16","Berry Bla$t","Fruit/mixed-berries2.png","Won","0.35,0.65","8","0.35","268","47","",""
"html-keyboard-response","151","301204","0.0-11.0-1.47","55e7221441988f000b75cc7a","bdp_rwlrn","Wed Mar 15 2023 14:59:25 GMT-0400 (Eastern Daylight Time)","576794","Trustworthy,Untrustworthy","","648","","","","decision","","<div class='trialDiv'><img src='Fruit/apple.png'><br><font class='baseline'><strong>Awesome Apples</strong><p>Choose number of points to bet.</font><div class='respPicDiv'><img src='img/responseButtonOffersNo0L.png' class='respPic'></div></div>","1","16","Awesome Apples","Fruit/apple.png","Won","0.35,0.8","13","0.35","273","48","",""
"html-keyboard-response","152","301460","0.0-11.0-2.47","55e7221441988f000b75cc7a","bdp_rwlrn","Wed Mar 15 2023 14:59:25 GMT-0400 (Eastern Daylight Time)","576794","Trustworthy,Untrustworthy","","null","","","","decisionFB","","<div class='trialDiv'><img src='Fruit/apple.png'><br><font class='baseline'><strong>Awesome Apples</strong><p>Choose number of points to bet.</font><div class='respPicDiv'><img src='img/responseButtonOffersNo0L1.png' class='respPic'></div></div>","null","16","Awesome Apples","Fruit/apple.png","Won","0.35,0.8","13","0.35","272","48","",""
"html-keyboard-response","153","302470","0.0-11.0-3.47","55e7221441988f000b75cc7a","bdp_rwlrn","Wed Mar 15 2023 14:59:25 GMT-0400 (Eastern Daylight Time)","576794","Trustworthy,Untrustworthy","","null","","","","feedback","","<div class='respPicDiv'><img src='img/responseButtonOffersNo0_wht.png' class='respPic'></div><div class='trialDiv'><img src='Fruit/apple.png'><br><font class='baseline'><strong>Awesome Apples</strong><p><strong><font class='posOutcome'>You WON</font><p>You bet: 1</strong></font> &nbsp; &nbsp; &nbsp; &nbsp; &nbsp; &nbsp;<font class='posOutcome'>you receive: <strong>2</strong></font></div>","null","16","Awesome Apples","Fruit/apple.png","Won","0.35,0.8","13","0.35","274","48","",""
"html-keyboard-response","154","303179","0.0-11.0-1.48","55e7221441988f000b75cc7a","bdp_rwlrn","Wed Mar 15 2023 14:59:25 GMT-0400 (Eastern Daylight Time)","576794","Trustworthy,Untrustworthy","","709","","","","decision","","<div class='trialDiv'><img src='Fruit/mixed-berries2.png'><br><font class='baseline'><strong>Berry Bla$t</strong><p>Choose number of points to bet.</font><div class='respPicDiv'><img src='img/responseButtonOffersNo0L.png' class='respPic'></div></div>","2","17","Berry Bla$t","Fruit/mixed-berries2.png","Lost","0.35,0.65","8","0.35","279","49","",""
"html-keyboard-response","155","303441","0.0-11.0-2.48","55e7221441988f000b75cc7a","bdp_rwlrn","Wed Mar 15 2023 14:59:25 GMT-0400 (Eastern Daylight Time)","576794","Trustworthy,Untrustworthy","","null","","","","decisionFB","","<div class='trialDiv'><img src='Fruit/mixed-berries2.png'><br><font class='baseline'><strong>Berry Bla$t</strong><p>Choose number of points to bet.</font><div class='respPicDiv'><img src='img/responseButtonOffersNo0L2.png' class='respPic'></div></div>","null","17","Berry Bla$t","Fruit/mixed-berries2.png","Lost","0.35,0.65","8","0.35","277","49","",""
"html-keyboard-response","156","304450","0.0-11.0-3.48","55e7221441988f000b75cc7a","bdp_rwlrn","Wed Mar 15 2023 14:59:25 GMT-0400 (Eastern Daylight Time)","576794","Trustworthy,Untrustworthy","","null","","","","feedback","","<div class='respPicDiv'><img src='img/responseButtonOffersNo0_wht.png' class='respPic'></div><div class='trialDiv'><img src='Fruit/mixed-berries2.png'><br><font class='baseline'><strong>Berry Bla$t</strong><p><strong><font class='negOutcome'>You LOST</font><p>You bet: 2</strong></font> &nbsp; &nbsp; &nbsp; &nbsp; &nbsp; &nbsp;<font class='negOutcome'>You receive: <strong>0</strong></font></div>","null","17","Berry Bla$t","Fruit/mixed-berries2.png","Lost","0.35,0.65","8","0.35","277","49","",""
"html-keyboard-response","157","305648","0.0-11.0-1.49","55e7221441988f000b75cc7a","bdp_rwlrn","Wed Mar 15 2023 14:59:25 GMT-0400 (Eastern Daylight Time)","576794","Trustworthy,Untrustworthy","","1197","","","","decision","","<div class='trialDiv'><img src='Fruit/apple.png'><br><font class='baseline'><strong>Awesome Apples</strong><p>Choose number of points to bet.</font><div class='respPicDiv'><img src='img/responseButtonOffersNo0L.png' class='respPic'></div></div>","2","17","Awesome Apples","Fruit/apple.png","Won","0.35,0.8","13","0.35","282","50","",""
"html-keyboard-response","158","305910","0.0-11.0-2.49","55e7221441988f000b75cc7a","bdp_rwlrn","Wed Mar 15 2023 14:59:25 GMT-0400 (Eastern Daylight Time)","576794","Trustworthy,Untrustworthy","","null","","","","decisionFB","","<div class='trialDiv'><img src='Fruit/apple.png'><br><font class='baseline'><strong>Awesome Apples</strong><p>Choose number of points to bet.</font><div class='respPicDiv'><img src='img/responseButtonOffersNo0L2.png' class='respPic'></div></div>","null","17","Awesome Apples","Fruit/apple.png","Won","0.35,0.8","13","0.35","280","50","",""
"html-keyboard-response","159","306923","0.0-11.0-3.49","55e7221441988f000b75cc7a","bdp_rwlrn","Wed Mar 15 2023 14:59:25 GMT-0400 (Eastern Daylight Time)","576794","Trustworthy,Untrustworthy","","null","","","","feedback","","<div class='respPicDiv'><img src='img/responseButtonOffersNo0_wht.png' class='respPic'></div><div class='trialDiv'><img src='Fruit/apple.png'><br><font class='baseline'><strong>Awesome Apples</strong><p><strong><font class='posOutcome'>You WON</font><p>You bet: 2</strong></font> &nbsp; &nbsp; &nbsp; &nbsp; &nbsp; &nbsp;<font class='posOutcome'>you receive: <strong>4</strong></font></div>","null","17","Awesome Apples","Fruit/apple.png","Won","0.35,0.8","13","0.35","284","50","",""
"html-keyboard-response","160","310777","0.0-11.0-1.50","55e7221441988f000b75cc7a","bdp_rwlrn","Wed Mar 15 2023 14:59:25 GMT-0400 (Eastern Daylight Time)","576794","Trustworthy,Untrustworthy","","3854","","","","decision","","<div class='trialDiv'><img src='Fruit/melon.png'><br><font class='baseline'><strong>Melon Millions</strong><p>Choose number of points to bet.</font><div class='respPicDiv'><img src='img/responseButtonOffersNo0L.png' class='respPic'></div></div>","2","17","Melon Millions","Fruit/melon.png","Lost","0.65,0.2","13","0.65","289","51","",""
"html-keyboard-response","161","311028","0.0-11.0-2.50","55e7221441988f000b75cc7a","bdp_rwlrn","Wed Mar 15 2023 14:59:25 GMT-0400 (Eastern Daylight Time)","576794","Trustworthy,Untrustworthy","","null","","","","decisionFB","","<div class='trialDiv'><img src='Fruit/melon.png'><br><font class='baseline'><strong>Melon Millions</strong><p>Choose number of points to bet.</font><div class='respPicDiv'><img src='img/responseButtonOffersNo0L2.png' class='respPic'></div></div>","null","17","Melon Millions","Fruit/melon.png","Lost","0.65,0.2","13","0.65","287","51","",""
