"trial_type","trial_index","time_elapsed","internal_node_id","subject_id","task","startTime","totalTime","labels","view_history","rt","event","trial","time","trialtype","success","stimulus","key_press","ltround","name","fileID","outcome","lottotype","lottoswpt","lottocurrpshare","point_total","round","faceID","face"
"pavlovia","0","2","0.0-0.0","63d7a8a2591096e22405d64a","bdp_rwlrn","Wed Mar 15 2023 13:26:10 GMT-0600 (Mountain Daylight Time)","290262","Untrustworthy,Trustworthy","","","","","","","","","","","","","","","","","","","",""
"instructions","1","2902","0.0-1.0","63d7a8a2591096e22405d64a","bdp_rwlrn","Wed Mar 15 2023 13:26:10 GMT-0600 (Mountain Daylight Time)","290262","Untrustworthy,Trustworthy","[{""page_index"":0,""viewing_time"":2900}]","2900","","","","","","","","","","","","","","","","","",""
"","","","","63d7a8a2591096e22405d64a","bdp_rwlrn","Wed Mar 15 2023 13:26:10 GMT-0600 (Mountain Daylight Time)","290262","Untrustworthy,Trustworthy","","","fullscreenenter","2","7026","fullscreenenter","","","","","","","","","","","","","",""
"fullscreen","2","8022","0.0-2.0","63d7a8a2591096e22405d64a","bdp_rwlrn","Wed Mar 15 2023 13:26:10 GMT-0600 (Mountain Daylight Time)","290262","Untrustworthy,Trustworthy","","","","","","","true","","","","","","","","","","","","",""
"instructions","3","35135","0.0-4.0","63d7a8a2591096e22405d64a","bdp_rwlrn","Wed Mar 15 2023 13:26:10 GMT-0600 (Mountain Daylight Time)","290262","Untrustworthy,Trustworthy","[{""page_index"":0,""viewing_time"":5150},{""page_index"":1,""viewing_time"":6327},{""page_index"":2,""viewing_time"":1422},{""page_index"":3,""viewing_time"":6905},{""page_index"":4,""viewing_time"":2308},{""page_index"":5,""viewing_time"":5000}]","27112","","","","","","","","","","","","","","","","","",""
"html-keyboard-response","4","40946","0.0-5.0","63d7a8a2591096e22405d64a","bdp_rwlrn","Wed Mar 15 2023 13:26:10 GMT-0600 (Mountain Daylight Time)","290262","Untrustworthy,Trustworthy","","5810","","","","","","<div class='header' style='text-align:left; position: absolute; top: 5%; left: 5%;'><small>Task 3 of 5</small></div><div class='instruxDiv'><p><strong>1) What is the maximum number of points you can choose to bet on a lottery?</strong></p><p>a) 0</p><p>b) 1</p><p>c) 5</p>","B","","","","","","","","","","",""
"html-keyboard-response","5","46114","0.0-6.0","63d7a8a2591096e22405d64a","bdp_rwlrn","Wed Mar 15 2023 13:26:10 GMT-0600 (Mountain Daylight Time)","290262","Untrustworthy,Trustworthy","","5068","","","","","","<div class='header' style='text-align:left; position: absolute; top: 5%; left: 5%;'><small>Task 3 of 5</small></div><div class='instruxDiv'><p><strong>1) What is the maximum number of points you can choose to bet on a lottery?</strong></p><p>a) 0</p><p style='color:#FF0000'>b) 1</p><p>c) 5</p><h3 style='color:#FF0000'>Incorrect!</h3><h3 class='center-content'>The correct response is c).</h3><h3 class='center-content'>The maximum number of points you can choose to bet on a lottery is 5 points.</h3><p><em>Press SPACEBAR to continue</em></p></div>"," ","","","","","","","","","","",""
"html-keyboard-response","6","51441","0.0-7.0","63d7a8a2591096e22405d64a","bdp_rwlrn","Wed Mar 15 2023 13:26:10 GMT-0600 (Mountain Daylight Time)","290262","Untrustworthy,Trustworthy","","5226","","","","","","<div class='header' style='text-align:left; position: absolute; top: 5%; left: 5%;'><small>Task 3 of 5</small></div><div class='instruxDiv'><p><strong>2) How many points can you win each round?</strong></p><p>a) 10 points</p><p>b) Double what you bet</p><p>c) Quadruple what you bet</p>","B","","","","","","","","","","",""
"html-keyboard-response","7","52648","0.0-8.0","63d7a8a2591096e22405d64a","bdp_rwlrn","Wed Mar 15 2023 13:26:10 GMT-0600 (Mountain Daylight Time)","290262","Untrustworthy,Trustworthy","","1104","","","","","","<div class='header' style='text-align:left; position: absolute; top: 5%; left: 5%;'><small>Task 3 of 5</small></div><div class='instruxDiv'><p><strong>2) How many points can you win each round?</strong></p><p>a) 10 points</p><p style='color:#00FF00'>b) Double what you bet</p><p>c) Quadruple what you bet</p><h3 style='color:#00FF00'>Correct!</h3><h3 class='center-content'>The correct response is b).</h3><h3 class='center-content'>You can win double the amount of points you bet.</h3><p><em>Press SPACEBAR to continue</em></p></div>"," ","","","","","","","","","","",""
"html-keyboard-response","8","57752","0.0-9.0","63d7a8a2591096e22405d64a","bdp_rwlrn","Wed Mar 15 2023 13:26:10 GMT-0600 (Mountain Daylight Time)","290262","Untrustworthy,Trustworthy","","null","","","","","","<div class='header' style='text-align:left; position: absolute; top: 5%; left: 5%;'><small>Task 3 of 5</small></div><div class='instruxDiv'><p>Thank you for completing the quiz<p>These are the actual lotteries you will be playing in the next block:<p><div class='tc' align='center'><img class='introPic' src='Fruit/bananas.png'><br><strong>Banana Bonanza</strong></div><div class='bl' align='center'><img class='introPic' src='Fruit/watermelon.png'><br><strong>Watermelon Win$</strong></div><div class='br' align='center'><img class='introPic' src='Fruit/lime.png'><br><strong>Limin' Large</strong></div></div><p>Across <strong>66 rounds</strong> you will play each lottery <strong>22 times</strong> (in random order).<p style='align:center; color:white'><font <em>Press SPACEBAR to continue</em></p>","null","","","","","","","","","","",""
"instructions","9","59355","0.0-10.0","63d7a8a2591096e22405d64a","bdp_rwlrn","Wed Mar 15 2023 13:26:10 GMT-0600 (Mountain Daylight Time)","290262","Untrustworthy,Trustworthy","[{""page_index"":0,""viewing_time"":994},{""page_index"":1,""viewing_time"":609}]","1603","","","","","","","","","","","","","","","","","",""
"html-keyboard-response","10","62467","0.0-11.0-1.0","63d7a8a2591096e22405d64a","bdp_rwlrn","Wed Mar 15 2023 13:26:10 GMT-0600 (Mountain Daylight Time)","290262","Untrustworthy,Trustworthy","","3011","","","","decision","","<div class='trialDiv'><img src='Fruit/lime.png'><br><font class='baseline'><strong>Limin' Large</strong><p>Choose number of points to bet.</font><div class='respPicDiv'><img src='img/responseButtonOffersNo0L.png' class='respPic'></div></div>","3","1","Limin' Large","Fruit/lime.png","Won","0.65,0.2","14","0.65","5","1","",""
"html-keyboard-response","11","62718","0.0-11.0-2.0","63d7a8a2591096e22405d64a","bdp_rwlrn","Wed Mar 15 2023 13:26:10 GMT-0600 (Mountain Daylight Time)","290262","Untrustworthy,Trustworthy","","null","","","","decisionFB","","<div class='trialDiv'><img src='Fruit/lime.png'><br><font class='baseline'><strong>Limin' Large</strong><p>Choose number of points to bet.</font><div class='respPicDiv'><img src='img/responseButtonOffersNo0L3.png' class='respPic'></div></div>","null","1","Limin' Large","Fruit/lime.png","Won","0.65,0.2","14","0.65","2","1","",""
"html-keyboard-response","12","63720","0.0-11.0-3.0","63d7a8a2591096e22405d64a","bdp_rwlrn","Wed Mar 15 2023 13:26:10 GMT-0600 (Mountain Daylight Time)","290262","Untrustworthy,Trustworthy","","null","","","","feedback","","<div class='respPicDiv'><img src='img/responseButtonOffersNo0_wht.png' class='respPic'></div><div class='trialDiv'><img src='Fruit/lime.png'><br><font class='baseline'><strong>Limin' Large</strong><p><strong><font class='posOutcome'>You WON</font><p>You bet: 3</strong></font> &nbsp; &nbsp; &nbsp; &nbsp; &nbsp; &nbsp;<font class='posOutcome'>you receive: <strong>6</strong></font></div>","null","1","Limin' Large","Fruit/lime.png","Won","0.65,0.2","14","0.65","8","1","",""
"html-keyboard-response","13","65224","0.0-11.0-1.1","63d7a8a2591096e22405d64a","bdp_rwlrn","Wed Mar 15 2023 13:26:10 GMT-0600 (Mountain Daylight Time)","290262","Untrustworthy,Trustworthy","","1503","","","","decision","","<div class='trialDiv'><img src='Fruit/watermelon.png'><br><font class='baseline'><strong>Watermelon Win$</strong><p>Choose number of points to bet.</font><div class='respPicDiv'><img src='img/responseButtonOffersNo0L.png' class='respPic'></div></div>","2","1","Watermelon Win$","Fruit/watermelon.png","Lost","0.2,0.8","10","0.2","13","2","",""
"html-keyboard-response","14","65475","0.0-11.0-2.1","63d7a8a2591096e22405d64a","bdp_rwlrn","Wed Mar 15 2023 13:26:10 GMT-0600 (Mountain Daylight Time)","290262","Untrustworthy,Trustworthy","","null","","","","decisionFB","","<div class='trialDiv'><img src='Fruit/watermelon.png'><br><font class='baseline'><strong>Watermelon Win$</strong><p>Choose number of points to bet.</font><div class='respPicDiv'><img src='img/responseButtonOffersNo0L2.png' class='respPic'></div></div>","null","1","Watermelon Win$","Fruit/watermelon.png","Lost","0.2,0.8","10","0.2","11","2","",""
"html-keyboard-response","15","66478","0.0-11.0-3.1","63d7a8a2591096e22405d64a","bdp_rwlrn","Wed Mar 15 2023 13:26:10 GMT-0600 (Mountain Daylight Time)","290262","Untrustworthy,Trustworthy","","null","","","","feedback","","<div class='respPicDiv'><img src='img/responseButtonOffersNo0_wht.png' class='respPic'></div><div class='trialDiv'><img src='Fruit/watermelon.png'><br><font class='baseline'><strong>Watermelon Win$</strong><p><strong><font class='negOutcome'>You LOST</font><p>You bet: 2</strong></font> &nbsp; &nbsp; &nbsp; &nbsp; &nbsp; &nbsp;<font class='negOutcome'>You receive: <strong>0</strong></font></div>","null","1","Watermelon Win$","Fruit/watermelon.png","Lost","0.2,0.8","10","0.2","11","2","",""
"html-keyboard-response","16","67441","0.0-11.0-1.2","63d7a8a2591096e22405d64a","bdp_rwlrn","Wed Mar 15 2023 13:26:10 GMT-0600 (Mountain Daylight Time)","290262","Untrustworthy,Trustworthy","","963","","","","decision","","<div class='trialDiv'><img src='Fruit/bananas.png'><br><font class='baseline'><strong>Banana Bonanza</strong><p>Choose number of points to bet.</font><div class='respPicDiv'><img src='img/responseButtonOffersNo0L.png' class='respPic'></div></div>","3","1","Banana Bonanza","Fruit/bananas.png","Lost","0.35,0.8","8","0.35","16","3","",""
"html-keyboard-response","17","67693","0.0-11.0-2.2","63d7a8a2591096e22405d64a","bdp_rwlrn","Wed Mar 15 2023 13:26:10 GMT-0600 (Mountain Daylight Time)","290262","Untrustworthy,Trustworthy","","null","","","","decisionFB","","<div class='trialDiv'><img src='Fruit/bananas.png'><br><font class='baseline'><strong>Banana Bonanza</strong><p>Choose number of points to bet.</font><div class='respPicDiv'><img src='img/responseButtonOffersNo0L3.png' class='respPic'></div></div>","null","1","Banana Bonanza","Fruit/bananas.png","Lost","0.35,0.8","8","0.35","13","3","",""
"html-keyboard-response","18","68694","0.0-11.0-3.2","63d7a8a2591096e22405d64a","bdp_rwlrn","Wed Mar 15 2023 13:26:10 GMT-0600 (Mountain Daylight Time)","290262","Untrustworthy,Trustworthy","","null","","","","feedback","","<div class='respPicDiv'><img src='img/responseButtonOffersNo0_wht.png' class='respPic'></div><div class='trialDiv'><img src='Fruit/bananas.png'><br><font class='baseline'><strong>Banana Bonanza</strong><p><strong><font class='negOutcome'>You LOST</font><p>You bet: 3</strong></font> &nbsp; &nbsp; &nbsp; &nbsp; &nbsp; &nbsp;<font class='negOutcome'>You receive: <strong>0</strong></font></div>","null","1","Banana Bonanza","Fruit/bananas.png","Lost","0.35,0.8","8","0.35","13","3","",""
"html-keyboard-response","19","68986","0.0-11.0-1.3","63d7a8a2591096e22405d64a","bdp_rwlrn","Wed Mar 15 2023 13:26:10 GMT-0600 (Mountain Daylight Time)","290262","Untrustworthy,Trustworthy","","290","","","","decision","","<div class='trialDiv'><img src='Fruit/watermelon.png'><br><font class='baseline'><strong>Watermelon Win$</strong><p>Choose number of points to bet.</font><div class='respPicDiv'><img src='img/responseButtonOffersNo0L.png' class='respPic'></div></div>","1","2","Watermelon Win$","Fruit/watermelon.png","Lost","0.2,0.8","10","0.2","18","4","",""
"html-keyboard-response","20","69237","0.0-11.0-2.3","63d7a8a2591096e22405d64a","bdp_rwlrn","Wed Mar 15 2023 13:26:10 GMT-0600 (Mountain Daylight Time)","290262","Untrustworthy,Trustworthy","","null","","","","decisionFB","","<div class='trialDiv'><img src='Fruit/watermelon.png'><br><font class='baseline'><strong>Watermelon Win$</strong><p>Choose number of points to bet.</font><div class='respPicDiv'><img src='img/responseButtonOffersNo0L1.png' class='respPic'></div></div>","null","2","Watermelon Win$","Fruit/watermelon.png","Lost","0.2,0.8","10","0.2","17","4","",""
"html-keyboard-response","21","70239","0.0-11.0-3.3","63d7a8a2591096e22405d64a","bdp_rwlrn","Wed Mar 15 2023 13:26:10 GMT-0600 (Mountain Daylight Time)","290262","Untrustworthy,Trustworthy","","null","","","","feedback","","<div class='respPicDiv'><img src='img/responseButtonOffersNo0_wht.png' class='respPic'></div><div class='trialDiv'><img src='Fruit/watermelon.png'><br><font class='baseline'><strong>Watermelon Win$</strong><p><strong><font class='negOutcome'>You LOST</font><p>You bet: 1</strong></font> &nbsp; &nbsp; &nbsp; &nbsp; &nbsp; &nbsp;<font class='negOutcome'>You receive: <strong>0</strong></font></div>","null","2","Watermelon Win$","Fruit/watermelon.png","Lost","0.2,0.8","10","0.2","17","4","",""
"html-keyboard-response","22","70622","0.0-11.0-1.4","63d7a8a2591096e22405d64a","bdp_rwlrn","Wed Mar 15 2023 13:26:10 GMT-0600 (Mountain Daylight Time)","290262","Untrustworthy,Trustworthy","","383","","","","decision","","<div class='trialDiv'><img src='Fruit/lime.png'><br><font class='baseline'><strong>Limin' Large</strong><p>Choose number of points to bet.</font><div class='respPicDiv'><img src='img/responseButtonOffersNo0L.png' class='respPic'></div></div>","1","2","Limin' Large","Fruit/lime.png","Lost","0.65,0.2","14","0.65","22","5","",""
"html-keyboard-response","23","70873","0.0-11.0-2.4","63d7a8a2591096e22405d64a","bdp_rwlrn","Wed Mar 15 2023 13:26:10 GMT-0600 (Mountain Daylight Time)","290262","Untrustworthy,Trustworthy","","null","","","","decisionFB","","<div class='trialDiv'><img src='Fruit/lime.png'><br><font class='baseline'><strong>Limin' Large</strong><p>Choose number of points to bet.</font><div class='respPicDiv'><img src='img/responseButtonOffersNo0L1.png' class='respPic'></div></div>","null","2","Limin' Large","Fruit/lime.png","Lost","0.65,0.2","14","0.65","21","5","",""
"html-keyboard-response","24","71875","0.0-11.0-3.4","63d7a8a2591096e22405d64a","bdp_rwlrn","Wed Mar 15 2023 13:26:10 GMT-0600 (Mountain Daylight Time)","290262","Untrustworthy,Trustworthy","","null","","","","feedback","","<div class='respPicDiv'><img src='img/responseButtonOffersNo0_wht.png' class='respPic'></div><div class='trialDiv'><img src='Fruit/lime.png'><br><font class='baseline'><strong>Limin' Large</strong><p><strong><font class='negOutcome'>You LOST</font><p>You bet: 1</strong></font> &nbsp; &nbsp; &nbsp; &nbsp; &nbsp; &nbsp;<font class='negOutcome'>You receive: <strong>0</strong></font></div>","null","2","Limin' Large","Fruit/lime.png","Lost","0.65,0.2","14","0.65","21","5","",""
"html-keyboard-response","25","72280","0.0-11.0-1.5","63d7a8a2591096e22405d64a","bdp_rwlrn","Wed Mar 15 2023 13:26:10 GMT-0600 (Mountain Daylight Time)","290262","Untrustworthy,Trustworthy","","404","","","","decision","","<div class='trialDiv'><img src='Fruit/bananas.png'><br><font class='baseline'><strong>Banana Bonanza</strong><p>Choose number of points to bet.</font><div class='respPicDiv'><img src='img/responseButtonOffersNo0L.png' class='respPic'></div></div>","1","2","Banana Bonanza","Fruit/bananas.png","Lost","0.35,0.8","8","0.35","26","6","",""
"html-keyboard-response","26","72532","0.0-11.0-2.5","63d7a8a2591096e22405d64a","bdp_rwlrn","Wed Mar 15 2023 13:26:10 GMT-0600 (Mountain Daylight Time)","290262","Untrustworthy,Trustworthy","","null","","","","decisionFB","","<div class='trialDiv'><img src='Fruit/bananas.png'><br><font class='baseline'><strong>Banana Bonanza</strong><p>Choose number of points to bet.</font><div class='respPicDiv'><img src='img/responseButtonOffersNo0L1.png' class='respPic'></div></div>","null","2","Banana Bonanza","Fruit/bananas.png","Lost","0.35,0.8","8","0.35","25","6","",""
"html-keyboard-response","27","73534","0.0-11.0-3.5","63d7a8a2591096e22405d64a","bdp_rwlrn","Wed Mar 15 2023 13:26:10 GMT-0600 (Mountain Daylight Time)","290262","Untrustworthy,Trustworthy","","null","","","","feedback","","<div class='respPicDiv'><img src='img/responseButtonOffersNo0_wht.png' class='respPic'></div><div class='trialDiv'><img src='Fruit/bananas.png'><br><font class='baseline'><strong>Banana Bonanza</strong><p><strong><font class='negOutcome'>You LOST</font><p>You bet: 1</strong></font> &nbsp; &nbsp; &nbsp; &nbsp; &nbsp; &nbsp;<font class='negOutcome'>You receive: <strong>0</strong></font></div>","null","2","Banana Bonanza","Fruit/bananas.png","Lost","0.35,0.8","8","0.35","25","6","",""
"html-keyboard-response","28","73826","0.0-11.0-1.6","63d7a8a2591096e22405d64a","bdp_rwlrn","Wed Mar 15 2023 13:26:10 GMT-0600 (Mountain Daylight Time)","290262","Untrustworthy,Trustworthy","","291","","","","decision","","<div class='trialDiv'><img src='Fruit/lime.png'><br><font class='baseline'><strong>Limin' Large</strong><p>Choose number of points to bet.</font><div class='respPicDiv'><img src='img/responseButtonOffersNo0L.png' class='respPic'></div></div>","1","3","Limin' Large","Fruit/lime.png","Lost","0.65,0.2","14","0.65","30","7","",""
"html-keyboard-response","29","74077","0.0-11.0-2.6","63d7a8a2591096e22405d64a","bdp_rwlrn","Wed Mar 15 2023 13:26:10 GMT-0600 (Mountain Daylight Time)","290262","Untrustworthy,Trustworthy","","null","","","","decisionFB","","<div class='trialDiv'><img src='Fruit/lime.png'><br><font class='baseline'><strong>Limin' Large</strong><p>Choose number of points to bet.</font><div class='respPicDiv'><img src='img/responseButtonOffersNo0L1.png' class='respPic'></div></div>","null","3","Limin' Large","Fruit/lime.png","Lost","0.65,0.2","14","0.65","29","7","",""
"html-keyboard-response","30","75079","0.0-11.0-3.6","63d7a8a2591096e22405d64a","bdp_rwlrn","Wed Mar 15 2023 13:26:10 GMT-0600 (Mountain Daylight Time)","290262","Untrustworthy,Trustworthy","","null","","","","feedback","","<div class='respPicDiv'><img src='img/responseButtonOffersNo0_wht.png' class='respPic'></div><div class='trialDiv'><img src='Fruit/lime.png'><br><font class='baseline'><strong>Limin' Large</strong><p><strong><font class='negOutcome'>You LOST</font><p>You bet: 1</strong></font> &nbsp; &nbsp; &nbsp; &nbsp; &nbsp; &nbsp;<font class='negOutcome'>You receive: <strong>0</strong></font></div>","null","3","Limin' Large","Fruit/lime.png","Lost","0.65,0.2","14","0.65","29","7","",""
"html-keyboard-response","31","75319","0.0-11.0-1.7","63d7a8a2591096e22405d64a","bdp_rwlrn","Wed Mar 15 2023 13:26:10 GMT-0600 (Mountain Daylight Time)","290262","Untrustworthy,Trustworthy","","238","","","","decision","","<div class='trialDiv'><img src='Fruit/bananas.png'><br><font class='baseline'><strong>Banana Bonanza</strong><p>Choose number of points to bet.</font><div class='respPicDiv'><img src='img/responseButtonOffersNo0L.png' class='respPic'></div></div>","1","3","Banana Bonanza","Fruit/bananas.png","Lost","0.35,0.8","8","0.35","34","8","",""
"html-keyboard-response","32","75570","0.0-11.0-2.7","63d7a8a2591096e22405d64a","bdp_rwlrn","Wed Mar 15 2023 13:26:10 GMT-0600 (Mountain Daylight Time)","290262","Untrustworthy,Trustworthy","","null","","","","decisionFB","","<div class='trialDiv'><img src='Fruit/bananas.png'><br><font class='baseline'><strong>Banana Bonanza</strong><p>Choose number of points to bet.</font><div class='respPicDiv'><img src='img/responseButtonOffersNo0L1.png' class='respPic'></div></div>","null","3","Banana Bonanza","Fruit/bananas.png","Lost","0.35,0.8","8","0.35","33","8","",""
"html-keyboard-response","33","76572","0.0-11.0-3.7","63d7a8a2591096e22405d64a","bdp_rwlrn","Wed Mar 15 2023 13:26:10 GMT-0600 (Mountain Daylight Time)","290262","Untrustworthy,Trustworthy","","null","","","","feedback","","<div class='respPicDiv'><img src='img/responseButtonOffersNo0_wht.png' class='respPic'></div><div class='trialDiv'><img src='Fruit/bananas.png'><br><font class='baseline'><strong>Banana Bonanza</strong><p><strong><font class='negOutcome'>You LOST</font><p>You bet: 1</strong></font> &nbsp; &nbsp; &nbsp; &nbsp; &nbsp; &nbsp;<font class='negOutcome'>You receive: <strong>0</strong></font></div>","null","3","Banana Bonanza","Fruit/bananas.png","Lost","0.35,0.8","8","0.35","33","8","",""
"html-keyboard-response","34","80005","0.0-11.0-1.8","63d7a8a2591096e22405d64a","bdp_rwlrn","Wed Mar 15 2023 13:26:10 GMT-0600 (Mountain Daylight Time)","290262","Untrustworthy,Trustworthy","","3432","","","","decision","","<div class='trialDiv'><img src='Fruit/watermelon.png'><br><font class='baseline'><strong>Watermelon Win$</strong><p>Choose number of points to bet.</font><div class='respPicDiv'><img src='img/responseButtonOffersNo0L.png' class='respPic'></div></div>","5","3","Watermelon Win$","Fruit/watermelon.png","Lost","0.2,0.8","10","0.2","38","9","",""
"html-keyboard-response","35","80258","0.0-11.0-2.8","63d7a8a2591096e22405d64a","bdp_rwlrn","Wed Mar 15 2023 13:26:10 GMT-0600 (Mountain Daylight Time)","290262","Untrustworthy,Trustworthy","","null","","","","decisionFB","","<div class='trialDiv'><img src='Fruit/watermelon.png'><br><font class='baseline'><strong>Watermelon Win$</strong><p>Choose number of points to bet.</font><div class='respPicDiv'><img src='img/responseButtonOffersNo0L5.png' class='respPic'></div></div>","null","3","Watermelon Win$","Fruit/watermelon.png","Lost","0.2,0.8","10","0.2","33","9","",""
"html-keyboard-response","36","81259","0.0-11.0-3.8","63d7a8a2591096e22405d64a","bdp_rwlrn","Wed Mar 15 2023 13:26:10 GMT-0600 (Mountain Daylight Time)","290262","Untrustworthy,Trustworthy","","null","","","","feedback","","<div class='respPicDiv'><img src='img/responseButtonOffersNo0_wht.png' class='respPic'></div><div class='trialDiv'><img src='Fruit/watermelon.png'><br><font class='baseline'><strong>Watermelon Win$</strong><p><strong><font class='negOutcome'>You LOST</font><p>You bet: 5</strong></font> &nbsp; &nbsp; &nbsp; &nbsp; &nbsp; &nbsp;<font class='negOutcome'>You receive: <strong>0</strong></font></div>","null","3","Watermelon Win$","Fruit/watermelon.png","Lost","0.2,0.8","10","0.2","33","9","",""
"html-keyboard-response","37","81488","0.0-11.0-1.9","63d7a8a2591096e22405d64a","bdp_rwlrn","Wed Mar 15 2023 13:26:10 GMT-0600 (Mountain Daylight Time)","290262","Untrustworthy,Trustworthy","","228","","","","decision","","<div class='trialDiv'><img src='Fruit/lime.png'><br><font class='baseline'><strong>Limin' Large</strong><p>Choose number of points to bet.</font><div class='respPicDiv'><img src='img/responseButtonOffersNo0L.png' class='respPic'></div></div>","5","4","Limin' Large","Fruit/lime.png","Lost","0.65,0.2","14","0.65","38","10","",""
"html-keyboard-response","38","81739","0.0-11.0-2.9","63d7a8a2591096e22405d64a","bdp_rwlrn","Wed Mar 15 2023 13:26:10 GMT-0600 (Mountain Daylight Time)","290262","Untrustworthy,Trustworthy","","null","","","","decisionFB","","<div class='trialDiv'><img src='Fruit/lime.png'><br><font class='baseline'><strong>Limin' Large</strong><p>Choose number of points to bet.</font><div class='respPicDiv'><img src='img/responseButtonOffersNo0L5.png' class='respPic'></div></div>","null","4","Limin' Large","Fruit/lime.png","Lost","0.65,0.2","14","0.65","33","10","",""
"html-keyboard-response","39","82742","0.0-11.0-3.9","63d7a8a2591096e22405d64a","bdp_rwlrn","Wed Mar 15 2023 13:26:10 GMT-0600 (Mountain Daylight Time)","290262","Untrustworthy,Trustworthy","","null","","","","feedback","","<div class='respPicDiv'><img src='img/responseButtonOffersNo0_wht.png' class='respPic'></div><div class='trialDiv'><img src='Fruit/lime.png'><br><font class='baseline'><strong>Limin' Large</strong><p><strong><font class='negOutcome'>You LOST</font><p>You bet: 5</strong></font> &nbsp; &nbsp; &nbsp; &nbsp; &nbsp; &nbsp;<font class='negOutcome'>You receive: <strong>0</strong></font></div>","null","4","Limin' Large","Fruit/lime.png","Lost","0.65,0.2","14","0.65","33","10","",""
"html-keyboard-response","40","82809","0.0-11.0-1.10","63d7a8a2591096e22405d64a","bdp_rwlrn","Wed Mar 15 2023 13:26:10 GMT-0600 (Mountain Daylight Time)","290262","Untrustworthy,Trustworthy","","67","","","","decision","","<div class='trialDiv'><img src='Fruit/watermelon.png'><br><font class='baseline'><strong>Watermelon Win$</strong><p>Choose number of points to bet.</font><div class='respPicDiv'><img src='img/responseButtonOffersNo0L.png' class='respPic'></div></div>","3","4","Watermelon Win$","Fruit/watermelon.png","Won","0.2,0.8","10","0.2","38","11","",""
"html-keyboard-response","41","83061","0.0-11.0-2.10","63d7a8a2591096e22405d64a","bdp_rwlrn","Wed Mar 15 2023 13:26:10 GMT-0600 (Mountain Daylight Time)","290262","Untrustworthy,Trustworthy","","null","","","","decisionFB","","<div class='trialDiv'><img src='Fruit/watermelon.png'><br><font class='baseline'><strong>Watermelon Win$</strong><p>Choose number of points to bet.</font><div class='respPicDiv'><img src='img/responseButtonOffersNo0L3.png' class='respPic'></div></div>","null","4","Watermelon Win$","Fruit/watermelon.png","Won","0.2,0.8","10","0.2","35","11","",""
"html-keyboard-response","42","84064","0.0-11.0-3.10","63d7a8a2591096e22405d64a","bdp_rwlrn","Wed Mar 15 2023 13:26:10 GMT-0600 (Mountain Daylight Time)","290262","Untrustworthy,Trustworthy","","null","","","","feedback","","<div class='respPicDiv'><img src='img/responseButtonOffersNo0_wht.png' class='respPic'></div><div class='trialDiv'><img src='Fruit/watermelon.png'><br><font class='baseline'><strong>Watermelon Win$</strong><p><strong><font class='posOutcome'>You WON</font><p>You bet: 3</strong></font> &nbsp; &nbsp; &nbsp; &nbsp; &nbsp; &nbsp;<font class='posOutcome'>you receive: <strong>6</strong></font></div>","null","4","Watermelon Win$","Fruit/watermelon.png","Won","0.2,0.8","10","0.2","41","11","",""
"html-keyboard-response","43","84267","0.0-11.0-1.11","63d7a8a2591096e22405d64a","bdp_rwlrn","Wed Mar 15 2023 13:26:10 GMT-0600 (Mountain Daylight Time)","290262","Untrustworthy,Trustworthy","","203","","","","decision","","<div class='trialDiv'><img src='Fruit/bananas.png'><br><font class='baseline'><strong>Banana Bonanza</strong><p>Choose number of points to bet.</font><div class='respPicDiv'><img src='img/responseButtonOffersNo0L.png' class='respPic'></div></div>","3","4","Banana Bonanza","Fruit/bananas.png","Lost","0.35,0.8","8","0.35","46","12","",""
"html-keyboard-response","44","84518","0.0-11.0-2.11","63d7a8a2591096e22405d64a","bdp_rwlrn","Wed Mar 15 2023 13:26:10 GMT-0600 (Mountain Daylight Time)","290262","Untrustworthy,Trustworthy","","null","","","","decisionFB","","<div class='trialDiv'><img src='Fruit/bananas.png'><br><font class='baseline'><strong>Banana Bonanza</strong><p>Choose number of points to bet.</font><div class='respPicDiv'><img src='img/responseButtonOffersNo0L3.png' class='respPic'></div></div>","null","4","Banana Bonanza","Fruit/bananas.png","Lost","0.35,0.8","8","0.35","43","12","",""
"html-keyboard-response","45","85519","0.0-11.0-3.11","63d7a8a2591096e22405d64a","bdp_rwlrn","Wed Mar 15 2023 13:26:10 GMT-0600 (Mountain Daylight Time)","290262","Untrustworthy,Trustworthy","","null","","","","feedback","","<div class='respPicDiv'><img src='img/responseButtonOffersNo0_wht.png' class='respPic'></div><div class='trialDiv'><img src='Fruit/bananas.png'><br><font class='baseline'><strong>Banana Bonanza</strong><p><strong><font class='negOutcome'>You LOST</font><p>You bet: 3</strong></font> &nbsp; &nbsp; &nbsp; &nbsp; &nbsp; &nbsp;<font class='negOutcome'>You receive: <strong>0</strong></font></div>","null","4","Banana Bonanza","Fruit/bananas.png","Lost","0.35,0.8","8","0.35","43","12","",""
"html-keyboard-response","46","85730","0.0-11.0-1.12","63d7a8a2591096e22405d64a","bdp_rwlrn","Wed Mar 15 2023 13:26:10 GMT-0600 (Mountain Daylight Time)","290262","Untrustworthy,Trustworthy","","210","","","","decision","","<div class='trialDiv'><img src='Fruit/watermelon.png'><br><font class='baseline'><strong>Watermelon Win$</strong><p>Choose number of points to bet.</font><div class='respPicDiv'><img src='img/responseButtonOffersNo0L.png' class='respPic'></div></div>","2","5","Watermelon Win$","Fruit/watermelon.png","Lost","0.2,0.8","10","0.2","48","13","",""
"html-keyboard-response","47","85982","0.0-11.0-2.12","63d7a8a2591096e22405d64a","bdp_rwlrn","Wed Mar 15 2023 13:26:10 GMT-0600 (Mountain Daylight Time)","290262","Untrustworthy,Trustworthy","","null","","","","decisionFB","","<div class='trialDiv'><img src='Fruit/watermelon.png'><br><font class='baseline'><strong>Watermelon Win$</strong><p>Choose number of points to bet.</font><div class='respPicDiv'><img src='img/responseButtonOffersNo0L2.png' class='respPic'></div></div>","null","5","Watermelon Win$","Fruit/watermelon.png","Lost","0.2,0.8","10","0.2","46","13","",""
"html-keyboard-response","48","86984","0.0-11.0-3.12","63d7a8a2591096e22405d64a","bdp_rwlrn","Wed Mar 15 2023 13:26:10 GMT-0600 (Mountain Daylight Time)","290262","Untrustworthy,Trustworthy","","null","","","","feedback","","<div class='respPicDiv'><img src='img/responseButtonOffersNo0_wht.png' class='respPic'></div><div class='trialDiv'><img src='Fruit/watermelon.png'><br><font class='baseline'><strong>Watermelon Win$</strong><p><strong><font class='negOutcome'>You LOST</font><p>You bet: 2</strong></font> &nbsp; &nbsp; &nbsp; &nbsp; &nbsp; &nbsp;<font class='negOutcome'>You receive: <strong>0</strong></font></div>","null","5","Watermelon Win$","Fruit/watermelon.png","Lost","0.2,0.8","10","0.2","46","13","",""
"html-keyboard-response","49","87178","0.0-11.0-1.13","63d7a8a2591096e22405d64a","bdp_rwlrn","Wed Mar 15 2023 13:26:10 GMT-0600 (Mountain Daylight Time)","290262","Untrustworthy,Trustworthy","","193","","","","decision","","<div class='trialDiv'><img src='Fruit/lime.png'><br><font class='baseline'><strong>Limin' Large</strong><p>Choose number of points to bet.</font><div class='respPicDiv'><img src='img/responseButtonOffersNo0L.png' class='respPic'></div></div>","1","5","Limin' Large","Fruit/lime.png","Won","0.65,0.2","14","0.65","51","14","",""
"html-keyboard-response","50","87431","0.0-11.0-2.13","63d7a8a2591096e22405d64a","bdp_rwlrn","Wed Mar 15 2023 13:26:10 GMT-0600 (Mountain Daylight Time)","290262","Untrustworthy,Trustworthy","","null","","","","decisionFB","","<div class='trialDiv'><img src='Fruit/lime.png'><br><font class='baseline'><strong>Limin' Large</strong><p>Choose number of points to bet.</font><div class='respPicDiv'><img src='img/responseButtonOffersNo0L1.png' class='respPic'></div></div>","null","5","Limin' Large","Fruit/lime.png","Won","0.65,0.2","14","0.65","50","14","",""
"html-keyboard-response","51","88431","0.0-11.0-3.13","63d7a8a2591096e22405d64a","bdp_rwlrn","Wed Mar 15 2023 13:26:10 GMT-0600 (Mountain Daylight Time)","290262","Untrustworthy,Trustworthy","","null","","","","feedback","","<div class='respPicDiv'><img src='img/responseButtonOffersNo0_wht.png' class='respPic'></div><div class='trialDiv'><img src='Fruit/lime.png'><br><font class='baseline'><strong>Limin' Large</strong><p><strong><font class='posOutcome'>You WON</font><p>You bet: 1</strong></font> &nbsp; &nbsp; &nbsp; &nbsp; &nbsp; &nbsp;<font class='posOutcome'>you receive: <strong>2</strong></font></div>","null","5","Limin' Large","Fruit/lime.png","Won","0.65,0.2","14","0.65","52","14","",""
"html-keyboard-response","52","88618","0.0-11.0-1.14","63d7a8a2591096e22405d64a","bdp_rwlrn","Wed Mar 15 2023 13:26:10 GMT-0600 (Mountain Daylight Time)","290262","Untrustworthy,Trustworthy","","186","","","","decision","","<div class='trialDiv'><img src='Fruit/bananas.png'><br><font class='baseline'><strong>Banana Bonanza</strong><p>Choose number of points to bet.</font><div class='respPicDiv'><img src='img/responseButtonOffersNo0L.png' class='respPic'></div></div>","1","5","Banana Bonanza","Fruit/bananas.png","Won","0.35,0.8","8","0.35","57","15","",""
"html-keyboard-response","53","88869","0.0-11.0-2.14","63d7a8a2591096e22405d64a","bdp_rwlrn","Wed Mar 15 2023 13:26:10 GMT-0600 (Mountain Daylight Time)","290262","Untrustworthy,Trustworthy","","null","","","","decisionFB","","<div class='trialDiv'><img src='Fruit/bananas.png'><br><font class='baseline'><strong>Banana Bonanza</strong><p>Choose number of points to bet.</font><div class='respPicDiv'><img src='img/responseButtonOffersNo0L1.png' class='respPic'></div></div>","null","5","Banana Bonanza","Fruit/bananas.png","Won","0.35,0.8","8","0.35","56","15","",""
"html-keyboard-response","54","89871","0.0-11.0-3.14","63d7a8a2591096e22405d64a","bdp_rwlrn","Wed Mar 15 2023 13:26:10 GMT-0600 (Mountain Daylight Time)","290262","Untrustworthy,Trustworthy","","null","","","","feedback","","<div class='respPicDiv'><img src='img/responseButtonOffersNo0_wht.png' class='respPic'></div><div class='trialDiv'><img src='Fruit/bananas.png'><br><font class='baseline'><strong>Banana Bonanza</strong><p><strong><font class='posOutcome'>You WON</font><p>You bet: 1</strong></font> &nbsp; &nbsp; &nbsp; &nbsp; &nbsp; &nbsp;<font class='posOutcome'>you receive: <strong>2</strong></font></div>","null","5","Banana Bonanza","Fruit/bananas.png","Won","0.35,0.8","8","0.35","58","15","",""
"html-keyboard-response","55","90374","0.0-11.0-1.15","63d7a8a2591096e22405d64a","bdp_rwlrn","Wed Mar 15 2023 13:26:10 GMT-0600 (Mountain Daylight Time)","290262","Untrustworthy,Trustworthy","","503","","","","decision","","<div class='trialDiv'><img src='Fruit/watermelon.png'><br><font class='baseline'><strong>Watermelon Win$</strong><p>Choose number of points to bet.</font><div class='respPicDiv'><img src='img/responseButtonOffersNo0L.png' class='respPic'></div></div>","2","6","Watermelon Win$","Fruit/watermelon.png","Won","0.2,0.8","10","0.2","63","16","",""
"html-keyboard-response","56","90626","0.0-11.0-2.15","63d7a8a2591096e22405d64a","bdp_rwlrn","Wed Mar 15 2023 13:26:10 GMT-0600 (Mountain Daylight Time)","290262","Untrustworthy,Trustworthy","","null","","","","decisionFB","","<div class='trialDiv'><img src='Fruit/watermelon.png'><br><font class='baseline'><strong>Watermelon Win$</strong><p>Choose number of points to bet.</font><div class='respPicDiv'><img src='img/responseButtonOffersNo0L2.png' class='respPic'></div></div>","null","6","Watermelon Win$","Fruit/watermelon.png","Won","0.2,0.8","10","0.2","61","16","",""
"html-keyboard-response","57","91628","0.0-11.0-3.15","63d7a8a2591096e22405d64a","bdp_rwlrn","Wed Mar 15 2023 13:26:10 GMT-0600 (Mountain Daylight Time)","290262","Untrustworthy,Trustworthy","","null","","","","feedback","","<div class='respPicDiv'><img src='img/responseButtonOffersNo0_wht.png' class='respPic'></div><div class='trialDiv'><img src='Fruit/watermelon.png'><br><font class='baseline'><strong>Watermelon Win$</strong><p><strong><font class='posOutcome'>You WON</font><p>You bet: 2</strong></font> &nbsp; &nbsp; &nbsp; &nbsp; &nbsp; &nbsp;<font class='posOutcome'>you receive: <strong>4</strong></font></div>","null","6","Watermelon Win$","Fruit/watermelon.png","Won","0.2,0.8","10","0.2","65","16","",""
"html-keyboard-response","58","91859","0.0-11.0-1.16","63d7a8a2591096e22405d64a","bdp_rwlrn","Wed Mar 15 2023 13:26:10 GMT-0600 (Mountain Daylight Time)","290262","Untrustworthy,Trustworthy","","230","","","","decision","","<div class='trialDiv'><img src='Fruit/lime.png'><br><font class='baseline'><strong>Limin' Large</strong><p>Choose number of points to bet.</font><div class='respPicDiv'><img src='img/responseButtonOffersNo0L.png' class='respPic'></div></div>","2","6","Limin' Large","Fruit/lime.png","Won","0.65,0.2","14","0.65","70","17","",""
"html-keyboard-response","59","92111","0.0-11.0-2.16","63d7a8a2591096e22405d64a","bdp_rwlrn","Wed Mar 15 2023 13:26:10 GMT-0600 (Mountain Daylight Time)","290262","Untrustworthy,Trustworthy","","null","","","","decisionFB","","<div class='trialDiv'><img src='Fruit/lime.png'><br><font class='baseline'><strong>Limin' Large</strong><p>Choose number of points to bet.</font><div class='respPicDiv'><img src='img/responseButtonOffersNo0L2.png' class='respPic'></div></div>","null","6","Limin' Large","Fruit/lime.png","Won","0.65,0.2","14","0.65","68","17","",""
"html-keyboard-response","60","93112","0.0-11.0-3.16","63d7a8a2591096e22405d64a","bdp_rwlrn","Wed Mar 15 2023 13:26:10 GMT-0600 (Mountain Daylight Time)","290262","Untrustworthy,Trustworthy","","null","","","","feedback","","<div class='respPicDiv'><img src='img/responseButtonOffersNo0_wht.png' class='respPic'></div><div class='trialDiv'><img src='Fruit/lime.png'><br><font class='baseline'><strong>Limin' Large</strong><p><strong><font class='posOutcome'>You WON</font><p>You bet: 2</strong></font> &nbsp; &nbsp; &nbsp; &nbsp; &nbsp; &nbsp;<font class='posOutcome'>you receive: <strong>4</strong></font></div>","null","6","Limin' Large","Fruit/lime.png","Won","0.65,0.2","14","0.65","72","17","",""
"html-keyboard-response","61","93764","0.0-11.0-1.17","63d7a8a2591096e22405d64a","bdp_rwlrn","Wed Mar 15 2023 13:26:10 GMT-0600 (Mountain Daylight Time)","290262","Untrustworthy,Trustworthy","","652","","","","decision","","<div class='trialDiv'><img src='Fruit/bananas.png'><br><font class='baseline'><strong>Banana Bonanza</strong><p>Choose number of points to bet.</font><div class='respPicDiv'><img src='img/responseButtonOffersNo0L.png' class='respPic'></div></div>","1","6","Banana Bonanza","Fruit/bananas.png","Lost","0.35,0.8","8","0.35","77","18","",""
"html-keyboard-response","62","94018","0.0-11.0-2.17","63d7a8a2591096e22405d64a","bdp_rwlrn","Wed Mar 15 2023 13:26:10 GMT-0600 (Mountain Daylight Time)","290262","Untrustworthy,Trustworthy","","null","","","","decisionFB","","<div class='trialDiv'><img src='Fruit/bananas.png'><br><font class='baseline'><strong>Banana Bonanza</strong><p>Choose number of points to bet.</font><div class='respPicDiv'><img src='img/responseButtonOffersNo0L1.png' class='respPic'></div></div>","null","6","Banana Bonanza","Fruit/bananas.png","Lost","0.35,0.8","8","0.35","76","18","",""
"html-keyboard-response","63","95019","0.0-11.0-3.17","63d7a8a2591096e22405d64a","bdp_rwlrn","Wed Mar 15 2023 13:26:10 GMT-0600 (Mountain Daylight Time)","290262","Untrustworthy,Trustworthy","","null","","","","feedback","","<div class='respPicDiv'><img src='img/responseButtonOffersNo0_wht.png' class='respPic'></div><div class='trialDiv'><img src='Fruit/bananas.png'><br><font class='baseline'><strong>Banana Bonanza</strong><p><strong><font class='negOutcome'>You LOST</font><p>You bet: 1</strong></font> &nbsp; &nbsp; &nbsp; &nbsp; &nbsp; &nbsp;<font class='negOutcome'>You receive: <strong>0</strong></font></div>","null","6","Banana Bonanza","Fruit/bananas.png","Lost","0.35,0.8","8","0.35","76","18","",""
"html-keyboard-response","64","95347","0.0-11.0-1.18","63d7a8a2591096e22405d64a","bdp_rwlrn","Wed Mar 15 2023 13:26:10 GMT-0600 (Mountain Daylight Time)","290262","Untrustworthy,Trustworthy","","327","","","","decision","","<div class='trialDiv'><img src='Fruit/watermelon.png'><br><font class='baseline'><strong>Watermelon Win$</strong><p>Choose number of points to bet.</font><div class='respPicDiv'><img src='img/responseButtonOffersNo0L.png' class='respPic'></div></div>","1","7","Watermelon Win$","Fruit/watermelon.png","Lost","0.2,0.8","10","0.2","81","19","",""
"html-keyboard-response","65","95599","0.0-11.0-2.18","63d7a8a2591096e22405d64a","bdp_rwlrn","Wed Mar 15 2023 13:26:10 GMT-0600 (Mountain Daylight Time)","290262","Untrustworthy,Trustworthy","","null","","","","decisionFB","","<div class='trialDiv'><img src='Fruit/watermelon.png'><br><font class='baseline'><strong>Watermelon Win$</strong><p>Choose number of points to bet.</font><div class='respPicDiv'><img src='img/responseButtonOffersNo0L1.png' class='respPic'></div></div>","null","7","Watermelon Win$","Fruit/watermelon.png","Lost","0.2,0.8","10","0.2","80","19","",""
"html-keyboard-response","66","96600","0.0-11.0-3.18","63d7a8a2591096e22405d64a","bdp_rwlrn","Wed Mar 15 2023 13:26:10 GMT-0600 (Mountain Daylight Time)","290262","Untrustworthy,Trustworthy","","null","","","","feedback","","<div class='respPicDiv'><img src='img/responseButtonOffersNo0_wht.png' class='respPic'></div><div class='trialDiv'><img src='Fruit/watermelon.png'><br><font class='baseline'><strong>Watermelon Win$</strong><p><strong><font class='negOutcome'>You LOST</font><p>You bet: 1</strong></font> &nbsp; &nbsp; &nbsp; &nbsp; &nbsp; &nbsp;<font class='negOutcome'>You receive: <strong>0</strong></font></div>","null","7","Watermelon Win$","Fruit/watermelon.png","Lost","0.2,0.8","10","0.2","80","19","",""
"html-keyboard-response","67","96796","0.0-11.0-1.19","63d7a8a2591096e22405d64a","bdp_rwlrn","Wed Mar 15 2023 13:26:10 GMT-0600 (Mountain Daylight Time)","290262","Untrustworthy,Trustworthy","","195","","","","decision","","<div class='trialDiv'><img src='Fruit/bananas.png'><br><font class='baseline'><strong>Banana Bonanza</strong><p>Choose number of points to bet.</font><div class='respPicDiv'><img src='img/responseButtonOffersNo0L.png' class='respPic'></div></div>","1","7","Banana Bonanza","Fruit/bananas.png","Won","0.35,0.8","8","0.35","85","20","",""
"html-keyboard-response","68","97059","0.0-11.0-2.19","63d7a8a2591096e22405d64a","bdp_rwlrn","Wed Mar 15 2023 13:26:10 GMT-0600 (Mountain Daylight Time)","290262","Untrustworthy,Trustworthy","","null","","","","decisionFB","","<div class='trialDiv'><img src='Fruit/bananas.png'><br><font class='baseline'><strong>Banana Bonanza</strong><p>Choose number of points to bet.</font><div class='respPicDiv'><img src='img/responseButtonOffersNo0L1.png' class='respPic'></div></div>","null","7","Banana Bonanza","Fruit/bananas.png","Won","0.35,0.8","8","0.35","84","20","",""
"html-keyboard-response","69","98061","0.0-11.0-3.19","63d7a8a2591096e22405d64a","bdp_rwlrn","Wed Mar 15 2023 13:26:10 GMT-0600 (Mountain Daylight Time)","290262","Untrustworthy,Trustworthy","","null","","","","feedback","","<div class='respPicDiv'><img src='img/responseButtonOffersNo0_wht.png' class='respPic'></div><div class='trialDiv'><img src='Fruit/bananas.png'><br><font class='baseline'><strong>Banana Bonanza</strong><p><strong><font class='posOutcome'>You WON</font><p>You bet: 1</strong></font> &nbsp; &nbsp; &nbsp; &nbsp; &nbsp; &nbsp;<font class='posOutcome'>you receive: <strong>2</strong></font></div>","null","7","Banana Bonanza","Fruit/bananas.png","Won","0.35,0.8","8","0.35","86","20","",""
"html-keyboard-response","70","98273","0.0-11.0-1.20","63d7a8a2591096e22405d64a","bdp_rwlrn","Wed Mar 15 2023 13:26:10 GMT-0600 (Mountain Daylight Time)","290262","Untrustworthy,Trustworthy","","211","","","","decision","","<div class='trialDiv'><img src='Fruit/lime.png'><br><font class='baseline'><strong>Limin' Large</strong><p>Choose number of points to bet.</font><div class='respPicDiv'><img src='img/responseButtonOffersNo0L.png' class='respPic'></div></div>","4","7","Limin' Large","Fruit/lime.png","Lost","0.65,0.2","14","0.65","91","21","",""
"html-keyboard-response","71","98524","0.0-11.0-2.20","63d7a8a2591096e22405d64a","bdp_rwlrn","Wed Mar 15 2023 13:26:10 GMT-0600 (Mountain Daylight Time)","290262","Untrustworthy,Trustworthy","","null","","","","decisionFB","","<div class='trialDiv'><img src='Fruit/lime.png'><br><font class='baseline'><strong>Limin' Large</strong><p>Choose number of points to bet.</font><div class='respPicDiv'><img src='img/responseButtonOffersNo0L4.png' class='respPic'></div></div>","null","7","Limin' Large","Fruit/lime.png","Lost","0.65,0.2","14","0.65","87","21","",""
"html-keyboard-response","72","99526","0.0-11.0-3.20","63d7a8a2591096e22405d64a","bdp_rwlrn","Wed Mar 15 2023 13:26:10 GMT-0600 (Mountain Daylight Time)","290262","Untrustworthy,Trustworthy","","null","","","","feedback","","<div class='respPicDiv'><img src='img/responseButtonOffersNo0_wht.png' class='respPic'></div><div class='trialDiv'><img src='Fruit/lime.png'><br><font class='baseline'><strong>Limin' Large</strong><p><strong><font class='negOutcome'>You LOST</font><p>You bet: 4</strong></font> &nbsp; &nbsp; &nbsp; &nbsp; &nbsp; &nbsp;<font class='negOutcome'>You receive: <strong>0</strong></font></div>","null","7","Limin' Large","Fruit/lime.png","Lost","0.65,0.2","14","0.65","87","21","",""
"html-keyboard-response","73","99548","0.0-11.0-1.21","63d7a8a2591096e22405d64a","bdp_rwlrn","Wed Mar 15 2023 13:26:10 GMT-0600 (Mountain Daylight Time)","290262","Untrustworthy,Trustworthy","","21","","","","decision","","<div class='trialDiv'><img src='Fruit/bananas.png'><br><font class='baseline'><strong>Banana Bonanza</strong><p>Choose number of points to bet.</font><div class='respPicDiv'><img src='img/responseButtonOffersNo0L.png' class='respPic'></div></div>","4","8","Banana Bonanza","Fruit/bananas.png","Won","0.35,0.8","8","0.35","92","22","",""
"html-keyboard-response","74","99798","0.0-11.0-2.21","63d7a8a2591096e22405d64a","bdp_rwlrn","Wed Mar 15 2023 13:26:10 GMT-0600 (Mountain Daylight Time)","290262","Untrustworthy,Trustworthy","","null","","","","decisionFB","","<div class='trialDiv'><img src='Fruit/bananas.png'><br><font class='baseline'><strong>Banana Bonanza</strong><p>Choose number of points to bet.</font><div class='respPicDiv'><img src='img/responseButtonOffersNo0L4.png' class='respPic'></div></div>","null","8","Banana Bonanza","Fruit/bananas.png","Won","0.35,0.8","8","0.35","88","22","",""
"html-keyboard-response","75","100800","0.0-11.0-3.21","63d7a8a2591096e22405d64a","bdp_rwlrn","Wed Mar 15 2023 13:26:10 GMT-0600 (Mountain Daylight Time)","290262","Untrustworthy,Trustworthy","","null","","","","feedback","","<div class='respPicDiv'><img src='img/responseButtonOffersNo0_wht.png' class='respPic'></div><div class='trialDiv'><img src='Fruit/bananas.png'><br><font class='baseline'><strong>Banana Bonanza</strong><p><strong><font class='posOutcome'>You WON</font><p>You bet: 4</strong></font> &nbsp; &nbsp; &nbsp; &nbsp; &nbsp; &nbsp;<font class='posOutcome'>you receive: <strong>8</strong></font></div>","null","8","Banana Bonanza","Fruit/bananas.png","Won","0.35,0.8","8","0.35","96","22","",""
"html-keyboard-response","76","100987","0.0-11.0-1.22","63d7a8a2591096e22405d64a","bdp_rwlrn","Wed Mar 15 2023 13:26:10 GMT-0600 (Mountain Daylight Time)","290262","Untrustworthy,Trustworthy","","186","","","","decision","","<div class='trialDiv'><img src='Fruit/watermelon.png'><br><font class='baseline'><strong>Watermelon Win$</strong><p>Choose number of points to bet.</font><div class='respPicDiv'><img src='img/responseButtonOffersNo0L.png' class='respPic'></div></div>","3","8","Watermelon Win$","Fruit/watermelon.png","Lost","0.2,0.8","10","0.2","101","23","",""
"html-keyboard-response","77","101239","0.0-11.0-2.22","63d7a8a2591096e22405d64a","bdp_rwlrn","Wed Mar 15 2023 13:26:10 GMT-0600 (Mountain Daylight Time)","290262","Untrustworthy,Trustworthy","","null","","","","decisionFB","","<div class='trialDiv'><img src='Fruit/watermelon.png'><br><font class='baseline'><strong>Watermelon Win$</strong><p>Choose number of points to bet.</font><div class='respPicDiv'><img src='img/responseButtonOffersNo0L3.png' class='respPic'></div></div>","null","8","Watermelon Win$","Fruit/watermelon.png","Lost","0.2,0.8","10","0.2","98","23","",""
"html-keyboard-response","78","102240","0.0-11.0-3.22","63d7a8a2591096e22405d64a","bdp_rwlrn","Wed Mar 15 2023 13:26:10 GMT-0600 (Mountain Daylight Time)","290262","Untrustworthy,Trustworthy","","null","","","","feedback","","<div class='respPicDiv'><img src='img/responseButtonOffersNo0_wht.png' class='respPic'></div><div class='trialDiv'><img src='Fruit/watermelon.png'><br><font class='baseline'><strong>Watermelon Win$</strong><p><strong><font class='negOutcome'>You LOST</font><p>You bet: 3</strong></font> &nbsp; &nbsp; &nbsp; &nbsp; &nbsp; &nbsp;<font class='negOutcome'>You receive: <strong>0</strong></font></div>","null","8","Watermelon Win$","Fruit/watermelon.png","Lost","0.2,0.8","10","0.2","98","23","",""
"html-keyboard-response","79","102605","0.0-11.0-1.23","63d7a8a2591096e22405d64a","bdp_rwlrn","Wed Mar 15 2023 13:26:10 GMT-0600 (Mountain Daylight Time)","290262","Untrustworthy,Trustworthy","","365","","","","decision","","<div class='trialDiv'><img src='Fruit/lime.png'><br><font class='baseline'><strong>Limin' Large</strong><p>Choose number of points to bet.</font><div class='respPicDiv'><img src='img/responseButtonOffersNo0L.png' class='respPic'></div></div>","2","8","Limin' Large","Fruit/lime.png","Won","0.65,0.2","14","0.65","103","24","",""
"html-keyboard-response","80","102856","0.0-11.0-2.23","63d7a8a2591096e22405d64a","bdp_rwlrn","Wed Mar 15 2023 13:26:10 GMT-0600 (Mountain Daylight Time)","290262","Untrustworthy,Trustworthy","","null","","","","decisionFB","","<div class='trialDiv'><img src='Fruit/lime.png'><br><font class='baseline'><strong>Limin' Large</strong><p>Choose number of points to bet.</font><div class='respPicDiv'><img src='img/responseButtonOffersNo0L2.png' class='respPic'></div></div>","null","8","Limin' Large","Fruit/lime.png","Won","0.65,0.2","14","0.65","101","24","",""
"html-keyboard-response","81","103858","0.0-11.0-3.23","63d7a8a2591096e22405d64a","bdp_rwlrn","Wed Mar 15 2023 13:26:10 GMT-0600 (Mountain Daylight Time)","290262","Untrustworthy,Trustworthy","","null","","","","feedback","","<div class='respPicDiv'><img src='img/responseButtonOffersNo0_wht.png' class='respPic'></div><div class='trialDiv'><img src='Fruit/lime.png'><br><font class='baseline'><strong>Limin' Large</strong><p><strong><font class='posOutcome'>You WON</font><p>You bet: 2</strong></font> &nbsp; &nbsp; &nbsp; &nbsp; &nbsp; &nbsp;<font class='posOutcome'>you receive: <strong>4</strong></font></div>","null","8","Limin' Large","Fruit/lime.png","Won","0.65,0.2","14","0.65","105","24","",""
"html-keyboard-response","82","104118","0.0-11.0-1.24","63d7a8a2591096e22405d64a","bdp_rwlrn","Wed Mar 15 2023 13:26:10 GMT-0600 (Mountain Daylight Time)","290262","Untrustworthy,Trustworthy","","259","","","","decision","","<div class='trialDiv'><img src='Fruit/bananas.png'><br><font class='baseline'><strong>Banana Bonanza</strong><p>Choose number of points to bet.</font><div class='respPicDiv'><img src='img/responseButtonOffersNo0L.png' class='respPic'></div></div>","3","9","Banana Bonanza","Fruit/bananas.png","Lost","0.35,0.8","8","0.35","110","25","",""
"html-keyboard-response","83","104370","0.0-11.0-2.24","63d7a8a2591096e22405d64a","bdp_rwlrn","Wed Mar 15 2023 13:26:10 GMT-0600 (Mountain Daylight Time)","290262","Untrustworthy,Trustworthy","","null","","","","decisionFB","","<div class='trialDiv'><img src='Fruit/bananas.png'><br><font class='baseline'><strong>Banana Bonanza</strong><p>Choose number of points to bet.</font><div class='respPicDiv'><img src='img/responseButtonOffersNo0L3.png' class='respPic'></div></div>","null","9","Banana Bonanza","Fruit/bananas.png","Lost","0.35,0.8","8","0.35","107","25","",""
"html-keyboard-response","84","105372","0.0-11.0-3.24","63d7a8a2591096e22405d64a","bdp_rwlrn","Wed Mar 15 2023 13:26:10 GMT-0600 (Mountain Daylight Time)","290262","Untrustworthy,Trustworthy","","null","","","","feedback","","<div class='respPicDiv'><img src='img/responseButtonOffersNo0_wht.png' class='respPic'></div><div class='trialDiv'><img src='Fruit/bananas.png'><br><font class='baseline'><strong>Banana Bonanza</strong><p><strong><font class='negOutcome'>You LOST</font><p>You bet: 3</strong></font> &nbsp; &nbsp; &nbsp; &nbsp; &nbsp; &nbsp;<font class='negOutcome'>You receive: <strong>0</strong></font></div>","null","9","Banana Bonanza","Fruit/bananas.png","Lost","0.35,0.8","8","0.35","107","25","",""
"html-keyboard-response","85","105463","0.0-11.0-1.25","63d7a8a2591096e22405d64a","bdp_rwlrn","Wed Mar 15 2023 13:26:10 GMT-0600 (Mountain Daylight Time)","290262","Untrustworthy,Trustworthy","","90","","","","decision","","<div class='trialDiv'><img src='Fruit/lime.png'><br><font class='baseline'><strong>Limin' Large</strong><p>Choose number of points to bet.</font><div class='respPicDiv'><img src='img/responseButtonOffersNo0L.png' class='respPic'></div></div>","4","9","Limin' Large","Fruit/lime.png","Lost","0.65,0.2","14","0.65","112","26","",""
"html-keyboard-response","86","105715","0.0-11.0-2.25","63d7a8a2591096e22405d64a","bdp_rwlrn","Wed Mar 15 2023 13:26:10 GMT-0600 (Mountain Daylight Time)","290262","Untrustworthy,Trustworthy","","null","","","","decisionFB","","<div class='trialDiv'><img src='Fruit/lime.png'><br><font class='baseline'><strong>Limin' Large</strong><p>Choose number of points to bet.</font><div class='respPicDiv'><img src='img/responseButtonOffersNo0L4.png' class='respPic'></div></div>","null","9","Limin' Large","Fruit/lime.png","Lost","0.65,0.2","14","0.65","108","26","",""
"html-keyboard-response","87","106716","0.0-11.0-3.25","63d7a8a2591096e22405d64a","bdp_rwlrn","Wed Mar 15 2023 13:26:10 GMT-0600 (Mountain Daylight Time)","290262","Untrustworthy,Trustworthy","","null","","","","feedback","","<div class='respPicDiv'><img src='img/responseButtonOffersNo0_wht.png' class='respPic'></div><div class='trialDiv'><img src='Fruit/lime.png'><br><font class='baseline'><strong>Limin' Large</strong><p><strong><font class='negOutcome'>You LOST</font><p>You bet: 4</strong></font> &nbsp; &nbsp; &nbsp; &nbsp; &nbsp; &nbsp;<font class='negOutcome'>You receive: <strong>0</strong></font></div>","null","9","Limin' Large","Fruit/lime.png","Lost","0.65,0.2","14","0.65","108","26","",""
"html-keyboard-response","88","106898","0.0-11.0-1.26","63d7a8a2591096e22405d64a","bdp_rwlrn","Wed Mar 15 2023 13:26:10 GMT-0600 (Mountain Daylight Time)","290262","Untrustworthy,Trustworthy","","182","","","","decision","","<div class='trialDiv'><img src='Fruit/watermelon.png'><br><font class='baseline'><strong>Watermelon Win$</strong><p>Choose number of points to bet.</font><div class='respPicDiv'><img src='img/responseButtonOffersNo0L.png' class='respPic'></div></div>","1","9","Watermelon Win$","Fruit/watermelon.png","Won","0.2,0.8","10","0.2","113","27","",""
"html-keyboard-response","89","107149","0.0-11.0-2.26","63d7a8a2591096e22405d64a","bdp_rwlrn","Wed Mar 15 2023 13:26:10 GMT-0600 (Mountain Daylight Time)","290262","Untrustworthy,Trustworthy","","null","","","","decisionFB","","<div class='trialDiv'><img src='Fruit/watermelon.png'><br><font class='baseline'><strong>Watermelon Win$</strong><p>Choose number of points to bet.</font><div class='respPicDiv'><img src='img/responseButtonOffersNo0L1.png' class='respPic'></div></div>","null","9","Watermelon Win$","Fruit/watermelon.png","Won","0.2,0.8","10","0.2","112","27","",""
"html-keyboard-response","90","108152","0.0-11.0-3.26","63d7a8a2591096e22405d64a","bdp_rwlrn","Wed Mar 15 2023 13:26:10 GMT-0600 (Mountain Daylight Time)","290262","Untrustworthy,Trustworthy","","null","","","","feedback","","<div class='respPicDiv'><img src='img/responseButtonOffersNo0_wht.png' class='respPic'></div><div class='trialDiv'><img src='Fruit/watermelon.png'><br><font class='baseline'><strong>Watermelon Win$</strong><p><strong><font class='posOutcome'>You WON</font><p>You bet: 1</strong></font> &nbsp; &nbsp; &nbsp; &nbsp; &nbsp; &nbsp;<font class='posOutcome'>you receive: <strong>2</strong></font></div>","null","9","Watermelon Win$","Fruit/watermelon.png","Won","0.2,0.8","10","0.2","114","27","",""
"html-keyboard-response","91","108296","0.0-11.0-1.27","63d7a8a2591096e22405d64a","bdp_rwlrn","Wed Mar 15 2023 13:26:10 GMT-0600 (Mountain Daylight Time)","290262","Untrustworthy,Trustworthy","","143","","","","decision","","<div class='trialDiv'><img src='Fruit/lime.png'><br><font class='baseline'><strong>Limin' Large</strong><p>Choose number of points to bet.</font><div class='respPicDiv'><img src='img/responseButtonOffersNo0L.png' class='respPic'></div></div>","1","10","Limin' Large","Fruit/lime.png","Won","0.65,0.2","14","0.65","119","28","",""
"html-keyboard-response","92","108548","0.0-11.0-2.27","63d7a8a2591096e22405d64a","bdp_rwlrn","Wed Mar 15 2023 13:26:10 GMT-0600 (Mountain Daylight Time)","290262","Untrustworthy,Trustworthy","","null","","","","decisionFB","","<div class='trialDiv'><img src='Fruit/lime.png'><br><font class='baseline'><strong>Limin' Large</strong><p>Choose number of points to bet.</font><div class='respPicDiv'><img src='img/responseButtonOffersNo0L1.png' class='respPic'></div></div>","null","10","Limin' Large","Fruit/lime.png","Won","0.65,0.2","14","0.65","118","28","",""
"html-keyboard-response","93","109549","0.0-11.0-3.27","63d7a8a2591096e22405d64a","bdp_rwlrn","Wed Mar 15 2023 13:26:10 GMT-0600 (Mountain Daylight Time)","290262","Untrustworthy,Trustworthy","","null","","","","feedback","","<div class='respPicDiv'><img src='img/responseButtonOffersNo0_wht.png' class='respPic'></div><div class='trialDiv'><img src='Fruit/lime.png'><br><font class='baseline'><strong>Limin' Large</strong><p><strong><font class='posOutcome'>You WON</font><p>You bet: 1</strong></font> &nbsp; &nbsp; &nbsp; &nbsp; &nbsp; &nbsp;<font class='posOutcome'>you receive: <strong>2</strong></font></div>","null","10","Limin' Large","Fruit/lime.png","Won","0.65,0.2","14","0.65","120","28","",""
"html-keyboard-response","94","109664","0.0-11.0-1.28","63d7a8a2591096e22405d64a","bdp_rwlrn","Wed Mar 15 2023 13:26:10 GMT-0600 (Mountain Daylight Time)","290262","Untrustworthy,Trustworthy","","114","","","","decision","","<div class='trialDiv'><img src='Fruit/bananas.png'><br><font class='baseline'><strong>Banana Bonanza</strong><p>Choose number of points to bet.</font><div class='respPicDiv'><img src='img/responseButtonOffersNo0L.png' class='respPic'></div></div>","2","10","Banana Bonanza","Fruit/bananas.png","Lost","0.35,0.8","8","0.35","125","29","",""
"html-keyboard-response","95","109916","0.0-11.0-2.28","63d7a8a2591096e22405d64a","bdp_rwlrn","Wed Mar 15 2023 13:26:10 GMT-0600 (Mountain Daylight Time)","290262","Untrustworthy,Trustworthy","","null","","","","decisionFB","","<div class='trialDiv'><img src='Fruit/bananas.png'><br><font class='baseline'><strong>Banana Bonanza</strong><p>Choose number of points to bet.</font><div class='respPicDiv'><img src='img/responseButtonOffersNo0L2.png' class='respPic'></div></div>","null","10","Banana Bonanza","Fruit/bananas.png","Lost","0.35,0.8","8","0.35","123","29","",""
"html-keyboard-response","96","110918","0.0-11.0-3.28","63d7a8a2591096e22405d64a","bdp_rwlrn","Wed Mar 15 2023 13:26:10 GMT-0600 (Mountain Daylight Time)","290262","Untrustworthy,Trustworthy","","null","","","","feedback","","<div class='respPicDiv'><img src='img/responseButtonOffersNo0_wht.png' class='respPic'></div><div class='trialDiv'><img src='Fruit/bananas.png'><br><font class='baseline'><strong>Banana Bonanza</strong><p><strong><font class='negOutcome'>You LOST</font><p>You bet: 2</strong></font> &nbsp; &nbsp; &nbsp; &nbsp; &nbsp; &nbsp;<font class='negOutcome'>You receive: <strong>0</strong></font></div>","null","10","Banana Bonanza","Fruit/bananas.png","Lost","0.35,0.8","8","0.35","123","29","",""
"html-keyboard-response","97","111309","0.0-11.0-1.29","63d7a8a2591096e22405d64a","bdp_rwlrn","Wed Mar 15 2023 13:26:10 GMT-0600 (Mountain Daylight Time)","290262","Untrustworthy,Trustworthy","","391","","","","decision","","<div class='trialDiv'><img src='Fruit/watermelon.png'><br><font class='baseline'><strong>Watermelon Win$</strong><p>Choose number of points to bet.</font><div class='respPicDiv'><img src='img/responseButtonOffersNo0L.png' class='respPic'></div></div>","1","10","Watermelon Win$","Fruit/watermelon.png","Won","0.2,0.8","10","0.2","128","30","",""
"html-keyboard-response","98","111562","0.0-11.0-2.29","63d7a8a2591096e22405d64a","bdp_rwlrn","Wed Mar 15 2023 13:26:10 GMT-0600 (Mountain Daylight Time)","290262","Untrustworthy,Trustworthy","","null","","","","decisionFB","","<div class='trialDiv'><img src='Fruit/watermelon.png'><br><font class='baseline'><strong>Watermelon Win$</strong><p>Choose number of points to bet.</font><div class='respPicDiv'><img src='img/responseButtonOffersNo0L1.png' class='respPic'></div></div>","null","10","Watermelon Win$","Fruit/watermelon.png","Won","0.2,0.8","10","0.2","127","30","",""
"html-keyboard-response","99","112563","0.0-11.0-3.29","63d7a8a2591096e22405d64a","bdp_rwlrn","Wed Mar 15 2023 13:26:10 GMT-0600 (Mountain Daylight Time)","290262","Untrustworthy,Trustworthy","","null","","","","feedback","","<div class='respPicDiv'><img src='img/responseButtonOffersNo0_wht.png' class='respPic'></div><div class='trialDiv'><img src='Fruit/watermelon.png'><br><font class='baseline'><strong>Watermelon Win$</strong><p><strong><font class='posOutcome'>You WON</font><p>You bet: 1</strong></font> &nbsp; &nbsp; &nbsp; &nbsp; &nbsp; &nbsp;<font class='posOutcome'>you receive: <strong>2</strong></font></div>","null","10","Watermelon Win$","Fruit/watermelon.png","Won","0.2,0.8","10","0.2","129","30","",""
"html-keyboard-response","100","112814","0.0-11.0-1.30","63d7a8a2591096e22405d64a","bdp_rwlrn","Wed Mar 15 2023 13:26:10 GMT-0600 (Mountain Daylight Time)","290262","Untrustworthy,Trustworthy","","250","","","","decision","","<div class='trialDiv'><img src='Fruit/bananas.png'><br><font class='baseline'><strong>Banana Bonanza</strong><p>Choose number of points to bet.</font><div class='respPicDiv'><img src='img/responseButtonOffersNo0L.png' class='respPic'></div></div>","1","11","Banana Bonanza","Fruit/bananas.png","Won","0.35,0.8","8","0.35","134","31","",""
"html-keyboard-response","101","113066","0.0-11.0-2.30","63d7a8a2591096e22405d64a","bdp_rwlrn","Wed Mar 15 2023 13:26:10 GMT-0600 (Mountain Daylight Time)","290262","Untrustworthy,Trustworthy","","null","","","","decisionFB","","<div class='trialDiv'><img src='Fruit/bananas.png'><br><font class='baseline'><strong>Banana Bonanza</strong><p>Choose number of points to bet.</font><div class='respPicDiv'><img src='img/responseButtonOffersNo0L1.png' class='respPic'></div></div>","null","11","Banana Bonanza","Fruit/bananas.png","Won","0.35,0.8","8","0.35","133","31","",""
"html-keyboard-response","102","114067","0.0-11.0-3.30","63d7a8a2591096e22405d64a","bdp_rwlrn","Wed Mar 15 2023 13:26:10 GMT-0600 (Mountain Daylight Time)","290262","Untrustworthy,Trustworthy","","null","","","","feedback","","<div class='respPicDiv'><img src='img/responseButtonOffersNo0_wht.png' class='respPic'></div><div class='trialDiv'><img src='Fruit/bananas.png'><br><font class='baseline'><strong>Banana Bonanza</strong><p><strong><font class='posOutcome'>You WON</font><p>You bet: 1</strong></font> &nbsp; &nbsp; &nbsp; &nbsp; &nbsp; &nbsp;<font class='posOutcome'>you receive: <strong>2</strong></font></div>","null","11","Banana Bonanza","Fruit/bananas.png","Won","0.35,0.8","8","0.35","135","31","",""
"html-keyboard-response","103","114417","0.0-11.0-1.31","63d7a8a2591096e22405d64a","bdp_rwlrn","Wed Mar 15 2023 13:26:10 GMT-0600 (Mountain Daylight Time)","290262","Untrustworthy,Trustworthy","","348","","","","decision","","<div class='trialDiv'><img src='Fruit/watermelon.png'><br><font class='baseline'><strong>Watermelon Win$</strong><p>Choose number of points to bet.</font><div class='respPicDiv'><img src='img/responseButtonOffersNo0L.png' class='respPic'></div></div>","1","11","Watermelon Win$","Fruit/watermelon.png","Won","0.2,0.8","10","0.2","140","32","",""
"html-keyboard-response","104","114667","0.0-11.0-2.31","63d7a8a2591096e22405d64a","bdp_rwlrn","Wed Mar 15 2023 13:26:10 GMT-0600 (Mountain Daylight Time)","290262","Untrustworthy,Trustworthy","","null","","","","decisionFB","","<div class='trialDiv'><img src='Fruit/watermelon.png'><br><font class='baseline'><strong>Watermelon Win$</strong><p>Choose number of points to bet.</font><div class='respPicDiv'><img src='img/responseButtonOffersNo0L1.png' class='respPic'></div></div>","null","11","Watermelon Win$","Fruit/watermelon.png","Won","0.2,0.8","10","0.2","139","32","",""
"html-keyboard-response","105","115669","0.0-11.0-3.31","63d7a8a2591096e22405d64a","bdp_rwlrn","Wed Mar 15 2023 13:26:10 GMT-0600 (Mountain Daylight Time)","290262","Untrustworthy,Trustworthy","","null","","","","feedback","","<div class='respPicDiv'><img src='img/responseButtonOffersNo0_wht.png' class='respPic'></div><div class='trialDiv'><img src='Fruit/watermelon.png'><br><font class='baseline'><strong>Watermelon Win$</strong><p><strong><font class='posOutcome'>You WON</font><p>You bet: 1</strong></font> &nbsp; &nbsp; &nbsp; &nbsp; &nbsp; &nbsp;<font class='posOutcome'>you receive: <strong>2</strong></font></div>","null","11","Watermelon Win$","Fruit/watermelon.png","Won","0.2,0.8","10","0.2","141","32","",""
"html-keyboard-response","106","115873","0.0-11.0-1.32","63d7a8a2591096e22405d64a","bdp_rwlrn","Wed Mar 15 2023 13:26:10 GMT-0600 (Mountain Daylight Time)","290262","Untrustworthy,Trustworthy","","204","","","","decision","","<div class='trialDiv'><img src='Fruit/lime.png'><br><font class='baseline'><strong>Limin' Large</strong><p>Choose number of points to bet.</font><div class='respPicDiv'><img src='img/responseButtonOffersNo0L.png' class='respPic'></div></div>","5","11","Limin' Large","Fruit/lime.png","Won","0.65,0.2","14","0.65","146","33","",""
"html-keyboard-response","107","116124","0.0-11.0-2.32","63d7a8a2591096e22405d64a","bdp_rwlrn","Wed Mar 15 2023 13:26:10 GMT-0600 (Mountain Daylight Time)","290262","Untrustworthy,Trustworthy","","null","","","","decisionFB","","<div class='trialDiv'><img src='Fruit/lime.png'><br><font class='baseline'><strong>Limin' Large</strong><p>Choose number of points to bet.</font><div class='respPicDiv'><img src='img/responseButtonOffersNo0L5.png' class='respPic'></div></div>","null","11","Limin' Large","Fruit/lime.png","Won","0.65,0.2","14","0.65","141","33","",""
"html-keyboard-response","108","117126","0.0-11.0-3.32","63d7a8a2591096e22405d64a","bdp_rwlrn","Wed Mar 15 2023 13:26:10 GMT-0600 (Mountain Daylight Time)","290262","Untrustworthy,Trustworthy","","null","","","","feedback","","<div class='respPicDiv'><img src='img/responseButtonOffersNo0_wht.png' class='respPic'></div><div class='trialDiv'><img src='Fruit/lime.png'><br><font class='baseline'><strong>Limin' Large</strong><p><strong><font class='posOutcome'>You WON</font><p>You bet: 5</strong></font> &nbsp; &nbsp; &nbsp; &nbsp; &nbsp; &nbsp;<font class='posOutcome'>you receive: <strong>10</strong></font></div>","null","11","Limin' Large","Fruit/lime.png","Won","0.65,0.2","14","0.65","151","33","",""
"html-keyboard-response","109","117383","0.0-11.0-1.33","63d7a8a2591096e22405d64a","bdp_rwlrn","Wed Mar 15 2023 13:26:10 GMT-0600 (Mountain Daylight Time)","290262","Untrustworthy,Trustworthy","","256","","","","decision","","<div class='trialDiv'><img src='Fruit/bananas.png'><br><font class='baseline'><strong>Banana Bonanza</strong><p>Choose number of points to bet.</font><div class='respPicDiv'><img src='img/responseButtonOffersNo0L.png' class='respPic'></div></div>","1","12","Banana Bonanza","Fruit/bananas.png","Won","0.35,0.8","8","0.35","156","34","",""
"html-keyboard-response","110","117635","0.0-11.0-2.33","63d7a8a2591096e22405d64a","bdp_rwlrn","Wed Mar 15 2023 13:26:10 GMT-0600 (Mountain Daylight Time)","290262","Untrustworthy,Trustworthy","","null","","","","decisionFB","","<div class='trialDiv'><img src='Fruit/bananas.png'><br><font class='baseline'><strong>Banana Bonanza</strong><p>Choose number of points to bet.</font><div class='respPicDiv'><img src='img/responseButtonOffersNo0L1.png' class='respPic'></div></div>","null","12","Banana Bonanza","Fruit/bananas.png","Won","0.35,0.8","8","0.35","155","34","",""
"html-keyboard-response","111","118636","0.0-11.0-3.33","63d7a8a2591096e22405d64a","bdp_rwlrn","Wed Mar 15 2023 13:26:10 GMT-0600 (Mountain Daylight Time)","290262","Untrustworthy,Trustworthy","","null","","","","feedback","","<div class='respPicDiv'><img src='img/responseButtonOffersNo0_wht.png' class='respPic'></div><div class='trialDiv'><img src='Fruit/bananas.png'><br><font class='baseline'><strong>Banana Bonanza</strong><p><strong><font class='posOutcome'>You WON</font><p>You bet: 1</strong></font> &nbsp; &nbsp; &nbsp; &nbsp; &nbsp; &nbsp;<font class='posOutcome'>you receive: <strong>2</strong></font></div>","null","12","Banana Bonanza","Fruit/bananas.png","Won","0.35,0.8","8","0.35","157","34","",""
"html-keyboard-response","112","118722","0.0-11.0-1.34","63d7a8a2591096e22405d64a","bdp_rwlrn","Wed Mar 15 2023 13:26:10 GMT-0600 (Mountain Daylight Time)","290262","Untrustworthy,Trustworthy","","85","","","","decision","","<div class='trialDiv'><img src='Fruit/lime.png'><br><font class='baseline'><strong>Limin' Large</strong><p>Choose number of points to bet.</font><div class='respPicDiv'><img src='img/responseButtonOffersNo0L.png' class='respPic'></div></div>","2","12","Limin' Large","Fruit/lime.png","Won","0.65,0.2","14","0.65","162","35","",""
"html-keyboard-response","113","118973","0.0-11.0-2.34","63d7a8a2591096e22405d64a","bdp_rwlrn","Wed Mar 15 2023 13:26:10 GMT-0600 (Mountain Daylight Time)","290262","Untrustworthy,Trustworthy","","null","","","","decisionFB","","<div class='trialDiv'><img src='Fruit/lime.png'><br><font class='baseline'><strong>Limin' Large</strong><p>Choose number of points to bet.</font><div class='respPicDiv'><img src='img/responseButtonOffersNo0L2.png' class='respPic'></div></div>","null","12","Limin' Large","Fruit/lime.png","Won","0.65,0.2","14","0.65","160","35","",""
"html-keyboard-response","114","119975","0.0-11.0-3.34","63d7a8a2591096e22405d64a","bdp_rwlrn","Wed Mar 15 2023 13:26:10 GMT-0600 (Mountain Daylight Time)","290262","Untrustworthy,Trustworthy","","null","","","","feedback","","<div class='respPicDiv'><img src='img/responseButtonOffersNo0_wht.png' class='respPic'></div><div class='trialDiv'><img src='Fruit/lime.png'><br><font class='baseline'><strong>Limin' Large</strong><p><strong><font class='posOutcome'>You WON</font><p>You bet: 2</strong></font> &nbsp; &nbsp; &nbsp; &nbsp; &nbsp; &nbsp;<font class='posOutcome'>you receive: <strong>4</strong></font></div>","null","12","Limin' Large","Fruit/lime.png","Won","0.65,0.2","14","0.65","164","35","",""
"html-keyboard-response","115","120845","0.0-11.0-1.35","63d7a8a2591096e22405d64a","bdp_rwlrn","Wed Mar 15 2023 13:26:10 GMT-0600 (Mountain Daylight Time)","290262","Untrustworthy,Trustworthy","","869","","","","decision","","<div class='trialDiv'><img src='Fruit/watermelon.png'><br><font class='baseline'><strong>Watermelon Win$</strong><p>Choose number of points to bet.</font><div class='respPicDiv'><img src='img/responseButtonOffersNo0L.png' class='respPic'></div></div>","1","12","Watermelon Win$","Fruit/watermelon.png","Won","0.2,0.8","10","0.2","169","36","",""
"html-keyboard-response","116","121098","0.0-11.0-2.35","63d7a8a2591096e22405d64a","bdp_rwlrn","Wed Mar 15 2023 13:26:10 GMT-0600 (Mountain Daylight Time)","290262","Untrustworthy,Trustworthy","","null","","","","decisionFB","","<div class='trialDiv'><img src='Fruit/watermelon.png'><br><font class='baseline'><strong>Watermelon Win$</strong><p>Choose number of points to bet.</font><div class='respPicDiv'><img src='img/responseButtonOffersNo0L1.png' class='respPic'></div></div>","null","12","Watermelon Win$","Fruit/watermelon.png","Won","0.2,0.8","10","0.2","168","36","",""
"html-keyboard-response","117","122099","0.0-11.0-3.35","63d7a8a2591096e22405d64a","bdp_rwlrn","Wed Mar 15 2023 13:26:10 GMT-0600 (Mountain Daylight Time)","290262","Untrustworthy,Trustworthy","","null","","","","feedback","","<div class='respPicDiv'><img src='img/responseButtonOffersNo0_wht.png' class='respPic'></div><div class='trialDiv'><img src='Fruit/watermelon.png'><br><font class='baseline'><strong>Watermelon Win$</strong><p><strong><font class='posOutcome'>You WON</font><p>You bet: 1</strong></font> &nbsp; &nbsp; &nbsp; &nbsp; &nbsp; &nbsp;<font class='posOutcome'>you receive: <strong>2</strong></font></div>","null","12","Watermelon Win$","Fruit/watermelon.png","Won","0.2,0.8","10","0.2","170","36","",""
"html-keyboard-response","118","122275","0.0-11.0-1.36","63d7a8a2591096e22405d64a","bdp_rwlrn","Wed Mar 15 2023 13:26:10 GMT-0600 (Mountain Daylight Time)","290262","Untrustworthy,Trustworthy","","174","","","","decision","","<div class='trialDiv'><img src='Fruit/lime.png'><br><font class='baseline'><strong>Limin' Large</strong><p>Choose number of points to bet.</font><div class='respPicDiv'><img src='img/responseButtonOffersNo0L.png' class='respPic'></div></div>","2","13","Limin' Large","Fruit/lime.png","Won","0.65,0.2","14","0.65","175","37","",""
"html-keyboard-response","119","122526","0.0-11.0-2.36","63d7a8a2591096e22405d64a","bdp_rwlrn","Wed Mar 15 2023 13:26:10 GMT-0600 (Mountain Daylight Time)","290262","Untrustworthy,Trustworthy","","null","","","","decisionFB","","<div class='trialDiv'><img src='Fruit/lime.png'><br><font class='baseline'><strong>Limin' Large</strong><p>Choose number of points to bet.</font><div class='respPicDiv'><img src='img/responseButtonOffersNo0L2.png' class='respPic'></div></div>","null","13","Limin' Large","Fruit/lime.png","Won","0.65,0.2","14","0.65","173","37","",""
"html-keyboard-response","120","123528","0.0-11.0-3.36","63d7a8a2591096e22405d64a","bdp_rwlrn","Wed Mar 15 2023 13:26:10 GMT-0600 (Mountain Daylight Time)","290262","Untrustworthy,Trustworthy","","null","","","","feedback","","<div class='respPicDiv'><img src='img/responseButtonOffersNo0_wht.png' class='respPic'></div><div class='trialDiv'><img src='Fruit/lime.png'><br><font class='baseline'><strong>Limin' Large</strong><p><strong><font class='posOutcome'>You WON</font><p>You bet: 2</strong></font> &nbsp; &nbsp; &nbsp; &nbsp; &nbsp; &nbsp;<font class='posOutcome'>you receive: <strong>4</strong></font></div>","null","13","Limin' Large","Fruit/lime.png","Won","0.65,0.2","14","0.65","177","37","",""
"html-keyboard-response","121","123548","0.0-11.0-1.37","63d7a8a2591096e22405d64a","bdp_rwlrn","Wed Mar 15 2023 13:26:10 GMT-0600 (Mountain Daylight Time)","290262","Untrustworthy,Trustworthy","","19","","","","decision","","<div class='trialDiv'><img src='Fruit/watermelon.png'><br><font class='baseline'><strong>Watermelon Win$</strong><p>Choose number of points to bet.</font><div class='respPicDiv'><img src='img/responseButtonOffersNo0L.png' class='respPic'></div></div>","3","13","Watermelon Win$","Fruit/watermelon.png","Won","0.2,0.8","10","0.2","182","38","",""
"html-keyboard-response","122","123799","0.0-11.0-2.37","63d7a8a2591096e22405d64a","bdp_rwlrn","Wed Mar 15 2023 13:26:10 GMT-0600 (Mountain Daylight Time)","290262","Untrustworthy,Trustworthy","","null","","","","decisionFB","","<div class='trialDiv'><img src='Fruit/watermelon.png'><br><font class='baseline'><strong>Watermelon Win$</strong><p>Choose number of points to bet.</font><div class='respPicDiv'><img src='img/responseButtonOffersNo0L3.png' class='respPic'></div></div>","null","13","Watermelon Win$","Fruit/watermelon.png","Won","0.2,0.8","10","0.2","179","38","",""
"html-keyboard-response","123","124801","0.0-11.0-3.37","63d7a8a2591096e22405d64a","bdp_rwlrn","Wed Mar 15 2023 13:26:10 GMT-0600 (Mountain Daylight Time)","290262","Untrustworthy,Trustworthy","","null","","","","feedback","","<div class='respPicDiv'><img src='img/responseButtonOffersNo0_wht.png' class='respPic'></div><div class='trialDiv'><img src='Fruit/watermelon.png'><br><font class='baseline'><strong>Watermelon Win$</strong><p><strong><font class='posOutcome'>You WON</font><p>You bet: 3</strong></font> &nbsp; &nbsp; &nbsp; &nbsp; &nbsp; &nbsp;<font class='posOutcome'>you receive: <strong>6</strong></font></div>","null","13","Watermelon Win$","Fruit/watermelon.png","Won","0.2,0.8","10","0.2","185","38","",""
"html-keyboard-response","124","124981","0.0-11.0-1.38","63d7a8a2591096e22405d64a","bdp_rwlrn","Wed Mar 15 2023 13:26:10 GMT-0600 (Mountain Daylight Time)","290262","Untrustworthy,Trustworthy","","180","","","","decision","","<div class='trialDiv'><img src='Fruit/bananas.png'><br><font class='baseline'><strong>Banana Bonanza</strong><p>Choose number of points to bet.</font><div class='respPicDiv'><img src='img/responseButtonOffersNo0L.png' class='respPic'></div></div>","3","13","Banana Bonanza","Fruit/bananas.png","Won","0.35,0.8","8","0.35","190","39","",""
"html-keyboard-response","125","125233","0.0-11.0-2.38","63d7a8a2591096e22405d64a","bdp_rwlrn","Wed Mar 15 2023 13:26:10 GMT-0600 (Mountain Daylight Time)","290262","Untrustworthy,Trustworthy","","null","","","","decisionFB","","<div class='trialDiv'><img src='Fruit/bananas.png'><br><font class='baseline'><strong>Banana Bonanza</strong><p>Choose number of points to bet.</font><div class='respPicDiv'><img src='img/responseButtonOffersNo0L3.png' class='respPic'></div></div>","null","13","Banana Bonanza","Fruit/bananas.png","Won","0.35,0.8","8","0.35","187","39","",""
"html-keyboard-response","126","126235","0.0-11.0-3.38","63d7a8a2591096e22405d64a","bdp_rwlrn","Wed Mar 15 2023 13:26:10 GMT-0600 (Mountain Daylight Time)","290262","Untrustworthy,Trustworthy","","null","","","","feedback","","<div class='respPicDiv'><img src='img/responseButtonOffersNo0_wht.png' class='respPic'></div><div class='trialDiv'><img src='Fruit/bananas.png'><br><font class='baseline'><strong>Banana Bonanza</strong><p><strong><font class='posOutcome'>You WON</font><p>You bet: 3</strong></font> &nbsp; &nbsp; &nbsp; &nbsp; &nbsp; &nbsp;<font class='posOutcome'>you receive: <strong>6</strong></font></div>","null","13","Banana Bonanza","Fruit/bananas.png","Won","0.35,0.8","8","0.35","193","39","",""
"html-keyboard-response","127","126427","0.0-11.0-1.39","63d7a8a2591096e22405d64a","bdp_rwlrn","Wed Mar 15 2023 13:26:10 GMT-0600 (Mountain Daylight Time)","290262","Untrustworthy,Trustworthy","","192","","","","decision","","<div class='trialDiv'><img src='Fruit/lime.png'><br><font class='baseline'><strong>Limin' Large</strong><p>Choose number of points to bet.</font><div class='respPicDiv'><img src='img/responseButtonOffersNo0L.png' class='respPic'></div></div>","3","14","Limin' Large","Fruit/lime.png","Lost","0.65,0.2","14","0.65","198","40","",""
"html-keyboard-response","128","126678","0.0-11.0-2.39","63d7a8a2591096e22405d64a","bdp_rwlrn","Wed Mar 15 2023 13:26:10 GMT-0600 (Mountain Daylight Time)","290262","Untrustworthy,Trustworthy","","null","","","","decisionFB","","<div class='trialDiv'><img src='Fruit/lime.png'><br><font class='baseline'><strong>Limin' Large</strong><p>Choose number of points to bet.</font><div class='respPicDiv'><img src='img/responseButtonOffersNo0L3.png' class='respPic'></div></div>","null","14","Limin' Large","Fruit/lime.png","Lost","0.65,0.2","14","0.65","195","40","",""
"html-keyboard-response","129","127679","0.0-11.0-3.39","63d7a8a2591096e22405d64a","bdp_rwlrn","Wed Mar 15 2023 13:26:10 GMT-0600 (Mountain Daylight Time)","290262","Untrustworthy,Trustworthy","","null","","","","feedback","","<div class='respPicDiv'><img src='img/responseButtonOffersNo0_wht.png' class='respPic'></div><div class='trialDiv'><img src='Fruit/lime.png'><br><font class='baseline'><strong>Limin' Large</strong><p><strong><font class='negOutcome'>You LOST</font><p>You bet: 3</strong></font> &nbsp; &nbsp; &nbsp; &nbsp; &nbsp; &nbsp;<font class='negOutcome'>You receive: <strong>0</strong></font></div>","null","14","Limin' Large","Fruit/lime.png","Lost","0.65,0.2","14","0.65","195","40","",""
"html-keyboard-response","130","127777","0.0-11.0-1.40","63d7a8a2591096e22405d64a","bdp_rwlrn","Wed Mar 15 2023 13:26:10 GMT-0600 (Mountain Daylight Time)","290262","Untrustworthy,Trustworthy","","97","","","","decision","","<div class='trialDiv'><img src='Fruit/watermelon.png'><br><font class='baseline'><strong>Watermelon Win$</strong><p>Choose number of points to bet.</font><div class='respPicDiv'><img src='img/responseButtonOffersNo0L.png' class='respPic'></div></div>","1","14","Watermelon Win$","Fruit/watermelon.png","Won","0.2,0.8","10","0.2","200","41","",""
"html-keyboard-response","131","128030","0.0-11.0-2.40","63d7a8a2591096e22405d64a","bdp_rwlrn","Wed Mar 15 2023 13:26:10 GMT-0600 (Mountain Daylight Time)","290262","Untrustworthy,Trustworthy","","null","","","","decisionFB","","<div class='trialDiv'><img src='Fruit/watermelon.png'><br><font class='baseline'><strong>Watermelon Win$</strong><p>Choose number of points to bet.</font><div class='respPicDiv'><img src='img/responseButtonOffersNo0L1.png' class='respPic'></div></div>","null","14","Watermelon Win$","Fruit/watermelon.png","Won","0.2,0.8","10","0.2","199","41","",""
"html-keyboard-response","132","129032","0.0-11.0-3.40","63d7a8a2591096e22405d64a","bdp_rwlrn","Wed Mar 15 2023 13:26:10 GMT-0600 (Mountain Daylight Time)","290262","Untrustworthy,Trustworthy","","null","","","","feedback","","<div class='respPicDiv'><img src='img/responseButtonOffersNo0_wht.png' class='respPic'></div><div class='trialDiv'><img src='Fruit/watermelon.png'><br><font class='baseline'><strong>Watermelon Win$</strong><p><strong><font class='posOutcome'>You WON</font><p>You bet: 1</strong></font> &nbsp; &nbsp; &nbsp; &nbsp; &nbsp; &nbsp;<font class='posOutcome'>you receive: <strong>2</strong></font></div>","null","14","Watermelon Win$","Fruit/watermelon.png","Won","0.2,0.8","10","0.2","201","41","",""
"html-keyboard-response","133","129093","0.0-11.0-1.41","63d7a8a2591096e22405d64a","bdp_rwlrn","Wed Mar 15 2023 13:26:10 GMT-0600 (Mountain Daylight Time)","290262","Untrustworthy,Trustworthy","","60","","","","decision","","<div class='trialDiv'><img src='Fruit/bananas.png'><br><font class='baseline'><strong>Banana Bonanza</strong><p>Choose number of points to bet.</font><div class='respPicDiv'><img src='img/responseButtonOffersNo0L.png' class='respPic'></div></div>","2","14","Banana Bonanza","Fruit/bananas.png","Won","0.35,0.8","8","0.35","206","42","",""
"html-keyboard-response","134","129344","0.0-11.0-2.41","63d7a8a2591096e22405d64a","bdp_rwlrn","Wed Mar 15 2023 13:26:10 GMT-0600 (Mountain Daylight Time)","290262","Untrustworthy,Trustworthy","","null","","","","decisionFB","","<div class='trialDiv'><img src='Fruit/bananas.png'><br><font class='baseline'><strong>Banana Bonanza</strong><p>Choose number of points to bet.</font><div class='respPicDiv'><img src='img/responseButtonOffersNo0L2.png' class='respPic'></div></div>","null","14","Banana Bonanza","Fruit/bananas.png","Won","0.35,0.8","8","0.35","204","42","",""
"html-keyboard-response","135","130346","0.0-11.0-3.41","63d7a8a2591096e22405d64a","bdp_rwlrn","Wed Mar 15 2023 13:26:10 GMT-0600 (Mountain Daylight Time)","290262","Untrustworthy,Trustworthy","","null","","","","feedback","","<div class='respPicDiv'><img src='img/responseButtonOffersNo0_wht.png' class='respPic'></div><div class='trialDiv'><img src='Fruit/bananas.png'><br><font class='baseline'><strong>Banana Bonanza</strong><p><strong><font class='posOutcome'>You WON</font><p>You bet: 2</strong></font> &nbsp; &nbsp; &nbsp; &nbsp; &nbsp; &nbsp;<font class='posOutcome'>you receive: <strong>4</strong></font></div>","null","14","Banana Bonanza","Fruit/bananas.png","Won","0.35,0.8","8","0.35","208","42","",""
"html-keyboard-response","136","130416","0.0-11.0-1.42","63d7a8a2591096e22405d64a","bdp_rwlrn","Wed Mar 15 2023 13:26:10 GMT-0600 (Mountain Daylight Time)","290262","Untrustworthy,Trustworthy","","69","","","","decision","","<div class='trialDiv'><img src='Fruit/lime.png'><br><font class='baseline'><strong>Limin' Large</strong><p>Choose number of points to bet.</font><div class='respPicDiv'><img src='img/responseButtonOffersNo0L.png' class='respPic'></div></div>","3","15","Limin' Large","Fruit/lime.png","Won","0.65,0.2","14","0.65","213","43","",""
"html-keyboard-response","137","130668","0.0-11.0-2.42","63d7a8a2591096e22405d64a","bdp_rwlrn","Wed Mar 15 2023 13:26:10 GMT-0600 (Mountain Daylight Time)","290262","Untrustworthy,Trustworthy","","null","","","","decisionFB","","<div class='trialDiv'><img src='Fruit/lime.png'><br><font class='baseline'><strong>Limin' Large</strong><p>Choose number of points to bet.</font><div class='respPicDiv'><img src='img/responseButtonOffersNo0L3.png' class='respPic'></div></div>","null","15","Limin' Large","Fruit/lime.png","Won","0.65,0.2","14","0.65","210","43","",""
"html-keyboard-response","138","131670","0.0-11.0-3.42","63d7a8a2591096e22405d64a","bdp_rwlrn","Wed Mar 15 2023 13:26:10 GMT-0600 (Mountain Daylight Time)","290262","Untrustworthy,Trustworthy","","null","","","","feedback","","<div class='respPicDiv'><img src='img/responseButtonOffersNo0_wht.png' class='respPic'></div><div class='trialDiv'><img src='Fruit/lime.png'><br><font class='baseline'><strong>Limin' Large</strong><p><strong><font class='posOutcome'>You WON</font><p>You bet: 3</strong></font> &nbsp; &nbsp; &nbsp; &nbsp; &nbsp; &nbsp;<font class='posOutcome'>you receive: <strong>6</strong></font></div>","null","15","Limin' Large","Fruit/lime.png","Won","0.65,0.2","14","0.65","216","43","",""
"html-keyboard-response","139","132391","0.0-11.0-1.43","63d7a8a2591096e22405d64a","bdp_rwlrn","Wed Mar 15 2023 13:26:10 GMT-0600 (Mountain Daylight Time)","290262","Untrustworthy,Trustworthy","","721","","","","decision","","<div class='trialDiv'><img src='Fruit/watermelon.png'><br><font class='baseline'><strong>Watermelon Win$</strong><p>Choose number of points to bet.</font><div class='respPicDiv'><img src='img/responseButtonOffersNo0L.png' class='respPic'></div></div>","5","15","Watermelon Win$","Fruit/watermelon.png","Won","0.2,0.8","10","0.2","221","44","",""
"html-keyboard-response","140","132641","0.0-11.0-2.43","63d7a8a2591096e22405d64a","bdp_rwlrn","Wed Mar 15 2023 13:26:10 GMT-0600 (Mountain Daylight Time)","290262","Untrustworthy,Trustworthy","","null","","","","decisionFB","","<div class='trialDiv'><img src='Fruit/watermelon.png'><br><font class='baseline'><strong>Watermelon Win$</strong><p>Choose number of points to bet.</font><div class='respPicDiv'><img src='img/responseButtonOffersNo0L5.png' class='respPic'></div></div>","null","15","Watermelon Win$","Fruit/watermelon.png","Won","0.2,0.8","10","0.2","216","44","",""
"html-keyboard-response","141","133644","0.0-11.0-3.43","63d7a8a2591096e22405d64a","bdp_rwlrn","Wed Mar 15 2023 13:26:10 GMT-0600 (Mountain Daylight Time)","290262","Untrustworthy,Trustworthy","","null","","","","feedback","","<div class='respPicDiv'><img src='img/responseButtonOffersNo0_wht.png' class='respPic'></div><div class='trialDiv'><img src='Fruit/watermelon.png'><br><font class='baseline'><strong>Watermelon Win$</strong><p><strong><font class='posOutcome'>You WON</font><p>You bet: 5</strong></font> &nbsp; &nbsp; &nbsp; &nbsp; &nbsp; &nbsp;<font class='posOutcome'>you receive: <strong>10</strong></font></div>","null","15","Watermelon Win$","Fruit/watermelon.png","Won","0.2,0.8","10","0.2","226","44","",""
"html-keyboard-response","142","133757","0.0-11.0-1.44","63d7a8a2591096e22405d64a","bdp_rwlrn","Wed Mar 15 2023 13:26:10 GMT-0600 (Mountain Daylight Time)","290262","Untrustworthy,Trustworthy","","113","","","","decision","","<div class='trialDiv'><img src='Fruit/bananas.png'><br><font class='baseline'><strong>Banana Bonanza</strong><p>Choose number of points to bet.</font><div class='respPicDiv'><img src='img/responseButtonOffersNo0L.png' class='respPic'></div></div>","5","15","Banana Bonanza","Fruit/bananas.png","Won","0.35,0.8","8","0.35","231","45","",""
"html-keyboard-response","143","134008","0.0-11.0-2.44","63d7a8a2591096e22405d64a","bdp_rwlrn","Wed Mar 15 2023 13:26:10 GMT-0600 (Mountain Daylight Time)","290262","Untrustworthy,Trustworthy","","null","","","","decisionFB","","<div class='trialDiv'><img src='Fruit/bananas.png'><br><font class='baseline'><strong>Banana Bonanza</strong><p>Choose number of points to bet.</font><div class='respPicDiv'><img src='img/responseButtonOffersNo0L5.png' class='respPic'></div></div>","null","15","Banana Bonanza","Fruit/bananas.png","Won","0.35,0.8","8","0.35","226","45","",""
"html-keyboard-response","144","135010","0.0-11.0-3.44","63d7a8a2591096e22405d64a","bdp_rwlrn","Wed Mar 15 2023 13:26:10 GMT-0600 (Mountain Daylight Time)","290262","Untrustworthy,Trustworthy","","null","","","","feedback","","<div class='respPicDiv'><img src='img/responseButtonOffersNo0_wht.png' class='respPic'></div><div class='trialDiv'><img src='Fruit/bananas.png'><br><font class='baseline'><strong>Banana Bonanza</strong><p><strong><font class='posOutcome'>You WON</font><p>You bet: 5</strong></font> &nbsp; &nbsp; &nbsp; &nbsp; &nbsp; &nbsp;<font class='posOutcome'>you receive: <strong>10</strong></font></div>","null","15","Banana Bonanza","Fruit/bananas.png","Won","0.35,0.8","8","0.35","236","45","",""
"html-keyboard-response","145","135139","0.0-11.0-1.45","63d7a8a2591096e22405d64a","bdp_rwlrn","Wed Mar 15 2023 13:26:10 GMT-0600 (Mountain Daylight Time)","290262","Untrustworthy,Trustworthy","","128","","","","decision","","<div class='trialDiv'><img src='Fruit/watermelon.png'><br><font class='baseline'><strong>Watermelon Win$</strong><p>Choose number of points to bet.</font><div class='respPicDiv'><img src='img/responseButtonOffersNo0L.png' class='respPic'></div></div>","5","16","Watermelon Win$","Fruit/watermelon.png","Lost","0.2,0.8","10","0.2","241","46","",""
"html-keyboard-response","146","135390","0.0-11.0-2.45","63d7a8a2591096e22405d64a","bdp_rwlrn","Wed Mar 15 2023 13:26:10 GMT-0600 (Mountain Daylight Time)","290262","Untrustworthy,Trustworthy","","null","","","","decisionFB","","<div class='trialDiv'><img src='Fruit/watermelon.png'><br><font class='baseline'><strong>Watermelon Win$</strong><p>Choose number of points to bet.</font><div class='respPicDiv'><img src='img/responseButtonOffersNo0L5.png' class='respPic'></div></div>","null","16","Watermelon Win$","Fruit/watermelon.png","Lost","0.2,0.8","10","0.2","236","46","",""
"html-keyboard-response","147","136391","0.0-11.0-3.45","63d7a8a2591096e22405d64a","bdp_rwlrn","Wed Mar 15 2023 13:26:10 GMT-0600 (Mountain Daylight Time)","290262","Untrustworthy,Trustworthy","","null","","","","feedback","","<div class='respPicDiv'><img src='img/responseButtonOffersNo0_wht.png' class='respPic'></div><div class='trialDiv'><img src='Fruit/watermelon.png'><br><font class='baseline'><strong>Watermelon Win$</strong><p><strong><font class='negOutcome'>You LOST</font><p>You bet: 5</strong></font> &nbsp; &nbsp; &nbsp; &nbsp; &nbsp; &nbsp;<font class='negOutcome'>You receive: <strong>0</strong></font></div>","null","16","Watermelon Win$","Fruit/watermelon.png","Lost","0.2,0.8","10","0.2","236","46","",""
"html-keyboard-response","148","136508","0.0-11.0-1.46","63d7a8a2591096e22405d64a","bdp_rwlrn","Wed Mar 15 2023 13:26:10 GMT-0600 (Mountain Daylight Time)","290262","Untrustworthy,Trustworthy","","116","","","","decision","","<div class='trialDiv'><img src='Fruit/bananas.png'><br><font class='baseline'><strong>Banana Bonanza</strong><p>Choose number of points to bet.</font><div class='respPicDiv'><img src='img/responseButtonOffersNo0L.png' class='respPic'></div></div>","1","16","Banana Bonanza","Fruit/bananas.png","Won","0.35,0.8","8","0.35","241","47","",""
"html-keyboard-response","149","136760","0.0-11.0-2.46","63d7a8a2591096e22405d64a","bdp_rwlrn","Wed Mar 15 2023 13:26:10 GMT-0600 (Mountain Daylight Time)","290262","Untrustworthy,Trustworthy","","null","","","","decisionFB","","<div class='trialDiv'><img src='Fruit/bananas.png'><br><font class='baseline'><strong>Banana Bonanza</strong><p>Choose number of points to bet.</font><div class='respPicDiv'><img src='img/responseButtonOffersNo0L1.png' class='respPic'></div></div>","null","16","Banana Bonanza","Fruit/bananas.png","Won","0.35,0.8","8","0.35","240","47","",""
"html-keyboard-response","150","137763","0.0-11.0-3.46","63d7a8a2591096e22405d64a","bdp_rwlrn","Wed Mar 15 2023 13:26:10 GMT-0600 (Mountain Daylight Time)","290262","Untrustworthy,Trustworthy","","null","","","","feedback","","<div class='respPicDiv'><img src='img/responseButtonOffersNo0_wht.png' class='respPic'></div><div class='trialDiv'><img src='Fruit/bananas.png'><br><font class='baseline'><strong>Banana Bonanza</strong><p><strong><font class='posOutcome'>You WON</font><p>You bet: 1</strong></font> &nbsp; &nbsp; &nbsp; &nbsp; &nbsp; &nbsp;<font class='posOutcome'>you receive: <strong>2</strong></font></div>","null","16","Banana Bonanza","Fruit/bananas.png","Won","0.35,0.8","8","0.35","242","47","",""
"html-keyboard-response","151","138099","0.0-11.0-1.47","63d7a8a2591096e22405d64a","bdp_rwlrn","Wed Mar 15 2023 13:26:10 GMT-0600 (Mountain Daylight Time)","290262","Untrustworthy,Trustworthy","","336","","","","decision","","<div class='trialDiv'><img src='Fruit/lime.png'><br><font class='baseline'><strong>Limin' Large</strong><p>Choose number of points to bet.</font><div class='respPicDiv'><img src='img/responseButtonOffersNo0L.png' class='respPic'></div></div>","2","16","Limin' Large","Fruit/lime.png","Lost","0.65,0.2","14","0.65","247","48","",""
"html-keyboard-response","152","138349","0.0-11.0-2.47","63d7a8a2591096e22405d64a","bdp_rwlrn","Wed Mar 15 2023 13:26:10 GMT-0600 (Mountain Daylight Time)","290262","Untrustworthy,Trustworthy","","null","","","","decisionFB","","<div class='trialDiv'><img src='Fruit/lime.png'><br><font class='baseline'><strong>Limin' Large</strong><p>Choose number of points to bet.</font><div class='respPicDiv'><img src='img/responseButtonOffersNo0L2.png' class='respPic'></div></div>","null","16","Limin' Large","Fruit/lime.png","Lost","0.65,0.2","14","0.65","245","48","",""
"html-keyboard-response","153","139352","0.0-11.0-3.47","63d7a8a2591096e22405d64a","bdp_rwlrn","Wed Mar 15 2023 13:26:10 GMT-0600 (Mountain Daylight Time)","290262","Untrustworthy,Trustworthy","","null","","","","feedback","","<div class='respPicDiv'><img src='img/responseButtonOffersNo0_wht.png' class='respPic'></div><div class='trialDiv'><img src='Fruit/lime.png'><br><font class='baseline'><strong>Limin' Large</strong><p><strong><font class='negOutcome'>You LOST</font><p>You bet: 2</strong></font> &nbsp; &nbsp; &nbsp; &nbsp; &nbsp; &nbsp;<font class='negOutcome'>You receive: <strong>0</strong></font></div>","null","16","Limin' Large","Fruit/lime.png","Lost","0.65,0.2","14","0.65","245","48","",""
"html-keyboard-response","154","139669","0.0-11.0-1.48","63d7a8a2591096e22405d64a","bdp_rwlrn","Wed Mar 15 2023 13:26:10 GMT-0600 (Mountain Daylight Time)","290262","Untrustworthy,Trustworthy","","315","","","","decision","","<div class='trialDiv'><img src='Fruit/watermelon.png'><br><font class='baseline'><strong>Watermelon Win$</strong><p>Choose number of points to bet.</font><div class='respPicDiv'><img src='img/responseButtonOffersNo0L.png' class='respPic'></div></div>","1","17","Watermelon Win$","Fruit/watermelon.png","Won","0.2,0.8","10","0.2","250","49","",""
"html-keyboard-response","155","139920","0.0-11.0-2.48","63d7a8a2591096e22405d64a","bdp_rwlrn","Wed Mar 15 2023 13:26:10 GMT-0600 (Mountain Daylight Time)","290262","Untrustworthy,Trustworthy","","null","","","","decisionFB","","<div class='trialDiv'><img src='Fruit/watermelon.png'><br><font class='baseline'><strong>Watermelon Win$</strong><p>Choose number of points to bet.</font><div class='respPicDiv'><img src='img/responseButtonOffersNo0L1.png' class='respPic'></div></div>","null","17","Watermelon Win$","Fruit/watermelon.png","Won","0.2,0.8","10","0.2","249","49","",""
"html-keyboard-response","156","140922","0.0-11.0-3.48","63d7a8a2591096e22405d64a","bdp_rwlrn","Wed Mar 15 2023 13:26:10 GMT-0600 (Mountain Daylight Time)","290262","Untrustworthy,Trustworthy","","null","","","","feedback","","<div class='respPicDiv'><img src='img/responseButtonOffersNo0_wht.png' class='respPic'></div><div class='trialDiv'><img src='Fruit/watermelon.png'><br><font class='baseline'><strong>Watermelon Win$</strong><p><strong><font class='posOutcome'>You WON</font><p>You bet: 1</strong></font> &nbsp; &nbsp; &nbsp; &nbsp; &nbsp; &nbsp;<font class='posOutcome'>you receive: <strong>2</strong></font></div>","null","17","Watermelon Win$","Fruit/watermelon.png","Won","0.2,0.8","10","0.2","251","49","",""
"html-keyboard-response","157","140981","0.0-11.0-1.49","63d7a8a2591096e22405d64a","bdp_rwlrn","Wed Mar 15 2023 13:26:10 GMT-0600 (Mountain Daylight Time)","290262","Untrustworthy,Trustworthy","","59","","","","decision","","<div class='trialDiv'><img src='Fruit/lime.png'><br><font class='baseline'><strong>Limin' Large</strong><p>Choose number of points to bet.</font><div class='respPicDiv'><img src='img/responseButtonOffersNo0L.png' class='respPic'></div></div>","3","17","Limin' Large","Fruit/lime.png","Lost","0.65,0.2","14","0.65","256","50","",""
"html-keyboard-response","158","141232","0.0-11.0-2.49","63d7a8a2591096e22405d64a","bdp_rwlrn","Wed Mar 15 2023 13:26:10 GMT-0600 (Mountain Daylight Time)","290262","Untrustworthy,Trustworthy","","null","","","","decisionFB","","<div class='trialDiv'><img src='Fruit/lime.png'><br><font class='baseline'><strong>Limin' Large</strong><p>Choose number of points to bet.</font><div class='respPicDiv'><img src='img/responseButtonOffersNo0L3.png' class='respPic'></div></div>","null","17","Limin' Large","Fruit/lime.png","Lost","0.65,0.2","14","0.65","253","50","",""
"html-keyboard-response","159","142234","0.0-11.0-3.49","63d7a8a2591096e22405d64a","bdp_rwlrn","Wed Mar 15 2023 13:26:10 GMT-0600 (Mountain Daylight Time)","290262","Untrustworthy,Trustworthy","","null","","","","feedback","","<div class='respPicDiv'><img src='img/responseButtonOffersNo0_wht.png' class='respPic'></div><div class='trialDiv'><img src='Fruit/lime.png'><br><font class='baseline'><strong>Limin' Large</strong><p><strong><font class='negOutcome'>You LOST</font><p>You bet: 3</strong></font> &nbsp; &nbsp; &nbsp; &nbsp; &nbsp; &nbsp;<font class='negOutcome'>You receive: <strong>0</strong></font></div>","null","17","Limin' Large","Fruit/lime.png","Lost","0.65,0.2","14","0.65","253","50","",""
"html-keyboard-response","160","142635","0.0-11.0-1.50","63d7a8a2591096e22405d64a","bdp_rwlrn","Wed Mar 15 2023 13:26:10 GMT-0600 (Mountain Daylight Time)","290262","Untrustworthy,Trustworthy","","400","","","","decision","","<div class='trialDiv'><img src='Fruit/bananas.png'><br><font class='baseline'><strong>Banana Bonanza</strong><p>Choose number of points to bet.</font><div class='respPicDiv'><img src='img/responseButtonOffersNo0L.png' class='respPic'></div></div>","1","17","Banana Bonanza","Fruit/bananas.png","Won","0.35,0.8","8","0.35","258","51","",""
"html-keyboard-response","161","142886","0.0-11.0-2.50","63d7a8a2591096e22405d64a","bdp_rwlrn","Wed Mar 15 2023 13:26:10 GMT-0600 (Mountain Daylight Time)","290262","Untrustworthy,Trustworthy","","null","","","","decisionFB","","<div class='trialDiv'><img src='Fruit/bananas.png'><br><font class='baseline'><strong>Banana Bonanza</strong><p>Choose number of points to bet.</font><div class='respPicDiv'><img src='img/responseButtonOffersNo0L1.png' class='respPic'></div></div>","null","17","Banana Bonanza","Fruit/bananas.png","Won","0.35,0.8","8","0.35","257","51","",""
"html-keyboard-response","162","143888","0.0-11.0-3.50","63d7a8a2591096e22405d64a","bdp_rwlrn","Wed Mar 15 2023 13:26:10 GMT-0600 (Mountain Daylight Time)","290262","Untrustworthy,Trustworthy","","null","","","","feedback","","<div class='respPicDiv'><img src='img/responseButtonOffersNo0_wht.png' class='respPic'></div><div class='trialDiv'><img src='Fruit/bananas.png'><br><font class='baseline'><strong>Banana Bonanza</strong><p><strong><font class='posOutcome'>You WON</font><p>You bet: 1</strong></font> &nbsp; &nbsp; &nbsp; &nbsp; &nbsp; &nbsp;<font class='posOutcome'>you receive: <strong>2</strong></font></div>","null","17","Banana Bonanza","Fruit/bananas.png","Won","0.35,0.8","8","0.35","259","51","",""
