"event","trial","time","trialtype","subject_id","task","startTime","totalTime","labels","trial_type","trial_index","time_elapsed","internal_node_id","view_history","rt","success","stimulus","key_press","ltround","name","fileID","outcome","lottotype","lottoswpt","lottocurrpshare","point_total","round","faceID","face"
"focus","0","0","focusevent","6401094035971e9972e06328","bdp_rwlrn","Wed Mar 15 2023 23:31:51 GMT-0400 (Eastern Daylight Time)","588639","Untrustworthy,Trustworthy","","","","","","","","","","","","","","","","","","","",""
"","","","","6401094035971e9972e06328","bdp_rwlrn","Wed Mar 15 2023 23:31:51 GMT-0400 (Eastern Daylight Time)","588639","Untrustworthy,Trustworthy","pavlovia","0","4","0.0-0.0","","","","","","","","","","","","","","","",""
"","","","","6401094035971e9972e06328","bdp_rwlrn","Wed Mar 15 2023 23:31:51 GMT-0400 (Eastern Daylight Time)","588639","Untrustworthy,Trustworthy","instructions","1","5633","0.0-1.0","[{""page_index"":0,""viewing_time"":5626}]","5626","","","","","","","","","","","","","",""
"fullscreenexit","2","11717","fullscreenexit","6401094035971e9972e06328","bdp_rwlrn","Wed Mar 15 2023 23:31:51 GMT-0400 (Eastern Daylight Time)","588639","Untrustworthy,Trustworthy","","","","","","","","","","","","","","","","","","","",""
"","","","","6401094035971e9972e06328","bdp_rwlrn","Wed Mar 15 2023 23:31:51 GMT-0400 (Eastern Daylight Time)","588639","Untrustworthy,Trustworthy","fullscreen","2","12466","0.0-2.0","","","true","","","","","","","","","","","","",""
"","","","fullscreenfail","6401094035971e9972e06328","bdp_rwlrn","Wed Mar 15 2023 23:31:51 GMT-0400 (Eastern Daylight Time)","588639","Untrustworthy,Trustworthy","image-keyboard-response","3","20793","0.0-3.0-0.0","","8321","","","32","","","","","","","","","","",""
"","","","","6401094035971e9972e06328","bdp_rwlrn","Wed Mar 15 2023 23:31:51 GMT-0400 (Eastern Daylight Time)","588639","Untrustworthy,Trustworthy","instructions","4","143662","0.0-4.0","[{""page_index"":0,""viewing_time"":39329},{""page_index"":1,""viewing_time"":26434},{""page_index"":2,""viewing_time"":2831},{""page_index"":3,""viewing_time"":10298},{""page_index"":4,""viewing_time"":29161},{""page_index"":5,""viewing_time"":8370},{""page_index"":4,""viewing_time"":2411},{""page_index"":5,""viewing_time"":3760}]","122595","","","","","","","","","","","","","",""
"","","","","6401094035971e9972e06328","bdp_rwlrn","Wed Mar 15 2023 23:31:51 GMT-0400 (Eastern Daylight Time)","588639","Untrustworthy,Trustworthy","html-keyboard-response","5","150372","0.0-5.0","","6707","","<div class='header' style='text-align:left; position: absolute; top: 5%; left: 5%;'><small>Task 3 of 5</small></div><div class='instruxDiv'><p><strong>1) What is the maximum number of points you can choose to bet on a lottery?</strong></p><p>a) 0</p><p>b) 1</p><p>c) 5</p>","C","","","","","","","","","","",""
"","","","","6401094035971e9972e06328","bdp_rwlrn","Wed Mar 15 2023 23:31:51 GMT-0400 (Eastern Daylight Time)","588639","Untrustworthy,Trustworthy","html-keyboard-response","6","152450","0.0-6.0","","1962","","<div class='header' style='text-align:left; position: absolute; top: 5%; left: 5%;'><small>Task 3 of 5</small></div><div class='instruxDiv'><p><strong>1) What is the maximum number of points you can choose to bet on a lottery?</strong></p><p>a) 1</p><p>b) 1</p><p style='color:#00FF00'>c) 5</p><h3 style='color:#00FF00'>Correct!</h3><h3 class='center-content'>The correct response is c).</h3><h3 class='center-content'>The maximum number of points you can choose to bet on a lottery is 5 points.</h3><p><em>Press SPACEBAR to continue</em></p></div>"," ","","","","","","","","","","",""
"","","","","6401094035971e9972e06328","bdp_rwlrn","Wed Mar 15 2023 23:31:51 GMT-0400 (Eastern Daylight Time)","588639","Untrustworthy,Trustworthy","html-keyboard-response","7","160961","0.0-7.0","","8405","","<div class='header' style='text-align:left; position: absolute; top: 5%; left: 5%;'><small>Task 3 of 5</small></div><div class='instruxDiv'><p><strong>2) How many points can you win each round?</strong></p><p>a) 10 points</p><p>b) Double what you bet</p><p>c) Quadruple what you bet</p>","B","","","","","","","","","","",""
"","","","","6401094035971e9972e06328","bdp_rwlrn","Wed Mar 15 2023 23:31:51 GMT-0400 (Eastern Daylight Time)","588639","Untrustworthy,Trustworthy","html-keyboard-response","8","162502","0.0-8.0","","1430","","<div class='header' style='text-align:left; position: absolute; top: 5%; left: 5%;'><small>Task 3 of 5</small></div><div class='instruxDiv'><p><strong>2) How many points can you win each round?</strong></p><p>a) 10 points</p><p style='color:#00FF00'>b) Double what you bet</p><p>c) Quadruple what you bet</p><h3 style='color:#00FF00'>Correct!</h3><h3 class='center-content'>The correct response is b).</h3><h3 class='center-content'>You can win double the amount of points you bet.</h3><p><em>Press SPACEBAR to continue</em></p></div>"," ","","","","","","","","","","",""
"","","","","6401094035971e9972e06328","bdp_rwlrn","Wed Mar 15 2023 23:31:51 GMT-0400 (Eastern Daylight Time)","588639","Untrustworthy,Trustworthy","html-keyboard-response","9","167626","0.0-9.0","","null","","<div class='header' style='text-align:left; position: absolute; top: 5%; left: 5%;'><small>Task 3 of 5</small></div><div class='instruxDiv'><p>Thank you for completing the quiz<p>These are the actual lotteries you will be playing in the next block:<p><div class='tc' align='center'><img class='introPic' src='Fruit/watermelon.png'><br><strong>Watermelon Win$</strong></div><div class='bl' align='center'><img class='introPic' src='Fruit/papayas.png'><br><strong>Papaya Payday</strong></div><div class='br' align='center'><img class='introPic' src='Fruit/mixed-berries2.png'><br><strong>Berry Bla$t</strong></div></div><p>Across <strong>66 rounds</strong> you will play each lottery <strong>22 times</strong> (in random order).<p style='align:center; color:white'><font <em>Press SPACEBAR to continue</em></p>","null","","","","","","","","","","",""
"","","","","6401094035971e9972e06328","bdp_rwlrn","Wed Mar 15 2023 23:31:51 GMT-0400 (Eastern Daylight Time)","588639","Untrustworthy,Trustworthy","instructions","10","178349","0.0-10.0","[{""page_index"":0,""viewing_time"":8043},{""page_index"":1,""viewing_time"":2678}]","10721","","","","","","","","","","","","","",""
"","","","decision","6401094035971e9972e06328","bdp_rwlrn","Wed Mar 15 2023 23:31:51 GMT-0400 (Eastern Daylight Time)","588639","Untrustworthy,Trustworthy","html-keyboard-response","11","184311","0.0-11.0-1.0","","5844","","<div class='trialDiv'><img src='Fruit/mixed-berries2.png'><br><font class='baseline'><strong>Berry Bla$t</strong><p>Choose number of points to bet.</font><div class='respPicDiv'><img src='img/responseButtonOffersNo0L.png' class='respPic'></div></div>","5","1","Berry Bla$t","Fruit/mixed-berries2.png","Lost","0.2,0.8","11","0.2","5","1","",""
"","","","decisionFB","6401094035971e9972e06328","bdp_rwlrn","Wed Mar 15 2023 23:31:51 GMT-0400 (Eastern Daylight Time)","588639","Untrustworthy,Trustworthy","html-keyboard-response","12","184570","0.0-11.0-2.0","","null","","<div class='trialDiv'><img src='Fruit/mixed-berries2.png'><br><font class='baseline'><strong>Berry Bla$t</strong><p>Choose number of points to bet.</font><div class='respPicDiv'><img src='img/responseButtonOffersNo0L5.png' class='respPic'></div></div>","null","1","Berry Bla$t","Fruit/mixed-berries2.png","Lost","0.2,0.8","11","0.2","0","1","",""
"","","","feedback","6401094035971e9972e06328","bdp_rwlrn","Wed Mar 15 2023 23:31:51 GMT-0400 (Eastern Daylight Time)","588639","Untrustworthy,Trustworthy","html-keyboard-response","13","185573","0.0-11.0-3.0","","null","","<div class='respPicDiv'><img src='img/responseButtonOffersNo0_wht.png' class='respPic'></div><div class='trialDiv'><img src='Fruit/mixed-berries2.png'><br><font class='baseline'><strong>Berry Bla$t</strong><p><strong><font class='negOutcome'>You LOST</font><p>You bet: 5</strong></font> &nbsp; &nbsp; &nbsp; &nbsp; &nbsp; &nbsp;<font class='negOutcome'>You receive: <strong>0</strong></font></div>","null","1","Berry Bla$t","Fruit/mixed-berries2.png","Lost","0.2,0.8","11","0.2","0","1","",""
"","","","decision","6401094035971e9972e06328","bdp_rwlrn","Wed Mar 15 2023 23:31:51 GMT-0400 (Eastern Daylight Time)","588639","Untrustworthy,Trustworthy","html-keyboard-response","14","186591","0.0-11.0-1.1","","1017","","<div class='trialDiv'><img src='Fruit/papayas.png'><br><font class='baseline'><strong>Papaya Payday</strong><p>Choose number of points to bet.</font><div class='respPicDiv'><img src='img/responseButtonOffersNo0L.png' class='respPic'></div></div>","5","1","Papaya Payday","Fruit/papayas.png","Won","0.8,0.35","13","0.8","5","2","",""
"","","","decisionFB","6401094035971e9972e06328","bdp_rwlrn","Wed Mar 15 2023 23:31:51 GMT-0400 (Eastern Daylight Time)","588639","Untrustworthy,Trustworthy","html-keyboard-response","15","186846","0.0-11.0-2.1","","null","","<div class='trialDiv'><img src='Fruit/papayas.png'><br><font class='baseline'><strong>Papaya Payday</strong><p>Choose number of points to bet.</font><div class='respPicDiv'><img src='img/responseButtonOffersNo0L5.png' class='respPic'></div></div>","null","1","Papaya Payday","Fruit/papayas.png","Won","0.8,0.35","13","0.8","0","2","",""
"","","","feedback","6401094035971e9972e06328","bdp_rwlrn","Wed Mar 15 2023 23:31:51 GMT-0400 (Eastern Daylight Time)","588639","Untrustworthy,Trustworthy","html-keyboard-response","16","187850","0.0-11.0-3.1","","null","","<div class='respPicDiv'><img src='img/responseButtonOffersNo0_wht.png' class='respPic'></div><div class='trialDiv'><img src='Fruit/papayas.png'><br><font class='baseline'><strong>Papaya Payday</strong><p><strong><font class='posOutcome'>You WON</font><p>You bet: 5</strong></font> &nbsp; &nbsp; &nbsp; &nbsp; &nbsp; &nbsp;<font class='posOutcome'>you receive: <strong>10</strong></font></div>","null","1","Papaya Payday","Fruit/papayas.png","Won","0.8,0.35","13","0.8","10","2","",""
"","","","decision","6401094035971e9972e06328","bdp_rwlrn","Wed Mar 15 2023 23:31:51 GMT-0400 (Eastern Daylight Time)","588639","Untrustworthy,Trustworthy","html-keyboard-response","17","190780","0.0-11.0-1.2","","2928","","<div class='trialDiv'><img src='Fruit/watermelon.png'><br><font class='baseline'><strong>Watermelon Win$</strong><p>Choose number of points to bet.</font><div class='respPicDiv'><img src='img/responseButtonOffersNo0L.png' class='respPic'></div></div>","5","1","Watermelon Win$","Fruit/watermelon.png","Lost","0.2,0.65","10","0.2","15","3","",""
"","","","decisionFB","6401094035971e9972e06328","bdp_rwlrn","Wed Mar 15 2023 23:31:51 GMT-0400 (Eastern Daylight Time)","588639","Untrustworthy,Trustworthy","html-keyboard-response","18","191045","0.0-11.0-2.2","","null","","<div class='trialDiv'><img src='Fruit/watermelon.png'><br><font class='baseline'><strong>Watermelon Win$</strong><p>Choose number of points to bet.</font><div class='respPicDiv'><img src='img/responseButtonOffersNo0L5.png' class='respPic'></div></div>","null","1","Watermelon Win$","Fruit/watermelon.png","Lost","0.2,0.65","10","0.2","10","3","",""
"","","","feedback","6401094035971e9972e06328","bdp_rwlrn","Wed Mar 15 2023 23:31:51 GMT-0400 (Eastern Daylight Time)","588639","Untrustworthy,Trustworthy","html-keyboard-response","19","192049","0.0-11.0-3.2","","null","","<div class='respPicDiv'><img src='img/responseButtonOffersNo0_wht.png' class='respPic'></div><div class='trialDiv'><img src='Fruit/watermelon.png'><br><font class='baseline'><strong>Watermelon Win$</strong><p><strong><font class='negOutcome'>You LOST</font><p>You bet: 5</strong></font> &nbsp; &nbsp; &nbsp; &nbsp; &nbsp; &nbsp;<font class='negOutcome'>You receive: <strong>0</strong></font></div>","null","1","Watermelon Win$","Fruit/watermelon.png","Lost","0.2,0.65","10","0.2","10","3","",""
"","","","decision","6401094035971e9972e06328","bdp_rwlrn","Wed Mar 15 2023 23:31:51 GMT-0400 (Eastern Daylight Time)","588639","Untrustworthy,Trustworthy","html-keyboard-response","20","196701","0.0-11.0-1.3","","4650","","<div class='trialDiv'><img src='Fruit/papayas.png'><br><font class='baseline'><strong>Papaya Payday</strong><p>Choose number of points to bet.</font><div class='respPicDiv'><img src='img/responseButtonOffersNo0L.png' class='respPic'></div></div>","3","2","Papaya Payday","Fruit/papayas.png","Won","0.8,0.35","13","0.8","15","4","",""
"","","","decisionFB","6401094035971e9972e06328","bdp_rwlrn","Wed Mar 15 2023 23:31:51 GMT-0400 (Eastern Daylight Time)","588639","Untrustworthy,Trustworthy","html-keyboard-response","21","196966","0.0-11.0-2.3","","null","","<div class='trialDiv'><img src='Fruit/papayas.png'><br><font class='baseline'><strong>Papaya Payday</strong><p>Choose number of points to bet.</font><div class='respPicDiv'><img src='img/responseButtonOffersNo0L3.png' class='respPic'></div></div>","null","2","Papaya Payday","Fruit/papayas.png","Won","0.8,0.35","13","0.8","12","4","",""
"","","","feedback","6401094035971e9972e06328","bdp_rwlrn","Wed Mar 15 2023 23:31:51 GMT-0400 (Eastern Daylight Time)","588639","Untrustworthy,Trustworthy","html-keyboard-response","22","197971","0.0-11.0-3.3","","null","","<div class='respPicDiv'><img src='img/responseButtonOffersNo0_wht.png' class='respPic'></div><div class='trialDiv'><img src='Fruit/papayas.png'><br><font class='baseline'><strong>Papaya Payday</strong><p><strong><font class='posOutcome'>You WON</font><p>You bet: 3</strong></font> &nbsp; &nbsp; &nbsp; &nbsp; &nbsp; &nbsp;<font class='posOutcome'>you receive: <strong>6</strong></font></div>","null","2","Papaya Payday","Fruit/papayas.png","Won","0.8,0.35","13","0.8","18","4","",""
"","","","decision","6401094035971e9972e06328","bdp_rwlrn","Wed Mar 15 2023 23:31:51 GMT-0400 (Eastern Daylight Time)","588639","Untrustworthy,Trustworthy","html-keyboard-response","23","199471","0.0-11.0-1.4","","1498","","<div class='trialDiv'><img src='Fruit/mixed-berries2.png'><br><font class='baseline'><strong>Berry Bla$t</strong><p>Choose number of points to bet.</font><div class='respPicDiv'><img src='img/responseButtonOffersNo0L.png' class='respPic'></div></div>","1","2","Berry Bla$t","Fruit/mixed-berries2.png","Lost","0.2,0.8","11","0.2","23","5","",""
"","","","decisionFB","6401094035971e9972e06328","bdp_rwlrn","Wed Mar 15 2023 23:31:51 GMT-0400 (Eastern Daylight Time)","588639","Untrustworthy,Trustworthy","html-keyboard-response","24","199738","0.0-11.0-2.4","","null","","<div class='trialDiv'><img src='Fruit/mixed-berries2.png'><br><font class='baseline'><strong>Berry Bla$t</strong><p>Choose number of points to bet.</font><div class='respPicDiv'><img src='img/responseButtonOffersNo0L1.png' class='respPic'></div></div>","null","2","Berry Bla$t","Fruit/mixed-berries2.png","Lost","0.2,0.8","11","0.2","22","5","",""
"","","","feedback","6401094035971e9972e06328","bdp_rwlrn","Wed Mar 15 2023 23:31:51 GMT-0400 (Eastern Daylight Time)","588639","Untrustworthy,Trustworthy","html-keyboard-response","25","200762","0.0-11.0-3.4","","null","","<div class='respPicDiv'><img src='img/responseButtonOffersNo0_wht.png' class='respPic'></div><div class='trialDiv'><img src='Fruit/mixed-berries2.png'><br><font class='baseline'><strong>Berry Bla$t</strong><p><strong><font class='negOutcome'>You LOST</font><p>You bet: 1</strong></font> &nbsp; &nbsp; &nbsp; &nbsp; &nbsp; &nbsp;<font class='negOutcome'>You receive: <strong>0</strong></font></div>","null","2","Berry Bla$t","Fruit/mixed-berries2.png","Lost","0.2,0.8","11","0.2","22","5","",""
"","","","decision","6401094035971e9972e06328","bdp_rwlrn","Wed Mar 15 2023 23:31:51 GMT-0400 (Eastern Daylight Time)","588639","Untrustworthy,Trustworthy","html-keyboard-response","26","201612","0.0-11.0-1.5","","848","","<div class='trialDiv'><img src='Fruit/watermelon.png'><br><font class='baseline'><strong>Watermelon Win$</strong><p>Choose number of points to bet.</font><div class='respPicDiv'><img src='img/responseButtonOffersNo0L.png' class='respPic'></div></div>","1","2","Watermelon Win$","Fruit/watermelon.png","Lost","0.2,0.65","10","0.2","27","6","",""
"","","","decisionFB","6401094035971e9972e06328","bdp_rwlrn","Wed Mar 15 2023 23:31:51 GMT-0400 (Eastern Daylight Time)","588639","Untrustworthy,Trustworthy","html-keyboard-response","27","201866","0.0-11.0-2.5","","null","","<div class='trialDiv'><img src='Fruit/watermelon.png'><br><font class='baseline'><strong>Watermelon Win$</strong><p>Choose number of points to bet.</font><div class='respPicDiv'><img src='img/responseButtonOffersNo0L1.png' class='respPic'></div></div>","null","2","Watermelon Win$","Fruit/watermelon.png","Lost","0.2,0.65","10","0.2","26","6","",""
"","","","feedback","6401094035971e9972e06328","bdp_rwlrn","Wed Mar 15 2023 23:31:51 GMT-0400 (Eastern Daylight Time)","588639","Untrustworthy,Trustworthy","html-keyboard-response","28","202869","0.0-11.0-3.5","","null","","<div class='respPicDiv'><img src='img/responseButtonOffersNo0_wht.png' class='respPic'></div><div class='trialDiv'><img src='Fruit/watermelon.png'><br><font class='baseline'><strong>Watermelon Win$</strong><p><strong><font class='negOutcome'>You LOST</font><p>You bet: 1</strong></font> &nbsp; &nbsp; &nbsp; &nbsp; &nbsp; &nbsp;<font class='negOutcome'>You receive: <strong>0</strong></font></div>","null","2","Watermelon Win$","Fruit/watermelon.png","Lost","0.2,0.65","10","0.2","26","6","",""
"","","","decision","6401094035971e9972e06328","bdp_rwlrn","Wed Mar 15 2023 23:31:51 GMT-0400 (Eastern Daylight Time)","588639","Untrustworthy,Trustworthy","html-keyboard-response","29","203851","0.0-11.0-1.6","","979","","<div class='trialDiv'><img src='Fruit/mixed-berries2.png'><br><font class='baseline'><strong>Berry Bla$t</strong><p>Choose number of points to bet.</font><div class='respPicDiv'><img src='img/responseButtonOffersNo0L.png' class='respPic'></div></div>","1","3","Berry Bla$t","Fruit/mixed-berries2.png","Lost","0.2,0.8","11","0.2","31","7","",""
"","","","decisionFB","6401094035971e9972e06328","bdp_rwlrn","Wed Mar 15 2023 23:31:51 GMT-0400 (Eastern Daylight Time)","588639","Untrustworthy,Trustworthy","html-keyboard-response","30","204106","0.0-11.0-2.6","","null","","<div class='trialDiv'><img src='Fruit/mixed-berries2.png'><br><font class='baseline'><strong>Berry Bla$t</strong><p>Choose number of points to bet.</font><div class='respPicDiv'><img src='img/responseButtonOffersNo0L1.png' class='respPic'></div></div>","null","3","Berry Bla$t","Fruit/mixed-berries2.png","Lost","0.2,0.8","11","0.2","30","7","",""
"","","","feedback","6401094035971e9972e06328","bdp_rwlrn","Wed Mar 15 2023 23:31:51 GMT-0400 (Eastern Daylight Time)","588639","Untrustworthy,Trustworthy","html-keyboard-response","31","205110","0.0-11.0-3.6","","null","","<div class='respPicDiv'><img src='img/responseButtonOffersNo0_wht.png' class='respPic'></div><div class='trialDiv'><img src='Fruit/mixed-berries2.png'><br><font class='baseline'><strong>Berry Bla$t</strong><p><strong><font class='negOutcome'>You LOST</font><p>You bet: 1</strong></font> &nbsp; &nbsp; &nbsp; &nbsp; &nbsp; &nbsp;<font class='negOutcome'>You receive: <strong>0</strong></font></div>","null","3","Berry Bla$t","Fruit/mixed-berries2.png","Lost","0.2,0.8","11","0.2","30","7","",""
"","","","decision","6401094035971e9972e06328","bdp_rwlrn","Wed Mar 15 2023 23:31:51 GMT-0400 (Eastern Daylight Time)","588639","Untrustworthy,Trustworthy","html-keyboard-response","32","206310","0.0-11.0-1.7","","1199","","<div class='trialDiv'><img src='Fruit/watermelon.png'><br><font class='baseline'><strong>Watermelon Win$</strong><p>Choose number of points to bet.</font><div class='respPicDiv'><img src='img/responseButtonOffersNo0L.png' class='respPic'></div></div>","1","3","Watermelon Win$","Fruit/watermelon.png","Lost","0.2,0.65","10","0.2","35","8","",""
"","","","decisionFB","6401094035971e9972e06328","bdp_rwlrn","Wed Mar 15 2023 23:31:51 GMT-0400 (Eastern Daylight Time)","588639","Untrustworthy,Trustworthy","html-keyboard-response","33","206583","0.0-11.0-2.7","","null","","<div class='trialDiv'><img src='Fruit/watermelon.png'><br><font class='baseline'><strong>Watermelon Win$</strong><p>Choose number of points to bet.</font><div class='respPicDiv'><img src='img/responseButtonOffersNo0L1.png' class='respPic'></div></div>","null","3","Watermelon Win$","Fruit/watermelon.png","Lost","0.2,0.65","10","0.2","34","8","",""
"","","","feedback","6401094035971e9972e06328","bdp_rwlrn","Wed Mar 15 2023 23:31:51 GMT-0400 (Eastern Daylight Time)","588639","Untrustworthy,Trustworthy","html-keyboard-response","34","207587","0.0-11.0-3.7","","null","","<div class='respPicDiv'><img src='img/responseButtonOffersNo0_wht.png' class='respPic'></div><div class='trialDiv'><img src='Fruit/watermelon.png'><br><font class='baseline'><strong>Watermelon Win$</strong><p><strong><font class='negOutcome'>You LOST</font><p>You bet: 1</strong></font> &nbsp; &nbsp; &nbsp; &nbsp; &nbsp; &nbsp;<font class='negOutcome'>You receive: <strong>0</strong></font></div>","null","3","Watermelon Win$","Fruit/watermelon.png","Lost","0.2,0.65","10","0.2","34","8","",""
"","","","decision","6401094035971e9972e06328","bdp_rwlrn","Wed Mar 15 2023 23:31:51 GMT-0400 (Eastern Daylight Time)","588639","Untrustworthy,Trustworthy","html-keyboard-response","35","208891","0.0-11.0-1.8","","1302","","<div class='trialDiv'><img src='Fruit/papayas.png'><br><font class='baseline'><strong>Papaya Payday</strong><p>Choose number of points to bet.</font><div class='respPicDiv'><img src='img/responseButtonOffersNo0L.png' class='respPic'></div></div>","5","3","Papaya Payday","Fruit/papayas.png","Won","0.8,0.35","13","0.8","39","9","",""
"","","","decisionFB","6401094035971e9972e06328","bdp_rwlrn","Wed Mar 15 2023 23:31:51 GMT-0400 (Eastern Daylight Time)","588639","Untrustworthy,Trustworthy","html-keyboard-response","36","209154","0.0-11.0-2.8","","null","","<div class='trialDiv'><img src='Fruit/papayas.png'><br><font class='baseline'><strong>Papaya Payday</strong><p>Choose number of points to bet.</font><div class='respPicDiv'><img src='img/responseButtonOffersNo0L5.png' class='respPic'></div></div>","null","3","Papaya Payday","Fruit/papayas.png","Won","0.8,0.35","13","0.8","34","9","",""
"","","","feedback","6401094035971e9972e06328","bdp_rwlrn","Wed Mar 15 2023 23:31:51 GMT-0400 (Eastern Daylight Time)","588639","Untrustworthy,Trustworthy","html-keyboard-response","37","210156","0.0-11.0-3.8","","null","","<div class='respPicDiv'><img src='img/responseButtonOffersNo0_wht.png' class='respPic'></div><div class='trialDiv'><img src='Fruit/papayas.png'><br><font class='baseline'><strong>Papaya Payday</strong><p><strong><font class='posOutcome'>You WON</font><p>You bet: 5</strong></font> &nbsp; &nbsp; &nbsp; &nbsp; &nbsp; &nbsp;<font class='posOutcome'>you receive: <strong>10</strong></font></div>","null","3","Papaya Payday","Fruit/papayas.png","Won","0.8,0.35","13","0.8","44","9","",""
"","","","decision","6401094035971e9972e06328","bdp_rwlrn","Wed Mar 15 2023 23:31:51 GMT-0400 (Eastern Daylight Time)","588639","Untrustworthy,Trustworthy","html-keyboard-response","38","211131","0.0-11.0-1.9","","972","","<div class='trialDiv'><img src='Fruit/watermelon.png'><br><font class='baseline'><strong>Watermelon Win$</strong><p>Choose number of points to bet.</font><div class='respPicDiv'><img src='img/responseButtonOffersNo0L.png' class='respPic'></div></div>","1","4","Watermelon Win$","Fruit/watermelon.png","Lost","0.2,0.65","10","0.2","49","10","",""
"","","","decisionFB","6401094035971e9972e06328","bdp_rwlrn","Wed Mar 15 2023 23:31:51 GMT-0400 (Eastern Daylight Time)","588639","Untrustworthy,Trustworthy","html-keyboard-response","39","211399","0.0-11.0-2.9","","null","","<div class='trialDiv'><img src='Fruit/watermelon.png'><br><font class='baseline'><strong>Watermelon Win$</strong><p>Choose number of points to bet.</font><div class='respPicDiv'><img src='img/responseButtonOffersNo0L1.png' class='respPic'></div></div>","null","4","Watermelon Win$","Fruit/watermelon.png","Lost","0.2,0.65","10","0.2","48","10","",""
"","","","feedback","6401094035971e9972e06328","bdp_rwlrn","Wed Mar 15 2023 23:31:51 GMT-0400 (Eastern Daylight Time)","588639","Untrustworthy,Trustworthy","html-keyboard-response","40","212403","0.0-11.0-3.9","","null","","<div class='respPicDiv'><img src='img/responseButtonOffersNo0_wht.png' class='respPic'></div><div class='trialDiv'><img src='Fruit/watermelon.png'><br><font class='baseline'><strong>Watermelon Win$</strong><p><strong><font class='negOutcome'>You LOST</font><p>You bet: 1</strong></font> &nbsp; &nbsp; &nbsp; &nbsp; &nbsp; &nbsp;<font class='negOutcome'>You receive: <strong>0</strong></font></div>","null","4","Watermelon Win$","Fruit/watermelon.png","Lost","0.2,0.65","10","0.2","48","10","",""
"","","","decision","6401094035971e9972e06328","bdp_rwlrn","Wed Mar 15 2023 23:31:51 GMT-0400 (Eastern Daylight Time)","588639","Untrustworthy,Trustworthy","html-keyboard-response","41","213280","0.0-11.0-1.10","","875","","<div class='trialDiv'><img src='Fruit/papayas.png'><br><font class='baseline'><strong>Papaya Payday</strong><p>Choose number of points to bet.</font><div class='respPicDiv'><img src='img/responseButtonOffersNo0L.png' class='respPic'></div></div>","5","4","Papaya Payday","Fruit/papayas.png","Won","0.8,0.35","13","0.8","53","11","",""
"","","","decisionFB","6401094035971e9972e06328","bdp_rwlrn","Wed Mar 15 2023 23:31:51 GMT-0400 (Eastern Daylight Time)","588639","Untrustworthy,Trustworthy","html-keyboard-response","42","213537","0.0-11.0-2.10","","null","","<div class='trialDiv'><img src='Fruit/papayas.png'><br><font class='baseline'><strong>Papaya Payday</strong><p>Choose number of points to bet.</font><div class='respPicDiv'><img src='img/responseButtonOffersNo0L5.png' class='respPic'></div></div>","null","4","Papaya Payday","Fruit/papayas.png","Won","0.8,0.35","13","0.8","48","11","",""
"","","","feedback","6401094035971e9972e06328","bdp_rwlrn","Wed Mar 15 2023 23:31:51 GMT-0400 (Eastern Daylight Time)","588639","Untrustworthy,Trustworthy","html-keyboard-response","43","214541","0.0-11.0-3.10","","null","","<div class='respPicDiv'><img src='img/responseButtonOffersNo0_wht.png' class='respPic'></div><div class='trialDiv'><img src='Fruit/papayas.png'><br><font class='baseline'><strong>Papaya Payday</strong><p><strong><font class='posOutcome'>You WON</font><p>You bet: 5</strong></font> &nbsp; &nbsp; &nbsp; &nbsp; &nbsp; &nbsp;<font class='posOutcome'>you receive: <strong>10</strong></font></div>","null","4","Papaya Payday","Fruit/papayas.png","Won","0.8,0.35","13","0.8","58","11","",""
"","","","decision","6401094035971e9972e06328","bdp_rwlrn","Wed Mar 15 2023 23:31:51 GMT-0400 (Eastern Daylight Time)","588639","Untrustworthy,Trustworthy","html-keyboard-response","44","215300","0.0-11.0-1.11","","758","","<div class='trialDiv'><img src='Fruit/mixed-berries2.png'><br><font class='baseline'><strong>Berry Bla$t</strong><p>Choose number of points to bet.</font><div class='respPicDiv'><img src='img/responseButtonOffersNo0L.png' class='respPic'></div></div>","1","4","Berry Bla$t","Fruit/mixed-berries2.png","Lost","0.2,0.8","11","0.2","63","12","",""
"","","","decisionFB","6401094035971e9972e06328","bdp_rwlrn","Wed Mar 15 2023 23:31:51 GMT-0400 (Eastern Daylight Time)","588639","Untrustworthy,Trustworthy","html-keyboard-response","45","215560","0.0-11.0-2.11","","null","","<div class='trialDiv'><img src='Fruit/mixed-berries2.png'><br><font class='baseline'><strong>Berry Bla$t</strong><p>Choose number of points to bet.</font><div class='respPicDiv'><img src='img/responseButtonOffersNo0L1.png' class='respPic'></div></div>","null","4","Berry Bla$t","Fruit/mixed-berries2.png","Lost","0.2,0.8","11","0.2","62","12","",""
"","","","feedback","6401094035971e9972e06328","bdp_rwlrn","Wed Mar 15 2023 23:31:51 GMT-0400 (Eastern Daylight Time)","588639","Untrustworthy,Trustworthy","html-keyboard-response","46","216575","0.0-11.0-3.11","","null","","<div class='respPicDiv'><img src='img/responseButtonOffersNo0_wht.png' class='respPic'></div><div class='trialDiv'><img src='Fruit/mixed-berries2.png'><br><font class='baseline'><strong>Berry Bla$t</strong><p><strong><font class='negOutcome'>You LOST</font><p>You bet: 1</strong></font> &nbsp; &nbsp; &nbsp; &nbsp; &nbsp; &nbsp;<font class='negOutcome'>You receive: <strong>0</strong></font></div>","null","4","Berry Bla$t","Fruit/mixed-berries2.png","Lost","0.2,0.8","11","0.2","62","12","",""
"","","","decision","6401094035971e9972e06328","bdp_rwlrn","Wed Mar 15 2023 23:31:51 GMT-0400 (Eastern Daylight Time)","588639","Untrustworthy,Trustworthy","html-keyboard-response","47","217298","0.0-11.0-1.12","","723","","<div class='trialDiv'><img src='Fruit/papayas.png'><br><font class='baseline'><strong>Papaya Payday</strong><p>Choose number of points to bet.</font><div class='respPicDiv'><img src='img/responseButtonOffersNo0L.png' class='respPic'></div></div>","5","5","Papaya Payday","Fruit/papayas.png","Won","0.8,0.35","13","0.8","67","13","",""
"","","","decisionFB","6401094035971e9972e06328","bdp_rwlrn","Wed Mar 15 2023 23:31:51 GMT-0400 (Eastern Daylight Time)","588639","Untrustworthy,Trustworthy","html-keyboard-response","48","217561","0.0-11.0-2.12","","null","","<div class='trialDiv'><img src='Fruit/papayas.png'><br><font class='baseline'><strong>Papaya Payday</strong><p>Choose number of points to bet.</font><div class='respPicDiv'><img src='img/responseButtonOffersNo0L5.png' class='respPic'></div></div>","null","5","Papaya Payday","Fruit/papayas.png","Won","0.8,0.35","13","0.8","62","13","",""
"","","","feedback","6401094035971e9972e06328","bdp_rwlrn","Wed Mar 15 2023 23:31:51 GMT-0400 (Eastern Daylight Time)","588639","Untrustworthy,Trustworthy","html-keyboard-response","49","218565","0.0-11.0-3.12","","null","","<div class='respPicDiv'><img src='img/responseButtonOffersNo0_wht.png' class='respPic'></div><div class='trialDiv'><img src='Fruit/papayas.png'><br><font class='baseline'><strong>Papaya Payday</strong><p><strong><font class='posOutcome'>You WON</font><p>You bet: 5</strong></font> &nbsp; &nbsp; &nbsp; &nbsp; &nbsp; &nbsp;<font class='posOutcome'>you receive: <strong>10</strong></font></div>","null","5","Papaya Payday","Fruit/papayas.png","Won","0.8,0.35","13","0.8","72","13","",""
"","","","decision","6401094035971e9972e06328","bdp_rwlrn","Wed Mar 15 2023 23:31:51 GMT-0400 (Eastern Daylight Time)","588639","Untrustworthy,Trustworthy","html-keyboard-response","50","219380","0.0-11.0-1.13","","814","","<div class='trialDiv'><img src='Fruit/mixed-berries2.png'><br><font class='baseline'><strong>Berry Bla$t</strong><p>Choose number of points to bet.</font><div class='respPicDiv'><img src='img/responseButtonOffersNo0L.png' class='respPic'></div></div>","1","5","Berry Bla$t","Fruit/mixed-berries2.png","Lost","0.2,0.8","11","0.2","77","14","",""
"","","","decisionFB","6401094035971e9972e06328","bdp_rwlrn","Wed Mar 15 2023 23:31:51 GMT-0400 (Eastern Daylight Time)","588639","Untrustworthy,Trustworthy","html-keyboard-response","51","219638","0.0-11.0-2.13","","null","","<div class='trialDiv'><img src='Fruit/mixed-berries2.png'><br><font class='baseline'><strong>Berry Bla$t</strong><p>Choose number of points to bet.</font><div class='respPicDiv'><img src='img/responseButtonOffersNo0L1.png' class='respPic'></div></div>","null","5","Berry Bla$t","Fruit/mixed-berries2.png","Lost","0.2,0.8","11","0.2","76","14","",""
"","","","feedback","6401094035971e9972e06328","bdp_rwlrn","Wed Mar 15 2023 23:31:51 GMT-0400 (Eastern Daylight Time)","588639","Untrustworthy,Trustworthy","html-keyboard-response","52","220639","0.0-11.0-3.13","","null","","<div class='respPicDiv'><img src='img/responseButtonOffersNo0_wht.png' class='respPic'></div><div class='trialDiv'><img src='Fruit/mixed-berries2.png'><br><font class='baseline'><strong>Berry Bla$t</strong><p><strong><font class='negOutcome'>You LOST</font><p>You bet: 1</strong></font> &nbsp; &nbsp; &nbsp; &nbsp; &nbsp; &nbsp;<font class='negOutcome'>You receive: <strong>0</strong></font></div>","null","5","Berry Bla$t","Fruit/mixed-berries2.png","Lost","0.2,0.8","11","0.2","76","14","",""
"","","","decision","6401094035971e9972e06328","bdp_rwlrn","Wed Mar 15 2023 23:31:51 GMT-0400 (Eastern Daylight Time)","588639","Untrustworthy,Trustworthy","html-keyboard-response","53","221399","0.0-11.0-1.14","","758","","<div class='trialDiv'><img src='Fruit/watermelon.png'><br><font class='baseline'><strong>Watermelon Win$</strong><p>Choose number of points to bet.</font><div class='respPicDiv'><img src='img/responseButtonOffersNo0L.png' class='respPic'></div></div>","1","5","Watermelon Win$","Fruit/watermelon.png","Lost","0.2,0.65","10","0.2","81","15","",""
"","","","decisionFB","6401094035971e9972e06328","bdp_rwlrn","Wed Mar 15 2023 23:31:51 GMT-0400 (Eastern Daylight Time)","588639","Untrustworthy,Trustworthy","html-keyboard-response","54","221658","0.0-11.0-2.14","","null","","<div class='trialDiv'><img src='Fruit/watermelon.png'><br><font class='baseline'><strong>Watermelon Win$</strong><p>Choose number of points to bet.</font><div class='respPicDiv'><img src='img/responseButtonOffersNo0L1.png' class='respPic'></div></div>","null","5","Watermelon Win$","Fruit/watermelon.png","Lost","0.2,0.65","10","0.2","80","15","",""
"","","","feedback","6401094035971e9972e06328","bdp_rwlrn","Wed Mar 15 2023 23:31:51 GMT-0400 (Eastern Daylight Time)","588639","Untrustworthy,Trustworthy","html-keyboard-response","55","222661","0.0-11.0-3.14","","null","","<div class='respPicDiv'><img src='img/responseButtonOffersNo0_wht.png' class='respPic'></div><div class='trialDiv'><img src='Fruit/watermelon.png'><br><font class='baseline'><strong>Watermelon Win$</strong><p><strong><font class='negOutcome'>You LOST</font><p>You bet: 1</strong></font> &nbsp; &nbsp; &nbsp; &nbsp; &nbsp; &nbsp;<font class='negOutcome'>You receive: <strong>0</strong></font></div>","null","5","Watermelon Win$","Fruit/watermelon.png","Lost","0.2,0.65","10","0.2","80","15","",""
"","","","decision","6401094035971e9972e06328","bdp_rwlrn","Wed Mar 15 2023 23:31:51 GMT-0400 (Eastern Daylight Time)","588639","Untrustworthy,Trustworthy","html-keyboard-response","56","223430","0.0-11.0-1.15","","767","","<div class='trialDiv'><img src='Fruit/papayas.png'><br><font class='baseline'><strong>Papaya Payday</strong><p>Choose number of points to bet.</font><div class='respPicDiv'><img src='img/responseButtonOffersNo0L.png' class='respPic'></div></div>","5","6","Papaya Payday","Fruit/papayas.png","Won","0.8,0.35","13","0.8","85","16","",""
"","","","decisionFB","6401094035971e9972e06328","bdp_rwlrn","Wed Mar 15 2023 23:31:51 GMT-0400 (Eastern Daylight Time)","588639","Untrustworthy,Trustworthy","html-keyboard-response","57","223697","0.0-11.0-2.15","","null","","<div class='trialDiv'><img src='Fruit/papayas.png'><br><font class='baseline'><strong>Papaya Payday</strong><p>Choose number of points to bet.</font><div class='respPicDiv'><img src='img/responseButtonOffersNo0L5.png' class='respPic'></div></div>","null","6","Papaya Payday","Fruit/papayas.png","Won","0.8,0.35","13","0.8","80","16","",""
"","","","feedback","6401094035971e9972e06328","bdp_rwlrn","Wed Mar 15 2023 23:31:51 GMT-0400 (Eastern Daylight Time)","588639","Untrustworthy,Trustworthy","html-keyboard-response","58","224700","0.0-11.0-3.15","","null","","<div class='respPicDiv'><img src='img/responseButtonOffersNo0_wht.png' class='respPic'></div><div class='trialDiv'><img src='Fruit/papayas.png'><br><font class='baseline'><strong>Papaya Payday</strong><p><strong><font class='posOutcome'>You WON</font><p>You bet: 5</strong></font> &nbsp; &nbsp; &nbsp; &nbsp; &nbsp; &nbsp;<font class='posOutcome'>you receive: <strong>10</strong></font></div>","null","6","Papaya Payday","Fruit/papayas.png","Won","0.8,0.35","13","0.8","90","16","",""
"","","","decision","6401094035971e9972e06328","bdp_rwlrn","Wed Mar 15 2023 23:31:51 GMT-0400 (Eastern Daylight Time)","588639","Untrustworthy,Trustworthy","html-keyboard-response","59","225371","0.0-11.0-1.16","","669","","<div class='trialDiv'><img src='Fruit/watermelon.png'><br><font class='baseline'><strong>Watermelon Win$</strong><p>Choose number of points to bet.</font><div class='respPicDiv'><img src='img/responseButtonOffersNo0L.png' class='respPic'></div></div>","1","6","Watermelon Win$","Fruit/watermelon.png","Lost","0.2,0.65","10","0.2","95","17","",""
"","","","decisionFB","6401094035971e9972e06328","bdp_rwlrn","Wed Mar 15 2023 23:31:51 GMT-0400 (Eastern Daylight Time)","588639","Untrustworthy,Trustworthy","html-keyboard-response","60","225634","0.0-11.0-2.16","","null","","<div class='trialDiv'><img src='Fruit/watermelon.png'><br><font class='baseline'><strong>Watermelon Win$</strong><p>Choose number of points to bet.</font><div class='respPicDiv'><img src='img/responseButtonOffersNo0L1.png' class='respPic'></div></div>","null","6","Watermelon Win$","Fruit/watermelon.png","Lost","0.2,0.65","10","0.2","94","17","",""
"","","","feedback","6401094035971e9972e06328","bdp_rwlrn","Wed Mar 15 2023 23:31:51 GMT-0400 (Eastern Daylight Time)","588639","Untrustworthy,Trustworthy","html-keyboard-response","61","226637","0.0-11.0-3.16","","null","","<div class='respPicDiv'><img src='img/responseButtonOffersNo0_wht.png' class='respPic'></div><div class='trialDiv'><img src='Fruit/watermelon.png'><br><font class='baseline'><strong>Watermelon Win$</strong><p><strong><font class='negOutcome'>You LOST</font><p>You bet: 1</strong></font> &nbsp; &nbsp; &nbsp; &nbsp; &nbsp; &nbsp;<font class='negOutcome'>You receive: <strong>0</strong></font></div>","null","6","Watermelon Win$","Fruit/watermelon.png","Lost","0.2,0.65","10","0.2","94","17","",""
"","","","decision","6401094035971e9972e06328","bdp_rwlrn","Wed Mar 15 2023 23:31:51 GMT-0400 (Eastern Daylight Time)","588639","Untrustworthy,Trustworthy","html-keyboard-response","62","227370","0.0-11.0-1.17","","732","","<div class='trialDiv'><img src='Fruit/mixed-berries2.png'><br><font class='baseline'><strong>Berry Bla$t</strong><p>Choose number of points to bet.</font><div class='respPicDiv'><img src='img/responseButtonOffersNo0L.png' class='respPic'></div></div>","1","6","Berry Bla$t","Fruit/mixed-berries2.png","Won","0.2,0.8","11","0.2","99","18","",""
"","","","decisionFB","6401094035971e9972e06328","bdp_rwlrn","Wed Mar 15 2023 23:31:51 GMT-0400 (Eastern Daylight Time)","588639","Untrustworthy,Trustworthy","html-keyboard-response","63","227624","0.0-11.0-2.17","","null","","<div class='trialDiv'><img src='Fruit/mixed-berries2.png'><br><font class='baseline'><strong>Berry Bla$t</strong><p>Choose number of points to bet.</font><div class='respPicDiv'><img src='img/responseButtonOffersNo0L1.png' class='respPic'></div></div>","null","6","Berry Bla$t","Fruit/mixed-berries2.png","Won","0.2,0.8","11","0.2","98","18","",""
"","","","feedback","6401094035971e9972e06328","bdp_rwlrn","Wed Mar 15 2023 23:31:51 GMT-0400 (Eastern Daylight Time)","588639","Untrustworthy,Trustworthy","html-keyboard-response","64","228627","0.0-11.0-3.17","","null","","<div class='respPicDiv'><img src='img/responseButtonOffersNo0_wht.png' class='respPic'></div><div class='trialDiv'><img src='Fruit/mixed-berries2.png'><br><font class='baseline'><strong>Berry Bla$t</strong><p><strong><font class='posOutcome'>You WON</font><p>You bet: 1</strong></font> &nbsp; &nbsp; &nbsp; &nbsp; &nbsp; &nbsp;<font class='posOutcome'>you receive: <strong>2</strong></font></div>","null","6","Berry Bla$t","Fruit/mixed-berries2.png","Won","0.2,0.8","11","0.2","100","18","",""
"","","","decision","6401094035971e9972e06328","bdp_rwlrn","Wed Mar 15 2023 23:31:51 GMT-0400 (Eastern Daylight Time)","588639","Untrustworthy,Trustworthy","html-keyboard-response","65","232130","0.0-11.0-1.18","","3501","","<div class='trialDiv'><img src='Fruit/watermelon.png'><br><font class='baseline'><strong>Watermelon Win$</strong><p>Choose number of points to bet.</font><div class='respPicDiv'><img src='img/responseButtonOffersNo0L.png' class='respPic'></div></div>","1","7","Watermelon Win$","Fruit/watermelon.png","Lost","0.2,0.65","10","0.2","105","19","",""
"","","","decisionFB","6401094035971e9972e06328","bdp_rwlrn","Wed Mar 15 2023 23:31:51 GMT-0400 (Eastern Daylight Time)","588639","Untrustworthy,Trustworthy","html-keyboard-response","66","232394","0.0-11.0-2.18","","null","","<div class='trialDiv'><img src='Fruit/watermelon.png'><br><font class='baseline'><strong>Watermelon Win$</strong><p>Choose number of points to bet.</font><div class='respPicDiv'><img src='img/responseButtonOffersNo0L1.png' class='respPic'></div></div>","null","7","Watermelon Win$","Fruit/watermelon.png","Lost","0.2,0.65","10","0.2","104","19","",""
"","","","feedback","6401094035971e9972e06328","bdp_rwlrn","Wed Mar 15 2023 23:31:51 GMT-0400 (Eastern Daylight Time)","588639","Untrustworthy,Trustworthy","html-keyboard-response","67","233398","0.0-11.0-3.18","","null","","<div class='respPicDiv'><img src='img/responseButtonOffersNo0_wht.png' class='respPic'></div><div class='trialDiv'><img src='Fruit/watermelon.png'><br><font class='baseline'><strong>Watermelon Win$</strong><p><strong><font class='negOutcome'>You LOST</font><p>You bet: 1</strong></font> &nbsp; &nbsp; &nbsp; &nbsp; &nbsp; &nbsp;<font class='negOutcome'>You receive: <strong>0</strong></font></div>","null","7","Watermelon Win$","Fruit/watermelon.png","Lost","0.2,0.65","10","0.2","104","19","",""
"","","","decision","6401094035971e9972e06328","bdp_rwlrn","Wed Mar 15 2023 23:31:51 GMT-0400 (Eastern Daylight Time)","588639","Untrustworthy,Trustworthy","html-keyboard-response","68","235067","0.0-11.0-1.19","","1668","","<div class='trialDiv'><img src='Fruit/mixed-berries2.png'><br><font class='baseline'><strong>Berry Bla$t</strong><p>Choose number of points to bet.</font><div class='respPicDiv'><img src='img/responseButtonOffersNo0L.png' class='respPic'></div></div>","2","7","Berry Bla$t","Fruit/mixed-berries2.png","Lost","0.2,0.8","11","0.2","109","20","",""
"","","","decisionFB","6401094035971e9972e06328","bdp_rwlrn","Wed Mar 15 2023 23:31:51 GMT-0400 (Eastern Daylight Time)","588639","Untrustworthy,Trustworthy","html-keyboard-response","69","235328","0.0-11.0-2.19","","null","","<div class='trialDiv'><img src='Fruit/mixed-berries2.png'><br><font class='baseline'><strong>Berry Bla$t</strong><p>Choose number of points to bet.</font><div class='respPicDiv'><img src='img/responseButtonOffersNo0L2.png' class='respPic'></div></div>","null","7","Berry Bla$t","Fruit/mixed-berries2.png","Lost","0.2,0.8","11","0.2","107","20","",""
"","","","feedback","6401094035971e9972e06328","bdp_rwlrn","Wed Mar 15 2023 23:31:51 GMT-0400 (Eastern Daylight Time)","588639","Untrustworthy,Trustworthy","html-keyboard-response","70","236333","0.0-11.0-3.19","","null","","<div class='respPicDiv'><img src='img/responseButtonOffersNo0_wht.png' class='respPic'></div><div class='trialDiv'><img src='Fruit/mixed-berries2.png'><br><font class='baseline'><strong>Berry Bla$t</strong><p><strong><font class='negOutcome'>You LOST</font><p>You bet: 2</strong></font> &nbsp; &nbsp; &nbsp; &nbsp; &nbsp; &nbsp;<font class='negOutcome'>You receive: <strong>0</strong></font></div>","null","7","Berry Bla$t","Fruit/mixed-berries2.png","Lost","0.2,0.8","11","0.2","107","20","",""
"","","","decision","6401094035971e9972e06328","bdp_rwlrn","Wed Mar 15 2023 23:31:51 GMT-0400 (Eastern Daylight Time)","588639","Untrustworthy,Trustworthy","html-keyboard-response","71","237759","0.0-11.0-1.20","","1426","","<div class='trialDiv'><img src='Fruit/papayas.png'><br><font class='baseline'><strong>Papaya Payday</strong><p>Choose number of points to bet.</font><div class='respPicDiv'><img src='img/responseButtonOffersNo0L.png' class='respPic'></div></div>","5","7","Papaya Payday","Fruit/papayas.png","Won","0.8,0.35","13","0.8","112","21","",""
"","","","decisionFB","6401094035971e9972e06328","bdp_rwlrn","Wed Mar 15 2023 23:31:51 GMT-0400 (Eastern Daylight Time)","588639","Untrustworthy,Trustworthy","html-keyboard-response","72","238016","0.0-11.0-2.20","","null","","<div class='trialDiv'><img src='Fruit/papayas.png'><br><font class='baseline'><strong>Papaya Payday</strong><p>Choose number of points to bet.</font><div class='respPicDiv'><img src='img/responseButtonOffersNo0L5.png' class='respPic'></div></div>","null","7","Papaya Payday","Fruit/papayas.png","Won","0.8,0.35","13","0.8","107","21","",""
"","","","feedback","6401094035971e9972e06328","bdp_rwlrn","Wed Mar 15 2023 23:31:51 GMT-0400 (Eastern Daylight Time)","588639","Untrustworthy,Trustworthy","html-keyboard-response","73","239019","0.0-11.0-3.20","","null","","<div class='respPicDiv'><img src='img/responseButtonOffersNo0_wht.png' class='respPic'></div><div class='trialDiv'><img src='Fruit/papayas.png'><br><font class='baseline'><strong>Papaya Payday</strong><p><strong><font class='posOutcome'>You WON</font><p>You bet: 5</strong></font> &nbsp; &nbsp; &nbsp; &nbsp; &nbsp; &nbsp;<font class='posOutcome'>you receive: <strong>10</strong></font></div>","null","7","Papaya Payday","Fruit/papayas.png","Won","0.8,0.35","13","0.8","117","21","",""
"","","","decision","6401094035971e9972e06328","bdp_rwlrn","Wed Mar 15 2023 23:31:51 GMT-0400 (Eastern Daylight Time)","588639","Untrustworthy,Trustworthy","html-keyboard-response","74","240690","0.0-11.0-1.21","","1670","","<div class='trialDiv'><img src='Fruit/watermelon.png'><br><font class='baseline'><strong>Watermelon Win$</strong><p>Choose number of points to bet.</font><div class='respPicDiv'><img src='img/responseButtonOffersNo0L.png' class='respPic'></div></div>","1","8","Watermelon Win$","Fruit/watermelon.png","Lost","0.2,0.65","10","0.2","122","22","",""
"","","","decisionFB","6401094035971e9972e06328","bdp_rwlrn","Wed Mar 15 2023 23:31:51 GMT-0400 (Eastern Daylight Time)","588639","Untrustworthy,Trustworthy","html-keyboard-response","75","240948","0.0-11.0-2.21","","null","","<div class='trialDiv'><img src='Fruit/watermelon.png'><br><font class='baseline'><strong>Watermelon Win$</strong><p>Choose number of points to bet.</font><div class='respPicDiv'><img src='img/responseButtonOffersNo0L1.png' class='respPic'></div></div>","null","8","Watermelon Win$","Fruit/watermelon.png","Lost","0.2,0.65","10","0.2","121","22","",""
"","","","feedback","6401094035971e9972e06328","bdp_rwlrn","Wed Mar 15 2023 23:31:51 GMT-0400 (Eastern Daylight Time)","588639","Untrustworthy,Trustworthy","html-keyboard-response","76","241951","0.0-11.0-3.21","","null","","<div class='respPicDiv'><img src='img/responseButtonOffersNo0_wht.png' class='respPic'></div><div class='trialDiv'><img src='Fruit/watermelon.png'><br><font class='baseline'><strong>Watermelon Win$</strong><p><strong><font class='negOutcome'>You LOST</font><p>You bet: 1</strong></font> &nbsp; &nbsp; &nbsp; &nbsp; &nbsp; &nbsp;<font class='negOutcome'>You receive: <strong>0</strong></font></div>","null","8","Watermelon Win$","Fruit/watermelon.png","Lost","0.2,0.65","10","0.2","121","22","",""
"","","","decision","6401094035971e9972e06328","bdp_rwlrn","Wed Mar 15 2023 23:31:51 GMT-0400 (Eastern Daylight Time)","588639","Untrustworthy,Trustworthy","html-keyboard-response","77","243850","0.0-11.0-1.22","","1897","","<div class='trialDiv'><img src='Fruit/papayas.png'><br><font class='baseline'><strong>Papaya Payday</strong><p>Choose number of points to bet.</font><div class='respPicDiv'><img src='img/responseButtonOffersNo0L.png' class='respPic'></div></div>","5","8","Papaya Payday","Fruit/papayas.png","Won","0.8,0.35","13","0.8","126","23","",""
"","","","decisionFB","6401094035971e9972e06328","bdp_rwlrn","Wed Mar 15 2023 23:31:51 GMT-0400 (Eastern Daylight Time)","588639","Untrustworthy,Trustworthy","html-keyboard-response","78","244105","0.0-11.0-2.22","","null","","<div class='trialDiv'><img src='Fruit/papayas.png'><br><font class='baseline'><strong>Papaya Payday</strong><p>Choose number of points to bet.</font><div class='respPicDiv'><img src='img/responseButtonOffersNo0L5.png' class='respPic'></div></div>","null","8","Papaya Payday","Fruit/papayas.png","Won","0.8,0.35","13","0.8","121","23","",""
"","","","feedback","6401094035971e9972e06328","bdp_rwlrn","Wed Mar 15 2023 23:31:51 GMT-0400 (Eastern Daylight Time)","588639","Untrustworthy,Trustworthy","html-keyboard-response","79","245109","0.0-11.0-3.22","","null","","<div class='respPicDiv'><img src='img/responseButtonOffersNo0_wht.png' class='respPic'></div><div class='trialDiv'><img src='Fruit/papayas.png'><br><font class='baseline'><strong>Papaya Payday</strong><p><strong><font class='posOutcome'>You WON</font><p>You bet: 5</strong></font> &nbsp; &nbsp; &nbsp; &nbsp; &nbsp; &nbsp;<font class='posOutcome'>you receive: <strong>10</strong></font></div>","null","8","Papaya Payday","Fruit/papayas.png","Won","0.8,0.35","13","0.8","131","23","",""
"","","","decision","6401094035971e9972e06328","bdp_rwlrn","Wed Mar 15 2023 23:31:51 GMT-0400 (Eastern Daylight Time)","588639","Untrustworthy,Trustworthy","html-keyboard-response","80","246269","0.0-11.0-1.23","","1159","","<div class='trialDiv'><img src='Fruit/mixed-berries2.png'><br><font class='baseline'><strong>Berry Bla$t</strong><p>Choose number of points to bet.</font><div class='respPicDiv'><img src='img/responseButtonOffersNo0L.png' class='respPic'></div></div>","2","8","Berry Bla$t","Fruit/mixed-berries2.png","Lost","0.2,0.8","11","0.2","136","24","",""
"","","","decisionFB","6401094035971e9972e06328","bdp_rwlrn","Wed Mar 15 2023 23:31:51 GMT-0400 (Eastern Daylight Time)","588639","Untrustworthy,Trustworthy","html-keyboard-response","81","246528","0.0-11.0-2.23","","null","","<div class='trialDiv'><img src='Fruit/mixed-berries2.png'><br><font class='baseline'><strong>Berry Bla$t</strong><p>Choose number of points to bet.</font><div class='respPicDiv'><img src='img/responseButtonOffersNo0L2.png' class='respPic'></div></div>","null","8","Berry Bla$t","Fruit/mixed-berries2.png","Lost","0.2,0.8","11","0.2","134","24","",""
"","","","feedback","6401094035971e9972e06328","bdp_rwlrn","Wed Mar 15 2023 23:31:51 GMT-0400 (Eastern Daylight Time)","588639","Untrustworthy,Trustworthy","html-keyboard-response","82","247531","0.0-11.0-3.23","","null","","<div class='respPicDiv'><img src='img/responseButtonOffersNo0_wht.png' class='respPic'></div><div class='trialDiv'><img src='Fruit/mixed-berries2.png'><br><font class='baseline'><strong>Berry Bla$t</strong><p><strong><font class='negOutcome'>You LOST</font><p>You bet: 2</strong></font> &nbsp; &nbsp; &nbsp; &nbsp; &nbsp; &nbsp;<font class='negOutcome'>You receive: <strong>0</strong></font></div>","null","8","Berry Bla$t","Fruit/mixed-berries2.png","Lost","0.2,0.8","11","0.2","134","24","",""
"","","","decision","6401094035971e9972e06328","bdp_rwlrn","Wed Mar 15 2023 23:31:51 GMT-0400 (Eastern Daylight Time)","588639","Untrustworthy,Trustworthy","html-keyboard-response","83","249280","0.0-11.0-1.24","","1746","","<div class='trialDiv'><img src='Fruit/watermelon.png'><br><font class='baseline'><strong>Watermelon Win$</strong><p>Choose number of points to bet.</font><div class='respPicDiv'><img src='img/responseButtonOffersNo0L.png' class='respPic'></div></div>","1","9","Watermelon Win$","Fruit/watermelon.png","Lost","0.2,0.65","10","0.2","139","25","",""
"","","","decisionFB","6401094035971e9972e06328","bdp_rwlrn","Wed Mar 15 2023 23:31:51 GMT-0400 (Eastern Daylight Time)","588639","Untrustworthy,Trustworthy","html-keyboard-response","84","249538","0.0-11.0-2.24","","null","","<div class='trialDiv'><img src='Fruit/watermelon.png'><br><font class='baseline'><strong>Watermelon Win$</strong><p>Choose number of points to bet.</font><div class='respPicDiv'><img src='img/responseButtonOffersNo0L1.png' class='respPic'></div></div>","null","9","Watermelon Win$","Fruit/watermelon.png","Lost","0.2,0.65","10","0.2","138","25","",""
"","","","feedback","6401094035971e9972e06328","bdp_rwlrn","Wed Mar 15 2023 23:31:51 GMT-0400 (Eastern Daylight Time)","588639","Untrustworthy,Trustworthy","html-keyboard-response","85","250542","0.0-11.0-3.24","","null","","<div class='respPicDiv'><img src='img/responseButtonOffersNo0_wht.png' class='respPic'></div><div class='trialDiv'><img src='Fruit/watermelon.png'><br><font class='baseline'><strong>Watermelon Win$</strong><p><strong><font class='negOutcome'>You LOST</font><p>You bet: 1</strong></font> &nbsp; &nbsp; &nbsp; &nbsp; &nbsp; &nbsp;<font class='negOutcome'>You receive: <strong>0</strong></font></div>","null","9","Watermelon Win$","Fruit/watermelon.png","Lost","0.2,0.65","10","0.2","138","25","",""
"","","","decision","6401094035971e9972e06328","bdp_rwlrn","Wed Mar 15 2023 23:31:51 GMT-0400 (Eastern Daylight Time)","588639","Untrustworthy,Trustworthy","html-keyboard-response","86","252699","0.0-11.0-1.25","","2156","","<div class='trialDiv'><img src='Fruit/mixed-berries2.png'><br><font class='baseline'><strong>Berry Bla$t</strong><p>Choose number of points to bet.</font><div class='respPicDiv'><img src='img/responseButtonOffersNo0L.png' class='respPic'></div></div>","1","9","Berry Bla$t","Fruit/mixed-berries2.png","Lost","0.2,0.8","11","0.2","143","26","",""
"","","","decisionFB","6401094035971e9972e06328","bdp_rwlrn","Wed Mar 15 2023 23:31:51 GMT-0400 (Eastern Daylight Time)","588639","Untrustworthy,Trustworthy","html-keyboard-response","87","252966","0.0-11.0-2.25","","null","","<div class='trialDiv'><img src='Fruit/mixed-berries2.png'><br><font class='baseline'><strong>Berry Bla$t</strong><p>Choose number of points to bet.</font><div class='respPicDiv'><img src='img/responseButtonOffersNo0L1.png' class='respPic'></div></div>","null","9","Berry Bla$t","Fruit/mixed-berries2.png","Lost","0.2,0.8","11","0.2","142","26","",""
"","","","feedback","6401094035971e9972e06328","bdp_rwlrn","Wed Mar 15 2023 23:31:51 GMT-0400 (Eastern Daylight Time)","588639","Untrustworthy,Trustworthy","html-keyboard-response","88","253970","0.0-11.0-3.25","","null","","<div class='respPicDiv'><img src='img/responseButtonOffersNo0_wht.png' class='respPic'></div><div class='trialDiv'><img src='Fruit/mixed-berries2.png'><br><font class='baseline'><strong>Berry Bla$t</strong><p><strong><font class='negOutcome'>You LOST</font><p>You bet: 1</strong></font> &nbsp; &nbsp; &nbsp; &nbsp; &nbsp; &nbsp;<font class='negOutcome'>You receive: <strong>0</strong></font></div>","null","9","Berry Bla$t","Fruit/mixed-berries2.png","Lost","0.2,0.8","11","0.2","142","26","",""
"","","","decision","6401094035971e9972e06328","bdp_rwlrn","Wed Mar 15 2023 23:31:51 GMT-0400 (Eastern Daylight Time)","588639","Untrustworthy,Trustworthy","html-keyboard-response","89","255100","0.0-11.0-1.26","","1129","","<div class='trialDiv'><img src='Fruit/papayas.png'><br><font class='baseline'><strong>Papaya Payday</strong><p>Choose number of points to bet.</font><div class='respPicDiv'><img src='img/responseButtonOffersNo0L.png' class='respPic'></div></div>","5","9","Papaya Payday","Fruit/papayas.png","Won","0.8,0.35","13","0.8","147","27","",""
"","","","decisionFB","6401094035971e9972e06328","bdp_rwlrn","Wed Mar 15 2023 23:31:51 GMT-0400 (Eastern Daylight Time)","588639","Untrustworthy,Trustworthy","html-keyboard-response","90","255372","0.0-11.0-2.26","","null","","<div class='trialDiv'><img src='Fruit/papayas.png'><br><font class='baseline'><strong>Papaya Payday</strong><p>Choose number of points to bet.</font><div class='respPicDiv'><img src='img/responseButtonOffersNo0L5.png' class='respPic'></div></div>","null","9","Papaya Payday","Fruit/papayas.png","Won","0.8,0.35","13","0.8","142","27","",""
"","","","feedback","6401094035971e9972e06328","bdp_rwlrn","Wed Mar 15 2023 23:31:51 GMT-0400 (Eastern Daylight Time)","588639","Untrustworthy,Trustworthy","html-keyboard-response","91","256378","0.0-11.0-3.26","","null","","<div class='respPicDiv'><img src='img/responseButtonOffersNo0_wht.png' class='respPic'></div><div class='trialDiv'><img src='Fruit/papayas.png'><br><font class='baseline'><strong>Papaya Payday</strong><p><strong><font class='posOutcome'>You WON</font><p>You bet: 5</strong></font> &nbsp; &nbsp; &nbsp; &nbsp; &nbsp; &nbsp;<font class='posOutcome'>you receive: <strong>10</strong></font></div>","null","9","Papaya Payday","Fruit/papayas.png","Won","0.8,0.35","13","0.8","152","27","",""
"","","","decision","6401094035971e9972e06328","bdp_rwlrn","Wed Mar 15 2023 23:31:51 GMT-0400 (Eastern Daylight Time)","588639","Untrustworthy,Trustworthy","html-keyboard-response","92","257490","0.0-11.0-1.27","","1111","","<div class='trialDiv'><img src='Fruit/watermelon.png'><br><font class='baseline'><strong>Watermelon Win$</strong><p>Choose number of points to bet.</font><div class='respPicDiv'><img src='img/responseButtonOffersNo0L.png' class='respPic'></div></div>","1","10","Watermelon Win$","Fruit/watermelon.png","Won","0.2,0.65","10","0.2","157","28","",""
"","","","decisionFB","6401094035971e9972e06328","bdp_rwlrn","Wed Mar 15 2023 23:31:51 GMT-0400 (Eastern Daylight Time)","588639","Untrustworthy,Trustworthy","html-keyboard-response","93","257750","0.0-11.0-2.27","","null","","<div class='trialDiv'><img src='Fruit/watermelon.png'><br><font class='baseline'><strong>Watermelon Win$</strong><p>Choose number of points to bet.</font><div class='respPicDiv'><img src='img/responseButtonOffersNo0L1.png' class='respPic'></div></div>","null","10","Watermelon Win$","Fruit/watermelon.png","Won","0.2,0.65","10","0.2","156","28","",""
"","","","feedback","6401094035971e9972e06328","bdp_rwlrn","Wed Mar 15 2023 23:31:51 GMT-0400 (Eastern Daylight Time)","588639","Untrustworthy,Trustworthy","html-keyboard-response","94","258754","0.0-11.0-3.27","","null","","<div class='respPicDiv'><img src='img/responseButtonOffersNo0_wht.png' class='respPic'></div><div class='trialDiv'><img src='Fruit/watermelon.png'><br><font class='baseline'><strong>Watermelon Win$</strong><p><strong><font class='posOutcome'>You WON</font><p>You bet: 1</strong></font> &nbsp; &nbsp; &nbsp; &nbsp; &nbsp; &nbsp;<font class='posOutcome'>you receive: <strong>2</strong></font></div>","null","10","Watermelon Win$","Fruit/watermelon.png","Won","0.2,0.65","10","0.2","158","28","",""
"","","","decision","6401094035971e9972e06328","bdp_rwlrn","Wed Mar 15 2023 23:31:51 GMT-0400 (Eastern Daylight Time)","588639","Untrustworthy,Trustworthy","html-keyboard-response","95","260160","0.0-11.0-1.28","","1405","","<div class='trialDiv'><img src='Fruit/mixed-berries2.png'><br><font class='baseline'><strong>Berry Bla$t</strong><p>Choose number of points to bet.</font><div class='respPicDiv'><img src='img/responseButtonOffersNo0L.png' class='respPic'></div></div>","2","10","Berry Bla$t","Fruit/mixed-berries2.png","Lost","0.2,0.8","11","0.2","163","29","",""
"","","","decisionFB","6401094035971e9972e06328","bdp_rwlrn","Wed Mar 15 2023 23:31:51 GMT-0400 (Eastern Daylight Time)","588639","Untrustworthy,Trustworthy","html-keyboard-response","96","260413","0.0-11.0-2.28","","null","","<div class='trialDiv'><img src='Fruit/mixed-berries2.png'><br><font class='baseline'><strong>Berry Bla$t</strong><p>Choose number of points to bet.</font><div class='respPicDiv'><img src='img/responseButtonOffersNo0L2.png' class='respPic'></div></div>","null","10","Berry Bla$t","Fruit/mixed-berries2.png","Lost","0.2,0.8","11","0.2","161","29","",""
"","","","feedback","6401094035971e9972e06328","bdp_rwlrn","Wed Mar 15 2023 23:31:51 GMT-0400 (Eastern Daylight Time)","588639","Untrustworthy,Trustworthy","html-keyboard-response","97","261418","0.0-11.0-3.28","","null","","<div class='respPicDiv'><img src='img/responseButtonOffersNo0_wht.png' class='respPic'></div><div class='trialDiv'><img src='Fruit/mixed-berries2.png'><br><font class='baseline'><strong>Berry Bla$t</strong><p><strong><font class='negOutcome'>You LOST</font><p>You bet: 2</strong></font> &nbsp; &nbsp; &nbsp; &nbsp; &nbsp; &nbsp;<font class='negOutcome'>You receive: <strong>0</strong></font></div>","null","10","Berry Bla$t","Fruit/mixed-berries2.png","Lost","0.2,0.8","11","0.2","161","29","",""
"","","","decision","6401094035971e9972e06328","bdp_rwlrn","Wed Mar 15 2023 23:31:51 GMT-0400 (Eastern Daylight Time)","588639","Untrustworthy,Trustworthy","html-keyboard-response","98","263030","0.0-11.0-1.29","","1610","","<div class='trialDiv'><img src='Fruit/papayas.png'><br><font class='baseline'><strong>Papaya Payday</strong><p>Choose number of points to bet.</font><div class='respPicDiv'><img src='img/responseButtonOffersNo0L.png' class='respPic'></div></div>","5","10","Papaya Payday","Fruit/papayas.png","Won","0.8,0.35","13","0.8","166","30","",""
"","","","decisionFB","6401094035971e9972e06328","bdp_rwlrn","Wed Mar 15 2023 23:31:51 GMT-0400 (Eastern Daylight Time)","588639","Untrustworthy,Trustworthy","html-keyboard-response","99","263286","0.0-11.0-2.29","","null","","<div class='trialDiv'><img src='Fruit/papayas.png'><br><font class='baseline'><strong>Papaya Payday</strong><p>Choose number of points to bet.</font><div class='respPicDiv'><img src='img/responseButtonOffersNo0L5.png' class='respPic'></div></div>","null","10","Papaya Payday","Fruit/papayas.png","Won","0.8,0.35","13","0.8","161","30","",""
"","","","feedback","6401094035971e9972e06328","bdp_rwlrn","Wed Mar 15 2023 23:31:51 GMT-0400 (Eastern Daylight Time)","588639","Untrustworthy,Trustworthy","html-keyboard-response","100","264290","0.0-11.0-3.29","","null","","<div class='respPicDiv'><img src='img/responseButtonOffersNo0_wht.png' class='respPic'></div><div class='trialDiv'><img src='Fruit/papayas.png'><br><font class='baseline'><strong>Papaya Payday</strong><p><strong><font class='posOutcome'>You WON</font><p>You bet: 5</strong></font> &nbsp; &nbsp; &nbsp; &nbsp; &nbsp; &nbsp;<font class='posOutcome'>you receive: <strong>10</strong></font></div>","null","10","Papaya Payday","Fruit/papayas.png","Won","0.8,0.35","13","0.8","171","30","",""
"","","","decision","6401094035971e9972e06328","bdp_rwlrn","Wed Mar 15 2023 23:31:51 GMT-0400 (Eastern Daylight Time)","588639","Untrustworthy,Trustworthy","html-keyboard-response","101","265780","0.0-11.0-1.30","","1488","","<div class='trialDiv'><img src='Fruit/watermelon.png'><br><font class='baseline'><strong>Watermelon Win$</strong><p>Choose number of points to bet.</font><div class='respPicDiv'><img src='img/responseButtonOffersNo0L.png' class='respPic'></div></div>","1","11","Watermelon Win$","Fruit/watermelon.png","Won","0.2,0.65","10","0.2","176","31","",""
"","","","decisionFB","6401094035971e9972e06328","bdp_rwlrn","Wed Mar 15 2023 23:31:51 GMT-0400 (Eastern Daylight Time)","588639","Untrustworthy,Trustworthy","html-keyboard-response","102","266034","0.0-11.0-2.30","","null","","<div class='trialDiv'><img src='Fruit/watermelon.png'><br><font class='baseline'><strong>Watermelon Win$</strong><p>Choose number of points to bet.</font><div class='respPicDiv'><img src='img/responseButtonOffersNo0L1.png' class='respPic'></div></div>","null","11","Watermelon Win$","Fruit/watermelon.png","Won","0.2,0.65","10","0.2","175","31","",""
"","","","feedback","6401094035971e9972e06328","bdp_rwlrn","Wed Mar 15 2023 23:31:51 GMT-0400 (Eastern Daylight Time)","588639","Untrustworthy,Trustworthy","html-keyboard-response","103","267037","0.0-11.0-3.30","","null","","<div class='respPicDiv'><img src='img/responseButtonOffersNo0_wht.png' class='respPic'></div><div class='trialDiv'><img src='Fruit/watermelon.png'><br><font class='baseline'><strong>Watermelon Win$</strong><p><strong><font class='posOutcome'>You WON</font><p>You bet: 1</strong></font> &nbsp; &nbsp; &nbsp; &nbsp; &nbsp; &nbsp;<font class='posOutcome'>you receive: <strong>2</strong></font></div>","null","11","Watermelon Win$","Fruit/watermelon.png","Won","0.2,0.65","10","0.2","177","31","",""
"","","","decision","6401094035971e9972e06328","bdp_rwlrn","Wed Mar 15 2023 23:31:51 GMT-0400 (Eastern Daylight Time)","588639","Untrustworthy,Trustworthy","html-keyboard-response","104","268790","0.0-11.0-1.31","","1751","","<div class='trialDiv'><img src='Fruit/papayas.png'><br><font class='baseline'><strong>Papaya Payday</strong><p>Choose number of points to bet.</font><div class='respPicDiv'><img src='img/responseButtonOffersNo0L.png' class='respPic'></div></div>","5","11","Papaya Payday","Fruit/papayas.png","Won","0.8,0.35","13","0.8","182","32","",""
"","","","decisionFB","6401094035971e9972e06328","bdp_rwlrn","Wed Mar 15 2023 23:31:51 GMT-0400 (Eastern Daylight Time)","588639","Untrustworthy,Trustworthy","html-keyboard-response","105","269045","0.0-11.0-2.31","","null","","<div class='trialDiv'><img src='Fruit/papayas.png'><br><font class='baseline'><strong>Papaya Payday</strong><p>Choose number of points to bet.</font><div class='respPicDiv'><img src='img/responseButtonOffersNo0L5.png' class='respPic'></div></div>","null","11","Papaya Payday","Fruit/papayas.png","Won","0.8,0.35","13","0.8","177","32","",""
"","","","feedback","6401094035971e9972e06328","bdp_rwlrn","Wed Mar 15 2023 23:31:51 GMT-0400 (Eastern Daylight Time)","588639","Untrustworthy,Trustworthy","html-keyboard-response","106","270048","0.0-11.0-3.31","","null","","<div class='respPicDiv'><img src='img/responseButtonOffersNo0_wht.png' class='respPic'></div><div class='trialDiv'><img src='Fruit/papayas.png'><br><font class='baseline'><strong>Papaya Payday</strong><p><strong><font class='posOutcome'>You WON</font><p>You bet: 5</strong></font> &nbsp; &nbsp; &nbsp; &nbsp; &nbsp; &nbsp;<font class='posOutcome'>you receive: <strong>10</strong></font></div>","null","11","Papaya Payday","Fruit/papayas.png","Won","0.8,0.35","13","0.8","187","32","",""
"","","","decision","6401094035971e9972e06328","bdp_rwlrn","Wed Mar 15 2023 23:31:51 GMT-0400 (Eastern Daylight Time)","588639","Untrustworthy,Trustworthy","html-keyboard-response","107","271459","0.0-11.0-1.32","","1410","","<div class='trialDiv'><img src='Fruit/mixed-berries2.png'><br><font class='baseline'><strong>Berry Bla$t</strong><p>Choose number of points to bet.</font><div class='respPicDiv'><img src='img/responseButtonOffersNo0L.png' class='respPic'></div></div>","1","11","Berry Bla$t","Fruit/mixed-berries2.png","Won","0.2,0.8","11","0.2","192","33","",""
"","","","decisionFB","6401094035971e9972e06328","bdp_rwlrn","Wed Mar 15 2023 23:31:51 GMT-0400 (Eastern Daylight Time)","588639","Untrustworthy,Trustworthy","html-keyboard-response","108","271730","0.0-11.0-2.32","","null","","<div class='trialDiv'><img src='Fruit/mixed-berries2.png'><br><font class='baseline'><strong>Berry Bla$t</strong><p>Choose number of points to bet.</font><div class='respPicDiv'><img src='img/responseButtonOffersNo0L1.png' class='respPic'></div></div>","null","11","Berry Bla$t","Fruit/mixed-berries2.png","Won","0.2,0.8","11","0.2","191","33","",""
"","","","feedback","6401094035971e9972e06328","bdp_rwlrn","Wed Mar 15 2023 23:31:51 GMT-0400 (Eastern Daylight Time)","588639","Untrustworthy,Trustworthy","html-keyboard-response","109","272735","0.0-11.0-3.32","","null","","<div class='respPicDiv'><img src='img/responseButtonOffersNo0_wht.png' class='respPic'></div><div class='trialDiv'><img src='Fruit/mixed-berries2.png'><br><font class='baseline'><strong>Berry Bla$t</strong><p><strong><font class='posOutcome'>You WON</font><p>You bet: 1</strong></font> &nbsp; &nbsp; &nbsp; &nbsp; &nbsp; &nbsp;<font class='posOutcome'>you receive: <strong>2</strong></font></div>","null","11","Berry Bla$t","Fruit/mixed-berries2.png","Won","0.2,0.8","11","0.2","193","33","",""
"","","","decision","6401094035971e9972e06328","bdp_rwlrn","Wed Mar 15 2023 23:31:51 GMT-0400 (Eastern Daylight Time)","588639","Untrustworthy,Trustworthy","html-keyboard-response","110","274410","0.0-11.0-1.33","","1673","","<div class='trialDiv'><img src='Fruit/watermelon.png'><br><font class='baseline'><strong>Watermelon Win$</strong><p>Choose number of points to bet.</font><div class='respPicDiv'><img src='img/responseButtonOffersNo0L.png' class='respPic'></div></div>","2","12","Watermelon Win$","Fruit/watermelon.png","Won","0.2,0.65","10","0.2","198","34","",""
"","","","decisionFB","6401094035971e9972e06328","bdp_rwlrn","Wed Mar 15 2023 23:31:51 GMT-0400 (Eastern Daylight Time)","588639","Untrustworthy,Trustworthy","html-keyboard-response","111","274672","0.0-11.0-2.33","","null","","<div class='trialDiv'><img src='Fruit/watermelon.png'><br><font class='baseline'><strong>Watermelon Win$</strong><p>Choose number of points to bet.</font><div class='respPicDiv'><img src='img/responseButtonOffersNo0L2.png' class='respPic'></div></div>","null","12","Watermelon Win$","Fruit/watermelon.png","Won","0.2,0.65","10","0.2","196","34","",""
"","","","feedback","6401094035971e9972e06328","bdp_rwlrn","Wed Mar 15 2023 23:31:51 GMT-0400 (Eastern Daylight Time)","588639","Untrustworthy,Trustworthy","html-keyboard-response","112","275682","0.0-11.0-3.33","","null","","<div class='respPicDiv'><img src='img/responseButtonOffersNo0_wht.png' class='respPic'></div><div class='trialDiv'><img src='Fruit/watermelon.png'><br><font class='baseline'><strong>Watermelon Win$</strong><p><strong><font class='posOutcome'>You WON</font><p>You bet: 2</strong></font> &nbsp; &nbsp; &nbsp; &nbsp; &nbsp; &nbsp;<font class='posOutcome'>you receive: <strong>4</strong></font></div>","null","12","Watermelon Win$","Fruit/watermelon.png","Won","0.2,0.65","10","0.2","200","34","",""
"","","","decision","6401094035971e9972e06328","bdp_rwlrn","Wed Mar 15 2023 23:31:51 GMT-0400 (Eastern Daylight Time)","588639","Untrustworthy,Trustworthy","html-keyboard-response","113","276819","0.0-11.0-1.34","","1136","","<div class='trialDiv'><img src='Fruit/mixed-berries2.png'><br><font class='baseline'><strong>Berry Bla$t</strong><p>Choose number of points to bet.</font><div class='respPicDiv'><img src='img/responseButtonOffersNo0L.png' class='respPic'></div></div>","2","12","Berry Bla$t","Fruit/mixed-berries2.png","Won","0.2,0.8","11","0.2","205","35","",""
"","","","decisionFB","6401094035971e9972e06328","bdp_rwlrn","Wed Mar 15 2023 23:31:51 GMT-0400 (Eastern Daylight Time)","588639","Untrustworthy,Trustworthy","html-keyboard-response","114","277072","0.0-11.0-2.34","","null","","<div class='trialDiv'><img src='Fruit/mixed-berries2.png'><br><font class='baseline'><strong>Berry Bla$t</strong><p>Choose number of points to bet.</font><div class='respPicDiv'><img src='img/responseButtonOffersNo0L2.png' class='respPic'></div></div>","null","12","Berry Bla$t","Fruit/mixed-berries2.png","Won","0.2,0.8","11","0.2","203","35","",""
"","","","feedback","6401094035971e9972e06328","bdp_rwlrn","Wed Mar 15 2023 23:31:51 GMT-0400 (Eastern Daylight Time)","588639","Untrustworthy,Trustworthy","html-keyboard-response","115","278075","0.0-11.0-3.34","","null","","<div class='respPicDiv'><img src='img/responseButtonOffersNo0_wht.png' class='respPic'></div><div class='trialDiv'><img src='Fruit/mixed-berries2.png'><br><font class='baseline'><strong>Berry Bla$t</strong><p><strong><font class='posOutcome'>You WON</font><p>You bet: 2</strong></font> &nbsp; &nbsp; &nbsp; &nbsp; &nbsp; &nbsp;<font class='posOutcome'>you receive: <strong>4</strong></font></div>","null","12","Berry Bla$t","Fruit/mixed-berries2.png","Won","0.2,0.8","11","0.2","207","35","",""
"","","","decision","6401094035971e9972e06328","bdp_rwlrn","Wed Mar 15 2023 23:31:51 GMT-0400 (Eastern Daylight Time)","588639","Untrustworthy,Trustworthy","html-keyboard-response","116","278850","0.0-11.0-1.35","","773","","<div class='trialDiv'><img src='Fruit/papayas.png'><br><font class='baseline'><strong>Papaya Payday</strong><p>Choose number of points to bet.</font><div class='respPicDiv'><img src='img/responseButtonOffersNo0L.png' class='respPic'></div></div>","5","12","Papaya Payday","Fruit/papayas.png","Won","0.8,0.35","13","0.8","212","36","",""
"","","","decisionFB","6401094035971e9972e06328","bdp_rwlrn","Wed Mar 15 2023 23:31:51 GMT-0400 (Eastern Daylight Time)","588639","Untrustworthy,Trustworthy","html-keyboard-response","117","279109","0.0-11.0-2.35","","null","","<div class='trialDiv'><img src='Fruit/papayas.png'><br><font class='baseline'><strong>Papaya Payday</strong><p>Choose number of points to bet.</font><div class='respPicDiv'><img src='img/responseButtonOffersNo0L5.png' class='respPic'></div></div>","null","12","Papaya Payday","Fruit/papayas.png","Won","0.8,0.35","13","0.8","207","36","",""
"","","","feedback","6401094035971e9972e06328","bdp_rwlrn","Wed Mar 15 2023 23:31:51 GMT-0400 (Eastern Daylight Time)","588639","Untrustworthy,Trustworthy","html-keyboard-response","118","280113","0.0-11.0-3.35","","null","","<div class='respPicDiv'><img src='img/responseButtonOffersNo0_wht.png' class='respPic'></div><div class='trialDiv'><img src='Fruit/papayas.png'><br><font class='baseline'><strong>Papaya Payday</strong><p><strong><font class='posOutcome'>You WON</font><p>You bet: 5</strong></font> &nbsp; &nbsp; &nbsp; &nbsp; &nbsp; &nbsp;<font class='posOutcome'>you receive: <strong>10</strong></font></div>","null","12","Papaya Payday","Fruit/papayas.png","Won","0.8,0.35","13","0.8","217","36","",""
"","","","decision","6401094035971e9972e06328","bdp_rwlrn","Wed Mar 15 2023 23:31:51 GMT-0400 (Eastern Daylight Time)","588639","Untrustworthy,Trustworthy","html-keyboard-response","119","280939","0.0-11.0-1.36","","825","","<div class='trialDiv'><img src='Fruit/watermelon.png'><br><font class='baseline'><strong>Watermelon Win$</strong><p>Choose number of points to bet.</font><div class='respPicDiv'><img src='img/responseButtonOffersNo0L.png' class='respPic'></div></div>","3","13","Watermelon Win$","Fruit/watermelon.png","Won","0.2,0.65","10","0.2","222","37","",""
"","","","decisionFB","6401094035971e9972e06328","bdp_rwlrn","Wed Mar 15 2023 23:31:51 GMT-0400 (Eastern Daylight Time)","588639","Untrustworthy,Trustworthy","html-keyboard-response","120","281200","0.0-11.0-2.36","","null","","<div class='trialDiv'><img src='Fruit/watermelon.png'><br><font class='baseline'><strong>Watermelon Win$</strong><p>Choose number of points to bet.</font><div class='respPicDiv'><img src='img/responseButtonOffersNo0L3.png' class='respPic'></div></div>","null","13","Watermelon Win$","Fruit/watermelon.png","Won","0.2,0.65","10","0.2","219","37","",""
"","","","feedback","6401094035971e9972e06328","bdp_rwlrn","Wed Mar 15 2023 23:31:51 GMT-0400 (Eastern Daylight Time)","588639","Untrustworthy,Trustworthy","html-keyboard-response","121","282205","0.0-11.0-3.36","","null","","<div class='respPicDiv'><img src='img/responseButtonOffersNo0_wht.png' class='respPic'></div><div class='trialDiv'><img src='Fruit/watermelon.png'><br><font class='baseline'><strong>Watermelon Win$</strong><p><strong><font class='posOutcome'>You WON</font><p>You bet: 3</strong></font> &nbsp; &nbsp; &nbsp; &nbsp; &nbsp; &nbsp;<font class='posOutcome'>you receive: <strong>6</strong></font></div>","null","13","Watermelon Win$","Fruit/watermelon.png","Won","0.2,0.65","10","0.2","225","37","",""
"","","","decision","6401094035971e9972e06328","bdp_rwlrn","Wed Mar 15 2023 23:31:51 GMT-0400 (Eastern Daylight Time)","588639","Untrustworthy,Trustworthy","html-keyboard-response","122","283190","0.0-11.0-1.37","","983","","<div class='trialDiv'><img src='Fruit/papayas.png'><br><font class='baseline'><strong>Papaya Payday</strong><p>Choose number of points to bet.</font><div class='respPicDiv'><img src='img/responseButtonOffersNo0L.png' class='respPic'></div></div>","5","13","Papaya Payday","Fruit/papayas.png","Lost","0.8,0.35","13","0.8","230","38","",""
"","","","decisionFB","6401094035971e9972e06328","bdp_rwlrn","Wed Mar 15 2023 23:31:51 GMT-0400 (Eastern Daylight Time)","588639","Untrustworthy,Trustworthy","html-keyboard-response","123","283455","0.0-11.0-2.37","","null","","<div class='trialDiv'><img src='Fruit/papayas.png'><br><font class='baseline'><strong>Papaya Payday</strong><p>Choose number of points to bet.</font><div class='respPicDiv'><img src='img/responseButtonOffersNo0L5.png' class='respPic'></div></div>","null","13","Papaya Payday","Fruit/papayas.png","Lost","0.8,0.35","13","0.8","225","38","",""
"","","","feedback","6401094035971e9972e06328","bdp_rwlrn","Wed Mar 15 2023 23:31:51 GMT-0400 (Eastern Daylight Time)","588639","Untrustworthy,Trustworthy","html-keyboard-response","124","284460","0.0-11.0-3.37","","null","","<div class='respPicDiv'><img src='img/responseButtonOffersNo0_wht.png' class='respPic'></div><div class='trialDiv'><img src='Fruit/papayas.png'><br><font class='baseline'><strong>Papaya Payday</strong><p><strong><font class='negOutcome'>You LOST</font><p>You bet: 5</strong></font> &nbsp; &nbsp; &nbsp; &nbsp; &nbsp; &nbsp;<font class='negOutcome'>You receive: <strong>0</strong></font></div>","null","13","Papaya Payday","Fruit/papayas.png","Lost","0.8,0.35","13","0.8","225","38","",""
"","","","decision","6401094035971e9972e06328","bdp_rwlrn","Wed Mar 15 2023 23:31:51 GMT-0400 (Eastern Daylight Time)","588639","Untrustworthy,Trustworthy","html-keyboard-response","125","285938","0.0-11.0-1.38","","1477","","<div class='trialDiv'><img src='Fruit/mixed-berries2.png'><br><font class='baseline'><strong>Berry Bla$t</strong><p>Choose number of points to bet.</font><div class='respPicDiv'><img src='img/responseButtonOffersNo0L.png' class='respPic'></div></div>","3","13","Berry Bla$t","Fruit/mixed-berries2.png","Won","0.2,0.8","11","0.2","230","39","",""
"","","","decisionFB","6401094035971e9972e06328","bdp_rwlrn","Wed Mar 15 2023 23:31:51 GMT-0400 (Eastern Daylight Time)","588639","Untrustworthy,Trustworthy","html-keyboard-response","126","286204","0.0-11.0-2.38","","null","","<div class='trialDiv'><img src='Fruit/mixed-berries2.png'><br><font class='baseline'><strong>Berry Bla$t</strong><p>Choose number of points to bet.</font><div class='respPicDiv'><img src='img/responseButtonOffersNo0L3.png' class='respPic'></div></div>","null","13","Berry Bla$t","Fruit/mixed-berries2.png","Won","0.2,0.8","11","0.2","227","39","",""
"","","","feedback","6401094035971e9972e06328","bdp_rwlrn","Wed Mar 15 2023 23:31:51 GMT-0400 (Eastern Daylight Time)","588639","Untrustworthy,Trustworthy","html-keyboard-response","127","287208","0.0-11.0-3.38","","null","","<div class='respPicDiv'><img src='img/responseButtonOffersNo0_wht.png' class='respPic'></div><div class='trialDiv'><img src='Fruit/mixed-berries2.png'><br><font class='baseline'><strong>Berry Bla$t</strong><p><strong><font class='posOutcome'>You WON</font><p>You bet: 3</strong></font> &nbsp; &nbsp; &nbsp; &nbsp; &nbsp; &nbsp;<font class='posOutcome'>you receive: <strong>6</strong></font></div>","null","13","Berry Bla$t","Fruit/mixed-berries2.png","Won","0.2,0.8","11","0.2","233","39","",""
"","","","decision","6401094035971e9972e06328","bdp_rwlrn","Wed Mar 15 2023 23:31:51 GMT-0400 (Eastern Daylight Time)","588639","Untrustworthy,Trustworthy","html-keyboard-response","128","288130","0.0-11.0-1.39","","920","","<div class='trialDiv'><img src='Fruit/watermelon.png'><br><font class='baseline'><strong>Watermelon Win$</strong><p>Choose number of points to bet.</font><div class='respPicDiv'><img src='img/responseButtonOffersNo0L.png' class='respPic'></div></div>","3","14","Watermelon Win$","Fruit/watermelon.png","Won","0.2,0.65","10","0.2","238","40","",""
"","","","decisionFB","6401094035971e9972e06328","bdp_rwlrn","Wed Mar 15 2023 23:31:51 GMT-0400 (Eastern Daylight Time)","588639","Untrustworthy,Trustworthy","html-keyboard-response","129","288389","0.0-11.0-2.39","","null","","<div class='trialDiv'><img src='Fruit/watermelon.png'><br><font class='baseline'><strong>Watermelon Win$</strong><p>Choose number of points to bet.</font><div class='respPicDiv'><img src='img/responseButtonOffersNo0L3.png' class='respPic'></div></div>","null","14","Watermelon Win$","Fruit/watermelon.png","Won","0.2,0.65","10","0.2","235","40","",""
"","","","feedback","6401094035971e9972e06328","bdp_rwlrn","Wed Mar 15 2023 23:31:51 GMT-0400 (Eastern Daylight Time)","588639","Untrustworthy,Trustworthy","html-keyboard-response","130","289392","0.0-11.0-3.39","","null","","<div class='respPicDiv'><img src='img/responseButtonOffersNo0_wht.png' class='respPic'></div><div class='trialDiv'><img src='Fruit/watermelon.png'><br><font class='baseline'><strong>Watermelon Win$</strong><p><strong><font class='posOutcome'>You WON</font><p>You bet: 3</strong></font> &nbsp; &nbsp; &nbsp; &nbsp; &nbsp; &nbsp;<font class='posOutcome'>you receive: <strong>6</strong></font></div>","null","14","Watermelon Win$","Fruit/watermelon.png","Won","0.2,0.65","10","0.2","241","40","",""
"","","","decision","6401094035971e9972e06328","bdp_rwlrn","Wed Mar 15 2023 23:31:51 GMT-0400 (Eastern Daylight Time)","588639","Untrustworthy,Trustworthy","html-keyboard-response","131","290979","0.0-11.0-1.40","","1586","","<div class='trialDiv'><img src='Fruit/papayas.png'><br><font class='baseline'><strong>Papaya Payday</strong><p>Choose number of points to bet.</font><div class='respPicDiv'><img src='img/responseButtonOffersNo0L.png' class='respPic'></div></div>","3","14","Papaya Payday","Fruit/papayas.png","Won","0.8,0.35","13","0.8","246","41","",""
"","","","decisionFB","6401094035971e9972e06328","bdp_rwlrn","Wed Mar 15 2023 23:31:51 GMT-0400 (Eastern Daylight Time)","588639","Untrustworthy,Trustworthy","html-keyboard-response","132","291236","0.0-11.0-2.40","","null","","<div class='trialDiv'><img src='Fruit/papayas.png'><br><font class='baseline'><strong>Papaya Payday</strong><p>Choose number of points to bet.</font><div class='respPicDiv'><img src='img/responseButtonOffersNo0L3.png' class='respPic'></div></div>","null","14","Papaya Payday","Fruit/papayas.png","Won","0.8,0.35","13","0.8","243","41","",""
"","","","feedback","6401094035971e9972e06328","bdp_rwlrn","Wed Mar 15 2023 23:31:51 GMT-0400 (Eastern Daylight Time)","588639","Untrustworthy,Trustworthy","html-keyboard-response","133","292240","0.0-11.0-3.40","","null","","<div class='respPicDiv'><img src='img/responseButtonOffersNo0_wht.png' class='respPic'></div><div class='trialDiv'><img src='Fruit/papayas.png'><br><font class='baseline'><strong>Papaya Payday</strong><p><strong><font class='posOutcome'>You WON</font><p>You bet: 3</strong></font> &nbsp; &nbsp; &nbsp; &nbsp; &nbsp; &nbsp;<font class='posOutcome'>you receive: <strong>6</strong></font></div>","null","14","Papaya Payday","Fruit/papayas.png","Won","0.8,0.35","13","0.8","249","41","",""
"","","","decision","6401094035971e9972e06328","bdp_rwlrn","Wed Mar 15 2023 23:31:51 GMT-0400 (Eastern Daylight Time)","588639","Untrustworthy,Trustworthy","html-keyboard-response","134","293300","0.0-11.0-1.41","","1058","","<div class='trialDiv'><img src='Fruit/mixed-berries2.png'><br><font class='baseline'><strong>Berry Bla$t</strong><p>Choose number of points to bet.</font><div class='respPicDiv'><img src='img/responseButtonOffersNo0L.png' class='respPic'></div></div>","3","14","Berry Bla$t","Fruit/mixed-berries2.png","Won","0.2,0.8","11","0.2","254","42","",""
"","","","decisionFB","6401094035971e9972e06328","bdp_rwlrn","Wed Mar 15 2023 23:31:51 GMT-0400 (Eastern Daylight Time)","588639","Untrustworthy,Trustworthy","html-keyboard-response","135","293560","0.0-11.0-2.41","","null","","<div class='trialDiv'><img src='Fruit/mixed-berries2.png'><br><font class='baseline'><strong>Berry Bla$t</strong><p>Choose number of points to bet.</font><div class='respPicDiv'><img src='img/responseButtonOffersNo0L3.png' class='respPic'></div></div>","null","14","Berry Bla$t","Fruit/mixed-berries2.png","Won","0.2,0.8","11","0.2","251","42","",""
"","","","feedback","6401094035971e9972e06328","bdp_rwlrn","Wed Mar 15 2023 23:31:51 GMT-0400 (Eastern Daylight Time)","588639","Untrustworthy,Trustworthy","html-keyboard-response","136","294563","0.0-11.0-3.41","","null","","<div class='respPicDiv'><img src='img/responseButtonOffersNo0_wht.png' class='respPic'></div><div class='trialDiv'><img src='Fruit/mixed-berries2.png'><br><font class='baseline'><strong>Berry Bla$t</strong><p><strong><font class='posOutcome'>You WON</font><p>You bet: 3</strong></font> &nbsp; &nbsp; &nbsp; &nbsp; &nbsp; &nbsp;<font class='posOutcome'>you receive: <strong>6</strong></font></div>","null","14","Berry Bla$t","Fruit/mixed-berries2.png","Won","0.2,0.8","11","0.2","257","42","",""
"","","","decision","6401094035971e9972e06328","bdp_rwlrn","Wed Mar 15 2023 23:31:51 GMT-0400 (Eastern Daylight Time)","588639","Untrustworthy,Trustworthy","html-keyboard-response","137","295420","0.0-11.0-1.42","","855","","<div class='trialDiv'><img src='Fruit/papayas.png'><br><font class='baseline'><strong>Papaya Payday</strong><p>Choose number of points to bet.</font><div class='respPicDiv'><img src='img/responseButtonOffersNo0L.png' class='respPic'></div></div>","3","15","Papaya Payday","Fruit/papayas.png","Lost","0.8,0.35","13","0.8","262","43","",""
"","","","decisionFB","6401094035971e9972e06328","bdp_rwlrn","Wed Mar 15 2023 23:31:51 GMT-0400 (Eastern Daylight Time)","588639","Untrustworthy,Trustworthy","html-keyboard-response","138","295682","0.0-11.0-2.42","","null","","<div class='trialDiv'><img src='Fruit/papayas.png'><br><font class='baseline'><strong>Papaya Payday</strong><p>Choose number of points to bet.</font><div class='respPicDiv'><img src='img/responseButtonOffersNo0L3.png' class='respPic'></div></div>","null","15","Papaya Payday","Fruit/papayas.png","Lost","0.8,0.35","13","0.8","259","43","",""
"","","","feedback","6401094035971e9972e06328","bdp_rwlrn","Wed Mar 15 2023 23:31:51 GMT-0400 (Eastern Daylight Time)","588639","Untrustworthy,Trustworthy","html-keyboard-response","139","296686","0.0-11.0-3.42","","null","","<div class='respPicDiv'><img src='img/responseButtonOffersNo0_wht.png' class='respPic'></div><div class='trialDiv'><img src='Fruit/papayas.png'><br><font class='baseline'><strong>Papaya Payday</strong><p><strong><font class='negOutcome'>You LOST</font><p>You bet: 3</strong></font> &nbsp; &nbsp; &nbsp; &nbsp; &nbsp; &nbsp;<font class='negOutcome'>You receive: <strong>0</strong></font></div>","null","15","Papaya Payday","Fruit/papayas.png","Lost","0.8,0.35","13","0.8","259","43","",""
"","","","decision","6401094035971e9972e06328","bdp_rwlrn","Wed Mar 15 2023 23:31:51 GMT-0400 (Eastern Daylight Time)","588639","Untrustworthy,Trustworthy","html-keyboard-response","140","297300","0.0-11.0-1.43","","611","","<div class='trialDiv'><img src='Fruit/mixed-berries2.png'><br><font class='baseline'><strong>Berry Bla$t</strong><p>Choose number of points to bet.</font><div class='respPicDiv'><img src='img/responseButtonOffersNo0L.png' class='respPic'></div></div>","3","15","Berry Bla$t","Fruit/mixed-berries2.png","Won","0.2,0.8","11","0.2","264","44","",""
"","","","decisionFB","6401094035971e9972e06328","bdp_rwlrn","Wed Mar 15 2023 23:31:51 GMT-0400 (Eastern Daylight Time)","588639","Untrustworthy,Trustworthy","html-keyboard-response","141","297558","0.0-11.0-2.43","","null","","<div class='trialDiv'><img src='Fruit/mixed-berries2.png'><br><font class='baseline'><strong>Berry Bla$t</strong><p>Choose number of points to bet.</font><div class='respPicDiv'><img src='img/responseButtonOffersNo0L3.png' class='respPic'></div></div>","null","15","Berry Bla$t","Fruit/mixed-berries2.png","Won","0.2,0.8","11","0.2","261","44","",""
"","","","feedback","6401094035971e9972e06328","bdp_rwlrn","Wed Mar 15 2023 23:31:51 GMT-0400 (Eastern Daylight Time)","588639","Untrustworthy,Trustworthy","html-keyboard-response","142","298561","0.0-11.0-3.43","","null","","<div class='respPicDiv'><img src='img/responseButtonOffersNo0_wht.png' class='respPic'></div><div class='trialDiv'><img src='Fruit/mixed-berries2.png'><br><font class='baseline'><strong>Berry Bla$t</strong><p><strong><font class='posOutcome'>You WON</font><p>You bet: 3</strong></font> &nbsp; &nbsp; &nbsp; &nbsp; &nbsp; &nbsp;<font class='posOutcome'>you receive: <strong>6</strong></font></div>","null","15","Berry Bla$t","Fruit/mixed-berries2.png","Won","0.2,0.8","11","0.2","267","44","",""
"","","","decision","6401094035971e9972e06328","bdp_rwlrn","Wed Mar 15 2023 23:31:51 GMT-0400 (Eastern Daylight Time)","588639","Untrustworthy,Trustworthy","html-keyboard-response","143","299320","0.0-11.0-1.44","","758","","<div class='trialDiv'><img src='Fruit/watermelon.png'><br><font class='baseline'><strong>Watermelon Win$</strong><p>Choose number of points to bet.</font><div class='respPicDiv'><img src='img/responseButtonOffersNo0L.png' class='respPic'></div></div>","3","15","Watermelon Win$","Fruit/watermelon.png","Won","0.2,0.65","10","0.2","272","45","",""
"","","","decisionFB","6401094035971e9972e06328","bdp_rwlrn","Wed Mar 15 2023 23:31:51 GMT-0400 (Eastern Daylight Time)","588639","Untrustworthy,Trustworthy","html-keyboard-response","144","299580","0.0-11.0-2.44","","null","","<div class='trialDiv'><img src='Fruit/watermelon.png'><br><font class='baseline'><strong>Watermelon Win$</strong><p>Choose number of points to bet.</font><div class='respPicDiv'><img src='img/responseButtonOffersNo0L3.png' class='respPic'></div></div>","null","15","Watermelon Win$","Fruit/watermelon.png","Won","0.2,0.65","10","0.2","269","45","",""
"","","","feedback","6401094035971e9972e06328","bdp_rwlrn","Wed Mar 15 2023 23:31:51 GMT-0400 (Eastern Daylight Time)","588639","Untrustworthy,Trustworthy","html-keyboard-response","145","300583","0.0-11.0-3.44","","null","","<div class='respPicDiv'><img src='img/responseButtonOffersNo0_wht.png' class='respPic'></div><div class='trialDiv'><img src='Fruit/watermelon.png'><br><font class='baseline'><strong>Watermelon Win$</strong><p><strong><font class='posOutcome'>You WON</font><p>You bet: 3</strong></font> &nbsp; &nbsp; &nbsp; &nbsp; &nbsp; &nbsp;<font class='posOutcome'>you receive: <strong>6</strong></font></div>","null","15","Watermelon Win$","Fruit/watermelon.png","Won","0.2,0.65","10","0.2","275","45","",""
"","","","decision","6401094035971e9972e06328","bdp_rwlrn","Wed Mar 15 2023 23:31:51 GMT-0400 (Eastern Daylight Time)","588639","Untrustworthy,Trustworthy","html-keyboard-response","146","301500","0.0-11.0-1.45","","914","","<div class='trialDiv'><img src='Fruit/mixed-berries2.png'><br><font class='baseline'><strong>Berry Bla$t</strong><p>Choose number of points to bet.</font><div class='respPicDiv'><img src='img/responseButtonOffersNo0L.png' class='respPic'></div></div>","3","16","Berry Bla$t","Fruit/mixed-berries2.png","Won","0.2,0.8","11","0.2","280","46","",""
"","","","decisionFB","6401094035971e9972e06328","bdp_rwlrn","Wed Mar 15 2023 23:31:51 GMT-0400 (Eastern Daylight Time)","588639","Untrustworthy,Trustworthy","html-keyboard-response","147","301757","0.0-11.0-2.45","","null","","<div class='trialDiv'><img src='Fruit/mixed-berries2.png'><br><font class='baseline'><strong>Berry Bla$t</strong><p>Choose number of points to bet.</font><div class='respPicDiv'><img src='img/responseButtonOffersNo0L3.png' class='respPic'></div></div>","null","16","Berry Bla$t","Fruit/mixed-berries2.png","Won","0.2,0.8","11","0.2","277","46","",""
"","","","feedback","6401094035971e9972e06328","bdp_rwlrn","Wed Mar 15 2023 23:31:51 GMT-0400 (Eastern Daylight Time)","588639","Untrustworthy,Trustworthy","html-keyboard-response","148","302759","0.0-11.0-3.45","","null","","<div class='respPicDiv'><img src='img/responseButtonOffersNo0_wht.png' class='respPic'></div><div class='trialDiv'><img src='Fruit/mixed-berries2.png'><br><font class='baseline'><strong>Berry Bla$t</strong><p><strong><font class='posOutcome'>You WON</font><p>You bet: 3</strong></font> &nbsp; &nbsp; &nbsp; &nbsp; &nbsp; &nbsp;<font class='posOutcome'>you receive: <strong>6</strong></font></div>","null","16","Berry Bla$t","Fruit/mixed-berries2.png","Won","0.2,0.8","11","0.2","283","46","",""
"","","","decision","6401094035971e9972e06328","bdp_rwlrn","Wed Mar 15 2023 23:31:51 GMT-0400 (Eastern Daylight Time)","588639","Untrustworthy,Trustworthy","html-keyboard-response","149","303818","0.0-11.0-1.46","","1057","","<div class='trialDiv'><img src='Fruit/papayas.png'><br><font class='baseline'><strong>Papaya Payday</strong><p>Choose number of points to bet.</font><div class='respPicDiv'><img src='img/responseButtonOffersNo0L.png' class='respPic'></div></div>","3","16","Papaya Payday","Fruit/papayas.png","Won","0.8,0.35","13","0.8","288","47","",""
"","","","decisionFB","6401094035971e9972e06328","bdp_rwlrn","Wed Mar 15 2023 23:31:51 GMT-0400 (Eastern Daylight Time)","588639","Untrustworthy,Trustworthy","html-keyboard-response","150","304079","0.0-11.0-2.46","","null","","<div class='trialDiv'><img src='Fruit/papayas.png'><br><font class='baseline'><strong>Papaya Payday</strong><p>Choose number of points to bet.</font><div class='respPicDiv'><img src='img/responseButtonOffersNo0L3.png' class='respPic'></div></div>","null","16","Papaya Payday","Fruit/papayas.png","Won","0.8,0.35","13","0.8","285","47","",""
"","","","feedback","6401094035971e9972e06328","bdp_rwlrn","Wed Mar 15 2023 23:31:51 GMT-0400 (Eastern Daylight Time)","588639","Untrustworthy,Trustworthy","html-keyboard-response","151","305083","0.0-11.0-3.46","","null","","<div class='respPicDiv'><img src='img/responseButtonOffersNo0_wht.png' class='respPic'></div><div class='trialDiv'><img src='Fruit/papayas.png'><br><font class='baseline'><strong>Papaya Payday</strong><p><strong><font class='posOutcome'>You WON</font><p>You bet: 3</strong></font> &nbsp; &nbsp; &nbsp; &nbsp; &nbsp; &nbsp;<font class='posOutcome'>you receive: <strong>6</strong></font></div>","null","16","Papaya Payday","Fruit/papayas.png","Won","0.8,0.35","13","0.8","291","47","",""
"","","","decision","6401094035971e9972e06328","bdp_rwlrn","Wed Mar 15 2023 23:31:51 GMT-0400 (Eastern Daylight Time)","588639","Untrustworthy,Trustworthy","html-keyboard-response","152","306560","0.0-11.0-1.47","","1475","","<div class='trialDiv'><img src='Fruit/watermelon.png'><br><font class='baseline'><strong>Watermelon Win$</strong><p>Choose number of points to bet.</font><div class='respPicDiv'><img src='img/responseButtonOffersNo0L.png' class='respPic'></div></div>","5","16","Watermelon Win$","Fruit/watermelon.png","Won","0.2,0.65","10","0.2","296","48","",""
"","","","decisionFB","6401094035971e9972e06328","bdp_rwlrn","Wed Mar 15 2023 23:31:51 GMT-0400 (Eastern Daylight Time)","588639","Untrustworthy,Trustworthy","html-keyboard-response","153","306820","0.0-11.0-2.47","","null","","<div class='trialDiv'><img src='Fruit/watermelon.png'><br><font class='baseline'><strong>Watermelon Win$</strong><p>Choose number of points to bet.</font><div class='respPicDiv'><img src='img/responseButtonOffersNo0L5.png' class='respPic'></div></div>","null","16","Watermelon Win$","Fruit/watermelon.png","Won","0.2,0.65","10","0.2","291","48","",""
"","","","feedback","6401094035971e9972e06328","bdp_rwlrn","Wed Mar 15 2023 23:31:51 GMT-0400 (Eastern Daylight Time)","588639","Untrustworthy,Trustworthy","html-keyboard-response","154","307823","0.0-11.0-3.47","","null","","<div class='respPicDiv'><img src='img/responseButtonOffersNo0_wht.png' class='respPic'></div><div class='trialDiv'><img src='Fruit/watermelon.png'><br><font class='baseline'><strong>Watermelon Win$</strong><p><strong><font class='posOutcome'>You WON</font><p>You bet: 5</strong></font> &nbsp; &nbsp; &nbsp; &nbsp; &nbsp; &nbsp;<font class='posOutcome'>you receive: <strong>10</strong></font></div>","null","16","Watermelon Win$","Fruit/watermelon.png","Won","0.2,0.65","10","0.2","301","48","",""
"","","","decision","6401094035971e9972e06328","bdp_rwlrn","Wed Mar 15 2023 23:31:51 GMT-0400 (Eastern Daylight Time)","588639","Untrustworthy,Trustworthy","html-keyboard-response","155","308390","0.0-11.0-1.48","","565","","<div class='trialDiv'><img src='Fruit/mixed-berries2.png'><br><font class='baseline'><strong>Berry Bla$t</strong><p>Choose number of points to bet.</font><div class='respPicDiv'><img src='img/responseButtonOffersNo0L.png' class='respPic'></div></div>","5","17","Berry Bla$t","Fruit/mixed-berries2.png","Won","0.2,0.8","11","0.2","306","49","",""
"","","","decisionFB","6401094035971e9972e06328","bdp_rwlrn","Wed Mar 15 2023 23:31:51 GMT-0400 (Eastern Daylight Time)","588639","Untrustworthy,Trustworthy","html-keyboard-response","156","308641","0.0-11.0-2.48","","null","","<div class='trialDiv'><img src='Fruit/mixed-berries2.png'><br><font class='baseline'><strong>Berry Bla$t</strong><p>Choose number of points to bet.</font><div class='respPicDiv'><img src='img/responseButtonOffersNo0L5.png' class='respPic'></div></div>","null","17","Berry Bla$t","Fruit/mixed-berries2.png","Won","0.2,0.8","11","0.2","301","49","",""
"","","","feedback","6401094035971e9972e06328","bdp_rwlrn","Wed Mar 15 2023 23:31:51 GMT-0400 (Eastern Daylight Time)","588639","Untrustworthy,Trustworthy","html-keyboard-response","157","309644","0.0-11.0-3.48","","null","","<div class='respPicDiv'><img src='img/responseButtonOffersNo0_wht.png' class='respPic'></div><div class='trialDiv'><img src='Fruit/mixed-berries2.png'><br><font class='baseline'><strong>Berry Bla$t</strong><p><strong><font class='posOutcome'>You WON</font><p>You bet: 5</strong></font> &nbsp; &nbsp; &nbsp; &nbsp; &nbsp; &nbsp;<font class='posOutcome'>you receive: <strong>10</strong></font></div>","null","17","Berry Bla$t","Fruit/mixed-berries2.png","Won","0.2,0.8","11","0.2","311","49","",""
"","","","decision","6401094035971e9972e06328","bdp_rwlrn","Wed Mar 15 2023 23:31:51 GMT-0400 (Eastern Daylight Time)","588639","Untrustworthy,Trustworthy","html-keyboard-response","158","310140","0.0-11.0-1.49","","494","","<div class='trialDiv'><img src='Fruit/papayas.png'><br><font class='baseline'><strong>Papaya Payday</strong><p>Choose number of points to bet.</font><div class='respPicDiv'><img src='img/responseButtonOffersNo0L.png' class='respPic'></div></div>","5","17","Papaya Payday","Fruit/papayas.png","Lost","0.8,0.35","13","0.8","316","50","",""
"","","","decisionFB","6401094035971e9972e06328","bdp_rwlrn","Wed Mar 15 2023 23:31:51 GMT-0400 (Eastern Daylight Time)","588639","Untrustworthy,Trustworthy","html-keyboard-response","159","310400","0.0-11.0-2.49","","null","","<div class='trialDiv'><img src='Fruit/papayas.png'><br><font class='baseline'><strong>Papaya Payday</strong><p>Choose number of points to bet.</font><div class='respPicDiv'><img src='img/responseButtonOffersNo0L5.png' class='respPic'></div></div>","null","17","Papaya Payday","Fruit/papayas.png","Lost","0.8,0.35","13","0.8","311","50","",""
"","","","feedback","6401094035971e9972e06328","bdp_rwlrn","Wed Mar 15 2023 23:31:51 GMT-0400 (Eastern Daylight Time)","588639","Untrustworthy,Trustworthy","html-keyboard-response","160","311403","0.0-11.0-3.49","","null","","<div class='respPicDiv'><img src='img/responseButtonOffersNo0_wht.png' class='respPic'></div><div class='trialDiv'><img src='Fruit/papayas.png'><br><font class='baseline'><strong>Papaya Payday</strong><p><strong><font class='negOutcome'>You LOST</font><p>You bet: 5</strong></font> &nbsp; &nbsp; &nbsp; &nbsp; &nbsp; &nbsp;<font class='negOutcome'>You receive: <strong>0</strong></font></div>","null","17","Papaya Payday","Fruit/papayas.png","Lost","0.8,0.35","13","0.8","311","50","",""
"","","","decision","6401094035971e9972e06328","bdp_rwlrn","Wed Mar 15 2023 23:31:51 GMT-0400 (Eastern Daylight Time)","588639","Untrustworthy,Trustworthy","html-keyboard-response","161","311789","0.0-11.0-1.50","","384","","<div class='trialDiv'><img src='Fruit/watermelon.png'><br><font class='baseline'><strong>Watermelon Win$</strong><p>Choose number of points to bet.</font><div class='respPicDiv'><img src='img/responseButtonOffersNo0L.png' class='respPic'></div></div>","5","17","Watermelon Win$","Fruit/watermelon.png","Lost","0.2,0.65","10","0.2","316","51","",""
