"trial_type","trial_index","time_elapsed","internal_node_id","subject_id","task","startTime","totalTime","labels","event","trial","time","trialtype","numBlurs","view_history","rt","success","stimulus","key_press","ltround","name","fileID","outcome","lottotype","lottoswpt","lottocurrpshare","point_total","round","faceID","face"
"pavlovia","0","2","0.0-0.0","571144323d47e800096358d9","bdp_rwlrn","Tue Mar 14 2023 00:37:03 GMT-0400 (Eastern Daylight Time)","339781","Untrustworthy,Trustworthy","","","","","","","","","","","","","","","","","","","","",""
"","","","","571144323d47e800096358d9","bdp_rwlrn","Tue Mar 14 2023 00:37:03 GMT-0400 (Eastern Daylight Time)","339781","Untrustworthy,Trustworthy","blur","1","4711","blurevent","1","","","","","","","","","","","","","","","",""
"","","","","571144323d47e800096358d9","bdp_rwlrn","Tue Mar 14 2023 00:37:03 GMT-0400 (Eastern Daylight Time)","339781","Untrustworthy,Trustworthy","focus","1","8324","focusevent","","","","","","","","","","","","","","","","",""
"instructions","1","9613","0.0-1.0","571144323d47e800096358d9","bdp_rwlrn","Tue Mar 14 2023 00:37:03 GMT-0400 (Eastern Daylight Time)","339781","Untrustworthy,Trustworthy","","","","","","[{""page_index"":0,""viewing_time"":9610}]","9610","","","","","","","","","","","","","",""
"","","","","571144323d47e800096358d9","bdp_rwlrn","Tue Mar 14 2023 00:37:03 GMT-0400 (Eastern Daylight Time)","339781","Untrustworthy,Trustworthy","fullscreenenter","2","10973","fullscreenenter","","","","","","","","","","","","","","","","",""
"","","","","571144323d47e800096358d9","bdp_rwlrn","Tue Mar 14 2023 00:37:03 GMT-0400 (Eastern Daylight Time)","339781","Untrustworthy,Trustworthy","fullscreenexit","2","11572","fullscreenexit","","","","","","","","","","","","","","","","",""
"fullscreen","2","11960","0.0-2.0","571144323d47e800096358d9","bdp_rwlrn","Tue Mar 14 2023 00:37:03 GMT-0400 (Eastern Daylight Time)","339781","Untrustworthy,Trustworthy","","","","","","","","true","","","","","","","","","","","","",""
"image-keyboard-response","3","13654","0.0-3.0-0.0","571144323d47e800096358d9","bdp_rwlrn","Tue Mar 14 2023 00:37:03 GMT-0400 (Eastern Daylight Time)","339781","Untrustworthy,Trustworthy","","","","fullscreenfail","","","1691","","","32","","","","","","","","","","",""
"","","","","571144323d47e800096358d9","bdp_rwlrn","Tue Mar 14 2023 00:37:03 GMT-0400 (Eastern Daylight Time)","339781","Untrustworthy,Trustworthy","blur","4","15992","blurevent","2","","","","","","","","","","","","","","","",""
"","","","","571144323d47e800096358d9","bdp_rwlrn","Tue Mar 14 2023 00:37:03 GMT-0400 (Eastern Daylight Time)","339781","Untrustworthy,Trustworthy","focus","4","16660","focusevent","","","","","","","","","","","","","","","","",""
"instructions","4","62309","0.0-4.0","571144323d47e800096358d9","bdp_rwlrn","Tue Mar 14 2023 00:37:03 GMT-0400 (Eastern Daylight Time)","339781","Untrustworthy,Trustworthy","","","","","","[{""page_index"":0,""viewing_time"":11349},{""page_index"":1,""viewing_time"":10048},{""page_index"":2,""viewing_time"":5320},{""page_index"":3,""viewing_time"":6304},{""page_index"":4,""viewing_time"":14040},{""page_index"":5,""viewing_time"":1344}]","48405","","","","","","","","","","","","","",""
"html-keyboard-response","5","65389","0.0-5.0","571144323d47e800096358d9","bdp_rwlrn","Tue Mar 14 2023 00:37:03 GMT-0400 (Eastern Daylight Time)","339781","Untrustworthy,Trustworthy","","","","","","","3080","","<div class='header' style='text-align:left; position: absolute; top: 5%; left: 5%;'><small>Task 3 of 5</small></div><div class='instruxDiv'><p><strong>1) What is the maximum number of points you can choose to bet on a lottery?</strong></p><p>a) 0</p><p>b) 1</p><p>c) 5</p>","C","","","","","","","","","","",""
"html-keyboard-response","6","66157","0.0-6.0","571144323d47e800096358d9","bdp_rwlrn","Tue Mar 14 2023 00:37:03 GMT-0400 (Eastern Daylight Time)","339781","Untrustworthy,Trustworthy","","","","","","","667","","<div class='header' style='text-align:left; position: absolute; top: 5%; left: 5%;'><small>Task 3 of 5</small></div><div class='instruxDiv'><p><strong>1) What is the maximum number of points you can choose to bet on a lottery?</strong></p><p>a) 1</p><p>b) 1</p><p style='color:#00FF00'>c) 5</p><h3 style='color:#00FF00'>Correct!</h3><h3 class='center-content'>The correct response is c).</h3><h3 class='center-content'>The maximum number of points you can choose to bet on a lottery is 5 points.</h3><p><em>Press SPACEBAR to continue</em></p></div>"," ","","","","","","","","","","",""
"html-keyboard-response","7","70469","0.0-7.0","571144323d47e800096358d9","bdp_rwlrn","Tue Mar 14 2023 00:37:03 GMT-0400 (Eastern Daylight Time)","339781","Untrustworthy,Trustworthy","","","","","","","4212","","<div class='header' style='text-align:left; position: absolute; top: 5%; left: 5%;'><small>Task 3 of 5</small></div><div class='instruxDiv'><p><strong>2) How many points can you win each round?</strong></p><p>a) 10 points</p><p>b) Double what you bet</p><p>c) Quadruple what you bet</p>","B","","","","","","","","","","",""
"html-keyboard-response","8","71117","0.0-8.0","571144323d47e800096358d9","bdp_rwlrn","Tue Mar 14 2023 00:37:03 GMT-0400 (Eastern Daylight Time)","339781","Untrustworthy,Trustworthy","","","","","","","547","","<div class='header' style='text-align:left; position: absolute; top: 5%; left: 5%;'><small>Task 3 of 5</small></div><div class='instruxDiv'><p><strong>2) How many points can you win each round?</strong></p><p>a) 10 points</p><p style='color:#00FF00'>b) Double what you bet</p><p>c) Quadruple what you bet</p><h3 style='color:#00FF00'>Correct!</h3><h3 class='center-content'>The correct response is b).</h3><h3 class='center-content'>You can win double the amount of points you bet.</h3><p><em>Press SPACEBAR to continue</em></p></div>"," ","","","","","","","","","","",""
"html-keyboard-response","9","76220","0.0-9.0","571144323d47e800096358d9","bdp_rwlrn","Tue Mar 14 2023 00:37:03 GMT-0400 (Eastern Daylight Time)","339781","Untrustworthy,Trustworthy","","","","","","","null","","<div class='header' style='text-align:left; position: absolute; top: 5%; left: 5%;'><small>Task 3 of 5</small></div><div class='instruxDiv'><p>Thank you for completing the quiz<p>These are the actual lotteries you will be playing in the next block:<p><div class='tc' align='center'><img class='introPic' src='Fruit/Kiwi.png'><br><strong>Kiwi Kash</strong></div><div class='bl' align='center'><img class='introPic' src='Fruit/pears.png'><br><strong>Pears Aplenty</strong></div><div class='br' align='center'><img class='introPic' src='Fruit/melon.png'><br><strong>Melon Millions</strong></div></div><p>Across <strong>66 rounds</strong> you will play each lottery <strong>22 times</strong> (in random order).<p style='align:center; color:white'><font <em>Press SPACEBAR to continue</em></p>","null","","","","","","","","","","",""
"instructions","10","81637","0.0-10.0","571144323d47e800096358d9","bdp_rwlrn","Tue Mar 14 2023 00:37:03 GMT-0400 (Eastern Daylight Time)","339781","Untrustworthy,Trustworthy","","","","","","[{""page_index"":0,""viewing_time"":2720},{""page_index"":1,""viewing_time"":2696}]","5416","","","","","","","","","","","","","",""
"html-keyboard-response","11","82989","0.0-11.0-1.0","571144323d47e800096358d9","bdp_rwlrn","Tue Mar 14 2023 00:37:03 GMT-0400 (Eastern Daylight Time)","339781","Untrustworthy,Trustworthy","","","","decision","","","1250","","<div class='trialDiv'><img src='Fruit/Kiwi.png'><br><font class='baseline'><strong>Kiwi Kash</strong><p>Choose number of points to bet.</font><div class='respPicDiv'><img src='img/responseButtonOffersNo0L.png' class='respPic'></div></div>","5","1","Kiwi Kash","Fruit/Kiwi.png","Won","0.8,0.2","9","0.8","5","1","",""
"html-keyboard-response","12","83240","0.0-11.0-2.0","571144323d47e800096358d9","bdp_rwlrn","Tue Mar 14 2023 00:37:03 GMT-0400 (Eastern Daylight Time)","339781","Untrustworthy,Trustworthy","","","","decisionFB","","","null","","<div class='trialDiv'><img src='Fruit/Kiwi.png'><br><font class='baseline'><strong>Kiwi Kash</strong><p>Choose number of points to bet.</font><div class='respPicDiv'><img src='img/responseButtonOffersNo0L5.png' class='respPic'></div></div>","null","1","Kiwi Kash","Fruit/Kiwi.png","Won","0.8,0.2","9","0.8","0","1","",""
"html-keyboard-response","13","84242","0.0-11.0-3.0","571144323d47e800096358d9","bdp_rwlrn","Tue Mar 14 2023 00:37:03 GMT-0400 (Eastern Daylight Time)","339781","Untrustworthy,Trustworthy","","","","feedback","","","null","","<div class='respPicDiv'><img src='img/responseButtonOffersNo0_wht.png' class='respPic'></div><div class='trialDiv'><img src='Fruit/Kiwi.png'><br><font class='baseline'><strong>Kiwi Kash</strong><p><strong><font class='posOutcome'>You WON</font><p>You bet: 5</strong></font> &nbsp; &nbsp; &nbsp; &nbsp; &nbsp; &nbsp;<font class='posOutcome'>you receive: <strong>10</strong></font></div>","null","1","Kiwi Kash","Fruit/Kiwi.png","Won","0.8,0.2","9","0.8","10","1","",""
"html-keyboard-response","14","84877","0.0-11.0-1.1","571144323d47e800096358d9","bdp_rwlrn","Tue Mar 14 2023 00:37:03 GMT-0400 (Eastern Daylight Time)","339781","Untrustworthy,Trustworthy","","","","decision","","","635","","<div class='trialDiv'><img src='Fruit/pears.png'><br><font class='baseline'><strong>Pears Aplenty</strong><p>Choose number of points to bet.</font><div class='respPicDiv'><img src='img/responseButtonOffersNo0L.png' class='respPic'></div></div>","5","1","Pears Aplenty","Fruit/pears.png","Won","0.35,0.8","9","0.35","15","2","",""
"html-keyboard-response","15","85129","0.0-11.0-2.1","571144323d47e800096358d9","bdp_rwlrn","Tue Mar 14 2023 00:37:03 GMT-0400 (Eastern Daylight Time)","339781","Untrustworthy,Trustworthy","","","","decisionFB","","","null","","<div class='trialDiv'><img src='Fruit/pears.png'><br><font class='baseline'><strong>Pears Aplenty</strong><p>Choose number of points to bet.</font><div class='respPicDiv'><img src='img/responseButtonOffersNo0L5.png' class='respPic'></div></div>","null","1","Pears Aplenty","Fruit/pears.png","Won","0.35,0.8","9","0.35","10","2","",""
"html-keyboard-response","16","86131","0.0-11.0-3.1","571144323d47e800096358d9","bdp_rwlrn","Tue Mar 14 2023 00:37:03 GMT-0400 (Eastern Daylight Time)","339781","Untrustworthy,Trustworthy","","","","feedback","","","null","","<div class='respPicDiv'><img src='img/responseButtonOffersNo0_wht.png' class='respPic'></div><div class='trialDiv'><img src='Fruit/pears.png'><br><font class='baseline'><strong>Pears Aplenty</strong><p><strong><font class='posOutcome'>You WON</font><p>You bet: 5</strong></font> &nbsp; &nbsp; &nbsp; &nbsp; &nbsp; &nbsp;<font class='posOutcome'>you receive: <strong>10</strong></font></div>","null","1","Pears Aplenty","Fruit/pears.png","Won","0.35,0.8","9","0.35","20","2","",""
"html-keyboard-response","17","86365","0.0-11.0-1.2","571144323d47e800096358d9","bdp_rwlrn","Tue Mar 14 2023 00:37:03 GMT-0400 (Eastern Daylight Time)","339781","Untrustworthy,Trustworthy","","","","decision","","","233","","<div class='trialDiv'><img src='Fruit/melon.png'><br><font class='baseline'><strong>Melon Millions</strong><p>Choose number of points to bet.</font><div class='respPicDiv'><img src='img/responseButtonOffersNo0L.png' class='respPic'></div></div>","5","1","Melon Millions","Fruit/melon.png","Lost","0.65,0.2","10","0.65","25","3","",""
"html-keyboard-response","18","86616","0.0-11.0-2.2","571144323d47e800096358d9","bdp_rwlrn","Tue Mar 14 2023 00:37:03 GMT-0400 (Eastern Daylight Time)","339781","Untrustworthy,Trustworthy","","","","decisionFB","","","null","","<div class='trialDiv'><img src='Fruit/melon.png'><br><font class='baseline'><strong>Melon Millions</strong><p>Choose number of points to bet.</font><div class='respPicDiv'><img src='img/responseButtonOffersNo0L5.png' class='respPic'></div></div>","null","1","Melon Millions","Fruit/melon.png","Lost","0.65,0.2","10","0.65","20","3","",""
"html-keyboard-response","19","87617","0.0-11.0-3.2","571144323d47e800096358d9","bdp_rwlrn","Tue Mar 14 2023 00:37:03 GMT-0400 (Eastern Daylight Time)","339781","Untrustworthy,Trustworthy","","","","feedback","","","null","","<div class='respPicDiv'><img src='img/responseButtonOffersNo0_wht.png' class='respPic'></div><div class='trialDiv'><img src='Fruit/melon.png'><br><font class='baseline'><strong>Melon Millions</strong><p><strong><font class='negOutcome'>You LOST</font><p>You bet: 5</strong></font> &nbsp; &nbsp; &nbsp; &nbsp; &nbsp; &nbsp;<font class='negOutcome'>You receive: <strong>0</strong></font></div>","null","1","Melon Millions","Fruit/melon.png","Lost","0.65,0.2","10","0.65","20","3","",""
"html-keyboard-response","20","88053","0.0-11.0-1.3","571144323d47e800096358d9","bdp_rwlrn","Tue Mar 14 2023 00:37:03 GMT-0400 (Eastern Daylight Time)","339781","Untrustworthy,Trustworthy","","","","decision","","","435","","<div class='trialDiv'><img src='Fruit/Kiwi.png'><br><font class='baseline'><strong>Kiwi Kash</strong><p>Choose number of points to bet.</font><div class='respPicDiv'><img src='img/responseButtonOffersNo0L.png' class='respPic'></div></div>","5","2","Kiwi Kash","Fruit/Kiwi.png","Won","0.8,0.2","9","0.8","25","4","",""
"html-keyboard-response","21","88304","0.0-11.0-2.3","571144323d47e800096358d9","bdp_rwlrn","Tue Mar 14 2023 00:37:03 GMT-0400 (Eastern Daylight Time)","339781","Untrustworthy,Trustworthy","","","","decisionFB","","","null","","<div class='trialDiv'><img src='Fruit/Kiwi.png'><br><font class='baseline'><strong>Kiwi Kash</strong><p>Choose number of points to bet.</font><div class='respPicDiv'><img src='img/responseButtonOffersNo0L5.png' class='respPic'></div></div>","null","2","Kiwi Kash","Fruit/Kiwi.png","Won","0.8,0.2","9","0.8","20","4","",""
"html-keyboard-response","22","89304","0.0-11.0-3.3","571144323d47e800096358d9","bdp_rwlrn","Tue Mar 14 2023 00:37:03 GMT-0400 (Eastern Daylight Time)","339781","Untrustworthy,Trustworthy","","","","feedback","","","null","","<div class='respPicDiv'><img src='img/responseButtonOffersNo0_wht.png' class='respPic'></div><div class='trialDiv'><img src='Fruit/Kiwi.png'><br><font class='baseline'><strong>Kiwi Kash</strong><p><strong><font class='posOutcome'>You WON</font><p>You bet: 5</strong></font> &nbsp; &nbsp; &nbsp; &nbsp; &nbsp; &nbsp;<font class='posOutcome'>you receive: <strong>10</strong></font></div>","null","2","Kiwi Kash","Fruit/Kiwi.png","Won","0.8,0.2","9","0.8","30","4","",""
"html-keyboard-response","23","89853","0.0-11.0-1.4","571144323d47e800096358d9","bdp_rwlrn","Tue Mar 14 2023 00:37:03 GMT-0400 (Eastern Daylight Time)","339781","Untrustworthy,Trustworthy","","","","decision","","","548","","<div class='trialDiv'><img src='Fruit/melon.png'><br><font class='baseline'><strong>Melon Millions</strong><p>Choose number of points to bet.</font><div class='respPicDiv'><img src='img/responseButtonOffersNo0L.png' class='respPic'></div></div>","1","2","Melon Millions","Fruit/melon.png","Lost","0.65,0.2","10","0.65","35","5","",""
"html-keyboard-response","24","90104","0.0-11.0-2.4","571144323d47e800096358d9","bdp_rwlrn","Tue Mar 14 2023 00:37:03 GMT-0400 (Eastern Daylight Time)","339781","Untrustworthy,Trustworthy","","","","decisionFB","","","null","","<div class='trialDiv'><img src='Fruit/melon.png'><br><font class='baseline'><strong>Melon Millions</strong><p>Choose number of points to bet.</font><div class='respPicDiv'><img src='img/responseButtonOffersNo0L1.png' class='respPic'></div></div>","null","2","Melon Millions","Fruit/melon.png","Lost","0.65,0.2","10","0.65","34","5","",""
"html-keyboard-response","25","91106","0.0-11.0-3.4","571144323d47e800096358d9","bdp_rwlrn","Tue Mar 14 2023 00:37:03 GMT-0400 (Eastern Daylight Time)","339781","Untrustworthy,Trustworthy","","","","feedback","","","null","","<div class='respPicDiv'><img src='img/responseButtonOffersNo0_wht.png' class='respPic'></div><div class='trialDiv'><img src='Fruit/melon.png'><br><font class='baseline'><strong>Melon Millions</strong><p><strong><font class='negOutcome'>You LOST</font><p>You bet: 1</strong></font> &nbsp; &nbsp; &nbsp; &nbsp; &nbsp; &nbsp;<font class='negOutcome'>You receive: <strong>0</strong></font></div>","null","2","Melon Millions","Fruit/melon.png","Lost","0.65,0.2","10","0.65","34","5","",""
"html-keyboard-response","26","91405","0.0-11.0-1.5","571144323d47e800096358d9","bdp_rwlrn","Tue Mar 14 2023 00:37:03 GMT-0400 (Eastern Daylight Time)","339781","Untrustworthy,Trustworthy","","","","decision","","","299","","<div class='trialDiv'><img src='Fruit/pears.png'><br><font class='baseline'><strong>Pears Aplenty</strong><p>Choose number of points to bet.</font><div class='respPicDiv'><img src='img/responseButtonOffersNo0L.png' class='respPic'></div></div>","5","2","Pears Aplenty","Fruit/pears.png","Won","0.35,0.8","9","0.35","39","6","",""
"html-keyboard-response","27","91656","0.0-11.0-2.5","571144323d47e800096358d9","bdp_rwlrn","Tue Mar 14 2023 00:37:03 GMT-0400 (Eastern Daylight Time)","339781","Untrustworthy,Trustworthy","","","","decisionFB","","","null","","<div class='trialDiv'><img src='Fruit/pears.png'><br><font class='baseline'><strong>Pears Aplenty</strong><p>Choose number of points to bet.</font><div class='respPicDiv'><img src='img/responseButtonOffersNo0L5.png' class='respPic'></div></div>","null","2","Pears Aplenty","Fruit/pears.png","Won","0.35,0.8","9","0.35","34","6","",""
"html-keyboard-response","28","92657","0.0-11.0-3.5","571144323d47e800096358d9","bdp_rwlrn","Tue Mar 14 2023 00:37:03 GMT-0400 (Eastern Daylight Time)","339781","Untrustworthy,Trustworthy","","","","feedback","","","null","","<div class='respPicDiv'><img src='img/responseButtonOffersNo0_wht.png' class='respPic'></div><div class='trialDiv'><img src='Fruit/pears.png'><br><font class='baseline'><strong>Pears Aplenty</strong><p><strong><font class='posOutcome'>You WON</font><p>You bet: 5</strong></font> &nbsp; &nbsp; &nbsp; &nbsp; &nbsp; &nbsp;<font class='posOutcome'>you receive: <strong>10</strong></font></div>","null","2","Pears Aplenty","Fruit/pears.png","Won","0.35,0.8","9","0.35","44","6","",""
"html-keyboard-response","29","93269","0.0-11.0-1.6","571144323d47e800096358d9","bdp_rwlrn","Tue Mar 14 2023 00:37:03 GMT-0400 (Eastern Daylight Time)","339781","Untrustworthy,Trustworthy","","","","decision","","","612","","<div class='trialDiv'><img src='Fruit/Kiwi.png'><br><font class='baseline'><strong>Kiwi Kash</strong><p>Choose number of points to bet.</font><div class='respPicDiv'><img src='img/responseButtonOffersNo0L.png' class='respPic'></div></div>","5","3","Kiwi Kash","Fruit/Kiwi.png","Won","0.8,0.2","9","0.8","49","7","",""
"html-keyboard-response","30","93522","0.0-11.0-2.6","571144323d47e800096358d9","bdp_rwlrn","Tue Mar 14 2023 00:37:03 GMT-0400 (Eastern Daylight Time)","339781","Untrustworthy,Trustworthy","","","","decisionFB","","","null","","<div class='trialDiv'><img src='Fruit/Kiwi.png'><br><font class='baseline'><strong>Kiwi Kash</strong><p>Choose number of points to bet.</font><div class='respPicDiv'><img src='img/responseButtonOffersNo0L5.png' class='respPic'></div></div>","null","3","Kiwi Kash","Fruit/Kiwi.png","Won","0.8,0.2","9","0.8","44","7","",""
"html-keyboard-response","31","94523","0.0-11.0-3.6","571144323d47e800096358d9","bdp_rwlrn","Tue Mar 14 2023 00:37:03 GMT-0400 (Eastern Daylight Time)","339781","Untrustworthy,Trustworthy","","","","feedback","","","null","","<div class='respPicDiv'><img src='img/responseButtonOffersNo0_wht.png' class='respPic'></div><div class='trialDiv'><img src='Fruit/Kiwi.png'><br><font class='baseline'><strong>Kiwi Kash</strong><p><strong><font class='posOutcome'>You WON</font><p>You bet: 5</strong></font> &nbsp; &nbsp; &nbsp; &nbsp; &nbsp; &nbsp;<font class='posOutcome'>you receive: <strong>10</strong></font></div>","null","3","Kiwi Kash","Fruit/Kiwi.png","Won","0.8,0.2","9","0.8","54","7","",""
"html-keyboard-response","32","94917","0.0-11.0-1.7","571144323d47e800096358d9","bdp_rwlrn","Tue Mar 14 2023 00:37:03 GMT-0400 (Eastern Daylight Time)","339781","Untrustworthy,Trustworthy","","","","decision","","","393","","<div class='trialDiv'><img src='Fruit/pears.png'><br><font class='baseline'><strong>Pears Aplenty</strong><p>Choose number of points to bet.</font><div class='respPicDiv'><img src='img/responseButtonOffersNo0L.png' class='respPic'></div></div>","5","3","Pears Aplenty","Fruit/pears.png","Lost","0.35,0.8","9","0.35","59","8","",""
"html-keyboard-response","33","95168","0.0-11.0-2.7","571144323d47e800096358d9","bdp_rwlrn","Tue Mar 14 2023 00:37:03 GMT-0400 (Eastern Daylight Time)","339781","Untrustworthy,Trustworthy","","","","decisionFB","","","null","","<div class='trialDiv'><img src='Fruit/pears.png'><br><font class='baseline'><strong>Pears Aplenty</strong><p>Choose number of points to bet.</font><div class='respPicDiv'><img src='img/responseButtonOffersNo0L5.png' class='respPic'></div></div>","null","3","Pears Aplenty","Fruit/pears.png","Lost","0.35,0.8","9","0.35","54","8","",""
"html-keyboard-response","34","96170","0.0-11.0-3.7","571144323d47e800096358d9","bdp_rwlrn","Tue Mar 14 2023 00:37:03 GMT-0400 (Eastern Daylight Time)","339781","Untrustworthy,Trustworthy","","","","feedback","","","null","","<div class='respPicDiv'><img src='img/responseButtonOffersNo0_wht.png' class='respPic'></div><div class='trialDiv'><img src='Fruit/pears.png'><br><font class='baseline'><strong>Pears Aplenty</strong><p><strong><font class='negOutcome'>You LOST</font><p>You bet: 5</strong></font> &nbsp; &nbsp; &nbsp; &nbsp; &nbsp; &nbsp;<font class='negOutcome'>You receive: <strong>0</strong></font></div>","null","3","Pears Aplenty","Fruit/pears.png","Lost","0.35,0.8","9","0.35","54","8","",""
"html-keyboard-response","35","96574","0.0-11.0-1.8","571144323d47e800096358d9","bdp_rwlrn","Tue Mar 14 2023 00:37:03 GMT-0400 (Eastern Daylight Time)","339781","Untrustworthy,Trustworthy","","","","decision","","","404","","<div class='trialDiv'><img src='Fruit/melon.png'><br><font class='baseline'><strong>Melon Millions</strong><p>Choose number of points to bet.</font><div class='respPicDiv'><img src='img/responseButtonOffersNo0L.png' class='respPic'></div></div>","1","3","Melon Millions","Fruit/melon.png","Won","0.65,0.2","10","0.65","59","9","",""
"html-keyboard-response","36","96825","0.0-11.0-2.8","571144323d47e800096358d9","bdp_rwlrn","Tue Mar 14 2023 00:37:03 GMT-0400 (Eastern Daylight Time)","339781","Untrustworthy,Trustworthy","","","","decisionFB","","","null","","<div class='trialDiv'><img src='Fruit/melon.png'><br><font class='baseline'><strong>Melon Millions</strong><p>Choose number of points to bet.</font><div class='respPicDiv'><img src='img/responseButtonOffersNo0L1.png' class='respPic'></div></div>","null","3","Melon Millions","Fruit/melon.png","Won","0.65,0.2","10","0.65","58","9","",""
"html-keyboard-response","37","97827","0.0-11.0-3.8","571144323d47e800096358d9","bdp_rwlrn","Tue Mar 14 2023 00:37:03 GMT-0400 (Eastern Daylight Time)","339781","Untrustworthy,Trustworthy","","","","feedback","","","null","","<div class='respPicDiv'><img src='img/responseButtonOffersNo0_wht.png' class='respPic'></div><div class='trialDiv'><img src='Fruit/melon.png'><br><font class='baseline'><strong>Melon Millions</strong><p><strong><font class='posOutcome'>You WON</font><p>You bet: 1</strong></font> &nbsp; &nbsp; &nbsp; &nbsp; &nbsp; &nbsp;<font class='posOutcome'>you receive: <strong>2</strong></font></div>","null","3","Melon Millions","Fruit/melon.png","Won","0.65,0.2","10","0.65","60","9","",""
"html-keyboard-response","38","97958","0.0-11.0-1.9","571144323d47e800096358d9","bdp_rwlrn","Tue Mar 14 2023 00:37:03 GMT-0400 (Eastern Daylight Time)","339781","Untrustworthy,Trustworthy","","","","decision","","","131","","<div class='trialDiv'><img src='Fruit/pears.png'><br><font class='baseline'><strong>Pears Aplenty</strong><p>Choose number of points to bet.</font><div class='respPicDiv'><img src='img/responseButtonOffersNo0L.png' class='respPic'></div></div>","5","4","Pears Aplenty","Fruit/pears.png","Won","0.35,0.8","9","0.35","65","10","",""
"html-keyboard-response","39","98209","0.0-11.0-2.9","571144323d47e800096358d9","bdp_rwlrn","Tue Mar 14 2023 00:37:03 GMT-0400 (Eastern Daylight Time)","339781","Untrustworthy,Trustworthy","","","","decisionFB","","","null","","<div class='trialDiv'><img src='Fruit/pears.png'><br><font class='baseline'><strong>Pears Aplenty</strong><p>Choose number of points to bet.</font><div class='respPicDiv'><img src='img/responseButtonOffersNo0L5.png' class='respPic'></div></div>","null","4","Pears Aplenty","Fruit/pears.png","Won","0.35,0.8","9","0.35","60","10","",""
"html-keyboard-response","40","99211","0.0-11.0-3.9","571144323d47e800096358d9","bdp_rwlrn","Tue Mar 14 2023 00:37:03 GMT-0400 (Eastern Daylight Time)","339781","Untrustworthy,Trustworthy","","","","feedback","","","null","","<div class='respPicDiv'><img src='img/responseButtonOffersNo0_wht.png' class='respPic'></div><div class='trialDiv'><img src='Fruit/pears.png'><br><font class='baseline'><strong>Pears Aplenty</strong><p><strong><font class='posOutcome'>You WON</font><p>You bet: 5</strong></font> &nbsp; &nbsp; &nbsp; &nbsp; &nbsp; &nbsp;<font class='posOutcome'>you receive: <strong>10</strong></font></div>","null","4","Pears Aplenty","Fruit/pears.png","Won","0.35,0.8","9","0.35","70","10","",""
"html-keyboard-response","41","99934","0.0-11.0-1.10","571144323d47e800096358d9","bdp_rwlrn","Tue Mar 14 2023 00:37:03 GMT-0400 (Eastern Daylight Time)","339781","Untrustworthy,Trustworthy","","","","decision","","","721","","<div class='trialDiv'><img src='Fruit/melon.png'><br><font class='baseline'><strong>Melon Millions</strong><p>Choose number of points to bet.</font><div class='respPicDiv'><img src='img/responseButtonOffersNo0L.png' class='respPic'></div></div>","5","4","Melon Millions","Fruit/melon.png","Won","0.65,0.2","10","0.65","75","11","",""
"html-keyboard-response","42","100185","0.0-11.0-2.10","571144323d47e800096358d9","bdp_rwlrn","Tue Mar 14 2023 00:37:03 GMT-0400 (Eastern Daylight Time)","339781","Untrustworthy,Trustworthy","","","","decisionFB","","","null","","<div class='trialDiv'><img src='Fruit/melon.png'><br><font class='baseline'><strong>Melon Millions</strong><p>Choose number of points to bet.</font><div class='respPicDiv'><img src='img/responseButtonOffersNo0L5.png' class='respPic'></div></div>","null","4","Melon Millions","Fruit/melon.png","Won","0.65,0.2","10","0.65","70","11","",""
"html-keyboard-response","43","101186","0.0-11.0-3.10","571144323d47e800096358d9","bdp_rwlrn","Tue Mar 14 2023 00:37:03 GMT-0400 (Eastern Daylight Time)","339781","Untrustworthy,Trustworthy","","","","feedback","","","null","","<div class='respPicDiv'><img src='img/responseButtonOffersNo0_wht.png' class='respPic'></div><div class='trialDiv'><img src='Fruit/melon.png'><br><font class='baseline'><strong>Melon Millions</strong><p><strong><font class='posOutcome'>You WON</font><p>You bet: 5</strong></font> &nbsp; &nbsp; &nbsp; &nbsp; &nbsp; &nbsp;<font class='posOutcome'>you receive: <strong>10</strong></font></div>","null","4","Melon Millions","Fruit/melon.png","Won","0.65,0.2","10","0.65","80","11","",""
"html-keyboard-response","44","101678","0.0-11.0-1.11","571144323d47e800096358d9","bdp_rwlrn","Tue Mar 14 2023 00:37:03 GMT-0400 (Eastern Daylight Time)","339781","Untrustworthy,Trustworthy","","","","decision","","","492","","<div class='trialDiv'><img src='Fruit/Kiwi.png'><br><font class='baseline'><strong>Kiwi Kash</strong><p>Choose number of points to bet.</font><div class='respPicDiv'><img src='img/responseButtonOffersNo0L.png' class='respPic'></div></div>","1","4","Kiwi Kash","Fruit/Kiwi.png","Lost","0.8,0.2","9","0.8","85","12","",""
"html-keyboard-response","45","101929","0.0-11.0-2.11","571144323d47e800096358d9","bdp_rwlrn","Tue Mar 14 2023 00:37:03 GMT-0400 (Eastern Daylight Time)","339781","Untrustworthy,Trustworthy","","","","decisionFB","","","null","","<div class='trialDiv'><img src='Fruit/Kiwi.png'><br><font class='baseline'><strong>Kiwi Kash</strong><p>Choose number of points to bet.</font><div class='respPicDiv'><img src='img/responseButtonOffersNo0L1.png' class='respPic'></div></div>","null","4","Kiwi Kash","Fruit/Kiwi.png","Lost","0.8,0.2","9","0.8","84","12","",""
"html-keyboard-response","46","102930","0.0-11.0-3.11","571144323d47e800096358d9","bdp_rwlrn","Tue Mar 14 2023 00:37:03 GMT-0400 (Eastern Daylight Time)","339781","Untrustworthy,Trustworthy","","","","feedback","","","null","","<div class='respPicDiv'><img src='img/responseButtonOffersNo0_wht.png' class='respPic'></div><div class='trialDiv'><img src='Fruit/Kiwi.png'><br><font class='baseline'><strong>Kiwi Kash</strong><p><strong><font class='negOutcome'>You LOST</font><p>You bet: 1</strong></font> &nbsp; &nbsp; &nbsp; &nbsp; &nbsp; &nbsp;<font class='negOutcome'>You receive: <strong>0</strong></font></div>","null","4","Kiwi Kash","Fruit/Kiwi.png","Lost","0.8,0.2","9","0.8","84","12","",""
"html-keyboard-response","47","103358","0.0-11.0-1.12","571144323d47e800096358d9","bdp_rwlrn","Tue Mar 14 2023 00:37:03 GMT-0400 (Eastern Daylight Time)","339781","Untrustworthy,Trustworthy","","","","decision","","","427","","<div class='trialDiv'><img src='Fruit/pears.png'><br><font class='baseline'><strong>Pears Aplenty</strong><p>Choose number of points to bet.</font><div class='respPicDiv'><img src='img/responseButtonOffersNo0L.png' class='respPic'></div></div>","5","5","Pears Aplenty","Fruit/pears.png","Lost","0.35,0.8","9","0.35","89","13","",""
"html-keyboard-response","48","103610","0.0-11.0-2.12","571144323d47e800096358d9","bdp_rwlrn","Tue Mar 14 2023 00:37:03 GMT-0400 (Eastern Daylight Time)","339781","Untrustworthy,Trustworthy","","","","decisionFB","","","null","","<div class='trialDiv'><img src='Fruit/pears.png'><br><font class='baseline'><strong>Pears Aplenty</strong><p>Choose number of points to bet.</font><div class='respPicDiv'><img src='img/responseButtonOffersNo0L5.png' class='respPic'></div></div>","null","5","Pears Aplenty","Fruit/pears.png","Lost","0.35,0.8","9","0.35","84","13","",""
"html-keyboard-response","49","104611","0.0-11.0-3.12","571144323d47e800096358d9","bdp_rwlrn","Tue Mar 14 2023 00:37:03 GMT-0400 (Eastern Daylight Time)","339781","Untrustworthy,Trustworthy","","","","feedback","","","null","","<div class='respPicDiv'><img src='img/responseButtonOffersNo0_wht.png' class='respPic'></div><div class='trialDiv'><img src='Fruit/pears.png'><br><font class='baseline'><strong>Pears Aplenty</strong><p><strong><font class='negOutcome'>You LOST</font><p>You bet: 5</strong></font> &nbsp; &nbsp; &nbsp; &nbsp; &nbsp; &nbsp;<font class='negOutcome'>You receive: <strong>0</strong></font></div>","null","5","Pears Aplenty","Fruit/pears.png","Lost","0.35,0.8","9","0.35","84","13","",""
"html-keyboard-response","50","104982","0.0-11.0-1.13","571144323d47e800096358d9","bdp_rwlrn","Tue Mar 14 2023 00:37:03 GMT-0400 (Eastern Daylight Time)","339781","Untrustworthy,Trustworthy","","","","decision","","","371","","<div class='trialDiv'><img src='Fruit/Kiwi.png'><br><font class='baseline'><strong>Kiwi Kash</strong><p>Choose number of points to bet.</font><div class='respPicDiv'><img src='img/responseButtonOffersNo0L.png' class='respPic'></div></div>","5","5","Kiwi Kash","Fruit/Kiwi.png","Won","0.8,0.2","9","0.8","89","14","",""
"html-keyboard-response","51","105234","0.0-11.0-2.13","571144323d47e800096358d9","bdp_rwlrn","Tue Mar 14 2023 00:37:03 GMT-0400 (Eastern Daylight Time)","339781","Untrustworthy,Trustworthy","","","","decisionFB","","","null","","<div class='trialDiv'><img src='Fruit/Kiwi.png'><br><font class='baseline'><strong>Kiwi Kash</strong><p>Choose number of points to bet.</font><div class='respPicDiv'><img src='img/responseButtonOffersNo0L5.png' class='respPic'></div></div>","null","5","Kiwi Kash","Fruit/Kiwi.png","Won","0.8,0.2","9","0.8","84","14","",""
"html-keyboard-response","52","106235","0.0-11.0-3.13","571144323d47e800096358d9","bdp_rwlrn","Tue Mar 14 2023 00:37:03 GMT-0400 (Eastern Daylight Time)","339781","Untrustworthy,Trustworthy","","","","feedback","","","null","","<div class='respPicDiv'><img src='img/responseButtonOffersNo0_wht.png' class='respPic'></div><div class='trialDiv'><img src='Fruit/Kiwi.png'><br><font class='baseline'><strong>Kiwi Kash</strong><p><strong><font class='posOutcome'>You WON</font><p>You bet: 5</strong></font> &nbsp; &nbsp; &nbsp; &nbsp; &nbsp; &nbsp;<font class='posOutcome'>you receive: <strong>10</strong></font></div>","null","5","Kiwi Kash","Fruit/Kiwi.png","Won","0.8,0.2","9","0.8","94","14","",""
"html-keyboard-response","53","106278","0.0-11.0-1.14","571144323d47e800096358d9","bdp_rwlrn","Tue Mar 14 2023 00:37:03 GMT-0400 (Eastern Daylight Time)","339781","Untrustworthy,Trustworthy","","","","decision","","","42","","<div class='trialDiv'><img src='Fruit/melon.png'><br><font class='baseline'><strong>Melon Millions</strong><p>Choose number of points to bet.</font><div class='respPicDiv'><img src='img/responseButtonOffersNo0L.png' class='respPic'></div></div>","5","5","Melon Millions","Fruit/melon.png","Won","0.65,0.2","10","0.65","99","15","",""
"html-keyboard-response","54","106529","0.0-11.0-2.14","571144323d47e800096358d9","bdp_rwlrn","Tue Mar 14 2023 00:37:03 GMT-0400 (Eastern Daylight Time)","339781","Untrustworthy,Trustworthy","","","","decisionFB","","","null","","<div class='trialDiv'><img src='Fruit/melon.png'><br><font class='baseline'><strong>Melon Millions</strong><p>Choose number of points to bet.</font><div class='respPicDiv'><img src='img/responseButtonOffersNo0L5.png' class='respPic'></div></div>","null","5","Melon Millions","Fruit/melon.png","Won","0.65,0.2","10","0.65","94","15","",""
"html-keyboard-response","55","107529","0.0-11.0-3.14","571144323d47e800096358d9","bdp_rwlrn","Tue Mar 14 2023 00:37:03 GMT-0400 (Eastern Daylight Time)","339781","Untrustworthy,Trustworthy","","","","feedback","","","null","","<div class='respPicDiv'><img src='img/responseButtonOffersNo0_wht.png' class='respPic'></div><div class='trialDiv'><img src='Fruit/melon.png'><br><font class='baseline'><strong>Melon Millions</strong><p><strong><font class='posOutcome'>You WON</font><p>You bet: 5</strong></font> &nbsp; &nbsp; &nbsp; &nbsp; &nbsp; &nbsp;<font class='posOutcome'>you receive: <strong>10</strong></font></div>","null","5","Melon Millions","Fruit/melon.png","Won","0.65,0.2","10","0.65","104","15","",""
"html-keyboard-response","56","108326","0.0-11.0-1.15","571144323d47e800096358d9","bdp_rwlrn","Tue Mar 14 2023 00:37:03 GMT-0400 (Eastern Daylight Time)","339781","Untrustworthy,Trustworthy","","","","decision","","","796","","<div class='trialDiv'><img src='Fruit/pears.png'><br><font class='baseline'><strong>Pears Aplenty</strong><p>Choose number of points to bet.</font><div class='respPicDiv'><img src='img/responseButtonOffersNo0L.png' class='respPic'></div></div>","1","6","Pears Aplenty","Fruit/pears.png","Won","0.35,0.8","9","0.35","109","16","",""
"html-keyboard-response","57","108577","0.0-11.0-2.15","571144323d47e800096358d9","bdp_rwlrn","Tue Mar 14 2023 00:37:03 GMT-0400 (Eastern Daylight Time)","339781","Untrustworthy,Trustworthy","","","","decisionFB","","","null","","<div class='trialDiv'><img src='Fruit/pears.png'><br><font class='baseline'><strong>Pears Aplenty</strong><p>Choose number of points to bet.</font><div class='respPicDiv'><img src='img/responseButtonOffersNo0L1.png' class='respPic'></div></div>","null","6","Pears Aplenty","Fruit/pears.png","Won","0.35,0.8","9","0.35","108","16","",""
"html-keyboard-response","58","109578","0.0-11.0-3.15","571144323d47e800096358d9","bdp_rwlrn","Tue Mar 14 2023 00:37:03 GMT-0400 (Eastern Daylight Time)","339781","Untrustworthy,Trustworthy","","","","feedback","","","null","","<div class='respPicDiv'><img src='img/responseButtonOffersNo0_wht.png' class='respPic'></div><div class='trialDiv'><img src='Fruit/pears.png'><br><font class='baseline'><strong>Pears Aplenty</strong><p><strong><font class='posOutcome'>You WON</font><p>You bet: 1</strong></font> &nbsp; &nbsp; &nbsp; &nbsp; &nbsp; &nbsp;<font class='posOutcome'>you receive: <strong>2</strong></font></div>","null","6","Pears Aplenty","Fruit/pears.png","Won","0.35,0.8","9","0.35","110","16","",""
"html-keyboard-response","59","110470","0.0-11.0-1.16","571144323d47e800096358d9","bdp_rwlrn","Tue Mar 14 2023 00:37:03 GMT-0400 (Eastern Daylight Time)","339781","Untrustworthy,Trustworthy","","","","decision","","","891","","<div class='trialDiv'><img src='Fruit/melon.png'><br><font class='baseline'><strong>Melon Millions</strong><p>Choose number of points to bet.</font><div class='respPicDiv'><img src='img/responseButtonOffersNo0L.png' class='respPic'></div></div>","2","6","Melon Millions","Fruit/melon.png","Lost","0.65,0.2","10","0.65","115","17","",""
"html-keyboard-response","60","110721","0.0-11.0-2.16","571144323d47e800096358d9","bdp_rwlrn","Tue Mar 14 2023 00:37:03 GMT-0400 (Eastern Daylight Time)","339781","Untrustworthy,Trustworthy","","","","decisionFB","","","null","","<div class='trialDiv'><img src='Fruit/melon.png'><br><font class='baseline'><strong>Melon Millions</strong><p>Choose number of points to bet.</font><div class='respPicDiv'><img src='img/responseButtonOffersNo0L2.png' class='respPic'></div></div>","null","6","Melon Millions","Fruit/melon.png","Lost","0.65,0.2","10","0.65","113","17","",""
"html-keyboard-response","61","111722","0.0-11.0-3.16","571144323d47e800096358d9","bdp_rwlrn","Tue Mar 14 2023 00:37:03 GMT-0400 (Eastern Daylight Time)","339781","Untrustworthy,Trustworthy","","","","feedback","","","null","","<div class='respPicDiv'><img src='img/responseButtonOffersNo0_wht.png' class='respPic'></div><div class='trialDiv'><img src='Fruit/melon.png'><br><font class='baseline'><strong>Melon Millions</strong><p><strong><font class='negOutcome'>You LOST</font><p>You bet: 2</strong></font> &nbsp; &nbsp; &nbsp; &nbsp; &nbsp; &nbsp;<font class='negOutcome'>You receive: <strong>0</strong></font></div>","null","6","Melon Millions","Fruit/melon.png","Lost","0.65,0.2","10","0.65","113","17","",""
"html-keyboard-response","62","112198","0.0-11.0-1.17","571144323d47e800096358d9","bdp_rwlrn","Tue Mar 14 2023 00:37:03 GMT-0400 (Eastern Daylight Time)","339781","Untrustworthy,Trustworthy","","","","decision","","","475","","<div class='trialDiv'><img src='Fruit/Kiwi.png'><br><font class='baseline'><strong>Kiwi Kash</strong><p>Choose number of points to bet.</font><div class='respPicDiv'><img src='img/responseButtonOffersNo0L.png' class='respPic'></div></div>","5","6","Kiwi Kash","Fruit/Kiwi.png","Won","0.8,0.2","9","0.8","118","18","",""
"html-keyboard-response","63","112449","0.0-11.0-2.17","571144323d47e800096358d9","bdp_rwlrn","Tue Mar 14 2023 00:37:03 GMT-0400 (Eastern Daylight Time)","339781","Untrustworthy,Trustworthy","","","","decisionFB","","","null","","<div class='trialDiv'><img src='Fruit/Kiwi.png'><br><font class='baseline'><strong>Kiwi Kash</strong><p>Choose number of points to bet.</font><div class='respPicDiv'><img src='img/responseButtonOffersNo0L5.png' class='respPic'></div></div>","null","6","Kiwi Kash","Fruit/Kiwi.png","Won","0.8,0.2","9","0.8","113","18","",""
"html-keyboard-response","64","113450","0.0-11.0-3.17","571144323d47e800096358d9","bdp_rwlrn","Tue Mar 14 2023 00:37:03 GMT-0400 (Eastern Daylight Time)","339781","Untrustworthy,Trustworthy","","","","feedback","","","null","","<div class='respPicDiv'><img src='img/responseButtonOffersNo0_wht.png' class='respPic'></div><div class='trialDiv'><img src='Fruit/Kiwi.png'><br><font class='baseline'><strong>Kiwi Kash</strong><p><strong><font class='posOutcome'>You WON</font><p>You bet: 5</strong></font> &nbsp; &nbsp; &nbsp; &nbsp; &nbsp; &nbsp;<font class='posOutcome'>you receive: <strong>10</strong></font></div>","null","6","Kiwi Kash","Fruit/Kiwi.png","Won","0.8,0.2","9","0.8","123","18","",""
"html-keyboard-response","65","114070","0.0-11.0-1.18","571144323d47e800096358d9","bdp_rwlrn","Tue Mar 14 2023 00:37:03 GMT-0400 (Eastern Daylight Time)","339781","Untrustworthy,Trustworthy","","","","decision","","","619","","<div class='trialDiv'><img src='Fruit/melon.png'><br><font class='baseline'><strong>Melon Millions</strong><p>Choose number of points to bet.</font><div class='respPicDiv'><img src='img/responseButtonOffersNo0L.png' class='respPic'></div></div>","1","7","Melon Millions","Fruit/melon.png","Lost","0.65,0.2","10","0.65","128","19","",""
"html-keyboard-response","66","114321","0.0-11.0-2.18","571144323d47e800096358d9","bdp_rwlrn","Tue Mar 14 2023 00:37:03 GMT-0400 (Eastern Daylight Time)","339781","Untrustworthy,Trustworthy","","","","decisionFB","","","null","","<div class='trialDiv'><img src='Fruit/melon.png'><br><font class='baseline'><strong>Melon Millions</strong><p>Choose number of points to bet.</font><div class='respPicDiv'><img src='img/responseButtonOffersNo0L1.png' class='respPic'></div></div>","null","7","Melon Millions","Fruit/melon.png","Lost","0.65,0.2","10","0.65","127","19","",""
"html-keyboard-response","67","115323","0.0-11.0-3.18","571144323d47e800096358d9","bdp_rwlrn","Tue Mar 14 2023 00:37:03 GMT-0400 (Eastern Daylight Time)","339781","Untrustworthy,Trustworthy","","","","feedback","","","null","","<div class='respPicDiv'><img src='img/responseButtonOffersNo0_wht.png' class='respPic'></div><div class='trialDiv'><img src='Fruit/melon.png'><br><font class='baseline'><strong>Melon Millions</strong><p><strong><font class='negOutcome'>You LOST</font><p>You bet: 1</strong></font> &nbsp; &nbsp; &nbsp; &nbsp; &nbsp; &nbsp;<font class='negOutcome'>You receive: <strong>0</strong></font></div>","null","7","Melon Millions","Fruit/melon.png","Lost","0.65,0.2","10","0.65","127","19","",""
"html-keyboard-response","68","115358","0.0-11.0-1.19","571144323d47e800096358d9","bdp_rwlrn","Tue Mar 14 2023 00:37:03 GMT-0400 (Eastern Daylight Time)","339781","Untrustworthy,Trustworthy","","","","decision","","","35","","<div class='trialDiv'><img src='Fruit/Kiwi.png'><br><font class='baseline'><strong>Kiwi Kash</strong><p>Choose number of points to bet.</font><div class='respPicDiv'><img src='img/responseButtonOffersNo0L.png' class='respPic'></div></div>","5","7","Kiwi Kash","Fruit/Kiwi.png","Won","0.8,0.2","9","0.8","132","20","",""
"html-keyboard-response","69","115609","0.0-11.0-2.19","571144323d47e800096358d9","bdp_rwlrn","Tue Mar 14 2023 00:37:03 GMT-0400 (Eastern Daylight Time)","339781","Untrustworthy,Trustworthy","","","","decisionFB","","","null","","<div class='trialDiv'><img src='Fruit/Kiwi.png'><br><font class='baseline'><strong>Kiwi Kash</strong><p>Choose number of points to bet.</font><div class='respPicDiv'><img src='img/responseButtonOffersNo0L5.png' class='respPic'></div></div>","null","7","Kiwi Kash","Fruit/Kiwi.png","Won","0.8,0.2","9","0.8","127","20","",""
"html-keyboard-response","70","116610","0.0-11.0-3.19","571144323d47e800096358d9","bdp_rwlrn","Tue Mar 14 2023 00:37:03 GMT-0400 (Eastern Daylight Time)","339781","Untrustworthy,Trustworthy","","","","feedback","","","null","","<div class='respPicDiv'><img src='img/responseButtonOffersNo0_wht.png' class='respPic'></div><div class='trialDiv'><img src='Fruit/Kiwi.png'><br><font class='baseline'><strong>Kiwi Kash</strong><p><strong><font class='posOutcome'>You WON</font><p>You bet: 5</strong></font> &nbsp; &nbsp; &nbsp; &nbsp; &nbsp; &nbsp;<font class='posOutcome'>you receive: <strong>10</strong></font></div>","null","7","Kiwi Kash","Fruit/Kiwi.png","Won","0.8,0.2","9","0.8","137","20","",""
"html-keyboard-response","71","117014","0.0-11.0-1.20","571144323d47e800096358d9","bdp_rwlrn","Tue Mar 14 2023 00:37:03 GMT-0400 (Eastern Daylight Time)","339781","Untrustworthy,Trustworthy","","","","decision","","","404","","<div class='trialDiv'><img src='Fruit/pears.png'><br><font class='baseline'><strong>Pears Aplenty</strong><p>Choose number of points to bet.</font><div class='respPicDiv'><img src='img/responseButtonOffersNo0L.png' class='respPic'></div></div>","5","7","Pears Aplenty","Fruit/pears.png","Lost","0.35,0.8","9","0.35","142","21","",""
"html-keyboard-response","72","117265","0.0-11.0-2.20","571144323d47e800096358d9","bdp_rwlrn","Tue Mar 14 2023 00:37:03 GMT-0400 (Eastern Daylight Time)","339781","Untrustworthy,Trustworthy","","","","decisionFB","","","null","","<div class='trialDiv'><img src='Fruit/pears.png'><br><font class='baseline'><strong>Pears Aplenty</strong><p>Choose number of points to bet.</font><div class='respPicDiv'><img src='img/responseButtonOffersNo0L5.png' class='respPic'></div></div>","null","7","Pears Aplenty","Fruit/pears.png","Lost","0.35,0.8","9","0.35","137","21","",""
"html-keyboard-response","73","118282","0.0-11.0-3.20","571144323d47e800096358d9","bdp_rwlrn","Tue Mar 14 2023 00:37:03 GMT-0400 (Eastern Daylight Time)","339781","Untrustworthy,Trustworthy","","","","feedback","","","null","","<div class='respPicDiv'><img src='img/responseButtonOffersNo0_wht.png' class='respPic'></div><div class='trialDiv'><img src='Fruit/pears.png'><br><font class='baseline'><strong>Pears Aplenty</strong><p><strong><font class='negOutcome'>You LOST</font><p>You bet: 5</strong></font> &nbsp; &nbsp; &nbsp; &nbsp; &nbsp; &nbsp;<font class='negOutcome'>You receive: <strong>0</strong></font></div>","null","7","Pears Aplenty","Fruit/pears.png","Lost","0.35,0.8","9","0.35","137","21","",""
"html-keyboard-response","74","118686","0.0-11.0-1.21","571144323d47e800096358d9","bdp_rwlrn","Tue Mar 14 2023 00:37:03 GMT-0400 (Eastern Daylight Time)","339781","Untrustworthy,Trustworthy","","","","decision","","","404","","<div class='trialDiv'><img src='Fruit/melon.png'><br><font class='baseline'><strong>Melon Millions</strong><p>Choose number of points to bet.</font><div class='respPicDiv'><img src='img/responseButtonOffersNo0L.png' class='respPic'></div></div>","1","8","Melon Millions","Fruit/melon.png","Lost","0.65,0.2","10","0.65","142","22","",""
"html-keyboard-response","75","118937","0.0-11.0-2.21","571144323d47e800096358d9","bdp_rwlrn","Tue Mar 14 2023 00:37:03 GMT-0400 (Eastern Daylight Time)","339781","Untrustworthy,Trustworthy","","","","decisionFB","","","null","","<div class='trialDiv'><img src='Fruit/melon.png'><br><font class='baseline'><strong>Melon Millions</strong><p>Choose number of points to bet.</font><div class='respPicDiv'><img src='img/responseButtonOffersNo0L1.png' class='respPic'></div></div>","null","8","Melon Millions","Fruit/melon.png","Lost","0.65,0.2","10","0.65","141","22","",""
"html-keyboard-response","76","119939","0.0-11.0-3.21","571144323d47e800096358d9","bdp_rwlrn","Tue Mar 14 2023 00:37:03 GMT-0400 (Eastern Daylight Time)","339781","Untrustworthy,Trustworthy","","","","feedback","","","null","","<div class='respPicDiv'><img src='img/responseButtonOffersNo0_wht.png' class='respPic'></div><div class='trialDiv'><img src='Fruit/melon.png'><br><font class='baseline'><strong>Melon Millions</strong><p><strong><font class='negOutcome'>You LOST</font><p>You bet: 1</strong></font> &nbsp; &nbsp; &nbsp; &nbsp; &nbsp; &nbsp;<font class='negOutcome'>You receive: <strong>0</strong></font></div>","null","8","Melon Millions","Fruit/melon.png","Lost","0.65,0.2","10","0.65","141","22","",""
"html-keyboard-response","77","120390","0.0-11.0-1.22","571144323d47e800096358d9","bdp_rwlrn","Tue Mar 14 2023 00:37:03 GMT-0400 (Eastern Daylight Time)","339781","Untrustworthy,Trustworthy","","","","decision","","","451","","<div class='trialDiv'><img src='Fruit/pears.png'><br><font class='baseline'><strong>Pears Aplenty</strong><p>Choose number of points to bet.</font><div class='respPicDiv'><img src='img/responseButtonOffersNo0L.png' class='respPic'></div></div>","1","8","Pears Aplenty","Fruit/pears.png","Lost","0.35,0.8","9","0.35","146","23","",""
"html-keyboard-response","78","120641","0.0-11.0-2.22","571144323d47e800096358d9","bdp_rwlrn","Tue Mar 14 2023 00:37:03 GMT-0400 (Eastern Daylight Time)","339781","Untrustworthy,Trustworthy","","","","decisionFB","","","null","","<div class='trialDiv'><img src='Fruit/pears.png'><br><font class='baseline'><strong>Pears Aplenty</strong><p>Choose number of points to bet.</font><div class='respPicDiv'><img src='img/responseButtonOffersNo0L1.png' class='respPic'></div></div>","null","8","Pears Aplenty","Fruit/pears.png","Lost","0.35,0.8","9","0.35","145","23","",""
"html-keyboard-response","79","121643","0.0-11.0-3.22","571144323d47e800096358d9","bdp_rwlrn","Tue Mar 14 2023 00:37:03 GMT-0400 (Eastern Daylight Time)","339781","Untrustworthy,Trustworthy","","","","feedback","","","null","","<div class='respPicDiv'><img src='img/responseButtonOffersNo0_wht.png' class='respPic'></div><div class='trialDiv'><img src='Fruit/pears.png'><br><font class='baseline'><strong>Pears Aplenty</strong><p><strong><font class='negOutcome'>You LOST</font><p>You bet: 1</strong></font> &nbsp; &nbsp; &nbsp; &nbsp; &nbsp; &nbsp;<font class='negOutcome'>You receive: <strong>0</strong></font></div>","null","8","Pears Aplenty","Fruit/pears.png","Lost","0.35,0.8","9","0.35","145","23","",""
"html-keyboard-response","80","122014","0.0-11.0-1.23","571144323d47e800096358d9","bdp_rwlrn","Tue Mar 14 2023 00:37:03 GMT-0400 (Eastern Daylight Time)","339781","Untrustworthy,Trustworthy","","","","decision","","","371","","<div class='trialDiv'><img src='Fruit/Kiwi.png'><br><font class='baseline'><strong>Kiwi Kash</strong><p>Choose number of points to bet.</font><div class='respPicDiv'><img src='img/responseButtonOffersNo0L.png' class='respPic'></div></div>","5","8","Kiwi Kash","Fruit/Kiwi.png","Won","0.8,0.2","9","0.8","150","24","",""
"html-keyboard-response","81","122265","0.0-11.0-2.23","571144323d47e800096358d9","bdp_rwlrn","Tue Mar 14 2023 00:37:03 GMT-0400 (Eastern Daylight Time)","339781","Untrustworthy,Trustworthy","","","","decisionFB","","","null","","<div class='trialDiv'><img src='Fruit/Kiwi.png'><br><font class='baseline'><strong>Kiwi Kash</strong><p>Choose number of points to bet.</font><div class='respPicDiv'><img src='img/responseButtonOffersNo0L5.png' class='respPic'></div></div>","null","8","Kiwi Kash","Fruit/Kiwi.png","Won","0.8,0.2","9","0.8","145","24","",""
"html-keyboard-response","82","123267","0.0-11.0-3.23","571144323d47e800096358d9","bdp_rwlrn","Tue Mar 14 2023 00:37:03 GMT-0400 (Eastern Daylight Time)","339781","Untrustworthy,Trustworthy","","","","feedback","","","null","","<div class='respPicDiv'><img src='img/responseButtonOffersNo0_wht.png' class='respPic'></div><div class='trialDiv'><img src='Fruit/Kiwi.png'><br><font class='baseline'><strong>Kiwi Kash</strong><p><strong><font class='posOutcome'>You WON</font><p>You bet: 5</strong></font> &nbsp; &nbsp; &nbsp; &nbsp; &nbsp; &nbsp;<font class='posOutcome'>you receive: <strong>10</strong></font></div>","null","8","Kiwi Kash","Fruit/Kiwi.png","Won","0.8,0.2","9","0.8","155","24","",""
"html-keyboard-response","83","124118","0.0-11.0-1.24","571144323d47e800096358d9","bdp_rwlrn","Tue Mar 14 2023 00:37:03 GMT-0400 (Eastern Daylight Time)","339781","Untrustworthy,Trustworthy","","","","decision","","","851","","<div class='trialDiv'><img src='Fruit/melon.png'><br><font class='baseline'><strong>Melon Millions</strong><p>Choose number of points to bet.</font><div class='respPicDiv'><img src='img/responseButtonOffersNo0L.png' class='respPic'></div></div>","2","9","Melon Millions","Fruit/melon.png","Lost","0.65,0.2","10","0.65","160","25","",""
"html-keyboard-response","84","124369","0.0-11.0-2.24","571144323d47e800096358d9","bdp_rwlrn","Tue Mar 14 2023 00:37:03 GMT-0400 (Eastern Daylight Time)","339781","Untrustworthy,Trustworthy","","","","decisionFB","","","null","","<div class='trialDiv'><img src='Fruit/melon.png'><br><font class='baseline'><strong>Melon Millions</strong><p>Choose number of points to bet.</font><div class='respPicDiv'><img src='img/responseButtonOffersNo0L2.png' class='respPic'></div></div>","null","9","Melon Millions","Fruit/melon.png","Lost","0.65,0.2","10","0.65","158","25","",""
"html-keyboard-response","85","125371","0.0-11.0-3.24","571144323d47e800096358d9","bdp_rwlrn","Tue Mar 14 2023 00:37:03 GMT-0400 (Eastern Daylight Time)","339781","Untrustworthy,Trustworthy","","","","feedback","","","null","","<div class='respPicDiv'><img src='img/responseButtonOffersNo0_wht.png' class='respPic'></div><div class='trialDiv'><img src='Fruit/melon.png'><br><font class='baseline'><strong>Melon Millions</strong><p><strong><font class='negOutcome'>You LOST</font><p>You bet: 2</strong></font> &nbsp; &nbsp; &nbsp; &nbsp; &nbsp; &nbsp;<font class='negOutcome'>You receive: <strong>0</strong></font></div>","null","9","Melon Millions","Fruit/melon.png","Lost","0.65,0.2","10","0.65","158","25","",""
"html-keyboard-response","86","125878","0.0-11.0-1.25","571144323d47e800096358d9","bdp_rwlrn","Tue Mar 14 2023 00:37:03 GMT-0400 (Eastern Daylight Time)","339781","Untrustworthy,Trustworthy","","","","decision","","","506","","<div class='trialDiv'><img src='Fruit/pears.png'><br><font class='baseline'><strong>Pears Aplenty</strong><p>Choose number of points to bet.</font><div class='respPicDiv'><img src='img/responseButtonOffersNo0L.png' class='respPic'></div></div>","3","9","Pears Aplenty","Fruit/pears.png","Won","0.35,0.8","9","0.35","163","26","",""
"html-keyboard-response","87","126129","0.0-11.0-2.25","571144323d47e800096358d9","bdp_rwlrn","Tue Mar 14 2023 00:37:03 GMT-0400 (Eastern Daylight Time)","339781","Untrustworthy,Trustworthy","","","","decisionFB","","","null","","<div class='trialDiv'><img src='Fruit/pears.png'><br><font class='baseline'><strong>Pears Aplenty</strong><p>Choose number of points to bet.</font><div class='respPicDiv'><img src='img/responseButtonOffersNo0L3.png' class='respPic'></div></div>","null","9","Pears Aplenty","Fruit/pears.png","Won","0.35,0.8","9","0.35","160","26","",""
"html-keyboard-response","88","127130","0.0-11.0-3.25","571144323d47e800096358d9","bdp_rwlrn","Tue Mar 14 2023 00:37:03 GMT-0400 (Eastern Daylight Time)","339781","Untrustworthy,Trustworthy","","","","feedback","","","null","","<div class='respPicDiv'><img src='img/responseButtonOffersNo0_wht.png' class='respPic'></div><div class='trialDiv'><img src='Fruit/pears.png'><br><font class='baseline'><strong>Pears Aplenty</strong><p><strong><font class='posOutcome'>You WON</font><p>You bet: 3</strong></font> &nbsp; &nbsp; &nbsp; &nbsp; &nbsp; &nbsp;<font class='posOutcome'>you receive: <strong>6</strong></font></div>","null","9","Pears Aplenty","Fruit/pears.png","Won","0.35,0.8","9","0.35","166","26","",""
"html-keyboard-response","89","127614","0.0-11.0-1.26","571144323d47e800096358d9","bdp_rwlrn","Tue Mar 14 2023 00:37:03 GMT-0400 (Eastern Daylight Time)","339781","Untrustworthy,Trustworthy","","","","decision","","","483","","<div class='trialDiv'><img src='Fruit/Kiwi.png'><br><font class='baseline'><strong>Kiwi Kash</strong><p>Choose number of points to bet.</font><div class='respPicDiv'><img src='img/responseButtonOffersNo0L.png' class='respPic'></div></div>","5","9","Kiwi Kash","Fruit/Kiwi.png","Won","0.8,0.2","9","0.8","171","27","",""
"html-keyboard-response","90","127866","0.0-11.0-2.26","571144323d47e800096358d9","bdp_rwlrn","Tue Mar 14 2023 00:37:03 GMT-0400 (Eastern Daylight Time)","339781","Untrustworthy,Trustworthy","","","","decisionFB","","","null","","<div class='trialDiv'><img src='Fruit/Kiwi.png'><br><font class='baseline'><strong>Kiwi Kash</strong><p>Choose number of points to bet.</font><div class='respPicDiv'><img src='img/responseButtonOffersNo0L5.png' class='respPic'></div></div>","null","9","Kiwi Kash","Fruit/Kiwi.png","Won","0.8,0.2","9","0.8","166","27","",""
"html-keyboard-response","91","128867","0.0-11.0-3.26","571144323d47e800096358d9","bdp_rwlrn","Tue Mar 14 2023 00:37:03 GMT-0400 (Eastern Daylight Time)","339781","Untrustworthy,Trustworthy","","","","feedback","","","null","","<div class='respPicDiv'><img src='img/responseButtonOffersNo0_wht.png' class='respPic'></div><div class='trialDiv'><img src='Fruit/Kiwi.png'><br><font class='baseline'><strong>Kiwi Kash</strong><p><strong><font class='posOutcome'>You WON</font><p>You bet: 5</strong></font> &nbsp; &nbsp; &nbsp; &nbsp; &nbsp; &nbsp;<font class='posOutcome'>you receive: <strong>10</strong></font></div>","null","9","Kiwi Kash","Fruit/Kiwi.png","Won","0.8,0.2","9","0.8","176","27","",""
"html-keyboard-response","92","129422","0.0-11.0-1.27","571144323d47e800096358d9","bdp_rwlrn","Tue Mar 14 2023 00:37:03 GMT-0400 (Eastern Daylight Time)","339781","Untrustworthy,Trustworthy","","","","decision","","","554","","<div class='trialDiv'><img src='Fruit/melon.png'><br><font class='baseline'><strong>Melon Millions</strong><p>Choose number of points to bet.</font><div class='respPicDiv'><img src='img/responseButtonOffersNo0L.png' class='respPic'></div></div>","1","10","Melon Millions","Fruit/melon.png","Lost","0.65,0.2","10","0.65","181","28","",""
"html-keyboard-response","93","129673","0.0-11.0-2.27","571144323d47e800096358d9","bdp_rwlrn","Tue Mar 14 2023 00:37:03 GMT-0400 (Eastern Daylight Time)","339781","Untrustworthy,Trustworthy","","","","decisionFB","","","null","","<div class='trialDiv'><img src='Fruit/melon.png'><br><font class='baseline'><strong>Melon Millions</strong><p>Choose number of points to bet.</font><div class='respPicDiv'><img src='img/responseButtonOffersNo0L1.png' class='respPic'></div></div>","null","10","Melon Millions","Fruit/melon.png","Lost","0.65,0.2","10","0.65","180","28","",""
"html-keyboard-response","94","130675","0.0-11.0-3.27","571144323d47e800096358d9","bdp_rwlrn","Tue Mar 14 2023 00:37:03 GMT-0400 (Eastern Daylight Time)","339781","Untrustworthy,Trustworthy","","","","feedback","","","null","","<div class='respPicDiv'><img src='img/responseButtonOffersNo0_wht.png' class='respPic'></div><div class='trialDiv'><img src='Fruit/melon.png'><br><font class='baseline'><strong>Melon Millions</strong><p><strong><font class='negOutcome'>You LOST</font><p>You bet: 1</strong></font> &nbsp; &nbsp; &nbsp; &nbsp; &nbsp; &nbsp;<font class='negOutcome'>You receive: <strong>0</strong></font></div>","null","10","Melon Millions","Fruit/melon.png","Lost","0.65,0.2","10","0.65","180","28","",""
"html-keyboard-response","95","130894","0.0-11.0-1.28","571144323d47e800096358d9","bdp_rwlrn","Tue Mar 14 2023 00:37:03 GMT-0400 (Eastern Daylight Time)","339781","Untrustworthy,Trustworthy","","","","decision","","","219","","<div class='trialDiv'><img src='Fruit/Kiwi.png'><br><font class='baseline'><strong>Kiwi Kash</strong><p>Choose number of points to bet.</font><div class='respPicDiv'><img src='img/responseButtonOffersNo0L.png' class='respPic'></div></div>","5","10","Kiwi Kash","Fruit/Kiwi.png","Lost","0.8,0.2","9","0.8","185","29","",""
"html-keyboard-response","96","131145","0.0-11.0-2.28","571144323d47e800096358d9","bdp_rwlrn","Tue Mar 14 2023 00:37:03 GMT-0400 (Eastern Daylight Time)","339781","Untrustworthy,Trustworthy","","","","decisionFB","","","null","","<div class='trialDiv'><img src='Fruit/Kiwi.png'><br><font class='baseline'><strong>Kiwi Kash</strong><p>Choose number of points to bet.</font><div class='respPicDiv'><img src='img/responseButtonOffersNo0L5.png' class='respPic'></div></div>","null","10","Kiwi Kash","Fruit/Kiwi.png","Lost","0.8,0.2","9","0.8","180","29","",""
"html-keyboard-response","97","132147","0.0-11.0-3.28","571144323d47e800096358d9","bdp_rwlrn","Tue Mar 14 2023 00:37:03 GMT-0400 (Eastern Daylight Time)","339781","Untrustworthy,Trustworthy","","","","feedback","","","null","","<div class='respPicDiv'><img src='img/responseButtonOffersNo0_wht.png' class='respPic'></div><div class='trialDiv'><img src='Fruit/Kiwi.png'><br><font class='baseline'><strong>Kiwi Kash</strong><p><strong><font class='negOutcome'>You LOST</font><p>You bet: 5</strong></font> &nbsp; &nbsp; &nbsp; &nbsp; &nbsp; &nbsp;<font class='negOutcome'>You receive: <strong>0</strong></font></div>","null","10","Kiwi Kash","Fruit/Kiwi.png","Lost","0.8,0.2","9","0.8","180","29","",""
"html-keyboard-response","98","132462","0.0-11.0-1.29","571144323d47e800096358d9","bdp_rwlrn","Tue Mar 14 2023 00:37:03 GMT-0400 (Eastern Daylight Time)","339781","Untrustworthy,Trustworthy","","","","decision","","","314","","<div class='trialDiv'><img src='Fruit/pears.png'><br><font class='baseline'><strong>Pears Aplenty</strong><p>Choose number of points to bet.</font><div class='respPicDiv'><img src='img/responseButtonOffersNo0L.png' class='respPic'></div></div>","5","10","Pears Aplenty","Fruit/pears.png","Lost","0.35,0.8","9","0.35","185","30","",""
"html-keyboard-response","99","132714","0.0-11.0-2.29","571144323d47e800096358d9","bdp_rwlrn","Tue Mar 14 2023 00:37:03 GMT-0400 (Eastern Daylight Time)","339781","Untrustworthy,Trustworthy","","","","decisionFB","","","null","","<div class='trialDiv'><img src='Fruit/pears.png'><br><font class='baseline'><strong>Pears Aplenty</strong><p>Choose number of points to bet.</font><div class='respPicDiv'><img src='img/responseButtonOffersNo0L5.png' class='respPic'></div></div>","null","10","Pears Aplenty","Fruit/pears.png","Lost","0.35,0.8","9","0.35","180","30","",""
"html-keyboard-response","100","133715","0.0-11.0-3.29","571144323d47e800096358d9","bdp_rwlrn","Tue Mar 14 2023 00:37:03 GMT-0400 (Eastern Daylight Time)","339781","Untrustworthy,Trustworthy","","","","feedback","","","null","","<div class='respPicDiv'><img src='img/responseButtonOffersNo0_wht.png' class='respPic'></div><div class='trialDiv'><img src='Fruit/pears.png'><br><font class='baseline'><strong>Pears Aplenty</strong><p><strong><font class='negOutcome'>You LOST</font><p>You bet: 5</strong></font> &nbsp; &nbsp; &nbsp; &nbsp; &nbsp; &nbsp;<font class='negOutcome'>You receive: <strong>0</strong></font></div>","null","10","Pears Aplenty","Fruit/pears.png","Lost","0.35,0.8","9","0.35","180","30","",""
"html-keyboard-response","101","134694","0.0-11.0-1.30","571144323d47e800096358d9","bdp_rwlrn","Tue Mar 14 2023 00:37:03 GMT-0400 (Eastern Daylight Time)","339781","Untrustworthy,Trustworthy","","","","decision","","","979","","<div class='trialDiv'><img src='Fruit/Kiwi.png'><br><font class='baseline'><strong>Kiwi Kash</strong><p>Choose number of points to bet.</font><div class='respPicDiv'><img src='img/responseButtonOffersNo0L.png' class='respPic'></div></div>","5","11","Kiwi Kash","Fruit/Kiwi.png","Lost","0.8,0.2","9","0.8","185","31","",""
"html-keyboard-response","102","134945","0.0-11.0-2.30","571144323d47e800096358d9","bdp_rwlrn","Tue Mar 14 2023 00:37:03 GMT-0400 (Eastern Daylight Time)","339781","Untrustworthy,Trustworthy","","","","decisionFB","","","null","","<div class='trialDiv'><img src='Fruit/Kiwi.png'><br><font class='baseline'><strong>Kiwi Kash</strong><p>Choose number of points to bet.</font><div class='respPicDiv'><img src='img/responseButtonOffersNo0L5.png' class='respPic'></div></div>","null","11","Kiwi Kash","Fruit/Kiwi.png","Lost","0.8,0.2","9","0.8","180","31","",""
"html-keyboard-response","103","135946","0.0-11.0-3.30","571144323d47e800096358d9","bdp_rwlrn","Tue Mar 14 2023 00:37:03 GMT-0400 (Eastern Daylight Time)","339781","Untrustworthy,Trustworthy","","","","feedback","","","null","","<div class='respPicDiv'><img src='img/responseButtonOffersNo0_wht.png' class='respPic'></div><div class='trialDiv'><img src='Fruit/Kiwi.png'><br><font class='baseline'><strong>Kiwi Kash</strong><p><strong><font class='negOutcome'>You LOST</font><p>You bet: 5</strong></font> &nbsp; &nbsp; &nbsp; &nbsp; &nbsp; &nbsp;<font class='negOutcome'>You receive: <strong>0</strong></font></div>","null","11","Kiwi Kash","Fruit/Kiwi.png","Lost","0.8,0.2","9","0.8","180","31","",""
"html-keyboard-response","104","136854","0.0-11.0-1.31","571144323d47e800096358d9","bdp_rwlrn","Tue Mar 14 2023 00:37:03 GMT-0400 (Eastern Daylight Time)","339781","Untrustworthy,Trustworthy","","","","decision","","","908","","<div class='trialDiv'><img src='Fruit/pears.png'><br><font class='baseline'><strong>Pears Aplenty</strong><p>Choose number of points to bet.</font><div class='respPicDiv'><img src='img/responseButtonOffersNo0L.png' class='respPic'></div></div>","2","11","Pears Aplenty","Fruit/pears.png","Won","0.35,0.8","9","0.35","185","32","",""
"html-keyboard-response","105","137105","0.0-11.0-2.31","571144323d47e800096358d9","bdp_rwlrn","Tue Mar 14 2023 00:37:03 GMT-0400 (Eastern Daylight Time)","339781","Untrustworthy,Trustworthy","","","","decisionFB","","","null","","<div class='trialDiv'><img src='Fruit/pears.png'><br><font class='baseline'><strong>Pears Aplenty</strong><p>Choose number of points to bet.</font><div class='respPicDiv'><img src='img/responseButtonOffersNo0L2.png' class='respPic'></div></div>","null","11","Pears Aplenty","Fruit/pears.png","Won","0.35,0.8","9","0.35","183","32","",""
"html-keyboard-response","106","138106","0.0-11.0-3.31","571144323d47e800096358d9","bdp_rwlrn","Tue Mar 14 2023 00:37:03 GMT-0400 (Eastern Daylight Time)","339781","Untrustworthy,Trustworthy","","","","feedback","","","null","","<div class='respPicDiv'><img src='img/responseButtonOffersNo0_wht.png' class='respPic'></div><div class='trialDiv'><img src='Fruit/pears.png'><br><font class='baseline'><strong>Pears Aplenty</strong><p><strong><font class='posOutcome'>You WON</font><p>You bet: 2</strong></font> &nbsp; &nbsp; &nbsp; &nbsp; &nbsp; &nbsp;<font class='posOutcome'>you receive: <strong>4</strong></font></div>","null","11","Pears Aplenty","Fruit/pears.png","Won","0.35,0.8","9","0.35","187","32","",""
"html-keyboard-response","107","138654","0.0-11.0-1.32","571144323d47e800096358d9","bdp_rwlrn","Tue Mar 14 2023 00:37:03 GMT-0400 (Eastern Daylight Time)","339781","Untrustworthy,Trustworthy","","","","decision","","","548","","<div class='trialDiv'><img src='Fruit/melon.png'><br><font class='baseline'><strong>Melon Millions</strong><p>Choose number of points to bet.</font><div class='respPicDiv'><img src='img/responseButtonOffersNo0L.png' class='respPic'></div></div>","3","11","Melon Millions","Fruit/melon.png","Lost","0.65,0.2","10","0.65","192","33","",""
"html-keyboard-response","108","138905","0.0-11.0-2.32","571144323d47e800096358d9","bdp_rwlrn","Tue Mar 14 2023 00:37:03 GMT-0400 (Eastern Daylight Time)","339781","Untrustworthy,Trustworthy","","","","decisionFB","","","null","","<div class='trialDiv'><img src='Fruit/melon.png'><br><font class='baseline'><strong>Melon Millions</strong><p>Choose number of points to bet.</font><div class='respPicDiv'><img src='img/responseButtonOffersNo0L3.png' class='respPic'></div></div>","null","11","Melon Millions","Fruit/melon.png","Lost","0.65,0.2","10","0.65","189","33","",""
"html-keyboard-response","109","139906","0.0-11.0-3.32","571144323d47e800096358d9","bdp_rwlrn","Tue Mar 14 2023 00:37:03 GMT-0400 (Eastern Daylight Time)","339781","Untrustworthy,Trustworthy","","","","feedback","","","null","","<div class='respPicDiv'><img src='img/responseButtonOffersNo0_wht.png' class='respPic'></div><div class='trialDiv'><img src='Fruit/melon.png'><br><font class='baseline'><strong>Melon Millions</strong><p><strong><font class='negOutcome'>You LOST</font><p>You bet: 3</strong></font> &nbsp; &nbsp; &nbsp; &nbsp; &nbsp; &nbsp;<font class='negOutcome'>You receive: <strong>0</strong></font></div>","null","11","Melon Millions","Fruit/melon.png","Lost","0.65,0.2","10","0.65","189","33","",""
"html-keyboard-response","110","140854","0.0-11.0-1.33","571144323d47e800096358d9","bdp_rwlrn","Tue Mar 14 2023 00:37:03 GMT-0400 (Eastern Daylight Time)","339781","Untrustworthy,Trustworthy","","","","decision","","","947","","<div class='trialDiv'><img src='Fruit/pears.png'><br><font class='baseline'><strong>Pears Aplenty</strong><p>Choose number of points to bet.</font><div class='respPicDiv'><img src='img/responseButtonOffersNo0L.png' class='respPic'></div></div>","4","12","Pears Aplenty","Fruit/pears.png","Won","0.35,0.8","9","0.35","194","34","",""
"html-keyboard-response","111","141104","0.0-11.0-2.33","571144323d47e800096358d9","bdp_rwlrn","Tue Mar 14 2023 00:37:03 GMT-0400 (Eastern Daylight Time)","339781","Untrustworthy,Trustworthy","","","","decisionFB","","","null","","<div class='trialDiv'><img src='Fruit/pears.png'><br><font class='baseline'><strong>Pears Aplenty</strong><p>Choose number of points to bet.</font><div class='respPicDiv'><img src='img/responseButtonOffersNo0L4.png' class='respPic'></div></div>","null","12","Pears Aplenty","Fruit/pears.png","Won","0.35,0.8","9","0.35","190","34","",""
"html-keyboard-response","112","142106","0.0-11.0-3.33","571144323d47e800096358d9","bdp_rwlrn","Tue Mar 14 2023 00:37:03 GMT-0400 (Eastern Daylight Time)","339781","Untrustworthy,Trustworthy","","","","feedback","","","null","","<div class='respPicDiv'><img src='img/responseButtonOffersNo0_wht.png' class='respPic'></div><div class='trialDiv'><img src='Fruit/pears.png'><br><font class='baseline'><strong>Pears Aplenty</strong><p><strong><font class='posOutcome'>You WON</font><p>You bet: 4</strong></font> &nbsp; &nbsp; &nbsp; &nbsp; &nbsp; &nbsp;<font class='posOutcome'>you receive: <strong>8</strong></font></div>","null","12","Pears Aplenty","Fruit/pears.png","Won","0.35,0.8","9","0.35","198","34","",""
"html-keyboard-response","113","142526","0.0-11.0-1.34","571144323d47e800096358d9","bdp_rwlrn","Tue Mar 14 2023 00:37:03 GMT-0400 (Eastern Daylight Time)","339781","Untrustworthy,Trustworthy","","","","decision","","","420","","<div class='trialDiv'><img src='Fruit/melon.png'><br><font class='baseline'><strong>Melon Millions</strong><p>Choose number of points to bet.</font><div class='respPicDiv'><img src='img/responseButtonOffersNo0L.png' class='respPic'></div></div>","4","12","Melon Millions","Fruit/melon.png","Lost","0.65,0.2","10","0.65","203","35","",""
"html-keyboard-response","114","142777","0.0-11.0-2.34","571144323d47e800096358d9","bdp_rwlrn","Tue Mar 14 2023 00:37:03 GMT-0400 (Eastern Daylight Time)","339781","Untrustworthy,Trustworthy","","","","decisionFB","","","null","","<div class='trialDiv'><img src='Fruit/melon.png'><br><font class='baseline'><strong>Melon Millions</strong><p>Choose number of points to bet.</font><div class='respPicDiv'><img src='img/responseButtonOffersNo0L4.png' class='respPic'></div></div>","null","12","Melon Millions","Fruit/melon.png","Lost","0.65,0.2","10","0.65","199","35","",""
"html-keyboard-response","115","143778","0.0-11.0-3.34","571144323d47e800096358d9","bdp_rwlrn","Tue Mar 14 2023 00:37:03 GMT-0400 (Eastern Daylight Time)","339781","Untrustworthy,Trustworthy","","","","feedback","","","null","","<div class='respPicDiv'><img src='img/responseButtonOffersNo0_wht.png' class='respPic'></div><div class='trialDiv'><img src='Fruit/melon.png'><br><font class='baseline'><strong>Melon Millions</strong><p><strong><font class='negOutcome'>You LOST</font><p>You bet: 4</strong></font> &nbsp; &nbsp; &nbsp; &nbsp; &nbsp; &nbsp;<font class='negOutcome'>You receive: <strong>0</strong></font></div>","null","12","Melon Millions","Fruit/melon.png","Lost","0.65,0.2","10","0.65","199","35","",""
"html-keyboard-response","116","144254","0.0-11.0-1.35","571144323d47e800096358d9","bdp_rwlrn","Tue Mar 14 2023 00:37:03 GMT-0400 (Eastern Daylight Time)","339781","Untrustworthy,Trustworthy","","","","decision","","","475","","<div class='trialDiv'><img src='Fruit/Kiwi.png'><br><font class='baseline'><strong>Kiwi Kash</strong><p>Choose number of points to bet.</font><div class='respPicDiv'><img src='img/responseButtonOffersNo0L.png' class='respPic'></div></div>","4","12","Kiwi Kash","Fruit/Kiwi.png","Lost","0.8,0.2","9","0.8","204","36","",""
"html-keyboard-response","117","144505","0.0-11.0-2.35","571144323d47e800096358d9","bdp_rwlrn","Tue Mar 14 2023 00:37:03 GMT-0400 (Eastern Daylight Time)","339781","Untrustworthy,Trustworthy","","","","decisionFB","","","null","","<div class='trialDiv'><img src='Fruit/Kiwi.png'><br><font class='baseline'><strong>Kiwi Kash</strong><p>Choose number of points to bet.</font><div class='respPicDiv'><img src='img/responseButtonOffersNo0L4.png' class='respPic'></div></div>","null","12","Kiwi Kash","Fruit/Kiwi.png","Lost","0.8,0.2","9","0.8","200","36","",""
"html-keyboard-response","118","145505","0.0-11.0-3.35","571144323d47e800096358d9","bdp_rwlrn","Tue Mar 14 2023 00:37:03 GMT-0400 (Eastern Daylight Time)","339781","Untrustworthy,Trustworthy","","","","feedback","","","null","","<div class='respPicDiv'><img src='img/responseButtonOffersNo0_wht.png' class='respPic'></div><div class='trialDiv'><img src='Fruit/Kiwi.png'><br><font class='baseline'><strong>Kiwi Kash</strong><p><strong><font class='negOutcome'>You LOST</font><p>You bet: 4</strong></font> &nbsp; &nbsp; &nbsp; &nbsp; &nbsp; &nbsp;<font class='negOutcome'>You receive: <strong>0</strong></font></div>","null","12","Kiwi Kash","Fruit/Kiwi.png","Lost","0.8,0.2","9","0.8","200","36","",""
"html-keyboard-response","119","146254","0.0-11.0-1.36","571144323d47e800096358d9","bdp_rwlrn","Tue Mar 14 2023 00:37:03 GMT-0400 (Eastern Daylight Time)","339781","Untrustworthy,Trustworthy","","","","decision","","","748","","<div class='trialDiv'><img src='Fruit/melon.png'><br><font class='baseline'><strong>Melon Millions</strong><p>Choose number of points to bet.</font><div class='respPicDiv'><img src='img/responseButtonOffersNo0L.png' class='respPic'></div></div>","1","13","Melon Millions","Fruit/melon.png","Lost","0.65,0.2","10","0.65","205","37","",""
"html-keyboard-response","120","146505","0.0-11.0-2.36","571144323d47e800096358d9","bdp_rwlrn","Tue Mar 14 2023 00:37:03 GMT-0400 (Eastern Daylight Time)","339781","Untrustworthy,Trustworthy","","","","decisionFB","","","null","","<div class='trialDiv'><img src='Fruit/melon.png'><br><font class='baseline'><strong>Melon Millions</strong><p>Choose number of points to bet.</font><div class='respPicDiv'><img src='img/responseButtonOffersNo0L1.png' class='respPic'></div></div>","null","13","Melon Millions","Fruit/melon.png","Lost","0.65,0.2","10","0.65","204","37","",""
"html-keyboard-response","121","147506","0.0-11.0-3.36","571144323d47e800096358d9","bdp_rwlrn","Tue Mar 14 2023 00:37:03 GMT-0400 (Eastern Daylight Time)","339781","Untrustworthy,Trustworthy","","","","feedback","","","null","","<div class='respPicDiv'><img src='img/responseButtonOffersNo0_wht.png' class='respPic'></div><div class='trialDiv'><img src='Fruit/melon.png'><br><font class='baseline'><strong>Melon Millions</strong><p><strong><font class='negOutcome'>You LOST</font><p>You bet: 1</strong></font> &nbsp; &nbsp; &nbsp; &nbsp; &nbsp; &nbsp;<font class='negOutcome'>You receive: <strong>0</strong></font></div>","null","13","Melon Millions","Fruit/melon.png","Lost","0.65,0.2","10","0.65","204","37","",""
"html-keyboard-response","122","147886","0.0-11.0-1.37","571144323d47e800096358d9","bdp_rwlrn","Tue Mar 14 2023 00:37:03 GMT-0400 (Eastern Daylight Time)","339781","Untrustworthy,Trustworthy","","","","decision","","","380","","<div class='trialDiv'><img src='Fruit/pears.png'><br><font class='baseline'><strong>Pears Aplenty</strong><p>Choose number of points to bet.</font><div class='respPicDiv'><img src='img/responseButtonOffersNo0L.png' class='respPic'></div></div>","5","13","Pears Aplenty","Fruit/pears.png","Won","0.35,0.8","9","0.35","209","38","",""
"html-keyboard-response","123","148136","0.0-11.0-2.37","571144323d47e800096358d9","bdp_rwlrn","Tue Mar 14 2023 00:37:03 GMT-0400 (Eastern Daylight Time)","339781","Untrustworthy,Trustworthy","","","","decisionFB","","","null","","<div class='trialDiv'><img src='Fruit/pears.png'><br><font class='baseline'><strong>Pears Aplenty</strong><p>Choose number of points to bet.</font><div class='respPicDiv'><img src='img/responseButtonOffersNo0L5.png' class='respPic'></div></div>","null","13","Pears Aplenty","Fruit/pears.png","Won","0.35,0.8","9","0.35","204","38","",""
"html-keyboard-response","124","149138","0.0-11.0-3.37","571144323d47e800096358d9","bdp_rwlrn","Tue Mar 14 2023 00:37:03 GMT-0400 (Eastern Daylight Time)","339781","Untrustworthy,Trustworthy","","","","feedback","","","null","","<div class='respPicDiv'><img src='img/responseButtonOffersNo0_wht.png' class='respPic'></div><div class='trialDiv'><img src='Fruit/pears.png'><br><font class='baseline'><strong>Pears Aplenty</strong><p><strong><font class='posOutcome'>You WON</font><p>You bet: 5</strong></font> &nbsp; &nbsp; &nbsp; &nbsp; &nbsp; &nbsp;<font class='posOutcome'>you receive: <strong>10</strong></font></div>","null","13","Pears Aplenty","Fruit/pears.png","Won","0.35,0.8","9","0.35","214","38","",""
"html-keyboard-response","125","149470","0.0-11.0-1.38","571144323d47e800096358d9","bdp_rwlrn","Tue Mar 14 2023 00:37:03 GMT-0400 (Eastern Daylight Time)","339781","Untrustworthy,Trustworthy","","","","decision","","","332","","<div class='trialDiv'><img src='Fruit/Kiwi.png'><br><font class='baseline'><strong>Kiwi Kash</strong><p>Choose number of points to bet.</font><div class='respPicDiv'><img src='img/responseButtonOffersNo0L.png' class='respPic'></div></div>","1","13","Kiwi Kash","Fruit/Kiwi.png","Won","0.8,0.2","9","0.8","219","39","",""
"html-keyboard-response","126","149721","0.0-11.0-2.38","571144323d47e800096358d9","bdp_rwlrn","Tue Mar 14 2023 00:37:03 GMT-0400 (Eastern Daylight Time)","339781","Untrustworthy,Trustworthy","","","","decisionFB","","","null","","<div class='trialDiv'><img src='Fruit/Kiwi.png'><br><font class='baseline'><strong>Kiwi Kash</strong><p>Choose number of points to bet.</font><div class='respPicDiv'><img src='img/responseButtonOffersNo0L1.png' class='respPic'></div></div>","null","13","Kiwi Kash","Fruit/Kiwi.png","Won","0.8,0.2","9","0.8","218","39","",""
"html-keyboard-response","127","150722","0.0-11.0-3.38","571144323d47e800096358d9","bdp_rwlrn","Tue Mar 14 2023 00:37:03 GMT-0400 (Eastern Daylight Time)","339781","Untrustworthy,Trustworthy","","","","feedback","","","null","","<div class='respPicDiv'><img src='img/responseButtonOffersNo0_wht.png' class='respPic'></div><div class='trialDiv'><img src='Fruit/Kiwi.png'><br><font class='baseline'><strong>Kiwi Kash</strong><p><strong><font class='posOutcome'>You WON</font><p>You bet: 1</strong></font> &nbsp; &nbsp; &nbsp; &nbsp; &nbsp; &nbsp;<font class='posOutcome'>you receive: <strong>2</strong></font></div>","null","13","Kiwi Kash","Fruit/Kiwi.png","Won","0.8,0.2","9","0.8","220","39","",""
"html-keyboard-response","128","151070","0.0-11.0-1.39","571144323d47e800096358d9","bdp_rwlrn","Tue Mar 14 2023 00:37:03 GMT-0400 (Eastern Daylight Time)","339781","Untrustworthy,Trustworthy","","","","decision","","","347","","<div class='trialDiv'><img src='Fruit/melon.png'><br><font class='baseline'><strong>Melon Millions</strong><p>Choose number of points to bet.</font><div class='respPicDiv'><img src='img/responseButtonOffersNo0L.png' class='respPic'></div></div>","1","14","Melon Millions","Fruit/melon.png","Lost","0.65,0.2","10","0.65","225","40","",""
"html-keyboard-response","129","151321","0.0-11.0-2.39","571144323d47e800096358d9","bdp_rwlrn","Tue Mar 14 2023 00:37:03 GMT-0400 (Eastern Daylight Time)","339781","Untrustworthy,Trustworthy","","","","decisionFB","","","null","","<div class='trialDiv'><img src='Fruit/melon.png'><br><font class='baseline'><strong>Melon Millions</strong><p>Choose number of points to bet.</font><div class='respPicDiv'><img src='img/responseButtonOffersNo0L1.png' class='respPic'></div></div>","null","14","Melon Millions","Fruit/melon.png","Lost","0.65,0.2","10","0.65","224","40","",""
"html-keyboard-response","130","152323","0.0-11.0-3.39","571144323d47e800096358d9","bdp_rwlrn","Tue Mar 14 2023 00:37:03 GMT-0400 (Eastern Daylight Time)","339781","Untrustworthy,Trustworthy","","","","feedback","","","null","","<div class='respPicDiv'><img src='img/responseButtonOffersNo0_wht.png' class='respPic'></div><div class='trialDiv'><img src='Fruit/melon.png'><br><font class='baseline'><strong>Melon Millions</strong><p><strong><font class='negOutcome'>You LOST</font><p>You bet: 1</strong></font> &nbsp; &nbsp; &nbsp; &nbsp; &nbsp; &nbsp;<font class='negOutcome'>You receive: <strong>0</strong></font></div>","null","14","Melon Millions","Fruit/melon.png","Lost","0.65,0.2","10","0.65","224","40","",""
"html-keyboard-response","131","152822","0.0-11.0-1.40","571144323d47e800096358d9","bdp_rwlrn","Tue Mar 14 2023 00:37:03 GMT-0400 (Eastern Daylight Time)","339781","Untrustworthy,Trustworthy","","","","decision","","","499","","<div class='trialDiv'><img src='Fruit/Kiwi.png'><br><font class='baseline'><strong>Kiwi Kash</strong><p>Choose number of points to bet.</font><div class='respPicDiv'><img src='img/responseButtonOffersNo0L.png' class='respPic'></div></div>","5","14","Kiwi Kash","Fruit/Kiwi.png","Lost","0.8,0.2","9","0.8","229","41","",""
"html-keyboard-response","132","153074","0.0-11.0-2.40","571144323d47e800096358d9","bdp_rwlrn","Tue Mar 14 2023 00:37:03 GMT-0400 (Eastern Daylight Time)","339781","Untrustworthy,Trustworthy","","","","decisionFB","","","null","","<div class='trialDiv'><img src='Fruit/Kiwi.png'><br><font class='baseline'><strong>Kiwi Kash</strong><p>Choose number of points to bet.</font><div class='respPicDiv'><img src='img/responseButtonOffersNo0L5.png' class='respPic'></div></div>","null","14","Kiwi Kash","Fruit/Kiwi.png","Lost","0.8,0.2","9","0.8","224","41","",""
"html-keyboard-response","133","154075","0.0-11.0-3.40","571144323d47e800096358d9","bdp_rwlrn","Tue Mar 14 2023 00:37:03 GMT-0400 (Eastern Daylight Time)","339781","Untrustworthy,Trustworthy","","","","feedback","","","null","","<div class='respPicDiv'><img src='img/responseButtonOffersNo0_wht.png' class='respPic'></div><div class='trialDiv'><img src='Fruit/Kiwi.png'><br><font class='baseline'><strong>Kiwi Kash</strong><p><strong><font class='negOutcome'>You LOST</font><p>You bet: 5</strong></font> &nbsp; &nbsp; &nbsp; &nbsp; &nbsp; &nbsp;<font class='negOutcome'>You receive: <strong>0</strong></font></div>","null","14","Kiwi Kash","Fruit/Kiwi.png","Lost","0.8,0.2","9","0.8","224","41","",""
"html-keyboard-response","134","154358","0.0-11.0-1.41","571144323d47e800096358d9","bdp_rwlrn","Tue Mar 14 2023 00:37:03 GMT-0400 (Eastern Daylight Time)","339781","Untrustworthy,Trustworthy","","","","decision","","","283","","<div class='trialDiv'><img src='Fruit/pears.png'><br><font class='baseline'><strong>Pears Aplenty</strong><p>Choose number of points to bet.</font><div class='respPicDiv'><img src='img/responseButtonOffersNo0L.png' class='respPic'></div></div>","5","14","Pears Aplenty","Fruit/pears.png","Won","0.35,0.8","9","0.35","229","42","",""
"html-keyboard-response","135","154609","0.0-11.0-2.41","571144323d47e800096358d9","bdp_rwlrn","Tue Mar 14 2023 00:37:03 GMT-0400 (Eastern Daylight Time)","339781","Untrustworthy,Trustworthy","","","","decisionFB","","","null","","<div class='trialDiv'><img src='Fruit/pears.png'><br><font class='baseline'><strong>Pears Aplenty</strong><p>Choose number of points to bet.</font><div class='respPicDiv'><img src='img/responseButtonOffersNo0L5.png' class='respPic'></div></div>","null","14","Pears Aplenty","Fruit/pears.png","Won","0.35,0.8","9","0.35","224","42","",""
"html-keyboard-response","136","155611","0.0-11.0-3.41","571144323d47e800096358d9","bdp_rwlrn","Tue Mar 14 2023 00:37:03 GMT-0400 (Eastern Daylight Time)","339781","Untrustworthy,Trustworthy","","","","feedback","","","null","","<div class='respPicDiv'><img src='img/responseButtonOffersNo0_wht.png' class='respPic'></div><div class='trialDiv'><img src='Fruit/pears.png'><br><font class='baseline'><strong>Pears Aplenty</strong><p><strong><font class='posOutcome'>You WON</font><p>You bet: 5</strong></font> &nbsp; &nbsp; &nbsp; &nbsp; &nbsp; &nbsp;<font class='posOutcome'>you receive: <strong>10</strong></font></div>","null","14","Pears Aplenty","Fruit/pears.png","Won","0.35,0.8","9","0.35","234","42","",""
"html-keyboard-response","137","156134","0.0-11.0-1.42","571144323d47e800096358d9","bdp_rwlrn","Tue Mar 14 2023 00:37:03 GMT-0400 (Eastern Daylight Time)","339781","Untrustworthy,Trustworthy","","","","decision","","","522","","<div class='trialDiv'><img src='Fruit/Kiwi.png'><br><font class='baseline'><strong>Kiwi Kash</strong><p>Choose number of points to bet.</font><div class='respPicDiv'><img src='img/responseButtonOffersNo0L.png' class='respPic'></div></div>","3","15","Kiwi Kash","Fruit/Kiwi.png","Lost","0.8,0.2","9","0.8","239","43","",""
"html-keyboard-response","138","156385","0.0-11.0-2.42","571144323d47e800096358d9","bdp_rwlrn","Tue Mar 14 2023 00:37:03 GMT-0400 (Eastern Daylight Time)","339781","Untrustworthy,Trustworthy","","","","decisionFB","","","null","","<div class='trialDiv'><img src='Fruit/Kiwi.png'><br><font class='baseline'><strong>Kiwi Kash</strong><p>Choose number of points to bet.</font><div class='respPicDiv'><img src='img/responseButtonOffersNo0L3.png' class='respPic'></div></div>","null","15","Kiwi Kash","Fruit/Kiwi.png","Lost","0.8,0.2","9","0.8","236","43","",""
"html-keyboard-response","139","157387","0.0-11.0-3.42","571144323d47e800096358d9","bdp_rwlrn","Tue Mar 14 2023 00:37:03 GMT-0400 (Eastern Daylight Time)","339781","Untrustworthy,Trustworthy","","","","feedback","","","null","","<div class='respPicDiv'><img src='img/responseButtonOffersNo0_wht.png' class='respPic'></div><div class='trialDiv'><img src='Fruit/Kiwi.png'><br><font class='baseline'><strong>Kiwi Kash</strong><p><strong><font class='negOutcome'>You LOST</font><p>You bet: 3</strong></font> &nbsp; &nbsp; &nbsp; &nbsp; &nbsp; &nbsp;<font class='negOutcome'>You receive: <strong>0</strong></font></div>","null","15","Kiwi Kash","Fruit/Kiwi.png","Lost","0.8,0.2","9","0.8","236","43","",""
"html-keyboard-response","140","157934","0.0-11.0-1.43","571144323d47e800096358d9","bdp_rwlrn","Tue Mar 14 2023 00:37:03 GMT-0400 (Eastern Daylight Time)","339781","Untrustworthy,Trustworthy","","","","decision","","","547","","<div class='trialDiv'><img src='Fruit/pears.png'><br><font class='baseline'><strong>Pears Aplenty</strong><p>Choose number of points to bet.</font><div class='respPicDiv'><img src='img/responseButtonOffersNo0L.png' class='respPic'></div></div>","5","15","Pears Aplenty","Fruit/pears.png","Won","0.35,0.8","9","0.35","241","44","",""
"html-keyboard-response","141","158186","0.0-11.0-2.43","571144323d47e800096358d9","bdp_rwlrn","Tue Mar 14 2023 00:37:03 GMT-0400 (Eastern Daylight Time)","339781","Untrustworthy,Trustworthy","","","","decisionFB","","","null","","<div class='trialDiv'><img src='Fruit/pears.png'><br><font class='baseline'><strong>Pears Aplenty</strong><p>Choose number of points to bet.</font><div class='respPicDiv'><img src='img/responseButtonOffersNo0L5.png' class='respPic'></div></div>","null","15","Pears Aplenty","Fruit/pears.png","Won","0.35,0.8","9","0.35","236","44","",""
"html-keyboard-response","142","159187","0.0-11.0-3.43","571144323d47e800096358d9","bdp_rwlrn","Tue Mar 14 2023 00:37:03 GMT-0400 (Eastern Daylight Time)","339781","Untrustworthy,Trustworthy","","","","feedback","","","null","","<div class='respPicDiv'><img src='img/responseButtonOffersNo0_wht.png' class='respPic'></div><div class='trialDiv'><img src='Fruit/pears.png'><br><font class='baseline'><strong>Pears Aplenty</strong><p><strong><font class='posOutcome'>You WON</font><p>You bet: 5</strong></font> &nbsp; &nbsp; &nbsp; &nbsp; &nbsp; &nbsp;<font class='posOutcome'>you receive: <strong>10</strong></font></div>","null","15","Pears Aplenty","Fruit/pears.png","Won","0.35,0.8","9","0.35","246","44","",""
"html-keyboard-response","143","159638","0.0-11.0-1.44","571144323d47e800096358d9","bdp_rwlrn","Tue Mar 14 2023 00:37:03 GMT-0400 (Eastern Daylight Time)","339781","Untrustworthy,Trustworthy","","","","decision","","","451","","<div class='trialDiv'><img src='Fruit/melon.png'><br><font class='baseline'><strong>Melon Millions</strong><p>Choose number of points to bet.</font><div class='respPicDiv'><img src='img/responseButtonOffersNo0L.png' class='respPic'></div></div>","2","15","Melon Millions","Fruit/melon.png","Lost","0.65,0.2","10","0.65","251","45","",""
"html-keyboard-response","144","159889","0.0-11.0-2.44","571144323d47e800096358d9","bdp_rwlrn","Tue Mar 14 2023 00:37:03 GMT-0400 (Eastern Daylight Time)","339781","Untrustworthy,Trustworthy","","","","decisionFB","","","null","","<div class='trialDiv'><img src='Fruit/melon.png'><br><font class='baseline'><strong>Melon Millions</strong><p>Choose number of points to bet.</font><div class='respPicDiv'><img src='img/responseButtonOffersNo0L2.png' class='respPic'></div></div>","null","15","Melon Millions","Fruit/melon.png","Lost","0.65,0.2","10","0.65","249","45","",""
"html-keyboard-response","145","160890","0.0-11.0-3.44","571144323d47e800096358d9","bdp_rwlrn","Tue Mar 14 2023 00:37:03 GMT-0400 (Eastern Daylight Time)","339781","Untrustworthy,Trustworthy","","","","feedback","","","null","","<div class='respPicDiv'><img src='img/responseButtonOffersNo0_wht.png' class='respPic'></div><div class='trialDiv'><img src='Fruit/melon.png'><br><font class='baseline'><strong>Melon Millions</strong><p><strong><font class='negOutcome'>You LOST</font><p>You bet: 2</strong></font> &nbsp; &nbsp; &nbsp; &nbsp; &nbsp; &nbsp;<font class='negOutcome'>You receive: <strong>0</strong></font></div>","null","15","Melon Millions","Fruit/melon.png","Lost","0.65,0.2","10","0.65","249","45","",""
"html-keyboard-response","146","161270","0.0-11.0-1.45","571144323d47e800096358d9","bdp_rwlrn","Tue Mar 14 2023 00:37:03 GMT-0400 (Eastern Daylight Time)","339781","Untrustworthy,Trustworthy","","","","decision","","","379","","<div class='trialDiv'><img src='Fruit/Kiwi.png'><br><font class='baseline'><strong>Kiwi Kash</strong><p>Choose number of points to bet.</font><div class='respPicDiv'><img src='img/responseButtonOffersNo0L.png' class='respPic'></div></div>","2","16","Kiwi Kash","Fruit/Kiwi.png","Won","0.8,0.2","9","0.8","254","46","",""
"html-keyboard-response","147","161521","0.0-11.0-2.45","571144323d47e800096358d9","bdp_rwlrn","Tue Mar 14 2023 00:37:03 GMT-0400 (Eastern Daylight Time)","339781","Untrustworthy,Trustworthy","","","","decisionFB","","","null","","<div class='trialDiv'><img src='Fruit/Kiwi.png'><br><font class='baseline'><strong>Kiwi Kash</strong><p>Choose number of points to bet.</font><div class='respPicDiv'><img src='img/responseButtonOffersNo0L2.png' class='respPic'></div></div>","null","16","Kiwi Kash","Fruit/Kiwi.png","Won","0.8,0.2","9","0.8","252","46","",""
"html-keyboard-response","148","162522","0.0-11.0-3.45","571144323d47e800096358d9","bdp_rwlrn","Tue Mar 14 2023 00:37:03 GMT-0400 (Eastern Daylight Time)","339781","Untrustworthy,Trustworthy","","","","feedback","","","null","","<div class='respPicDiv'><img src='img/responseButtonOffersNo0_wht.png' class='respPic'></div><div class='trialDiv'><img src='Fruit/Kiwi.png'><br><font class='baseline'><strong>Kiwi Kash</strong><p><strong><font class='posOutcome'>You WON</font><p>You bet: 2</strong></font> &nbsp; &nbsp; &nbsp; &nbsp; &nbsp; &nbsp;<font class='posOutcome'>you receive: <strong>4</strong></font></div>","null","16","Kiwi Kash","Fruit/Kiwi.png","Won","0.8,0.2","9","0.8","256","46","",""
"html-keyboard-response","149","163174","0.0-11.0-1.46","571144323d47e800096358d9","bdp_rwlrn","Tue Mar 14 2023 00:37:03 GMT-0400 (Eastern Daylight Time)","339781","Untrustworthy,Trustworthy","","","","decision","","","651","","<div class='trialDiv'><img src='Fruit/melon.png'><br><font class='baseline'><strong>Melon Millions</strong><p>Choose number of points to bet.</font><div class='respPicDiv'><img src='img/responseButtonOffersNo0L.png' class='respPic'></div></div>","1","16","Melon Millions","Fruit/melon.png","Lost","0.65,0.2","10","0.65","261","47","",""
"html-keyboard-response","150","163425","0.0-11.0-2.46","571144323d47e800096358d9","bdp_rwlrn","Tue Mar 14 2023 00:37:03 GMT-0400 (Eastern Daylight Time)","339781","Untrustworthy,Trustworthy","","","","decisionFB","","","null","","<div class='trialDiv'><img src='Fruit/melon.png'><br><font class='baseline'><strong>Melon Millions</strong><p>Choose number of points to bet.</font><div class='respPicDiv'><img src='img/responseButtonOffersNo0L1.png' class='respPic'></div></div>","null","16","Melon Millions","Fruit/melon.png","Lost","0.65,0.2","10","0.65","260","47","",""
"html-keyboard-response","151","164426","0.0-11.0-3.46","571144323d47e800096358d9","bdp_rwlrn","Tue Mar 14 2023 00:37:03 GMT-0400 (Eastern Daylight Time)","339781","Untrustworthy,Trustworthy","","","","feedback","","","null","","<div class='respPicDiv'><img src='img/responseButtonOffersNo0_wht.png' class='respPic'></div><div class='trialDiv'><img src='Fruit/melon.png'><br><font class='baseline'><strong>Melon Millions</strong><p><strong><font class='negOutcome'>You LOST</font><p>You bet: 1</strong></font> &nbsp; &nbsp; &nbsp; &nbsp; &nbsp; &nbsp;<font class='negOutcome'>You receive: <strong>0</strong></font></div>","null","16","Melon Millions","Fruit/melon.png","Lost","0.65,0.2","10","0.65","260","47","",""
"html-keyboard-response","152","164822","0.0-11.0-1.47","571144323d47e800096358d9","bdp_rwlrn","Tue Mar 14 2023 00:37:03 GMT-0400 (Eastern Daylight Time)","339781","Untrustworthy,Trustworthy","","","","decision","","","396","","<div class='trialDiv'><img src='Fruit/pears.png'><br><font class='baseline'><strong>Pears Aplenty</strong><p>Choose number of points to bet.</font><div class='respPicDiv'><img src='img/responseButtonOffersNo0L.png' class='respPic'></div></div>","5","16","Pears Aplenty","Fruit/pears.png","Lost","0.35,0.8","9","0.35","265","48","",""
"html-keyboard-response","153","165073","0.0-11.0-2.47","571144323d47e800096358d9","bdp_rwlrn","Tue Mar 14 2023 00:37:03 GMT-0400 (Eastern Daylight Time)","339781","Untrustworthy,Trustworthy","","","","decisionFB","","","null","","<div class='trialDiv'><img src='Fruit/pears.png'><br><font class='baseline'><strong>Pears Aplenty</strong><p>Choose number of points to bet.</font><div class='respPicDiv'><img src='img/responseButtonOffersNo0L5.png' class='respPic'></div></div>","null","16","Pears Aplenty","Fruit/pears.png","Lost","0.35,0.8","9","0.35","260","48","",""
"html-keyboard-response","154","166075","0.0-11.0-3.47","571144323d47e800096358d9","bdp_rwlrn","Tue Mar 14 2023 00:37:03 GMT-0400 (Eastern Daylight Time)","339781","Untrustworthy,Trustworthy","","","","feedback","","","null","","<div class='respPicDiv'><img src='img/responseButtonOffersNo0_wht.png' class='respPic'></div><div class='trialDiv'><img src='Fruit/pears.png'><br><font class='baseline'><strong>Pears Aplenty</strong><p><strong><font class='negOutcome'>You LOST</font><p>You bet: 5</strong></font> &nbsp; &nbsp; &nbsp; &nbsp; &nbsp; &nbsp;<font class='negOutcome'>You receive: <strong>0</strong></font></div>","null","16","Pears Aplenty","Fruit/pears.png","Lost","0.35,0.8","9","0.35","260","48","",""
"html-keyboard-response","155","166334","0.0-11.0-1.48","571144323d47e800096358d9","bdp_rwlrn","Tue Mar 14 2023 00:37:03 GMT-0400 (Eastern Daylight Time)","339781","Untrustworthy,Trustworthy","","","","decision","","","259","","<div class='trialDiv'><img src='Fruit/Kiwi.png'><br><font class='baseline'><strong>Kiwi Kash</strong><p>Choose number of points to bet.</font><div class='respPicDiv'><img src='img/responseButtonOffersNo0L.png' class='respPic'></div></div>","5","17","Kiwi Kash","Fruit/Kiwi.png","Lost","0.8,0.2","9","0.8","265","49","",""
"html-keyboard-response","156","166585","0.0-11.0-2.48","571144323d47e800096358d9","bdp_rwlrn","Tue Mar 14 2023 00:37:03 GMT-0400 (Eastern Daylight Time)","339781","Untrustworthy,Trustworthy","","","","decisionFB","","","null","","<div class='trialDiv'><img src='Fruit/Kiwi.png'><br><font class='baseline'><strong>Kiwi Kash</strong><p>Choose number of points to bet.</font><div class='respPicDiv'><img src='img/responseButtonOffersNo0L5.png' class='respPic'></div></div>","null","17","Kiwi Kash","Fruit/Kiwi.png","Lost","0.8,0.2","9","0.8","260","49","",""
"html-keyboard-response","157","167587","0.0-11.0-3.48","571144323d47e800096358d9","bdp_rwlrn","Tue Mar 14 2023 00:37:03 GMT-0400 (Eastern Daylight Time)","339781","Untrustworthy,Trustworthy","","","","feedback","","","null","","<div class='respPicDiv'><img src='img/responseButtonOffersNo0_wht.png' class='respPic'></div><div class='trialDiv'><img src='Fruit/Kiwi.png'><br><font class='baseline'><strong>Kiwi Kash</strong><p><strong><font class='negOutcome'>You LOST</font><p>You bet: 5</strong></font> &nbsp; &nbsp; &nbsp; &nbsp; &nbsp; &nbsp;<font class='negOutcome'>You receive: <strong>0</strong></font></div>","null","17","Kiwi Kash","Fruit/Kiwi.png","Lost","0.8,0.2","9","0.8","260","49","",""
"html-keyboard-response","158","167886","0.0-11.0-1.49","571144323d47e800096358d9","bdp_rwlrn","Tue Mar 14 2023 00:37:03 GMT-0400 (Eastern Daylight Time)","339781","Untrustworthy,Trustworthy","","","","decision","","","299","","<div class='trialDiv'><img src='Fruit/melon.png'><br><font class='baseline'><strong>Melon Millions</strong><p>Choose number of points to bet.</font><div class='respPicDiv'><img src='img/responseButtonOffersNo0L.png' class='respPic'></div></div>","1","17","Melon Millions","Fruit/melon.png","Lost","0.65,0.2","10","0.65","265","50","",""
"html-keyboard-response","159","168137","0.0-11.0-2.49","571144323d47e800096358d9","bdp_rwlrn","Tue Mar 14 2023 00:37:03 GMT-0400 (Eastern Daylight Time)","339781","Untrustworthy,Trustworthy","","","","decisionFB","","","null","","<div class='trialDiv'><img src='Fruit/melon.png'><br><font class='baseline'><strong>Melon Millions</strong><p>Choose number of points to bet.</font><div class='respPicDiv'><img src='img/responseButtonOffersNo0L1.png' class='respPic'></div></div>","null","17","Melon Millions","Fruit/melon.png","Lost","0.65,0.2","10","0.65","264","50","",""
"html-keyboard-response","160","169138","0.0-11.0-3.49","571144323d47e800096358d9","bdp_rwlrn","Tue Mar 14 2023 00:37:03 GMT-0400 (Eastern Daylight Time)","339781","Untrustworthy,Trustworthy","","","","feedback","","","null","","<div class='respPicDiv'><img src='img/responseButtonOffersNo0_wht.png' class='respPic'></div><div class='trialDiv'><img src='Fruit/melon.png'><br><font class='baseline'><strong>Melon Millions</strong><p><strong><font class='negOutcome'>You LOST</font><p>You bet: 1</strong></font> &nbsp; &nbsp; &nbsp; &nbsp; &nbsp; &nbsp;<font class='negOutcome'>You receive: <strong>0</strong></font></div>","null","17","Melon Millions","Fruit/melon.png","Lost","0.65,0.2","10","0.65","264","50","",""
"html-keyboard-response","161","169222","0.0-11.0-1.50","571144323d47e800096358d9","bdp_rwlrn","Tue Mar 14 2023 00:37:03 GMT-0400 (Eastern Daylight Time)","339781","Untrustworthy,Trustworthy","","","","decision","","","84","","<div class='trialDiv'><img src='Fruit/pears.png'><br><font class='baseline'><strong>Pears Aplenty</strong><p>Choose number of points to bet.</font><div class='respPicDiv'><img src='img/responseButtonOffersNo0L.png' class='respPic'></div></div>","1","17","Pears Aplenty","Fruit/pears.png","Lost","0.35,0.8","9","0.35","269","51","",""
"html-keyboard-response","162","169473","0.0-11.0-2.50","571144323d47e800096358d9","bdp_rwlrn","Tue Mar 14 2023 00:37:03 GMT-0400 (Eastern Daylight Time)","339781","Untrustworthy,Trustworthy","","","","decisionFB","","","null","","<div class='trialDiv'><img src='Fruit/pears.png'><br><font class='baseline'><strong>Pears Aplenty</strong><p>Choose number of points to bet.</font><div class='respPicDiv'><img src='img/responseButtonOffersNo0L1.png' class='respPic'></div></div>","null","17","Pears Aplenty","Fruit/pears.png","Lost","0.35,0.8","9","0.35","268","51","",""
