"trial_type","trial_index","time_elapsed","internal_node_id","subject_id","task","startTime","totalTime","labels","view_history","rt","event","trial","time","trialtype","success","stimulus","key_press","ltround","name","fileID","outcome","lottotype","lottoswpt","lottocurrpshare","point_total","round","faceID","face"
"pavlovia","0","14","0.0-0.0","63cff34d33a9948e3b0b28d6","bdp_rwlrn","Mon Mar 13 2023 11:36:25 GMT-0700 (Pacific Daylight Time)","394457","Untrustworthy,Trustworthy","","","","","","","","","","","","","","","","","","","",""
"instructions","1","2681","0.0-1.0","63cff34d33a9948e3b0b28d6","bdp_rwlrn","Mon Mar 13 2023 11:36:25 GMT-0700 (Pacific Daylight Time)","394457","Untrustworthy,Trustworthy","[{""page_index"":0,""viewing_time"":2666}]","2666","","","","","","","","","","","","","","","","","",""
"","","","","63cff34d33a9948e3b0b28d6","bdp_rwlrn","Mon Mar 13 2023 11:36:25 GMT-0700 (Pacific Daylight Time)","394457","Untrustworthy,Trustworthy","","","fullscreenenter","2","4380","fullscreenenter","","","","","","","","","","","","","",""
"fullscreen","2","5358","0.0-2.0","63cff34d33a9948e3b0b28d6","bdp_rwlrn","Mon Mar 13 2023 11:36:25 GMT-0700 (Pacific Daylight Time)","394457","Untrustworthy,Trustworthy","","","","","","","true","","","","","","","","","","","","",""
"instructions","3","38160","0.0-4.0","63cff34d33a9948e3b0b28d6","bdp_rwlrn","Mon Mar 13 2023 11:36:25 GMT-0700 (Pacific Daylight Time)","394457","Untrustworthy,Trustworthy","[{""page_index"":0,""viewing_time"":5996},{""page_index"":1,""viewing_time"":9642},{""page_index"":2,""viewing_time"":3624},{""page_index"":3,""viewing_time"":3264},{""page_index"":4,""viewing_time"":7274},{""page_index"":5,""viewing_time"":3000}]","32800","","","","","","","","","","","","","","","","","",""
"html-keyboard-response","4","43318","0.0-5.0","63cff34d33a9948e3b0b28d6","bdp_rwlrn","Mon Mar 13 2023 11:36:25 GMT-0700 (Pacific Daylight Time)","394457","Untrustworthy,Trustworthy","","5156","","","","","","<div class='header' style='text-align:left; position: absolute; top: 5%; left: 5%;'><small>Task 3 of 5</small></div><div class='instruxDiv'><p><strong>1) What is the maximum number of points you can choose to bet on a lottery?</strong></p><p>a) 0</p><p>b) 1</p><p>c) 5</p>","C","","","","","","","","","","",""
"html-keyboard-response","5","44471","0.0-6.0","63cff34d33a9948e3b0b28d6","bdp_rwlrn","Mon Mar 13 2023 11:36:25 GMT-0700 (Pacific Daylight Time)","394457","Untrustworthy,Trustworthy","","1052","","","","","","<div class='header' style='text-align:left; position: absolute; top: 5%; left: 5%;'><small>Task 3 of 5</small></div><div class='instruxDiv'><p><strong>1) What is the maximum number of points you can choose to bet on a lottery?</strong></p><p>a) 1</p><p>b) 1</p><p style='color:#00FF00'>c) 5</p><h3 style='color:#00FF00'>Correct!</h3><h3 class='center-content'>The correct response is c).</h3><h3 class='center-content'>The maximum number of points you can choose to bet on a lottery is 5 points.</h3><p><em>Press SPACEBAR to continue</em></p></div>"," ","","","","","","","","","","",""
"html-keyboard-response","6","47549","0.0-7.0","63cff34d33a9948e3b0b28d6","bdp_rwlrn","Mon Mar 13 2023 11:36:25 GMT-0700 (Pacific Daylight Time)","394457","Untrustworthy,Trustworthy","","2978","","","","","","<div class='header' style='text-align:left; position: absolute; top: 5%; left: 5%;'><small>Task 3 of 5</small></div><div class='instruxDiv'><p><strong>2) How many points can you win each round?</strong></p><p>a) 10 points</p><p>b) Double what you bet</p><p>c) Quadruple what you bet</p>","B","","","","","","","","","","",""
"html-keyboard-response","7","48877","0.0-8.0","63cff34d33a9948e3b0b28d6","bdp_rwlrn","Mon Mar 13 2023 11:36:25 GMT-0700 (Pacific Daylight Time)","394457","Untrustworthy,Trustworthy","","1228","","","","","","<div class='header' style='text-align:left; position: absolute; top: 5%; left: 5%;'><small>Task 3 of 5</small></div><div class='instruxDiv'><p><strong>2) How many points can you win each round?</strong></p><p>a) 10 points</p><p style='color:#00FF00'>b) Double what you bet</p><p>c) Quadruple what you bet</p><h3 style='color:#00FF00'>Correct!</h3><h3 class='center-content'>The correct response is b).</h3><h3 class='center-content'>You can win double the amount of points you bet.</h3><p><em>Press SPACEBAR to continue</em></p></div>"," ","","","","","","","","","","",""
"html-keyboard-response","8","53978","0.0-9.0","63cff34d33a9948e3b0b28d6","bdp_rwlrn","Mon Mar 13 2023 11:36:25 GMT-0700 (Pacific Daylight Time)","394457","Untrustworthy,Trustworthy","","null","","","","","","<div class='header' style='text-align:left; position: absolute; top: 5%; left: 5%;'><small>Task 3 of 5</small></div><div class='instruxDiv'><p>Thank you for completing the quiz<p>These are the actual lotteries you will be playing in the next block:<p><div class='tc' align='center'><img class='introPic' src='Fruit/melon.png'><br><strong>Melon Millions</strong></div><div class='bl' align='center'><img class='introPic' src='Fruit/lemon.png'><br><strong>Lucky Lemons</strong></div><div class='br' align='center'><img class='introPic' src='Fruit/grapes.png'><br><strong>Great Grapes</strong></div></div><p>Across <strong>66 rounds</strong> you will play each lottery <strong>22 times</strong> (in random order).<p style='align:center; color:white'><font <em>Press SPACEBAR to continue</em></p>","null","","","","","","","","","","",""
"instructions","9","60752","0.0-10.0","63cff34d33a9948e3b0b28d6","bdp_rwlrn","Mon Mar 13 2023 11:36:25 GMT-0700 (Pacific Daylight Time)","394457","Untrustworthy,Trustworthy","[{""page_index"":0,""viewing_time"":1004},{""page_index"":1,""viewing_time"":5768}]","6773","","","","","","","","","","","","","","","","","",""
"html-keyboard-response","10","62478","0.0-11.0-1.0","63cff34d33a9948e3b0b28d6","bdp_rwlrn","Mon Mar 13 2023 11:36:25 GMT-0700 (Pacific Daylight Time)","394457","Untrustworthy,Trustworthy","","1624","","","","decision","","<div class='trialDiv'><img src='Fruit/lemon.png'><br><font class='baseline'><strong>Lucky Lemons</strong><p>Choose number of points to bet.</font><div class='respPicDiv'><img src='img/responseButtonOffersNo0L.png' class='respPic'></div></div>","5","1","Lucky Lemons","Fruit/lemon.png","Lost","0.35,0.8","10","0.35","5","1","",""
"html-keyboard-response","11","62730","0.0-11.0-2.0","63cff34d33a9948e3b0b28d6","bdp_rwlrn","Mon Mar 13 2023 11:36:25 GMT-0700 (Pacific Daylight Time)","394457","Untrustworthy,Trustworthy","","null","","","","decisionFB","","<div class='trialDiv'><img src='Fruit/lemon.png'><br><font class='baseline'><strong>Lucky Lemons</strong><p>Choose number of points to bet.</font><div class='respPicDiv'><img src='img/responseButtonOffersNo0L5.png' class='respPic'></div></div>","null","1","Lucky Lemons","Fruit/lemon.png","Lost","0.35,0.8","10","0.35","0","1","",""
"html-keyboard-response","12","63731","0.0-11.0-3.0","63cff34d33a9948e3b0b28d6","bdp_rwlrn","Mon Mar 13 2023 11:36:25 GMT-0700 (Pacific Daylight Time)","394457","Untrustworthy,Trustworthy","","null","","","","feedback","","<div class='respPicDiv'><img src='img/responseButtonOffersNo0_wht.png' class='respPic'></div><div class='trialDiv'><img src='Fruit/lemon.png'><br><font class='baseline'><strong>Lucky Lemons</strong><p><strong><font class='negOutcome'>You LOST</font><p>You bet: 5</strong></font> &nbsp; &nbsp; &nbsp; &nbsp; &nbsp; &nbsp;<font class='negOutcome'>You receive: <strong>0</strong></font></div>","null","1","Lucky Lemons","Fruit/lemon.png","Lost","0.35,0.8","10","0.35","0","1","",""
"html-keyboard-response","13","64989","0.0-11.0-1.1","63cff34d33a9948e3b0b28d6","bdp_rwlrn","Mon Mar 13 2023 11:36:25 GMT-0700 (Pacific Daylight Time)","394457","Untrustworthy,Trustworthy","","1257","","","","decision","","<div class='trialDiv'><img src='Fruit/melon.png'><br><font class='baseline'><strong>Melon Millions</strong><p>Choose number of points to bet.</font><div class='respPicDiv'><img src='img/responseButtonOffersNo0L.png' class='respPic'></div></div>","5","1","Melon Millions","Fruit/melon.png","Lost","0.2,0.8","8","0.2","5","2","",""
"html-keyboard-response","14","65241","0.0-11.0-2.1","63cff34d33a9948e3b0b28d6","bdp_rwlrn","Mon Mar 13 2023 11:36:25 GMT-0700 (Pacific Daylight Time)","394457","Untrustworthy,Trustworthy","","null","","","","decisionFB","","<div class='trialDiv'><img src='Fruit/melon.png'><br><font class='baseline'><strong>Melon Millions</strong><p>Choose number of points to bet.</font><div class='respPicDiv'><img src='img/responseButtonOffersNo0L5.png' class='respPic'></div></div>","null","1","Melon Millions","Fruit/melon.png","Lost","0.2,0.8","8","0.2","0","2","",""
"html-keyboard-response","15","66242","0.0-11.0-3.1","63cff34d33a9948e3b0b28d6","bdp_rwlrn","Mon Mar 13 2023 11:36:25 GMT-0700 (Pacific Daylight Time)","394457","Untrustworthy,Trustworthy","","null","","","","feedback","","<div class='respPicDiv'><img src='img/responseButtonOffersNo0_wht.png' class='respPic'></div><div class='trialDiv'><img src='Fruit/melon.png'><br><font class='baseline'><strong>Melon Millions</strong><p><strong><font class='negOutcome'>You LOST</font><p>You bet: 5</strong></font> &nbsp; &nbsp; &nbsp; &nbsp; &nbsp; &nbsp;<font class='negOutcome'>You receive: <strong>0</strong></font></div>","null","1","Melon Millions","Fruit/melon.png","Lost","0.2,0.8","8","0.2","0","2","",""
"html-keyboard-response","16","67245","0.0-11.0-1.2","63cff34d33a9948e3b0b28d6","bdp_rwlrn","Mon Mar 13 2023 11:36:25 GMT-0700 (Pacific Daylight Time)","394457","Untrustworthy,Trustworthy","","1001","","","","decision","","<div class='trialDiv'><img src='Fruit/grapes.png'><br><font class='baseline'><strong>Great Grapes</strong><p>Choose number of points to bet.</font><div class='respPicDiv'><img src='img/responseButtonOffersNo0L.png' class='respPic'></div></div>","5","1","Great Grapes","Fruit/grapes.png","Won","0.8,0.35","13","0.8","5","3","",""
"html-keyboard-response","17","67495","0.0-11.0-2.2","63cff34d33a9948e3b0b28d6","bdp_rwlrn","Mon Mar 13 2023 11:36:25 GMT-0700 (Pacific Daylight Time)","394457","Untrustworthy,Trustworthy","","null","","","","decisionFB","","<div class='trialDiv'><img src='Fruit/grapes.png'><br><font class='baseline'><strong>Great Grapes</strong><p>Choose number of points to bet.</font><div class='respPicDiv'><img src='img/responseButtonOffersNo0L5.png' class='respPic'></div></div>","null","1","Great Grapes","Fruit/grapes.png","Won","0.8,0.35","13","0.8","0","3","",""
"html-keyboard-response","18","68496","0.0-11.0-3.2","63cff34d33a9948e3b0b28d6","bdp_rwlrn","Mon Mar 13 2023 11:36:25 GMT-0700 (Pacific Daylight Time)","394457","Untrustworthy,Trustworthy","","null","","","","feedback","","<div class='respPicDiv'><img src='img/responseButtonOffersNo0_wht.png' class='respPic'></div><div class='trialDiv'><img src='Fruit/grapes.png'><br><font class='baseline'><strong>Great Grapes</strong><p><strong><font class='posOutcome'>You WON</font><p>You bet: 5</strong></font> &nbsp; &nbsp; &nbsp; &nbsp; &nbsp; &nbsp;<font class='posOutcome'>you receive: <strong>10</strong></font></div>","null","1","Great Grapes","Fruit/grapes.png","Won","0.8,0.35","13","0.8","10","3","",""
"html-keyboard-response","19","70305","0.0-11.0-1.3","63cff34d33a9948e3b0b28d6","bdp_rwlrn","Mon Mar 13 2023 11:36:25 GMT-0700 (Pacific Daylight Time)","394457","Untrustworthy,Trustworthy","","1808","","","","decision","","<div class='trialDiv'><img src='Fruit/melon.png'><br><font class='baseline'><strong>Melon Millions</strong><p>Choose number of points to bet.</font><div class='respPicDiv'><img src='img/responseButtonOffersNo0L.png' class='respPic'></div></div>","2","2","Melon Millions","Fruit/melon.png","Lost","0.2,0.8","8","0.2","15","4","",""
"html-keyboard-response","20","70556","0.0-11.0-2.3","63cff34d33a9948e3b0b28d6","bdp_rwlrn","Mon Mar 13 2023 11:36:25 GMT-0700 (Pacific Daylight Time)","394457","Untrustworthy,Trustworthy","","null","","","","decisionFB","","<div class='trialDiv'><img src='Fruit/melon.png'><br><font class='baseline'><strong>Melon Millions</strong><p>Choose number of points to bet.</font><div class='respPicDiv'><img src='img/responseButtonOffersNo0L2.png' class='respPic'></div></div>","null","2","Melon Millions","Fruit/melon.png","Lost","0.2,0.8","8","0.2","13","4","",""
"html-keyboard-response","21","71558","0.0-11.0-3.3","63cff34d33a9948e3b0b28d6","bdp_rwlrn","Mon Mar 13 2023 11:36:25 GMT-0700 (Pacific Daylight Time)","394457","Untrustworthy,Trustworthy","","null","","","","feedback","","<div class='respPicDiv'><img src='img/responseButtonOffersNo0_wht.png' class='respPic'></div><div class='trialDiv'><img src='Fruit/melon.png'><br><font class='baseline'><strong>Melon Millions</strong><p><strong><font class='negOutcome'>You LOST</font><p>You bet: 2</strong></font> &nbsp; &nbsp; &nbsp; &nbsp; &nbsp; &nbsp;<font class='negOutcome'>You receive: <strong>0</strong></font></div>","null","2","Melon Millions","Fruit/melon.png","Lost","0.2,0.8","8","0.2","13","4","",""
"html-keyboard-response","22","72872","0.0-11.0-1.4","63cff34d33a9948e3b0b28d6","bdp_rwlrn","Mon Mar 13 2023 11:36:25 GMT-0700 (Pacific Daylight Time)","394457","Untrustworthy,Trustworthy","","1313","","","","decision","","<div class='trialDiv'><img src='Fruit/lemon.png'><br><font class='baseline'><strong>Lucky Lemons</strong><p>Choose number of points to bet.</font><div class='respPicDiv'><img src='img/responseButtonOffersNo0L.png' class='respPic'></div></div>","2","2","Lucky Lemons","Fruit/lemon.png","Lost","0.35,0.8","10","0.35","18","5","",""
"html-keyboard-response","23","73123","0.0-11.0-2.4","63cff34d33a9948e3b0b28d6","bdp_rwlrn","Mon Mar 13 2023 11:36:25 GMT-0700 (Pacific Daylight Time)","394457","Untrustworthy,Trustworthy","","null","","","","decisionFB","","<div class='trialDiv'><img src='Fruit/lemon.png'><br><font class='baseline'><strong>Lucky Lemons</strong><p>Choose number of points to bet.</font><div class='respPicDiv'><img src='img/responseButtonOffersNo0L2.png' class='respPic'></div></div>","null","2","Lucky Lemons","Fruit/lemon.png","Lost","0.35,0.8","10","0.35","16","5","",""
"html-keyboard-response","24","74124","0.0-11.0-3.4","63cff34d33a9948e3b0b28d6","bdp_rwlrn","Mon Mar 13 2023 11:36:25 GMT-0700 (Pacific Daylight Time)","394457","Untrustworthy,Trustworthy","","null","","","","feedback","","<div class='respPicDiv'><img src='img/responseButtonOffersNo0_wht.png' class='respPic'></div><div class='trialDiv'><img src='Fruit/lemon.png'><br><font class='baseline'><strong>Lucky Lemons</strong><p><strong><font class='negOutcome'>You LOST</font><p>You bet: 2</strong></font> &nbsp; &nbsp; &nbsp; &nbsp; &nbsp; &nbsp;<font class='negOutcome'>You receive: <strong>0</strong></font></div>","null","2","Lucky Lemons","Fruit/lemon.png","Lost","0.35,0.8","10","0.35","16","5","",""
"html-keyboard-response","25","75099","0.0-11.0-1.5","63cff34d33a9948e3b0b28d6","bdp_rwlrn","Mon Mar 13 2023 11:36:25 GMT-0700 (Pacific Daylight Time)","394457","Untrustworthy,Trustworthy","","974","","","","decision","","<div class='trialDiv'><img src='Fruit/grapes.png'><br><font class='baseline'><strong>Great Grapes</strong><p>Choose number of points to bet.</font><div class='respPicDiv'><img src='img/responseButtonOffersNo0L.png' class='respPic'></div></div>","5","2","Great Grapes","Fruit/grapes.png","Won","0.8,0.35","13","0.8","21","6","",""
"html-keyboard-response","26","75351","0.0-11.0-2.5","63cff34d33a9948e3b0b28d6","bdp_rwlrn","Mon Mar 13 2023 11:36:25 GMT-0700 (Pacific Daylight Time)","394457","Untrustworthy,Trustworthy","","null","","","","decisionFB","","<div class='trialDiv'><img src='Fruit/grapes.png'><br><font class='baseline'><strong>Great Grapes</strong><p>Choose number of points to bet.</font><div class='respPicDiv'><img src='img/responseButtonOffersNo0L5.png' class='respPic'></div></div>","null","2","Great Grapes","Fruit/grapes.png","Won","0.8,0.35","13","0.8","16","6","",""
"html-keyboard-response","27","76351","0.0-11.0-3.5","63cff34d33a9948e3b0b28d6","bdp_rwlrn","Mon Mar 13 2023 11:36:25 GMT-0700 (Pacific Daylight Time)","394457","Untrustworthy,Trustworthy","","null","","","","feedback","","<div class='respPicDiv'><img src='img/responseButtonOffersNo0_wht.png' class='respPic'></div><div class='trialDiv'><img src='Fruit/grapes.png'><br><font class='baseline'><strong>Great Grapes</strong><p><strong><font class='posOutcome'>You WON</font><p>You bet: 5</strong></font> &nbsp; &nbsp; &nbsp; &nbsp; &nbsp; &nbsp;<font class='posOutcome'>you receive: <strong>10</strong></font></div>","null","2","Great Grapes","Fruit/grapes.png","Won","0.8,0.35","13","0.8","26","6","",""
"html-keyboard-response","28","77151","0.0-11.0-1.6","63cff34d33a9948e3b0b28d6","bdp_rwlrn","Mon Mar 13 2023 11:36:25 GMT-0700 (Pacific Daylight Time)","394457","Untrustworthy,Trustworthy","","798","","","","decision","","<div class='trialDiv'><img src='Fruit/melon.png'><br><font class='baseline'><strong>Melon Millions</strong><p>Choose number of points to bet.</font><div class='respPicDiv'><img src='img/responseButtonOffersNo0L.png' class='respPic'></div></div>","2","3","Melon Millions","Fruit/melon.png","Lost","0.2,0.8","8","0.2","31","7","",""
"html-keyboard-response","29","77401","0.0-11.0-2.6","63cff34d33a9948e3b0b28d6","bdp_rwlrn","Mon Mar 13 2023 11:36:25 GMT-0700 (Pacific Daylight Time)","394457","Untrustworthy,Trustworthy","","null","","","","decisionFB","","<div class='trialDiv'><img src='Fruit/melon.png'><br><font class='baseline'><strong>Melon Millions</strong><p>Choose number of points to bet.</font><div class='respPicDiv'><img src='img/responseButtonOffersNo0L2.png' class='respPic'></div></div>","null","3","Melon Millions","Fruit/melon.png","Lost","0.2,0.8","8","0.2","29","7","",""
"html-keyboard-response","30","78403","0.0-11.0-3.6","63cff34d33a9948e3b0b28d6","bdp_rwlrn","Mon Mar 13 2023 11:36:25 GMT-0700 (Pacific Daylight Time)","394457","Untrustworthy,Trustworthy","","null","","","","feedback","","<div class='respPicDiv'><img src='img/responseButtonOffersNo0_wht.png' class='respPic'></div><div class='trialDiv'><img src='Fruit/melon.png'><br><font class='baseline'><strong>Melon Millions</strong><p><strong><font class='negOutcome'>You LOST</font><p>You bet: 2</strong></font> &nbsp; &nbsp; &nbsp; &nbsp; &nbsp; &nbsp;<font class='negOutcome'>You receive: <strong>0</strong></font></div>","null","3","Melon Millions","Fruit/melon.png","Lost","0.2,0.8","8","0.2","29","7","",""
"html-keyboard-response","31","78966","0.0-11.0-1.7","63cff34d33a9948e3b0b28d6","bdp_rwlrn","Mon Mar 13 2023 11:36:25 GMT-0700 (Pacific Daylight Time)","394457","Untrustworthy,Trustworthy","","561","","","","decision","","<div class='trialDiv'><img src='Fruit/grapes.png'><br><font class='baseline'><strong>Great Grapes</strong><p>Choose number of points to bet.</font><div class='respPicDiv'><img src='img/responseButtonOffersNo0L.png' class='respPic'></div></div>","2","3","Great Grapes","Fruit/grapes.png","Won","0.8,0.35","13","0.8","34","8","",""
"html-keyboard-response","32","79216","0.0-11.0-2.7","63cff34d33a9948e3b0b28d6","bdp_rwlrn","Mon Mar 13 2023 11:36:25 GMT-0700 (Pacific Daylight Time)","394457","Untrustworthy,Trustworthy","","null","","","","decisionFB","","<div class='trialDiv'><img src='Fruit/grapes.png'><br><font class='baseline'><strong>Great Grapes</strong><p>Choose number of points to bet.</font><div class='respPicDiv'><img src='img/responseButtonOffersNo0L2.png' class='respPic'></div></div>","null","3","Great Grapes","Fruit/grapes.png","Won","0.8,0.35","13","0.8","32","8","",""
"html-keyboard-response","33","80218","0.0-11.0-3.7","63cff34d33a9948e3b0b28d6","bdp_rwlrn","Mon Mar 13 2023 11:36:25 GMT-0700 (Pacific Daylight Time)","394457","Untrustworthy,Trustworthy","","null","","","","feedback","","<div class='respPicDiv'><img src='img/responseButtonOffersNo0_wht.png' class='respPic'></div><div class='trialDiv'><img src='Fruit/grapes.png'><br><font class='baseline'><strong>Great Grapes</strong><p><strong><font class='posOutcome'>You WON</font><p>You bet: 2</strong></font> &nbsp; &nbsp; &nbsp; &nbsp; &nbsp; &nbsp;<font class='posOutcome'>you receive: <strong>4</strong></font></div>","null","3","Great Grapes","Fruit/grapes.png","Won","0.8,0.35","13","0.8","36","8","",""
"html-keyboard-response","34","80885","0.0-11.0-1.8","63cff34d33a9948e3b0b28d6","bdp_rwlrn","Mon Mar 13 2023 11:36:25 GMT-0700 (Pacific Daylight Time)","394457","Untrustworthy,Trustworthy","","666","","","","decision","","<div class='trialDiv'><img src='Fruit/lemon.png'><br><font class='baseline'><strong>Lucky Lemons</strong><p>Choose number of points to bet.</font><div class='respPicDiv'><img src='img/responseButtonOffersNo0L.png' class='respPic'></div></div>","2","3","Lucky Lemons","Fruit/lemon.png","Lost","0.35,0.8","10","0.35","41","9","",""
"html-keyboard-response","35","81137","0.0-11.0-2.8","63cff34d33a9948e3b0b28d6","bdp_rwlrn","Mon Mar 13 2023 11:36:25 GMT-0700 (Pacific Daylight Time)","394457","Untrustworthy,Trustworthy","","null","","","","decisionFB","","<div class='trialDiv'><img src='Fruit/lemon.png'><br><font class='baseline'><strong>Lucky Lemons</strong><p>Choose number of points to bet.</font><div class='respPicDiv'><img src='img/responseButtonOffersNo0L2.png' class='respPic'></div></div>","null","3","Lucky Lemons","Fruit/lemon.png","Lost","0.35,0.8","10","0.35","39","9","",""
"html-keyboard-response","36","82138","0.0-11.0-3.8","63cff34d33a9948e3b0b28d6","bdp_rwlrn","Mon Mar 13 2023 11:36:25 GMT-0700 (Pacific Daylight Time)","394457","Untrustworthy,Trustworthy","","null","","","","feedback","","<div class='respPicDiv'><img src='img/responseButtonOffersNo0_wht.png' class='respPic'></div><div class='trialDiv'><img src='Fruit/lemon.png'><br><font class='baseline'><strong>Lucky Lemons</strong><p><strong><font class='negOutcome'>You LOST</font><p>You bet: 2</strong></font> &nbsp; &nbsp; &nbsp; &nbsp; &nbsp; &nbsp;<font class='negOutcome'>You receive: <strong>0</strong></font></div>","null","3","Lucky Lemons","Fruit/lemon.png","Lost","0.35,0.8","10","0.35","39","9","",""
"html-keyboard-response","37","83221","0.0-11.0-1.9","63cff34d33a9948e3b0b28d6","bdp_rwlrn","Mon Mar 13 2023 11:36:25 GMT-0700 (Pacific Daylight Time)","394457","Untrustworthy,Trustworthy","","1082","","","","decision","","<div class='trialDiv'><img src='Fruit/melon.png'><br><font class='baseline'><strong>Melon Millions</strong><p>Choose number of points to bet.</font><div class='respPicDiv'><img src='img/responseButtonOffersNo0L.png' class='respPic'></div></div>","2","4","Melon Millions","Fruit/melon.png","Lost","0.2,0.8","8","0.2","44","10","",""
"html-keyboard-response","38","83472","0.0-11.0-2.9","63cff34d33a9948e3b0b28d6","bdp_rwlrn","Mon Mar 13 2023 11:36:25 GMT-0700 (Pacific Daylight Time)","394457","Untrustworthy,Trustworthy","","null","","","","decisionFB","","<div class='trialDiv'><img src='Fruit/melon.png'><br><font class='baseline'><strong>Melon Millions</strong><p>Choose number of points to bet.</font><div class='respPicDiv'><img src='img/responseButtonOffersNo0L2.png' class='respPic'></div></div>","null","4","Melon Millions","Fruit/melon.png","Lost","0.2,0.8","8","0.2","42","10","",""
"html-keyboard-response","39","84474","0.0-11.0-3.9","63cff34d33a9948e3b0b28d6","bdp_rwlrn","Mon Mar 13 2023 11:36:25 GMT-0700 (Pacific Daylight Time)","394457","Untrustworthy,Trustworthy","","null","","","","feedback","","<div class='respPicDiv'><img src='img/responseButtonOffersNo0_wht.png' class='respPic'></div><div class='trialDiv'><img src='Fruit/melon.png'><br><font class='baseline'><strong>Melon Millions</strong><p><strong><font class='negOutcome'>You LOST</font><p>You bet: 2</strong></font> &nbsp; &nbsp; &nbsp; &nbsp; &nbsp; &nbsp;<font class='negOutcome'>You receive: <strong>0</strong></font></div>","null","4","Melon Millions","Fruit/melon.png","Lost","0.2,0.8","8","0.2","42","10","",""
"html-keyboard-response","40","85943","0.0-11.0-1.10","63cff34d33a9948e3b0b28d6","bdp_rwlrn","Mon Mar 13 2023 11:36:25 GMT-0700 (Pacific Daylight Time)","394457","Untrustworthy,Trustworthy","","1468","","","","decision","","<div class='trialDiv'><img src='Fruit/grapes.png'><br><font class='baseline'><strong>Great Grapes</strong><p>Choose number of points to bet.</font><div class='respPicDiv'><img src='img/responseButtonOffersNo0L.png' class='respPic'></div></div>","5","4","Great Grapes","Fruit/grapes.png","Won","0.8,0.35","13","0.8","47","11","",""
"html-keyboard-response","41","86194","0.0-11.0-2.10","63cff34d33a9948e3b0b28d6","bdp_rwlrn","Mon Mar 13 2023 11:36:25 GMT-0700 (Pacific Daylight Time)","394457","Untrustworthy,Trustworthy","","null","","","","decisionFB","","<div class='trialDiv'><img src='Fruit/grapes.png'><br><font class='baseline'><strong>Great Grapes</strong><p>Choose number of points to bet.</font><div class='respPicDiv'><img src='img/responseButtonOffersNo0L5.png' class='respPic'></div></div>","null","4","Great Grapes","Fruit/grapes.png","Won","0.8,0.35","13","0.8","42","11","",""
"html-keyboard-response","42","87195","0.0-11.0-3.10","63cff34d33a9948e3b0b28d6","bdp_rwlrn","Mon Mar 13 2023 11:36:25 GMT-0700 (Pacific Daylight Time)","394457","Untrustworthy,Trustworthy","","null","","","","feedback","","<div class='respPicDiv'><img src='img/responseButtonOffersNo0_wht.png' class='respPic'></div><div class='trialDiv'><img src='Fruit/grapes.png'><br><font class='baseline'><strong>Great Grapes</strong><p><strong><font class='posOutcome'>You WON</font><p>You bet: 5</strong></font> &nbsp; &nbsp; &nbsp; &nbsp; &nbsp; &nbsp;<font class='posOutcome'>you receive: <strong>10</strong></font></div>","null","4","Great Grapes","Fruit/grapes.png","Won","0.8,0.35","13","0.8","52","11","",""
"html-keyboard-response","43","88034","0.0-11.0-1.11","63cff34d33a9948e3b0b28d6","bdp_rwlrn","Mon Mar 13 2023 11:36:25 GMT-0700 (Pacific Daylight Time)","394457","Untrustworthy,Trustworthy","","838","","","","decision","","<div class='trialDiv'><img src='Fruit/lemon.png'><br><font class='baseline'><strong>Lucky Lemons</strong><p>Choose number of points to bet.</font><div class='respPicDiv'><img src='img/responseButtonOffersNo0L.png' class='respPic'></div></div>","1","4","Lucky Lemons","Fruit/lemon.png","Lost","0.35,0.8","10","0.35","57","12","",""
"html-keyboard-response","44","88285","0.0-11.0-2.11","63cff34d33a9948e3b0b28d6","bdp_rwlrn","Mon Mar 13 2023 11:36:25 GMT-0700 (Pacific Daylight Time)","394457","Untrustworthy,Trustworthy","","null","","","","decisionFB","","<div class='trialDiv'><img src='Fruit/lemon.png'><br><font class='baseline'><strong>Lucky Lemons</strong><p>Choose number of points to bet.</font><div class='respPicDiv'><img src='img/responseButtonOffersNo0L1.png' class='respPic'></div></div>","null","4","Lucky Lemons","Fruit/lemon.png","Lost","0.35,0.8","10","0.35","56","12","",""
"html-keyboard-response","45","89286","0.0-11.0-3.11","63cff34d33a9948e3b0b28d6","bdp_rwlrn","Mon Mar 13 2023 11:36:25 GMT-0700 (Pacific Daylight Time)","394457","Untrustworthy,Trustworthy","","null","","","","feedback","","<div class='respPicDiv'><img src='img/responseButtonOffersNo0_wht.png' class='respPic'></div><div class='trialDiv'><img src='Fruit/lemon.png'><br><font class='baseline'><strong>Lucky Lemons</strong><p><strong><font class='negOutcome'>You LOST</font><p>You bet: 1</strong></font> &nbsp; &nbsp; &nbsp; &nbsp; &nbsp; &nbsp;<font class='negOutcome'>You receive: <strong>0</strong></font></div>","null","4","Lucky Lemons","Fruit/lemon.png","Lost","0.35,0.8","10","0.35","56","12","",""
"html-keyboard-response","46","90290","0.0-11.0-1.12","63cff34d33a9948e3b0b28d6","bdp_rwlrn","Mon Mar 13 2023 11:36:25 GMT-0700 (Pacific Daylight Time)","394457","Untrustworthy,Trustworthy","","1002","","","","decision","","<div class='trialDiv'><img src='Fruit/melon.png'><br><font class='baseline'><strong>Melon Millions</strong><p>Choose number of points to bet.</font><div class='respPicDiv'><img src='img/responseButtonOffersNo0L.png' class='respPic'></div></div>","1","5","Melon Millions","Fruit/melon.png","Lost","0.2,0.8","8","0.2","61","13","",""
"html-keyboard-response","47","90541","0.0-11.0-2.12","63cff34d33a9948e3b0b28d6","bdp_rwlrn","Mon Mar 13 2023 11:36:25 GMT-0700 (Pacific Daylight Time)","394457","Untrustworthy,Trustworthy","","null","","","","decisionFB","","<div class='trialDiv'><img src='Fruit/melon.png'><br><font class='baseline'><strong>Melon Millions</strong><p>Choose number of points to bet.</font><div class='respPicDiv'><img src='img/responseButtonOffersNo0L1.png' class='respPic'></div></div>","null","5","Melon Millions","Fruit/melon.png","Lost","0.2,0.8","8","0.2","60","13","",""
"html-keyboard-response","48","91542","0.0-11.0-3.12","63cff34d33a9948e3b0b28d6","bdp_rwlrn","Mon Mar 13 2023 11:36:25 GMT-0700 (Pacific Daylight Time)","394457","Untrustworthy,Trustworthy","","null","","","","feedback","","<div class='respPicDiv'><img src='img/responseButtonOffersNo0_wht.png' class='respPic'></div><div class='trialDiv'><img src='Fruit/melon.png'><br><font class='baseline'><strong>Melon Millions</strong><p><strong><font class='negOutcome'>You LOST</font><p>You bet: 1</strong></font> &nbsp; &nbsp; &nbsp; &nbsp; &nbsp; &nbsp;<font class='negOutcome'>You receive: <strong>0</strong></font></div>","null","5","Melon Millions","Fruit/melon.png","Lost","0.2,0.8","8","0.2","60","13","",""
"html-keyboard-response","49","94915","0.0-11.0-1.13","63cff34d33a9948e3b0b28d6","bdp_rwlrn","Mon Mar 13 2023 11:36:25 GMT-0700 (Pacific Daylight Time)","394457","Untrustworthy,Trustworthy","","3371","","","","decision","","<div class='trialDiv'><img src='Fruit/lemon.png'><br><font class='baseline'><strong>Lucky Lemons</strong><p>Choose number of points to bet.</font><div class='respPicDiv'><img src='img/responseButtonOffersNo0L.png' class='respPic'></div></div>","1","5","Lucky Lemons","Fruit/lemon.png","Won","0.35,0.8","10","0.35","65","14","",""
"html-keyboard-response","50","95166","0.0-11.0-2.13","63cff34d33a9948e3b0b28d6","bdp_rwlrn","Mon Mar 13 2023 11:36:25 GMT-0700 (Pacific Daylight Time)","394457","Untrustworthy,Trustworthy","","null","","","","decisionFB","","<div class='trialDiv'><img src='Fruit/lemon.png'><br><font class='baseline'><strong>Lucky Lemons</strong><p>Choose number of points to bet.</font><div class='respPicDiv'><img src='img/responseButtonOffersNo0L1.png' class='respPic'></div></div>","null","5","Lucky Lemons","Fruit/lemon.png","Won","0.35,0.8","10","0.35","64","14","",""
"html-keyboard-response","51","96168","0.0-11.0-3.13","63cff34d33a9948e3b0b28d6","bdp_rwlrn","Mon Mar 13 2023 11:36:25 GMT-0700 (Pacific Daylight Time)","394457","Untrustworthy,Trustworthy","","null","","","","feedback","","<div class='respPicDiv'><img src='img/responseButtonOffersNo0_wht.png' class='respPic'></div><div class='trialDiv'><img src='Fruit/lemon.png'><br><font class='baseline'><strong>Lucky Lemons</strong><p><strong><font class='posOutcome'>You WON</font><p>You bet: 1</strong></font> &nbsp; &nbsp; &nbsp; &nbsp; &nbsp; &nbsp;<font class='posOutcome'>you receive: <strong>2</strong></font></div>","null","5","Lucky Lemons","Fruit/lemon.png","Won","0.35,0.8","10","0.35","66","14","",""
"html-keyboard-response","52","99206","0.0-11.0-1.14","63cff34d33a9948e3b0b28d6","bdp_rwlrn","Mon Mar 13 2023 11:36:25 GMT-0700 (Pacific Daylight Time)","394457","Untrustworthy,Trustworthy","","3037","","","","decision","","<div class='trialDiv'><img src='Fruit/grapes.png'><br><font class='baseline'><strong>Great Grapes</strong><p>Choose number of points to bet.</font><div class='respPicDiv'><img src='img/responseButtonOffersNo0L.png' class='respPic'></div></div>","5","5","Great Grapes","Fruit/grapes.png","Won","0.8,0.35","13","0.8","71","15","",""
"html-keyboard-response","53","99457","0.0-11.0-2.14","63cff34d33a9948e3b0b28d6","bdp_rwlrn","Mon Mar 13 2023 11:36:25 GMT-0700 (Pacific Daylight Time)","394457","Untrustworthy,Trustworthy","","null","","","","decisionFB","","<div class='trialDiv'><img src='Fruit/grapes.png'><br><font class='baseline'><strong>Great Grapes</strong><p>Choose number of points to bet.</font><div class='respPicDiv'><img src='img/responseButtonOffersNo0L5.png' class='respPic'></div></div>","null","5","Great Grapes","Fruit/grapes.png","Won","0.8,0.35","13","0.8","66","15","",""
"html-keyboard-response","54","100458","0.0-11.0-3.14","63cff34d33a9948e3b0b28d6","bdp_rwlrn","Mon Mar 13 2023 11:36:25 GMT-0700 (Pacific Daylight Time)","394457","Untrustworthy,Trustworthy","","null","","","","feedback","","<div class='respPicDiv'><img src='img/responseButtonOffersNo0_wht.png' class='respPic'></div><div class='trialDiv'><img src='Fruit/grapes.png'><br><font class='baseline'><strong>Great Grapes</strong><p><strong><font class='posOutcome'>You WON</font><p>You bet: 5</strong></font> &nbsp; &nbsp; &nbsp; &nbsp; &nbsp; &nbsp;<font class='posOutcome'>you receive: <strong>10</strong></font></div>","null","5","Great Grapes","Fruit/grapes.png","Won","0.8,0.35","13","0.8","76","15","",""
"html-keyboard-response","55","101347","0.0-11.0-1.15","63cff34d33a9948e3b0b28d6","bdp_rwlrn","Mon Mar 13 2023 11:36:25 GMT-0700 (Pacific Daylight Time)","394457","Untrustworthy,Trustworthy","","887","","","","decision","","<div class='trialDiv'><img src='Fruit/melon.png'><br><font class='baseline'><strong>Melon Millions</strong><p>Choose number of points to bet.</font><div class='respPicDiv'><img src='img/responseButtonOffersNo0L.png' class='respPic'></div></div>","1","6","Melon Millions","Fruit/melon.png","Lost","0.2,0.8","8","0.2","81","16","",""
"html-keyboard-response","56","101598","0.0-11.0-2.15","63cff34d33a9948e3b0b28d6","bdp_rwlrn","Mon Mar 13 2023 11:36:25 GMT-0700 (Pacific Daylight Time)","394457","Untrustworthy,Trustworthy","","null","","","","decisionFB","","<div class='trialDiv'><img src='Fruit/melon.png'><br><font class='baseline'><strong>Melon Millions</strong><p>Choose number of points to bet.</font><div class='respPicDiv'><img src='img/responseButtonOffersNo0L1.png' class='respPic'></div></div>","null","6","Melon Millions","Fruit/melon.png","Lost","0.2,0.8","8","0.2","80","16","",""
"html-keyboard-response","57","102600","0.0-11.0-3.15","63cff34d33a9948e3b0b28d6","bdp_rwlrn","Mon Mar 13 2023 11:36:25 GMT-0700 (Pacific Daylight Time)","394457","Untrustworthy,Trustworthy","","null","","","","feedback","","<div class='respPicDiv'><img src='img/responseButtonOffersNo0_wht.png' class='respPic'></div><div class='trialDiv'><img src='Fruit/melon.png'><br><font class='baseline'><strong>Melon Millions</strong><p><strong><font class='negOutcome'>You LOST</font><p>You bet: 1</strong></font> &nbsp; &nbsp; &nbsp; &nbsp; &nbsp; &nbsp;<font class='negOutcome'>You receive: <strong>0</strong></font></div>","null","6","Melon Millions","Fruit/melon.png","Lost","0.2,0.8","8","0.2","80","16","",""
"html-keyboard-response","58","103813","0.0-11.0-1.16","63cff34d33a9948e3b0b28d6","bdp_rwlrn","Mon Mar 13 2023 11:36:25 GMT-0700 (Pacific Daylight Time)","394457","Untrustworthy,Trustworthy","","1211","","","","decision","","<div class='trialDiv'><img src='Fruit/lemon.png'><br><font class='baseline'><strong>Lucky Lemons</strong><p>Choose number of points to bet.</font><div class='respPicDiv'><img src='img/responseButtonOffersNo0L.png' class='respPic'></div></div>","5","6","Lucky Lemons","Fruit/lemon.png","Lost","0.35,0.8","10","0.35","85","17","",""
"html-keyboard-response","59","104064","0.0-11.0-2.16","63cff34d33a9948e3b0b28d6","bdp_rwlrn","Mon Mar 13 2023 11:36:25 GMT-0700 (Pacific Daylight Time)","394457","Untrustworthy,Trustworthy","","null","","","","decisionFB","","<div class='trialDiv'><img src='Fruit/lemon.png'><br><font class='baseline'><strong>Lucky Lemons</strong><p>Choose number of points to bet.</font><div class='respPicDiv'><img src='img/responseButtonOffersNo0L5.png' class='respPic'></div></div>","null","6","Lucky Lemons","Fruit/lemon.png","Lost","0.35,0.8","10","0.35","80","17","",""
"html-keyboard-response","60","105066","0.0-11.0-3.16","63cff34d33a9948e3b0b28d6","bdp_rwlrn","Mon Mar 13 2023 11:36:25 GMT-0700 (Pacific Daylight Time)","394457","Untrustworthy,Trustworthy","","null","","","","feedback","","<div class='respPicDiv'><img src='img/responseButtonOffersNo0_wht.png' class='respPic'></div><div class='trialDiv'><img src='Fruit/lemon.png'><br><font class='baseline'><strong>Lucky Lemons</strong><p><strong><font class='negOutcome'>You LOST</font><p>You bet: 5</strong></font> &nbsp; &nbsp; &nbsp; &nbsp; &nbsp; &nbsp;<font class='negOutcome'>You receive: <strong>0</strong></font></div>","null","6","Lucky Lemons","Fruit/lemon.png","Lost","0.35,0.8","10","0.35","80","17","",""
"html-keyboard-response","61","105957","0.0-11.0-1.17","63cff34d33a9948e3b0b28d6","bdp_rwlrn","Mon Mar 13 2023 11:36:25 GMT-0700 (Pacific Daylight Time)","394457","Untrustworthy,Trustworthy","","889","","","","decision","","<div class='trialDiv'><img src='Fruit/grapes.png'><br><font class='baseline'><strong>Great Grapes</strong><p>Choose number of points to bet.</font><div class='respPicDiv'><img src='img/responseButtonOffersNo0L.png' class='respPic'></div></div>","5","6","Great Grapes","Fruit/grapes.png","Won","0.8,0.35","13","0.8","85","18","",""
"html-keyboard-response","62","106208","0.0-11.0-2.17","63cff34d33a9948e3b0b28d6","bdp_rwlrn","Mon Mar 13 2023 11:36:25 GMT-0700 (Pacific Daylight Time)","394457","Untrustworthy,Trustworthy","","null","","","","decisionFB","","<div class='trialDiv'><img src='Fruit/grapes.png'><br><font class='baseline'><strong>Great Grapes</strong><p>Choose number of points to bet.</font><div class='respPicDiv'><img src='img/responseButtonOffersNo0L5.png' class='respPic'></div></div>","null","6","Great Grapes","Fruit/grapes.png","Won","0.8,0.35","13","0.8","80","18","",""
"html-keyboard-response","63","107210","0.0-11.0-3.17","63cff34d33a9948e3b0b28d6","bdp_rwlrn","Mon Mar 13 2023 11:36:25 GMT-0700 (Pacific Daylight Time)","394457","Untrustworthy,Trustworthy","","null","","","","feedback","","<div class='respPicDiv'><img src='img/responseButtonOffersNo0_wht.png' class='respPic'></div><div class='trialDiv'><img src='Fruit/grapes.png'><br><font class='baseline'><strong>Great Grapes</strong><p><strong><font class='posOutcome'>You WON</font><p>You bet: 5</strong></font> &nbsp; &nbsp; &nbsp; &nbsp; &nbsp; &nbsp;<font class='posOutcome'>you receive: <strong>10</strong></font></div>","null","6","Great Grapes","Fruit/grapes.png","Won","0.8,0.35","13","0.8","90","18","",""
"html-keyboard-response","64","109218","0.0-11.0-1.18","63cff34d33a9948e3b0b28d6","bdp_rwlrn","Mon Mar 13 2023 11:36:25 GMT-0700 (Pacific Daylight Time)","394457","Untrustworthy,Trustworthy","","2007","","","","decision","","<div class='trialDiv'><img src='Fruit/lemon.png'><br><font class='baseline'><strong>Lucky Lemons</strong><p>Choose number of points to bet.</font><div class='respPicDiv'><img src='img/responseButtonOffersNo0L.png' class='respPic'></div></div>","3","7","Lucky Lemons","Fruit/lemon.png","Won","0.35,0.8","10","0.35","95","19","",""
"html-keyboard-response","65","109470","0.0-11.0-2.18","63cff34d33a9948e3b0b28d6","bdp_rwlrn","Mon Mar 13 2023 11:36:25 GMT-0700 (Pacific Daylight Time)","394457","Untrustworthy,Trustworthy","","null","","","","decisionFB","","<div class='trialDiv'><img src='Fruit/lemon.png'><br><font class='baseline'><strong>Lucky Lemons</strong><p>Choose number of points to bet.</font><div class='respPicDiv'><img src='img/responseButtonOffersNo0L3.png' class='respPic'></div></div>","null","7","Lucky Lemons","Fruit/lemon.png","Won","0.35,0.8","10","0.35","92","19","",""
"html-keyboard-response","66","110472","0.0-11.0-3.18","63cff34d33a9948e3b0b28d6","bdp_rwlrn","Mon Mar 13 2023 11:36:25 GMT-0700 (Pacific Daylight Time)","394457","Untrustworthy,Trustworthy","","null","","","","feedback","","<div class='respPicDiv'><img src='img/responseButtonOffersNo0_wht.png' class='respPic'></div><div class='trialDiv'><img src='Fruit/lemon.png'><br><font class='baseline'><strong>Lucky Lemons</strong><p><strong><font class='posOutcome'>You WON</font><p>You bet: 3</strong></font> &nbsp; &nbsp; &nbsp; &nbsp; &nbsp; &nbsp;<font class='posOutcome'>you receive: <strong>6</strong></font></div>","null","7","Lucky Lemons","Fruit/lemon.png","Won","0.35,0.8","10","0.35","98","19","",""
"html-keyboard-response","67","112105","0.0-11.0-1.19","63cff34d33a9948e3b0b28d6","bdp_rwlrn","Mon Mar 13 2023 11:36:25 GMT-0700 (Pacific Daylight Time)","394457","Untrustworthy,Trustworthy","","1631","","","","decision","","<div class='trialDiv'><img src='Fruit/melon.png'><br><font class='baseline'><strong>Melon Millions</strong><p>Choose number of points to bet.</font><div class='respPicDiv'><img src='img/responseButtonOffersNo0L.png' class='respPic'></div></div>","1","7","Melon Millions","Fruit/melon.png","Lost","0.2,0.8","8","0.2","103","20","",""
"html-keyboard-response","68","112355","0.0-11.0-2.19","63cff34d33a9948e3b0b28d6","bdp_rwlrn","Mon Mar 13 2023 11:36:25 GMT-0700 (Pacific Daylight Time)","394457","Untrustworthy,Trustworthy","","null","","","","decisionFB","","<div class='trialDiv'><img src='Fruit/melon.png'><br><font class='baseline'><strong>Melon Millions</strong><p>Choose number of points to bet.</font><div class='respPicDiv'><img src='img/responseButtonOffersNo0L1.png' class='respPic'></div></div>","null","7","Melon Millions","Fruit/melon.png","Lost","0.2,0.8","8","0.2","102","20","",""
"html-keyboard-response","69","113356","0.0-11.0-3.19","63cff34d33a9948e3b0b28d6","bdp_rwlrn","Mon Mar 13 2023 11:36:25 GMT-0700 (Pacific Daylight Time)","394457","Untrustworthy,Trustworthy","","null","","","","feedback","","<div class='respPicDiv'><img src='img/responseButtonOffersNo0_wht.png' class='respPic'></div><div class='trialDiv'><img src='Fruit/melon.png'><br><font class='baseline'><strong>Melon Millions</strong><p><strong><font class='negOutcome'>You LOST</font><p>You bet: 1</strong></font> &nbsp; &nbsp; &nbsp; &nbsp; &nbsp; &nbsp;<font class='negOutcome'>You receive: <strong>0</strong></font></div>","null","7","Melon Millions","Fruit/melon.png","Lost","0.2,0.8","8","0.2","102","20","",""
"html-keyboard-response","70","114634","0.0-11.0-1.20","63cff34d33a9948e3b0b28d6","bdp_rwlrn","Mon Mar 13 2023 11:36:25 GMT-0700 (Pacific Daylight Time)","394457","Untrustworthy,Trustworthy","","1277","","","","decision","","<div class='trialDiv'><img src='Fruit/grapes.png'><br><font class='baseline'><strong>Great Grapes</strong><p>Choose number of points to bet.</font><div class='respPicDiv'><img src='img/responseButtonOffersNo0L.png' class='respPic'></div></div>","3","7","Great Grapes","Fruit/grapes.png","Won","0.8,0.35","13","0.8","107","21","",""
"html-keyboard-response","71","114885","0.0-11.0-2.20","63cff34d33a9948e3b0b28d6","bdp_rwlrn","Mon Mar 13 2023 11:36:25 GMT-0700 (Pacific Daylight Time)","394457","Untrustworthy,Trustworthy","","null","","","","decisionFB","","<div class='trialDiv'><img src='Fruit/grapes.png'><br><font class='baseline'><strong>Great Grapes</strong><p>Choose number of points to bet.</font><div class='respPicDiv'><img src='img/responseButtonOffersNo0L3.png' class='respPic'></div></div>","null","7","Great Grapes","Fruit/grapes.png","Won","0.8,0.35","13","0.8","104","21","",""
"html-keyboard-response","72","115886","0.0-11.0-3.20","63cff34d33a9948e3b0b28d6","bdp_rwlrn","Mon Mar 13 2023 11:36:25 GMT-0700 (Pacific Daylight Time)","394457","Untrustworthy,Trustworthy","","null","","","","feedback","","<div class='respPicDiv'><img src='img/responseButtonOffersNo0_wht.png' class='respPic'></div><div class='trialDiv'><img src='Fruit/grapes.png'><br><font class='baseline'><strong>Great Grapes</strong><p><strong><font class='posOutcome'>You WON</font><p>You bet: 3</strong></font> &nbsp; &nbsp; &nbsp; &nbsp; &nbsp; &nbsp;<font class='posOutcome'>you receive: <strong>6</strong></font></div>","null","7","Great Grapes","Fruit/grapes.png","Won","0.8,0.35","13","0.8","110","21","",""
"html-keyboard-response","73","117440","0.0-11.0-1.21","63cff34d33a9948e3b0b28d6","bdp_rwlrn","Mon Mar 13 2023 11:36:25 GMT-0700 (Pacific Daylight Time)","394457","Untrustworthy,Trustworthy","","1553","","","","decision","","<div class='trialDiv'><img src='Fruit/melon.png'><br><font class='baseline'><strong>Melon Millions</strong><p>Choose number of points to bet.</font><div class='respPicDiv'><img src='img/responseButtonOffersNo0L.png' class='respPic'></div></div>","1","8","Melon Millions","Fruit/melon.png","Lost","0.2,0.8","8","0.2","115","22","",""
"html-keyboard-response","74","117691","0.0-11.0-2.21","63cff34d33a9948e3b0b28d6","bdp_rwlrn","Mon Mar 13 2023 11:36:25 GMT-0700 (Pacific Daylight Time)","394457","Untrustworthy,Trustworthy","","null","","","","decisionFB","","<div class='trialDiv'><img src='Fruit/melon.png'><br><font class='baseline'><strong>Melon Millions</strong><p>Choose number of points to bet.</font><div class='respPicDiv'><img src='img/responseButtonOffersNo0L1.png' class='respPic'></div></div>","null","8","Melon Millions","Fruit/melon.png","Lost","0.2,0.8","8","0.2","114","22","",""
"html-keyboard-response","75","118692","0.0-11.0-3.21","63cff34d33a9948e3b0b28d6","bdp_rwlrn","Mon Mar 13 2023 11:36:25 GMT-0700 (Pacific Daylight Time)","394457","Untrustworthy,Trustworthy","","null","","","","feedback","","<div class='respPicDiv'><img src='img/responseButtonOffersNo0_wht.png' class='respPic'></div><div class='trialDiv'><img src='Fruit/melon.png'><br><font class='baseline'><strong>Melon Millions</strong><p><strong><font class='negOutcome'>You LOST</font><p>You bet: 1</strong></font> &nbsp; &nbsp; &nbsp; &nbsp; &nbsp; &nbsp;<font class='negOutcome'>You receive: <strong>0</strong></font></div>","null","8","Melon Millions","Fruit/melon.png","Lost","0.2,0.8","8","0.2","114","22","",""
"html-keyboard-response","76","119448","0.0-11.0-1.22","63cff34d33a9948e3b0b28d6","bdp_rwlrn","Mon Mar 13 2023 11:36:25 GMT-0700 (Pacific Daylight Time)","394457","Untrustworthy,Trustworthy","","755","","","","decision","","<div class='trialDiv'><img src='Fruit/grapes.png'><br><font class='baseline'><strong>Great Grapes</strong><p>Choose number of points to bet.</font><div class='respPicDiv'><img src='img/responseButtonOffersNo0L.png' class='respPic'></div></div>","3","8","Great Grapes","Fruit/grapes.png","Won","0.8,0.35","13","0.8","119","23","",""
"html-keyboard-response","77","119700","0.0-11.0-2.22","63cff34d33a9948e3b0b28d6","bdp_rwlrn","Mon Mar 13 2023 11:36:25 GMT-0700 (Pacific Daylight Time)","394457","Untrustworthy,Trustworthy","","null","","","","decisionFB","","<div class='trialDiv'><img src='Fruit/grapes.png'><br><font class='baseline'><strong>Great Grapes</strong><p>Choose number of points to bet.</font><div class='respPicDiv'><img src='img/responseButtonOffersNo0L3.png' class='respPic'></div></div>","null","8","Great Grapes","Fruit/grapes.png","Won","0.8,0.35","13","0.8","116","23","",""
"html-keyboard-response","78","120702","0.0-11.0-3.22","63cff34d33a9948e3b0b28d6","bdp_rwlrn","Mon Mar 13 2023 11:36:25 GMT-0700 (Pacific Daylight Time)","394457","Untrustworthy,Trustworthy","","null","","","","feedback","","<div class='respPicDiv'><img src='img/responseButtonOffersNo0_wht.png' class='respPic'></div><div class='trialDiv'><img src='Fruit/grapes.png'><br><font class='baseline'><strong>Great Grapes</strong><p><strong><font class='posOutcome'>You WON</font><p>You bet: 3</strong></font> &nbsp; &nbsp; &nbsp; &nbsp; &nbsp; &nbsp;<font class='posOutcome'>you receive: <strong>6</strong></font></div>","null","8","Great Grapes","Fruit/grapes.png","Won","0.8,0.35","13","0.8","122","23","",""
"html-keyboard-response","79","121706","0.0-11.0-1.23","63cff34d33a9948e3b0b28d6","bdp_rwlrn","Mon Mar 13 2023 11:36:25 GMT-0700 (Pacific Daylight Time)","394457","Untrustworthy,Trustworthy","","1003","","","","decision","","<div class='trialDiv'><img src='Fruit/lemon.png'><br><font class='baseline'><strong>Lucky Lemons</strong><p>Choose number of points to bet.</font><div class='respPicDiv'><img src='img/responseButtonOffersNo0L.png' class='respPic'></div></div>","5","8","Lucky Lemons","Fruit/lemon.png","Won","0.35,0.8","10","0.35","127","24","",""
"html-keyboard-response","80","121957","0.0-11.0-2.23","63cff34d33a9948e3b0b28d6","bdp_rwlrn","Mon Mar 13 2023 11:36:25 GMT-0700 (Pacific Daylight Time)","394457","Untrustworthy,Trustworthy","","null","","","","decisionFB","","<div class='trialDiv'><img src='Fruit/lemon.png'><br><font class='baseline'><strong>Lucky Lemons</strong><p>Choose number of points to bet.</font><div class='respPicDiv'><img src='img/responseButtonOffersNo0L5.png' class='respPic'></div></div>","null","8","Lucky Lemons","Fruit/lemon.png","Won","0.35,0.8","10","0.35","122","24","",""
"html-keyboard-response","81","122959","0.0-11.0-3.23","63cff34d33a9948e3b0b28d6","bdp_rwlrn","Mon Mar 13 2023 11:36:25 GMT-0700 (Pacific Daylight Time)","394457","Untrustworthy,Trustworthy","","null","","","","feedback","","<div class='respPicDiv'><img src='img/responseButtonOffersNo0_wht.png' class='respPic'></div><div class='trialDiv'><img src='Fruit/lemon.png'><br><font class='baseline'><strong>Lucky Lemons</strong><p><strong><font class='posOutcome'>You WON</font><p>You bet: 5</strong></font> &nbsp; &nbsp; &nbsp; &nbsp; &nbsp; &nbsp;<font class='posOutcome'>you receive: <strong>10</strong></font></div>","null","8","Lucky Lemons","Fruit/lemon.png","Won","0.35,0.8","10","0.35","132","24","",""
"html-keyboard-response","82","124729","0.0-11.0-1.24","63cff34d33a9948e3b0b28d6","bdp_rwlrn","Mon Mar 13 2023 11:36:25 GMT-0700 (Pacific Daylight Time)","394457","Untrustworthy,Trustworthy","","1769","","","","decision","","<div class='trialDiv'><img src='Fruit/grapes.png'><br><font class='baseline'><strong>Great Grapes</strong><p>Choose number of points to bet.</font><div class='respPicDiv'><img src='img/responseButtonOffersNo0L.png' class='respPic'></div></div>","5","9","Great Grapes","Fruit/grapes.png","Won","0.8,0.35","13","0.8","137","25","",""
"html-keyboard-response","83","124981","0.0-11.0-2.24","63cff34d33a9948e3b0b28d6","bdp_rwlrn","Mon Mar 13 2023 11:36:25 GMT-0700 (Pacific Daylight Time)","394457","Untrustworthy,Trustworthy","","null","","","","decisionFB","","<div class='trialDiv'><img src='Fruit/grapes.png'><br><font class='baseline'><strong>Great Grapes</strong><p>Choose number of points to bet.</font><div class='respPicDiv'><img src='img/responseButtonOffersNo0L5.png' class='respPic'></div></div>","null","9","Great Grapes","Fruit/grapes.png","Won","0.8,0.35","13","0.8","132","25","",""
"html-keyboard-response","84","125984","0.0-11.0-3.24","63cff34d33a9948e3b0b28d6","bdp_rwlrn","Mon Mar 13 2023 11:36:25 GMT-0700 (Pacific Daylight Time)","394457","Untrustworthy,Trustworthy","","null","","","","feedback","","<div class='respPicDiv'><img src='img/responseButtonOffersNo0_wht.png' class='respPic'></div><div class='trialDiv'><img src='Fruit/grapes.png'><br><font class='baseline'><strong>Great Grapes</strong><p><strong><font class='posOutcome'>You WON</font><p>You bet: 5</strong></font> &nbsp; &nbsp; &nbsp; &nbsp; &nbsp; &nbsp;<font class='posOutcome'>you receive: <strong>10</strong></font></div>","null","9","Great Grapes","Fruit/grapes.png","Won","0.8,0.35","13","0.8","142","25","",""
"html-keyboard-response","85","127285","0.0-11.0-1.25","63cff34d33a9948e3b0b28d6","bdp_rwlrn","Mon Mar 13 2023 11:36:25 GMT-0700 (Pacific Daylight Time)","394457","Untrustworthy,Trustworthy","","1300","","","","decision","","<div class='trialDiv'><img src='Fruit/melon.png'><br><font class='baseline'><strong>Melon Millions</strong><p>Choose number of points to bet.</font><div class='respPicDiv'><img src='img/responseButtonOffersNo0L.png' class='respPic'></div></div>","2","9","Melon Millions","Fruit/melon.png","Won","0.2,0.8","8","0.2","147","26","",""
"html-keyboard-response","86","127536","0.0-11.0-2.25","63cff34d33a9948e3b0b28d6","bdp_rwlrn","Mon Mar 13 2023 11:36:25 GMT-0700 (Pacific Daylight Time)","394457","Untrustworthy,Trustworthy","","null","","","","decisionFB","","<div class='trialDiv'><img src='Fruit/melon.png'><br><font class='baseline'><strong>Melon Millions</strong><p>Choose number of points to bet.</font><div class='respPicDiv'><img src='img/responseButtonOffersNo0L2.png' class='respPic'></div></div>","null","9","Melon Millions","Fruit/melon.png","Won","0.2,0.8","8","0.2","145","26","",""
"html-keyboard-response","87","128537","0.0-11.0-3.25","63cff34d33a9948e3b0b28d6","bdp_rwlrn","Mon Mar 13 2023 11:36:25 GMT-0700 (Pacific Daylight Time)","394457","Untrustworthy,Trustworthy","","null","","","","feedback","","<div class='respPicDiv'><img src='img/responseButtonOffersNo0_wht.png' class='respPic'></div><div class='trialDiv'><img src='Fruit/melon.png'><br><font class='baseline'><strong>Melon Millions</strong><p><strong><font class='posOutcome'>You WON</font><p>You bet: 2</strong></font> &nbsp; &nbsp; &nbsp; &nbsp; &nbsp; &nbsp;<font class='posOutcome'>you receive: <strong>4</strong></font></div>","null","9","Melon Millions","Fruit/melon.png","Won","0.2,0.8","8","0.2","149","26","",""
"html-keyboard-response","88","129560","0.0-11.0-1.26","63cff34d33a9948e3b0b28d6","bdp_rwlrn","Mon Mar 13 2023 11:36:25 GMT-0700 (Pacific Daylight Time)","394457","Untrustworthy,Trustworthy","","1022","","","","decision","","<div class='trialDiv'><img src='Fruit/lemon.png'><br><font class='baseline'><strong>Lucky Lemons</strong><p>Choose number of points to bet.</font><div class='respPicDiv'><img src='img/responseButtonOffersNo0L.png' class='respPic'></div></div>","5","9","Lucky Lemons","Fruit/lemon.png","Won","0.35,0.8","10","0.35","154","27","",""
"html-keyboard-response","89","129812","0.0-11.0-2.26","63cff34d33a9948e3b0b28d6","bdp_rwlrn","Mon Mar 13 2023 11:36:25 GMT-0700 (Pacific Daylight Time)","394457","Untrustworthy,Trustworthy","","null","","","","decisionFB","","<div class='trialDiv'><img src='Fruit/lemon.png'><br><font class='baseline'><strong>Lucky Lemons</strong><p>Choose number of points to bet.</font><div class='respPicDiv'><img src='img/responseButtonOffersNo0L5.png' class='respPic'></div></div>","null","9","Lucky Lemons","Fruit/lemon.png","Won","0.35,0.8","10","0.35","149","27","",""
"html-keyboard-response","90","130813","0.0-11.0-3.26","63cff34d33a9948e3b0b28d6","bdp_rwlrn","Mon Mar 13 2023 11:36:25 GMT-0700 (Pacific Daylight Time)","394457","Untrustworthy,Trustworthy","","null","","","","feedback","","<div class='respPicDiv'><img src='img/responseButtonOffersNo0_wht.png' class='respPic'></div><div class='trialDiv'><img src='Fruit/lemon.png'><br><font class='baseline'><strong>Lucky Lemons</strong><p><strong><font class='posOutcome'>You WON</font><p>You bet: 5</strong></font> &nbsp; &nbsp; &nbsp; &nbsp; &nbsp; &nbsp;<font class='posOutcome'>you receive: <strong>10</strong></font></div>","null","9","Lucky Lemons","Fruit/lemon.png","Won","0.35,0.8","10","0.35","159","27","",""
"html-keyboard-response","91","131900","0.0-11.0-1.27","63cff34d33a9948e3b0b28d6","bdp_rwlrn","Mon Mar 13 2023 11:36:25 GMT-0700 (Pacific Daylight Time)","394457","Untrustworthy,Trustworthy","","1085","","","","decision","","<div class='trialDiv'><img src='Fruit/melon.png'><br><font class='baseline'><strong>Melon Millions</strong><p>Choose number of points to bet.</font><div class='respPicDiv'><img src='img/responseButtonOffersNo0L.png' class='respPic'></div></div>","2","10","Melon Millions","Fruit/melon.png","Won","0.2,0.8","8","0.2","164","28","",""
"html-keyboard-response","92","132150","0.0-11.0-2.27","63cff34d33a9948e3b0b28d6","bdp_rwlrn","Mon Mar 13 2023 11:36:25 GMT-0700 (Pacific Daylight Time)","394457","Untrustworthy,Trustworthy","","null","","","","decisionFB","","<div class='trialDiv'><img src='Fruit/melon.png'><br><font class='baseline'><strong>Melon Millions</strong><p>Choose number of points to bet.</font><div class='respPicDiv'><img src='img/responseButtonOffersNo0L2.png' class='respPic'></div></div>","null","10","Melon Millions","Fruit/melon.png","Won","0.2,0.8","8","0.2","162","28","",""
"html-keyboard-response","93","133152","0.0-11.0-3.27","63cff34d33a9948e3b0b28d6","bdp_rwlrn","Mon Mar 13 2023 11:36:25 GMT-0700 (Pacific Daylight Time)","394457","Untrustworthy,Trustworthy","","null","","","","feedback","","<div class='respPicDiv'><img src='img/responseButtonOffersNo0_wht.png' class='respPic'></div><div class='trialDiv'><img src='Fruit/melon.png'><br><font class='baseline'><strong>Melon Millions</strong><p><strong><font class='posOutcome'>You WON</font><p>You bet: 2</strong></font> &nbsp; &nbsp; &nbsp; &nbsp; &nbsp; &nbsp;<font class='posOutcome'>you receive: <strong>4</strong></font></div>","null","10","Melon Millions","Fruit/melon.png","Won","0.2,0.8","8","0.2","166","28","",""
"html-keyboard-response","94","134303","0.0-11.0-1.28","63cff34d33a9948e3b0b28d6","bdp_rwlrn","Mon Mar 13 2023 11:36:25 GMT-0700 (Pacific Daylight Time)","394457","Untrustworthy,Trustworthy","","1150","","","","decision","","<div class='trialDiv'><img src='Fruit/grapes.png'><br><font class='baseline'><strong>Great Grapes</strong><p>Choose number of points to bet.</font><div class='respPicDiv'><img src='img/responseButtonOffersNo0L.png' class='respPic'></div></div>","5","10","Great Grapes","Fruit/grapes.png","Won","0.8,0.35","13","0.8","171","29","",""
"html-keyboard-response","95","134554","0.0-11.0-2.28","63cff34d33a9948e3b0b28d6","bdp_rwlrn","Mon Mar 13 2023 11:36:25 GMT-0700 (Pacific Daylight Time)","394457","Untrustworthy,Trustworthy","","null","","","","decisionFB","","<div class='trialDiv'><img src='Fruit/grapes.png'><br><font class='baseline'><strong>Great Grapes</strong><p>Choose number of points to bet.</font><div class='respPicDiv'><img src='img/responseButtonOffersNo0L5.png' class='respPic'></div></div>","null","10","Great Grapes","Fruit/grapes.png","Won","0.8,0.35","13","0.8","166","29","",""
"html-keyboard-response","96","135556","0.0-11.0-3.28","63cff34d33a9948e3b0b28d6","bdp_rwlrn","Mon Mar 13 2023 11:36:25 GMT-0700 (Pacific Daylight Time)","394457","Untrustworthy,Trustworthy","","null","","","","feedback","","<div class='respPicDiv'><img src='img/responseButtonOffersNo0_wht.png' class='respPic'></div><div class='trialDiv'><img src='Fruit/grapes.png'><br><font class='baseline'><strong>Great Grapes</strong><p><strong><font class='posOutcome'>You WON</font><p>You bet: 5</strong></font> &nbsp; &nbsp; &nbsp; &nbsp; &nbsp; &nbsp;<font class='posOutcome'>you receive: <strong>10</strong></font></div>","null","10","Great Grapes","Fruit/grapes.png","Won","0.8,0.35","13","0.8","176","29","",""
"html-keyboard-response","97","136906","0.0-11.0-1.29","63cff34d33a9948e3b0b28d6","bdp_rwlrn","Mon Mar 13 2023 11:36:25 GMT-0700 (Pacific Daylight Time)","394457","Untrustworthy,Trustworthy","","1350","","","","decision","","<div class='trialDiv'><img src='Fruit/lemon.png'><br><font class='baseline'><strong>Lucky Lemons</strong><p>Choose number of points to bet.</font><div class='respPicDiv'><img src='img/responseButtonOffersNo0L.png' class='respPic'></div></div>","2","10","Lucky Lemons","Fruit/lemon.png","Won","0.35,0.8","10","0.35","181","30","",""
"html-keyboard-response","98","137159","0.0-11.0-2.29","63cff34d33a9948e3b0b28d6","bdp_rwlrn","Mon Mar 13 2023 11:36:25 GMT-0700 (Pacific Daylight Time)","394457","Untrustworthy,Trustworthy","","null","","","","decisionFB","","<div class='trialDiv'><img src='Fruit/lemon.png'><br><font class='baseline'><strong>Lucky Lemons</strong><p>Choose number of points to bet.</font><div class='respPicDiv'><img src='img/responseButtonOffersNo0L2.png' class='respPic'></div></div>","null","10","Lucky Lemons","Fruit/lemon.png","Won","0.35,0.8","10","0.35","179","30","",""
"html-keyboard-response","99","138160","0.0-11.0-3.29","63cff34d33a9948e3b0b28d6","bdp_rwlrn","Mon Mar 13 2023 11:36:25 GMT-0700 (Pacific Daylight Time)","394457","Untrustworthy,Trustworthy","","null","","","","feedback","","<div class='respPicDiv'><img src='img/responseButtonOffersNo0_wht.png' class='respPic'></div><div class='trialDiv'><img src='Fruit/lemon.png'><br><font class='baseline'><strong>Lucky Lemons</strong><p><strong><font class='posOutcome'>You WON</font><p>You bet: 2</strong></font> &nbsp; &nbsp; &nbsp; &nbsp; &nbsp; &nbsp;<font class='posOutcome'>you receive: <strong>4</strong></font></div>","null","10","Lucky Lemons","Fruit/lemon.png","Won","0.35,0.8","10","0.35","183","30","",""
"html-keyboard-response","100","139835","0.0-11.0-1.30","63cff34d33a9948e3b0b28d6","bdp_rwlrn","Mon Mar 13 2023 11:36:25 GMT-0700 (Pacific Daylight Time)","394457","Untrustworthy,Trustworthy","","1673","","","","decision","","<div class='trialDiv'><img src='Fruit/melon.png'><br><font class='baseline'><strong>Melon Millions</strong><p>Choose number of points to bet.</font><div class='respPicDiv'><img src='img/responseButtonOffersNo0L.png' class='respPic'></div></div>","2","11","Melon Millions","Fruit/melon.png","Won","0.2,0.8","8","0.2","188","31","",""
"html-keyboard-response","101","140085","0.0-11.0-2.30","63cff34d33a9948e3b0b28d6","bdp_rwlrn","Mon Mar 13 2023 11:36:25 GMT-0700 (Pacific Daylight Time)","394457","Untrustworthy,Trustworthy","","null","","","","decisionFB","","<div class='trialDiv'><img src='Fruit/melon.png'><br><font class='baseline'><strong>Melon Millions</strong><p>Choose number of points to bet.</font><div class='respPicDiv'><img src='img/responseButtonOffersNo0L2.png' class='respPic'></div></div>","null","11","Melon Millions","Fruit/melon.png","Won","0.2,0.8","8","0.2","186","31","",""
"html-keyboard-response","102","141087","0.0-11.0-3.30","63cff34d33a9948e3b0b28d6","bdp_rwlrn","Mon Mar 13 2023 11:36:25 GMT-0700 (Pacific Daylight Time)","394457","Untrustworthy,Trustworthy","","null","","","","feedback","","<div class='respPicDiv'><img src='img/responseButtonOffersNo0_wht.png' class='respPic'></div><div class='trialDiv'><img src='Fruit/melon.png'><br><font class='baseline'><strong>Melon Millions</strong><p><strong><font class='posOutcome'>You WON</font><p>You bet: 2</strong></font> &nbsp; &nbsp; &nbsp; &nbsp; &nbsp; &nbsp;<font class='posOutcome'>you receive: <strong>4</strong></font></div>","null","11","Melon Millions","Fruit/melon.png","Won","0.2,0.8","8","0.2","190","31","",""
"html-keyboard-response","103","141925","0.0-11.0-1.31","63cff34d33a9948e3b0b28d6","bdp_rwlrn","Mon Mar 13 2023 11:36:25 GMT-0700 (Pacific Daylight Time)","394457","Untrustworthy,Trustworthy","","837","","","","decision","","<div class='trialDiv'><img src='Fruit/grapes.png'><br><font class='baseline'><strong>Great Grapes</strong><p>Choose number of points to bet.</font><div class='respPicDiv'><img src='img/responseButtonOffersNo0L.png' class='respPic'></div></div>","5","11","Great Grapes","Fruit/grapes.png","Won","0.8,0.35","13","0.8","195","32","",""
"html-keyboard-response","104","142176","0.0-11.0-2.31","63cff34d33a9948e3b0b28d6","bdp_rwlrn","Mon Mar 13 2023 11:36:25 GMT-0700 (Pacific Daylight Time)","394457","Untrustworthy,Trustworthy","","null","","","","decisionFB","","<div class='trialDiv'><img src='Fruit/grapes.png'><br><font class='baseline'><strong>Great Grapes</strong><p>Choose number of points to bet.</font><div class='respPicDiv'><img src='img/responseButtonOffersNo0L5.png' class='respPic'></div></div>","null","11","Great Grapes","Fruit/grapes.png","Won","0.8,0.35","13","0.8","190","32","",""
"html-keyboard-response","105","143178","0.0-11.0-3.31","63cff34d33a9948e3b0b28d6","bdp_rwlrn","Mon Mar 13 2023 11:36:25 GMT-0700 (Pacific Daylight Time)","394457","Untrustworthy,Trustworthy","","null","","","","feedback","","<div class='respPicDiv'><img src='img/responseButtonOffersNo0_wht.png' class='respPic'></div><div class='trialDiv'><img src='Fruit/grapes.png'><br><font class='baseline'><strong>Great Grapes</strong><p><strong><font class='posOutcome'>You WON</font><p>You bet: 5</strong></font> &nbsp; &nbsp; &nbsp; &nbsp; &nbsp; &nbsp;<font class='posOutcome'>you receive: <strong>10</strong></font></div>","null","11","Great Grapes","Fruit/grapes.png","Won","0.8,0.35","13","0.8","200","32","",""
"html-keyboard-response","106","146294","0.0-11.0-1.32","63cff34d33a9948e3b0b28d6","bdp_rwlrn","Mon Mar 13 2023 11:36:25 GMT-0700 (Pacific Daylight Time)","394457","Untrustworthy,Trustworthy","","3115","","","","decision","","<div class='trialDiv'><img src='Fruit/lemon.png'><br><font class='baseline'><strong>Lucky Lemons</strong><p>Choose number of points to bet.</font><div class='respPicDiv'><img src='img/responseButtonOffersNo0L.png' class='respPic'></div></div>","5","11","Lucky Lemons","Fruit/lemon.png","Lost","0.35,0.8","10","0.35","205","33","",""
"html-keyboard-response","107","146546","0.0-11.0-2.32","63cff34d33a9948e3b0b28d6","bdp_rwlrn","Mon Mar 13 2023 11:36:25 GMT-0700 (Pacific Daylight Time)","394457","Untrustworthy,Trustworthy","","null","","","","decisionFB","","<div class='trialDiv'><img src='Fruit/lemon.png'><br><font class='baseline'><strong>Lucky Lemons</strong><p>Choose number of points to bet.</font><div class='respPicDiv'><img src='img/responseButtonOffersNo0L5.png' class='respPic'></div></div>","null","11","Lucky Lemons","Fruit/lemon.png","Lost","0.35,0.8","10","0.35","200","33","",""
"html-keyboard-response","108","147547","0.0-11.0-3.32","63cff34d33a9948e3b0b28d6","bdp_rwlrn","Mon Mar 13 2023 11:36:25 GMT-0700 (Pacific Daylight Time)","394457","Untrustworthy,Trustworthy","","null","","","","feedback","","<div class='respPicDiv'><img src='img/responseButtonOffersNo0_wht.png' class='respPic'></div><div class='trialDiv'><img src='Fruit/lemon.png'><br><font class='baseline'><strong>Lucky Lemons</strong><p><strong><font class='negOutcome'>You LOST</font><p>You bet: 5</strong></font> &nbsp; &nbsp; &nbsp; &nbsp; &nbsp; &nbsp;<font class='negOutcome'>You receive: <strong>0</strong></font></div>","null","11","Lucky Lemons","Fruit/lemon.png","Lost","0.35,0.8","10","0.35","200","33","",""
"html-keyboard-response","109","149363","0.0-11.0-1.33","63cff34d33a9948e3b0b28d6","bdp_rwlrn","Mon Mar 13 2023 11:36:25 GMT-0700 (Pacific Daylight Time)","394457","Untrustworthy,Trustworthy","","1815","","","","decision","","<div class='trialDiv'><img src='Fruit/melon.png'><br><font class='baseline'><strong>Melon Millions</strong><p>Choose number of points to bet.</font><div class='respPicDiv'><img src='img/responseButtonOffersNo0L.png' class='respPic'></div></div>","4","12","Melon Millions","Fruit/melon.png","Won","0.2,0.8","8","0.2","205","34","",""
"html-keyboard-response","110","149614","0.0-11.0-2.33","63cff34d33a9948e3b0b28d6","bdp_rwlrn","Mon Mar 13 2023 11:36:25 GMT-0700 (Pacific Daylight Time)","394457","Untrustworthy,Trustworthy","","null","","","","decisionFB","","<div class='trialDiv'><img src='Fruit/melon.png'><br><font class='baseline'><strong>Melon Millions</strong><p>Choose number of points to bet.</font><div class='respPicDiv'><img src='img/responseButtonOffersNo0L4.png' class='respPic'></div></div>","null","12","Melon Millions","Fruit/melon.png","Won","0.2,0.8","8","0.2","201","34","",""
"html-keyboard-response","111","150615","0.0-11.0-3.33","63cff34d33a9948e3b0b28d6","bdp_rwlrn","Mon Mar 13 2023 11:36:25 GMT-0700 (Pacific Daylight Time)","394457","Untrustworthy,Trustworthy","","null","","","","feedback","","<div class='respPicDiv'><img src='img/responseButtonOffersNo0_wht.png' class='respPic'></div><div class='trialDiv'><img src='Fruit/melon.png'><br><font class='baseline'><strong>Melon Millions</strong><p><strong><font class='posOutcome'>You WON</font><p>You bet: 4</strong></font> &nbsp; &nbsp; &nbsp; &nbsp; &nbsp; &nbsp;<font class='posOutcome'>you receive: <strong>8</strong></font></div>","null","12","Melon Millions","Fruit/melon.png","Won","0.2,0.8","8","0.2","209","34","",""
"html-keyboard-response","112","151581","0.0-11.0-1.34","63cff34d33a9948e3b0b28d6","bdp_rwlrn","Mon Mar 13 2023 11:36:25 GMT-0700 (Pacific Daylight Time)","394457","Untrustworthy,Trustworthy","","964","","","","decision","","<div class='trialDiv'><img src='Fruit/grapes.png'><br><font class='baseline'><strong>Great Grapes</strong><p>Choose number of points to bet.</font><div class='respPicDiv'><img src='img/responseButtonOffersNo0L.png' class='respPic'></div></div>","5","12","Great Grapes","Fruit/grapes.png","Won","0.8,0.35","13","0.8","214","35","",""
"html-keyboard-response","113","151832","0.0-11.0-2.34","63cff34d33a9948e3b0b28d6","bdp_rwlrn","Mon Mar 13 2023 11:36:25 GMT-0700 (Pacific Daylight Time)","394457","Untrustworthy,Trustworthy","","null","","","","decisionFB","","<div class='trialDiv'><img src='Fruit/grapes.png'><br><font class='baseline'><strong>Great Grapes</strong><p>Choose number of points to bet.</font><div class='respPicDiv'><img src='img/responseButtonOffersNo0L5.png' class='respPic'></div></div>","null","12","Great Grapes","Fruit/grapes.png","Won","0.8,0.35","13","0.8","209","35","",""
"html-keyboard-response","114","152833","0.0-11.0-3.34","63cff34d33a9948e3b0b28d6","bdp_rwlrn","Mon Mar 13 2023 11:36:25 GMT-0700 (Pacific Daylight Time)","394457","Untrustworthy,Trustworthy","","null","","","","feedback","","<div class='respPicDiv'><img src='img/responseButtonOffersNo0_wht.png' class='respPic'></div><div class='trialDiv'><img src='Fruit/grapes.png'><br><font class='baseline'><strong>Great Grapes</strong><p><strong><font class='posOutcome'>You WON</font><p>You bet: 5</strong></font> &nbsp; &nbsp; &nbsp; &nbsp; &nbsp; &nbsp;<font class='posOutcome'>you receive: <strong>10</strong></font></div>","null","12","Great Grapes","Fruit/grapes.png","Won","0.8,0.35","13","0.8","219","35","",""
"html-keyboard-response","115","153988","0.0-11.0-1.35","63cff34d33a9948e3b0b28d6","bdp_rwlrn","Mon Mar 13 2023 11:36:25 GMT-0700 (Pacific Daylight Time)","394457","Untrustworthy,Trustworthy","","1153","","","","decision","","<div class='trialDiv'><img src='Fruit/lemon.png'><br><font class='baseline'><strong>Lucky Lemons</strong><p>Choose number of points to bet.</font><div class='respPicDiv'><img src='img/responseButtonOffersNo0L.png' class='respPic'></div></div>","5","12","Lucky Lemons","Fruit/lemon.png","Won","0.35,0.8","10","0.35","224","36","",""
"html-keyboard-response","116","154238","0.0-11.0-2.35","63cff34d33a9948e3b0b28d6","bdp_rwlrn","Mon Mar 13 2023 11:36:25 GMT-0700 (Pacific Daylight Time)","394457","Untrustworthy,Trustworthy","","null","","","","decisionFB","","<div class='trialDiv'><img src='Fruit/lemon.png'><br><font class='baseline'><strong>Lucky Lemons</strong><p>Choose number of points to bet.</font><div class='respPicDiv'><img src='img/responseButtonOffersNo0L5.png' class='respPic'></div></div>","null","12","Lucky Lemons","Fruit/lemon.png","Won","0.35,0.8","10","0.35","219","36","",""
"html-keyboard-response","117","155239","0.0-11.0-3.35","63cff34d33a9948e3b0b28d6","bdp_rwlrn","Mon Mar 13 2023 11:36:25 GMT-0700 (Pacific Daylight Time)","394457","Untrustworthy,Trustworthy","","null","","","","feedback","","<div class='respPicDiv'><img src='img/responseButtonOffersNo0_wht.png' class='respPic'></div><div class='trialDiv'><img src='Fruit/lemon.png'><br><font class='baseline'><strong>Lucky Lemons</strong><p><strong><font class='posOutcome'>You WON</font><p>You bet: 5</strong></font> &nbsp; &nbsp; &nbsp; &nbsp; &nbsp; &nbsp;<font class='posOutcome'>you receive: <strong>10</strong></font></div>","null","12","Lucky Lemons","Fruit/lemon.png","Won","0.35,0.8","10","0.35","229","36","",""
"html-keyboard-response","118","156171","0.0-11.0-1.36","63cff34d33a9948e3b0b28d6","bdp_rwlrn","Mon Mar 13 2023 11:36:25 GMT-0700 (Pacific Daylight Time)","394457","Untrustworthy,Trustworthy","","931","","","","decision","","<div class='trialDiv'><img src='Fruit/grapes.png'><br><font class='baseline'><strong>Great Grapes</strong><p>Choose number of points to bet.</font><div class='respPicDiv'><img src='img/responseButtonOffersNo0L.png' class='respPic'></div></div>","5","13","Great Grapes","Fruit/grapes.png","Lost","0.8,0.35","13","0.8","234","37","",""
"html-keyboard-response","119","156422","0.0-11.0-2.36","63cff34d33a9948e3b0b28d6","bdp_rwlrn","Mon Mar 13 2023 11:36:25 GMT-0700 (Pacific Daylight Time)","394457","Untrustworthy,Trustworthy","","null","","","","decisionFB","","<div class='trialDiv'><img src='Fruit/grapes.png'><br><font class='baseline'><strong>Great Grapes</strong><p>Choose number of points to bet.</font><div class='respPicDiv'><img src='img/responseButtonOffersNo0L5.png' class='respPic'></div></div>","null","13","Great Grapes","Fruit/grapes.png","Lost","0.8,0.35","13","0.8","229","37","",""
"html-keyboard-response","120","157424","0.0-11.0-3.36","63cff34d33a9948e3b0b28d6","bdp_rwlrn","Mon Mar 13 2023 11:36:25 GMT-0700 (Pacific Daylight Time)","394457","Untrustworthy,Trustworthy","","null","","","","feedback","","<div class='respPicDiv'><img src='img/responseButtonOffersNo0_wht.png' class='respPic'></div><div class='trialDiv'><img src='Fruit/grapes.png'><br><font class='baseline'><strong>Great Grapes</strong><p><strong><font class='negOutcome'>You LOST</font><p>You bet: 5</strong></font> &nbsp; &nbsp; &nbsp; &nbsp; &nbsp; &nbsp;<font class='negOutcome'>You receive: <strong>0</strong></font></div>","null","13","Great Grapes","Fruit/grapes.png","Lost","0.8,0.35","13","0.8","229","37","",""
"html-keyboard-response","121","158258","0.0-11.0-1.37","63cff34d33a9948e3b0b28d6","bdp_rwlrn","Mon Mar 13 2023 11:36:25 GMT-0700 (Pacific Daylight Time)","394457","Untrustworthy,Trustworthy","","833","","","","decision","","<div class='trialDiv'><img src='Fruit/lemon.png'><br><font class='baseline'><strong>Lucky Lemons</strong><p>Choose number of points to bet.</font><div class='respPicDiv'><img src='img/responseButtonOffersNo0L.png' class='respPic'></div></div>","5","13","Lucky Lemons","Fruit/lemon.png","Lost","0.35,0.8","10","0.35","234","38","",""
"html-keyboard-response","122","158509","0.0-11.0-2.37","63cff34d33a9948e3b0b28d6","bdp_rwlrn","Mon Mar 13 2023 11:36:25 GMT-0700 (Pacific Daylight Time)","394457","Untrustworthy,Trustworthy","","null","","","","decisionFB","","<div class='trialDiv'><img src='Fruit/lemon.png'><br><font class='baseline'><strong>Lucky Lemons</strong><p>Choose number of points to bet.</font><div class='respPicDiv'><img src='img/responseButtonOffersNo0L5.png' class='respPic'></div></div>","null","13","Lucky Lemons","Fruit/lemon.png","Lost","0.35,0.8","10","0.35","229","38","",""
"html-keyboard-response","123","159510","0.0-11.0-3.37","63cff34d33a9948e3b0b28d6","bdp_rwlrn","Mon Mar 13 2023 11:36:25 GMT-0700 (Pacific Daylight Time)","394457","Untrustworthy,Trustworthy","","null","","","","feedback","","<div class='respPicDiv'><img src='img/responseButtonOffersNo0_wht.png' class='respPic'></div><div class='trialDiv'><img src='Fruit/lemon.png'><br><font class='baseline'><strong>Lucky Lemons</strong><p><strong><font class='negOutcome'>You LOST</font><p>You bet: 5</strong></font> &nbsp; &nbsp; &nbsp; &nbsp; &nbsp; &nbsp;<font class='negOutcome'>You receive: <strong>0</strong></font></div>","null","13","Lucky Lemons","Fruit/lemon.png","Lost","0.35,0.8","10","0.35","229","38","",""
"html-keyboard-response","124","161455","0.0-11.0-1.38","63cff34d33a9948e3b0b28d6","bdp_rwlrn","Mon Mar 13 2023 11:36:25 GMT-0700 (Pacific Daylight Time)","394457","Untrustworthy,Trustworthy","","1943","","","","decision","","<div class='trialDiv'><img src='Fruit/melon.png'><br><font class='baseline'><strong>Melon Millions</strong><p>Choose number of points to bet.</font><div class='respPicDiv'><img src='img/responseButtonOffersNo0L.png' class='respPic'></div></div>","2","13","Melon Millions","Fruit/melon.png","Won","0.2,0.8","8","0.2","234","39","",""
"html-keyboard-response","125","161705","0.0-11.0-2.38","63cff34d33a9948e3b0b28d6","bdp_rwlrn","Mon Mar 13 2023 11:36:25 GMT-0700 (Pacific Daylight Time)","394457","Untrustworthy,Trustworthy","","null","","","","decisionFB","","<div class='trialDiv'><img src='Fruit/melon.png'><br><font class='baseline'><strong>Melon Millions</strong><p>Choose number of points to bet.</font><div class='respPicDiv'><img src='img/responseButtonOffersNo0L2.png' class='respPic'></div></div>","null","13","Melon Millions","Fruit/melon.png","Won","0.2,0.8","8","0.2","232","39","",""
"html-keyboard-response","126","162707","0.0-11.0-3.38","63cff34d33a9948e3b0b28d6","bdp_rwlrn","Mon Mar 13 2023 11:36:25 GMT-0700 (Pacific Daylight Time)","394457","Untrustworthy,Trustworthy","","null","","","","feedback","","<div class='respPicDiv'><img src='img/responseButtonOffersNo0_wht.png' class='respPic'></div><div class='trialDiv'><img src='Fruit/melon.png'><br><font class='baseline'><strong>Melon Millions</strong><p><strong><font class='posOutcome'>You WON</font><p>You bet: 2</strong></font> &nbsp; &nbsp; &nbsp; &nbsp; &nbsp; &nbsp;<font class='posOutcome'>you receive: <strong>4</strong></font></div>","null","13","Melon Millions","Fruit/melon.png","Won","0.2,0.8","8","0.2","236","39","",""
"html-keyboard-response","127","163681","0.0-11.0-1.39","63cff34d33a9948e3b0b28d6","bdp_rwlrn","Mon Mar 13 2023 11:36:25 GMT-0700 (Pacific Daylight Time)","394457","Untrustworthy,Trustworthy","","973","","","","decision","","<div class='trialDiv'><img src='Fruit/grapes.png'><br><font class='baseline'><strong>Great Grapes</strong><p>Choose number of points to bet.</font><div class='respPicDiv'><img src='img/responseButtonOffersNo0L.png' class='respPic'></div></div>","5","14","Great Grapes","Fruit/grapes.png","Won","0.8,0.35","13","0.8","241","40","",""
"html-keyboard-response","128","163933","0.0-11.0-2.39","63cff34d33a9948e3b0b28d6","bdp_rwlrn","Mon Mar 13 2023 11:36:25 GMT-0700 (Pacific Daylight Time)","394457","Untrustworthy,Trustworthy","","null","","","","decisionFB","","<div class='trialDiv'><img src='Fruit/grapes.png'><br><font class='baseline'><strong>Great Grapes</strong><p>Choose number of points to bet.</font><div class='respPicDiv'><img src='img/responseButtonOffersNo0L5.png' class='respPic'></div></div>","null","14","Great Grapes","Fruit/grapes.png","Won","0.8,0.35","13","0.8","236","40","",""
"html-keyboard-response","129","164934","0.0-11.0-3.39","63cff34d33a9948e3b0b28d6","bdp_rwlrn","Mon Mar 13 2023 11:36:25 GMT-0700 (Pacific Daylight Time)","394457","Untrustworthy,Trustworthy","","null","","","","feedback","","<div class='respPicDiv'><img src='img/responseButtonOffersNo0_wht.png' class='respPic'></div><div class='trialDiv'><img src='Fruit/grapes.png'><br><font class='baseline'><strong>Great Grapes</strong><p><strong><font class='posOutcome'>You WON</font><p>You bet: 5</strong></font> &nbsp; &nbsp; &nbsp; &nbsp; &nbsp; &nbsp;<font class='posOutcome'>you receive: <strong>10</strong></font></div>","null","14","Great Grapes","Fruit/grapes.png","Won","0.8,0.35","13","0.8","246","40","",""
"html-keyboard-response","130","165862","0.0-11.0-1.40","63cff34d33a9948e3b0b28d6","bdp_rwlrn","Mon Mar 13 2023 11:36:25 GMT-0700 (Pacific Daylight Time)","394457","Untrustworthy,Trustworthy","","926","","","","decision","","<div class='trialDiv'><img src='Fruit/melon.png'><br><font class='baseline'><strong>Melon Millions</strong><p>Choose number of points to bet.</font><div class='respPicDiv'><img src='img/responseButtonOffersNo0L.png' class='respPic'></div></div>","2","14","Melon Millions","Fruit/melon.png","Won","0.2,0.8","8","0.2","251","41","",""
"html-keyboard-response","131","166112","0.0-11.0-2.40","63cff34d33a9948e3b0b28d6","bdp_rwlrn","Mon Mar 13 2023 11:36:25 GMT-0700 (Pacific Daylight Time)","394457","Untrustworthy,Trustworthy","","null","","","","decisionFB","","<div class='trialDiv'><img src='Fruit/melon.png'><br><font class='baseline'><strong>Melon Millions</strong><p>Choose number of points to bet.</font><div class='respPicDiv'><img src='img/responseButtonOffersNo0L2.png' class='respPic'></div></div>","null","14","Melon Millions","Fruit/melon.png","Won","0.2,0.8","8","0.2","249","41","",""
"html-keyboard-response","132","167114","0.0-11.0-3.40","63cff34d33a9948e3b0b28d6","bdp_rwlrn","Mon Mar 13 2023 11:36:25 GMT-0700 (Pacific Daylight Time)","394457","Untrustworthy,Trustworthy","","null","","","","feedback","","<div class='respPicDiv'><img src='img/responseButtonOffersNo0_wht.png' class='respPic'></div><div class='trialDiv'><img src='Fruit/melon.png'><br><font class='baseline'><strong>Melon Millions</strong><p><strong><font class='posOutcome'>You WON</font><p>You bet: 2</strong></font> &nbsp; &nbsp; &nbsp; &nbsp; &nbsp; &nbsp;<font class='posOutcome'>you receive: <strong>4</strong></font></div>","null","14","Melon Millions","Fruit/melon.png","Won","0.2,0.8","8","0.2","253","41","",""
"html-keyboard-response","133","167896","0.0-11.0-1.41","63cff34d33a9948e3b0b28d6","bdp_rwlrn","Mon Mar 13 2023 11:36:25 GMT-0700 (Pacific Daylight Time)","394457","Untrustworthy,Trustworthy","","782","","","","decision","","<div class='trialDiv'><img src='Fruit/lemon.png'><br><font class='baseline'><strong>Lucky Lemons</strong><p>Choose number of points to bet.</font><div class='respPicDiv'><img src='img/responseButtonOffersNo0L.png' class='respPic'></div></div>","5","14","Lucky Lemons","Fruit/lemon.png","Won","0.35,0.8","10","0.35","258","42","",""
"html-keyboard-response","134","168147","0.0-11.0-2.41","63cff34d33a9948e3b0b28d6","bdp_rwlrn","Mon Mar 13 2023 11:36:25 GMT-0700 (Pacific Daylight Time)","394457","Untrustworthy,Trustworthy","","null","","","","decisionFB","","<div class='trialDiv'><img src='Fruit/lemon.png'><br><font class='baseline'><strong>Lucky Lemons</strong><p>Choose number of points to bet.</font><div class='respPicDiv'><img src='img/responseButtonOffersNo0L5.png' class='respPic'></div></div>","null","14","Lucky Lemons","Fruit/lemon.png","Won","0.35,0.8","10","0.35","253","42","",""
"html-keyboard-response","135","169148","0.0-11.0-3.41","63cff34d33a9948e3b0b28d6","bdp_rwlrn","Mon Mar 13 2023 11:36:25 GMT-0700 (Pacific Daylight Time)","394457","Untrustworthy,Trustworthy","","null","","","","feedback","","<div class='respPicDiv'><img src='img/responseButtonOffersNo0_wht.png' class='respPic'></div><div class='trialDiv'><img src='Fruit/lemon.png'><br><font class='baseline'><strong>Lucky Lemons</strong><p><strong><font class='posOutcome'>You WON</font><p>You bet: 5</strong></font> &nbsp; &nbsp; &nbsp; &nbsp; &nbsp; &nbsp;<font class='posOutcome'>you receive: <strong>10</strong></font></div>","null","14","Lucky Lemons","Fruit/lemon.png","Won","0.35,0.8","10","0.35","263","42","",""
"html-keyboard-response","136","170396","0.0-11.0-1.42","63cff34d33a9948e3b0b28d6","bdp_rwlrn","Mon Mar 13 2023 11:36:25 GMT-0700 (Pacific Daylight Time)","394457","Untrustworthy,Trustworthy","","1247","","","","decision","","<div class='trialDiv'><img src='Fruit/melon.png'><br><font class='baseline'><strong>Melon Millions</strong><p>Choose number of points to bet.</font><div class='respPicDiv'><img src='img/responseButtonOffersNo0L.png' class='respPic'></div></div>","2","15","Melon Millions","Fruit/melon.png","Won","0.2,0.8","8","0.2","268","43","",""
"html-keyboard-response","137","170647","0.0-11.0-2.42","63cff34d33a9948e3b0b28d6","bdp_rwlrn","Mon Mar 13 2023 11:36:25 GMT-0700 (Pacific Daylight Time)","394457","Untrustworthy,Trustworthy","","null","","","","decisionFB","","<div class='trialDiv'><img src='Fruit/melon.png'><br><font class='baseline'><strong>Melon Millions</strong><p>Choose number of points to bet.</font><div class='respPicDiv'><img src='img/responseButtonOffersNo0L2.png' class='respPic'></div></div>","null","15","Melon Millions","Fruit/melon.png","Won","0.2,0.8","8","0.2","266","43","",""
"html-keyboard-response","138","171649","0.0-11.0-3.42","63cff34d33a9948e3b0b28d6","bdp_rwlrn","Mon Mar 13 2023 11:36:25 GMT-0700 (Pacific Daylight Time)","394457","Untrustworthy,Trustworthy","","null","","","","feedback","","<div class='respPicDiv'><img src='img/responseButtonOffersNo0_wht.png' class='respPic'></div><div class='trialDiv'><img src='Fruit/melon.png'><br><font class='baseline'><strong>Melon Millions</strong><p><strong><font class='posOutcome'>You WON</font><p>You bet: 2</strong></font> &nbsp; &nbsp; &nbsp; &nbsp; &nbsp; &nbsp;<font class='posOutcome'>you receive: <strong>4</strong></font></div>","null","15","Melon Millions","Fruit/melon.png","Won","0.2,0.8","8","0.2","270","43","",""
"html-keyboard-response","139","172878","0.0-11.0-1.43","63cff34d33a9948e3b0b28d6","bdp_rwlrn","Mon Mar 13 2023 11:36:25 GMT-0700 (Pacific Daylight Time)","394457","Untrustworthy,Trustworthy","","1228","","","","decision","","<div class='trialDiv'><img src='Fruit/lemon.png'><br><font class='baseline'><strong>Lucky Lemons</strong><p>Choose number of points to bet.</font><div class='respPicDiv'><img src='img/responseButtonOffersNo0L.png' class='respPic'></div></div>","5","15","Lucky Lemons","Fruit/lemon.png","Won","0.35,0.8","10","0.35","275","44","",""
"html-keyboard-response","140","173138","0.0-11.0-2.43","63cff34d33a9948e3b0b28d6","bdp_rwlrn","Mon Mar 13 2023 11:36:25 GMT-0700 (Pacific Daylight Time)","394457","Untrustworthy,Trustworthy","","null","","","","decisionFB","","<div class='trialDiv'><img src='Fruit/lemon.png'><br><font class='baseline'><strong>Lucky Lemons</strong><p>Choose number of points to bet.</font><div class='respPicDiv'><img src='img/responseButtonOffersNo0L5.png' class='respPic'></div></div>","null","15","Lucky Lemons","Fruit/lemon.png","Won","0.35,0.8","10","0.35","270","44","",""
"html-keyboard-response","141","174139","0.0-11.0-3.43","63cff34d33a9948e3b0b28d6","bdp_rwlrn","Mon Mar 13 2023 11:36:25 GMT-0700 (Pacific Daylight Time)","394457","Untrustworthy,Trustworthy","","null","","","","feedback","","<div class='respPicDiv'><img src='img/responseButtonOffersNo0_wht.png' class='respPic'></div><div class='trialDiv'><img src='Fruit/lemon.png'><br><font class='baseline'><strong>Lucky Lemons</strong><p><strong><font class='posOutcome'>You WON</font><p>You bet: 5</strong></font> &nbsp; &nbsp; &nbsp; &nbsp; &nbsp; &nbsp;<font class='posOutcome'>you receive: <strong>10</strong></font></div>","null","15","Lucky Lemons","Fruit/lemon.png","Won","0.35,0.8","10","0.35","280","44","",""
"html-keyboard-response","142","175045","0.0-11.0-1.44","63cff34d33a9948e3b0b28d6","bdp_rwlrn","Mon Mar 13 2023 11:36:25 GMT-0700 (Pacific Daylight Time)","394457","Untrustworthy,Trustworthy","","905","","","","decision","","<div class='trialDiv'><img src='Fruit/grapes.png'><br><font class='baseline'><strong>Great Grapes</strong><p>Choose number of points to bet.</font><div class='respPicDiv'><img src='img/responseButtonOffersNo0L.png' class='respPic'></div></div>","5","15","Great Grapes","Fruit/grapes.png","Won","0.8,0.35","13","0.8","285","45","",""
"html-keyboard-response","143","175296","0.0-11.0-2.44","63cff34d33a9948e3b0b28d6","bdp_rwlrn","Mon Mar 13 2023 11:36:25 GMT-0700 (Pacific Daylight Time)","394457","Untrustworthy,Trustworthy","","null","","","","decisionFB","","<div class='trialDiv'><img src='Fruit/grapes.png'><br><font class='baseline'><strong>Great Grapes</strong><p>Choose number of points to bet.</font><div class='respPicDiv'><img src='img/responseButtonOffersNo0L5.png' class='respPic'></div></div>","null","15","Great Grapes","Fruit/grapes.png","Won","0.8,0.35","13","0.8","280","45","",""
"html-keyboard-response","144","176297","0.0-11.0-3.44","63cff34d33a9948e3b0b28d6","bdp_rwlrn","Mon Mar 13 2023 11:36:25 GMT-0700 (Pacific Daylight Time)","394457","Untrustworthy,Trustworthy","","null","","","","feedback","","<div class='respPicDiv'><img src='img/responseButtonOffersNo0_wht.png' class='respPic'></div><div class='trialDiv'><img src='Fruit/grapes.png'><br><font class='baseline'><strong>Great Grapes</strong><p><strong><font class='posOutcome'>You WON</font><p>You bet: 5</strong></font> &nbsp; &nbsp; &nbsp; &nbsp; &nbsp; &nbsp;<font class='posOutcome'>you receive: <strong>10</strong></font></div>","null","15","Great Grapes","Fruit/grapes.png","Won","0.8,0.35","13","0.8","290","45","",""
"html-keyboard-response","145","178133","0.0-11.0-1.45","63cff34d33a9948e3b0b28d6","bdp_rwlrn","Mon Mar 13 2023 11:36:25 GMT-0700 (Pacific Daylight Time)","394457","Untrustworthy,Trustworthy","","1835","","","","decision","","<div class='trialDiv'><img src='Fruit/lemon.png'><br><font class='baseline'><strong>Lucky Lemons</strong><p>Choose number of points to bet.</font><div class='respPicDiv'><img src='img/responseButtonOffersNo0L.png' class='respPic'></div></div>","5","16","Lucky Lemons","Fruit/lemon.png","Won","0.35,0.8","10","0.35","295","46","",""
"html-keyboard-response","146","178385","0.0-11.0-2.45","63cff34d33a9948e3b0b28d6","bdp_rwlrn","Mon Mar 13 2023 11:36:25 GMT-0700 (Pacific Daylight Time)","394457","Untrustworthy,Trustworthy","","null","","","","decisionFB","","<div class='trialDiv'><img src='Fruit/lemon.png'><br><font class='baseline'><strong>Lucky Lemons</strong><p>Choose number of points to bet.</font><div class='respPicDiv'><img src='img/responseButtonOffersNo0L5.png' class='respPic'></div></div>","null","16","Lucky Lemons","Fruit/lemon.png","Won","0.35,0.8","10","0.35","290","46","",""
"html-keyboard-response","147","179386","0.0-11.0-3.45","63cff34d33a9948e3b0b28d6","bdp_rwlrn","Mon Mar 13 2023 11:36:25 GMT-0700 (Pacific Daylight Time)","394457","Untrustworthy,Trustworthy","","null","","","","feedback","","<div class='respPicDiv'><img src='img/responseButtonOffersNo0_wht.png' class='respPic'></div><div class='trialDiv'><img src='Fruit/lemon.png'><br><font class='baseline'><strong>Lucky Lemons</strong><p><strong><font class='posOutcome'>You WON</font><p>You bet: 5</strong></font> &nbsp; &nbsp; &nbsp; &nbsp; &nbsp; &nbsp;<font class='posOutcome'>you receive: <strong>10</strong></font></div>","null","16","Lucky Lemons","Fruit/lemon.png","Won","0.35,0.8","10","0.35","300","46","",""
"html-keyboard-response","148","180937","0.0-11.0-1.46","63cff34d33a9948e3b0b28d6","bdp_rwlrn","Mon Mar 13 2023 11:36:25 GMT-0700 (Pacific Daylight Time)","394457","Untrustworthy,Trustworthy","","1550","","","","decision","","<div class='trialDiv'><img src='Fruit/melon.png'><br><font class='baseline'><strong>Melon Millions</strong><p>Choose number of points to bet.</font><div class='respPicDiv'><img src='img/responseButtonOffersNo0L.png' class='respPic'></div></div>","3","16","Melon Millions","Fruit/melon.png","Won","0.2,0.8","8","0.2","305","47","",""
"html-keyboard-response","149","181190","0.0-11.0-2.46","63cff34d33a9948e3b0b28d6","bdp_rwlrn","Mon Mar 13 2023 11:36:25 GMT-0700 (Pacific Daylight Time)","394457","Untrustworthy,Trustworthy","","null","","","","decisionFB","","<div class='trialDiv'><img src='Fruit/melon.png'><br><font class='baseline'><strong>Melon Millions</strong><p>Choose number of points to bet.</font><div class='respPicDiv'><img src='img/responseButtonOffersNo0L3.png' class='respPic'></div></div>","null","16","Melon Millions","Fruit/melon.png","Won","0.2,0.8","8","0.2","302","47","",""
"html-keyboard-response","150","182191","0.0-11.0-3.46","63cff34d33a9948e3b0b28d6","bdp_rwlrn","Mon Mar 13 2023 11:36:25 GMT-0700 (Pacific Daylight Time)","394457","Untrustworthy,Trustworthy","","null","","","","feedback","","<div class='respPicDiv'><img src='img/responseButtonOffersNo0_wht.png' class='respPic'></div><div class='trialDiv'><img src='Fruit/melon.png'><br><font class='baseline'><strong>Melon Millions</strong><p><strong><font class='posOutcome'>You WON</font><p>You bet: 3</strong></font> &nbsp; &nbsp; &nbsp; &nbsp; &nbsp; &nbsp;<font class='posOutcome'>you receive: <strong>6</strong></font></div>","null","16","Melon Millions","Fruit/melon.png","Won","0.2,0.8","8","0.2","308","47","",""
"html-keyboard-response","151","184765","0.0-11.0-1.47","63cff34d33a9948e3b0b28d6","bdp_rwlrn","Mon Mar 13 2023 11:36:25 GMT-0700 (Pacific Daylight Time)","394457","Untrustworthy,Trustworthy","","2573","","","","decision","","<div class='trialDiv'><img src='Fruit/grapes.png'><br><font class='baseline'><strong>Great Grapes</strong><p>Choose number of points to bet.</font><div class='respPicDiv'><img src='img/responseButtonOffersNo0L.png' class='respPic'></div></div>","5","16","Great Grapes","Fruit/grapes.png","Lost","0.8,0.35","13","0.8","313","48","",""
"html-keyboard-response","152","185016","0.0-11.0-2.47","63cff34d33a9948e3b0b28d6","bdp_rwlrn","Mon Mar 13 2023 11:36:25 GMT-0700 (Pacific Daylight Time)","394457","Untrustworthy,Trustworthy","","null","","","","decisionFB","","<div class='trialDiv'><img src='Fruit/grapes.png'><br><font class='baseline'><strong>Great Grapes</strong><p>Choose number of points to bet.</font><div class='respPicDiv'><img src='img/responseButtonOffersNo0L5.png' class='respPic'></div></div>","null","16","Great Grapes","Fruit/grapes.png","Lost","0.8,0.35","13","0.8","308","48","",""
"html-keyboard-response","153","186017","0.0-11.0-3.47","63cff34d33a9948e3b0b28d6","bdp_rwlrn","Mon Mar 13 2023 11:36:25 GMT-0700 (Pacific Daylight Time)","394457","Untrustworthy,Trustworthy","","null","","","","feedback","","<div class='respPicDiv'><img src='img/responseButtonOffersNo0_wht.png' class='respPic'></div><div class='trialDiv'><img src='Fruit/grapes.png'><br><font class='baseline'><strong>Great Grapes</strong><p><strong><font class='negOutcome'>You LOST</font><p>You bet: 5</strong></font> &nbsp; &nbsp; &nbsp; &nbsp; &nbsp; &nbsp;<font class='negOutcome'>You receive: <strong>0</strong></font></div>","null","16","Great Grapes","Fruit/grapes.png","Lost","0.8,0.35","13","0.8","308","48","",""
"html-keyboard-response","154","186740","0.0-11.0-1.48","63cff34d33a9948e3b0b28d6","bdp_rwlrn","Mon Mar 13 2023 11:36:25 GMT-0700 (Pacific Daylight Time)","394457","Untrustworthy,Trustworthy","","721","","","","decision","","<div class='trialDiv'><img src='Fruit/lemon.png'><br><font class='baseline'><strong>Lucky Lemons</strong><p>Choose number of points to bet.</font><div class='respPicDiv'><img src='img/responseButtonOffersNo0L.png' class='respPic'></div></div>","5","17","Lucky Lemons","Fruit/lemon.png","Won","0.35,0.8","10","0.35","313","49","",""
"html-keyboard-response","155","186992","0.0-11.0-2.48","63cff34d33a9948e3b0b28d6","bdp_rwlrn","Mon Mar 13 2023 11:36:25 GMT-0700 (Pacific Daylight Time)","394457","Untrustworthy,Trustworthy","","null","","","","decisionFB","","<div class='trialDiv'><img src='Fruit/lemon.png'><br><font class='baseline'><strong>Lucky Lemons</strong><p>Choose number of points to bet.</font><div class='respPicDiv'><img src='img/responseButtonOffersNo0L5.png' class='respPic'></div></div>","null","17","Lucky Lemons","Fruit/lemon.png","Won","0.35,0.8","10","0.35","308","49","",""
"html-keyboard-response","156","187994","0.0-11.0-3.48","63cff34d33a9948e3b0b28d6","bdp_rwlrn","Mon Mar 13 2023 11:36:25 GMT-0700 (Pacific Daylight Time)","394457","Untrustworthy,Trustworthy","","null","","","","feedback","","<div class='respPicDiv'><img src='img/responseButtonOffersNo0_wht.png' class='respPic'></div><div class='trialDiv'><img src='Fruit/lemon.png'><br><font class='baseline'><strong>Lucky Lemons</strong><p><strong><font class='posOutcome'>You WON</font><p>You bet: 5</strong></font> &nbsp; &nbsp; &nbsp; &nbsp; &nbsp; &nbsp;<font class='posOutcome'>you receive: <strong>10</strong></font></div>","null","17","Lucky Lemons","Fruit/lemon.png","Won","0.35,0.8","10","0.35","318","49","",""
"html-keyboard-response","157","188652","0.0-11.0-1.49","63cff34d33a9948e3b0b28d6","bdp_rwlrn","Mon Mar 13 2023 11:36:25 GMT-0700 (Pacific Daylight Time)","394457","Untrustworthy,Trustworthy","","656","","","","decision","","<div class='trialDiv'><img src='Fruit/grapes.png'><br><font class='baseline'><strong>Great Grapes</strong><p>Choose number of points to bet.</font><div class='respPicDiv'><img src='img/responseButtonOffersNo0L.png' class='respPic'></div></div>","5","17","Great Grapes","Fruit/grapes.png","Won","0.8,0.35","13","0.8","323","50","",""
"html-keyboard-response","158","188904","0.0-11.0-2.49","63cff34d33a9948e3b0b28d6","bdp_rwlrn","Mon Mar 13 2023 11:36:25 GMT-0700 (Pacific Daylight Time)","394457","Untrustworthy,Trustworthy","","null","","","","decisionFB","","<div class='trialDiv'><img src='Fruit/grapes.png'><br><font class='baseline'><strong>Great Grapes</strong><p>Choose number of points to bet.</font><div class='respPicDiv'><img src='img/responseButtonOffersNo0L5.png' class='respPic'></div></div>","null","17","Great Grapes","Fruit/grapes.png","Won","0.8,0.35","13","0.8","318","50","",""
"html-keyboard-response","159","189906","0.0-11.0-3.49","63cff34d33a9948e3b0b28d6","bdp_rwlrn","Mon Mar 13 2023 11:36:25 GMT-0700 (Pacific Daylight Time)","394457","Untrustworthy,Trustworthy","","null","","","","feedback","","<div class='respPicDiv'><img src='img/responseButtonOffersNo0_wht.png' class='respPic'></div><div class='trialDiv'><img src='Fruit/grapes.png'><br><font class='baseline'><strong>Great Grapes</strong><p><strong><font class='posOutcome'>You WON</font><p>You bet: 5</strong></font> &nbsp; &nbsp; &nbsp; &nbsp; &nbsp; &nbsp;<font class='posOutcome'>you receive: <strong>10</strong></font></div>","null","17","Great Grapes","Fruit/grapes.png","Won","0.8,0.35","13","0.8","328","50","",""
"html-keyboard-response","160","190791","0.0-11.0-1.50","63cff34d33a9948e3b0b28d6","bdp_rwlrn","Mon Mar 13 2023 11:36:25 GMT-0700 (Pacific Daylight Time)","394457","Untrustworthy,Trustworthy","","883","","","","decision","","<div class='trialDiv'><img src='Fruit/melon.png'><br><font class='baseline'><strong>Melon Millions</strong><p>Choose number of points to bet.</font><div class='respPicDiv'><img src='img/responseButtonOffersNo0L.png' class='respPic'></div></div>","2","17","Melon Millions","Fruit/melon.png","Won","0.2,0.8","8","0.2","333","51","",""
"html-keyboard-response","161","191042","0.0-11.0-2.50","63cff34d33a9948e3b0b28d6","bdp_rwlrn","Mon Mar 13 2023 11:36:25 GMT-0700 (Pacific Daylight Time)","394457","Untrustworthy,Trustworthy","","null","","","","decisionFB","","<div class='trialDiv'><img src='Fruit/melon.png'><br><font class='baseline'><strong>Melon Millions</strong><p>Choose number of points to bet.</font><div class='respPicDiv'><img src='img/responseButtonOffersNo0L2.png' class='respPic'></div></div>","null","17","Melon Millions","Fruit/melon.png","Won","0.2,0.8","8","0.2","331","51","",""
"html-keyboard-response","162","192043","0.0-11.0-3.50","63cff34d33a9948e3b0b28d6","bdp_rwlrn","Mon Mar 13 2023 11:36:25 GMT-0700 (Pacific Daylight Time)","394457","Untrustworthy,Trustworthy","","null","","","","feedback","","<div class='respPicDiv'><img src='img/responseButtonOffersNo0_wht.png' class='respPic'></div><div class='trialDiv'><img src='Fruit/melon.png'><br><font class='baseline'><strong>Melon Millions</strong><p><strong><font class='posOutcome'>You WON</font><p>You bet: 2</strong></font> &nbsp; &nbsp; &nbsp; &nbsp; &nbsp; &nbsp;<font class='posOutcome'>you receive: <strong>4</strong></font></div>","null","17","Melon Millions","Fruit/melon.png","Won","0.2,0.8","8","0.2","335","51","",""
"html-keyboard-response","163","192801","0.0-11.0-1.51","63cff34d33a9948e3b0b28d6","bdp_rwlrn","Mon Mar 13 2023 11:36:25 GMT-0700 (Pacific Daylight Time)","394457","Untrustworthy,Trustworthy","","757","","","","decision","","<div class='trialDiv'><img src='Fruit/grapes.png'><br><font class='baseline'><strong>Great Grapes</strong><p>Choose number of points to bet.</font><div class='respPicDiv'><img src='img/responseButtonOffersNo0L.png' class='respPic'></div></div>","5","18","Great Grapes","Fruit/grapes.png","Won","0.8,0.35","13","0.8","340","52","",""
