"event","trial","time","trialtype","subject_id","task","startTime","totalTime","labels","trial_type","trial_index","time_elapsed","internal_node_id","view_history","rt","success","stimulus","key_press","ltround","name","fileID","outcome","lottotype","lottoswpt","lottocurrpshare","point_total","round","faceID","face"
"focus","0","0","focusevent","5c75dbce7d36140017c53257","bdp_rwlrn","Tue Mar 14 2023 10:46:06 GMT-0700 (Pacific Daylight Time)","446775","Trustworthy,Untrustworthy","","","","","","","","","","","","","","","","","","","",""
"","","","","5c75dbce7d36140017c53257","bdp_rwlrn","Tue Mar 14 2023 10:46:06 GMT-0700 (Pacific Daylight Time)","446775","Trustworthy,Untrustworthy","pavlovia","0","10","0.0-0.0","","","","","","","","","","","","","","","",""
"","","","","5c75dbce7d36140017c53257","bdp_rwlrn","Tue Mar 14 2023 10:46:06 GMT-0700 (Pacific Daylight Time)","446775","Trustworthy,Untrustworthy","instructions","1","4008","0.0-1.0","[{""page_index"":0,""viewing_time"":3998}]","3998","","","","","","","","","","","","","",""
"fullscreenexit","2","8326","fullscreenexit","5c75dbce7d36140017c53257","bdp_rwlrn","Tue Mar 14 2023 10:46:06 GMT-0700 (Pacific Daylight Time)","446775","Trustworthy,Untrustworthy","","","","","","","","","","","","","","","","","","","",""
"","","","","5c75dbce7d36140017c53257","bdp_rwlrn","Tue Mar 14 2023 10:46:06 GMT-0700 (Pacific Daylight Time)","446775","Trustworthy,Untrustworthy","fullscreen","2","8563","0.0-2.0","","","true","","","","","","","","","","","","",""
"","","","fullscreenfail","5c75dbce7d36140017c53257","bdp_rwlrn","Tue Mar 14 2023 10:46:06 GMT-0700 (Pacific Daylight Time)","446775","Trustworthy,Untrustworthy","image-keyboard-response","3","13688","0.0-3.0-0.0","","5123","","","32","","","","","","","","","","",""
"","","","","5c75dbce7d36140017c53257","bdp_rwlrn","Tue Mar 14 2023 10:46:06 GMT-0700 (Pacific Daylight Time)","446775","Trustworthy,Untrustworthy","instructions","4","69990","0.0-4.0","[{""page_index"":0,""viewing_time"":10317},{""page_index"":1,""viewing_time"":13652},{""page_index"":2,""viewing_time"":8131},{""page_index"":3,""viewing_time"":4506},{""page_index"":4,""viewing_time"":14387},{""page_index"":5,""viewing_time"":5056}]","56050","","","","","","","","","","","","","",""
"","","","","5c75dbce7d36140017c53257","bdp_rwlrn","Tue Mar 14 2023 10:46:06 GMT-0700 (Pacific Daylight Time)","446775","Trustworthy,Untrustworthy","html-keyboard-response","5","73012","0.0-5.0","","3020","","<div class='header' style='text-align:left; position: absolute; top: 5%; left: 5%;'><small>Task 1 of 5</small></div><div class='instruxDiv'><p><strong>1) What is the maximum number of points you can choose to bet on a lottery?</strong></p><p>a) 0</p><p>b) 1</p><p>c) 5</p>","C","","","","","","","","","","",""
"","","","","5c75dbce7d36140017c53257","bdp_rwlrn","Tue Mar 14 2023 10:46:06 GMT-0700 (Pacific Daylight Time)","446775","Trustworthy,Untrustworthy","html-keyboard-response","6","74297","0.0-6.0","","1177","","<div class='header' style='text-align:left; position: absolute; top: 5%; left: 5%;'><small>Task 1 of 5</small></div><div class='instruxDiv'><p><strong>1) What is the maximum number of points you can choose to bet on a lottery?</strong></p><p>a) 1</p><p>b) 1</p><p style='color:#00FF00'>c) 5</p><h3 style='color:#00FF00'>Correct!</h3><h3 class='center-content'>The correct response is c).</h3><h3 class='center-content'>The maximum number of points you can choose to bet on a lottery is 5 points.</h3><p><em>Press SPACEBAR to continue</em></p></div>"," ","","","","","","","","","","",""
"","","","","5c75dbce7d36140017c53257","bdp_rwlrn","Tue Mar 14 2023 10:46:06 GMT-0700 (Pacific Daylight Time)","446775","Trustworthy,Untrustworthy","html-keyboard-response","7","77715","0.0-7.0","","3315","","<div class='header' style='text-align:left; position: absolute; top: 5%; left: 5%;'><small>Task 1 of 5</small></div><div class='instruxDiv'><p><strong>2) How many points can you win each round?</strong></p><p>a) 10 points</p><p>b) Double what you bet</p><p>c) Quadruple what you bet</p>","B","","","","","","","","","","",""
"","","","","5c75dbce7d36140017c53257","bdp_rwlrn","Tue Mar 14 2023 10:46:06 GMT-0700 (Pacific Daylight Time)","446775","Trustworthy,Untrustworthy","html-keyboard-response","8","78681","0.0-8.0","","861","","<div class='header' style='text-align:left; position: absolute; top: 5%; left: 5%;'><small>Task 1 of 5</small></div><div class='instruxDiv'><p><strong>2) How many points can you win each round?</strong></p><p>a) 10 points</p><p style='color:#00FF00'>b) Double what you bet</p><p>c) Quadruple what you bet</p><h3 style='color:#00FF00'>Correct!</h3><h3 class='center-content'>The correct response is b).</h3><h3 class='center-content'>You can win double the amount of points you bet.</h3><p><em>Press SPACEBAR to continue</em></p></div>"," ","","","","","","","","","","",""
"","","","","5c75dbce7d36140017c53257","bdp_rwlrn","Tue Mar 14 2023 10:46:06 GMT-0700 (Pacific Daylight Time)","446775","Trustworthy,Untrustworthy","html-keyboard-response","9","83808","0.0-9.0","","null","","<div class='header' style='text-align:left; position: absolute; top: 5%; left: 5%;'><small>Task 1 of 5</small></div><div class='instruxDiv'><p>Thank you for completing the quiz<p>These are the actual lotteries you will be playing in the next block:<p><div class='tc' align='center'><img class='introPic' src='Fruit/grapes.png'><br><strong>Great Grapes</strong></div><div class='bl' align='center'><img class='introPic' src='Fruit/Kiwi.png'><br><strong>Kiwi Kash</strong></div><div class='br' align='center'><img class='introPic' src='Fruit/mango.png'><br><strong>Mega Mangos</strong></div></div><p>Across <strong>66 rounds</strong> you will play each lottery <strong>22 times</strong> (in random order).<p style='align:center; color:white'><font <em>Press SPACEBAR to continue</em></p>","null","","","","","","","","","","",""
"","","","","5c75dbce7d36140017c53257","bdp_rwlrn","Tue Mar 14 2023 10:46:06 GMT-0700 (Pacific Daylight Time)","446775","Trustworthy,Untrustworthy","instructions","10","87279","0.0-10.0","[{""page_index"":0,""viewing_time"":1426},{""page_index"":1,""viewing_time"":2045}]","3471","","","","","","","","","","","","","",""
"","","","decision","5c75dbce7d36140017c53257","bdp_rwlrn","Tue Mar 14 2023 10:46:06 GMT-0700 (Pacific Daylight Time)","446775","Trustworthy,Untrustworthy","html-keyboard-response","11","93581","0.0-11.0-1.0","","6195","","<div class='trialDiv'><img src='Fruit/grapes.png'><br><font class='baseline'><strong>Great Grapes</strong><p>Choose number of points to bet.</font><div class='respPicDiv'><img src='img/responseButtonOffersNo0L.png' class='respPic'></div></div>","3","1","Great Grapes","Fruit/grapes.png","Won","0.8,0.35","10","0.8","5","1","",""
"","","","decisionFB","5c75dbce7d36140017c53257","bdp_rwlrn","Tue Mar 14 2023 10:46:06 GMT-0700 (Pacific Daylight Time)","446775","Trustworthy,Untrustworthy","html-keyboard-response","12","93835","0.0-11.0-2.0","","null","","<div class='trialDiv'><img src='Fruit/grapes.png'><br><font class='baseline'><strong>Great Grapes</strong><p>Choose number of points to bet.</font><div class='respPicDiv'><img src='img/responseButtonOffersNo0L3.png' class='respPic'></div></div>","null","1","Great Grapes","Fruit/grapes.png","Won","0.8,0.35","10","0.8","2","1","",""
"","","","feedback","5c75dbce7d36140017c53257","bdp_rwlrn","Tue Mar 14 2023 10:46:06 GMT-0700 (Pacific Daylight Time)","446775","Trustworthy,Untrustworthy","html-keyboard-response","13","94838","0.0-11.0-3.0","","null","","<div class='respPicDiv'><img src='img/responseButtonOffersNo0_wht.png' class='respPic'></div><div class='trialDiv'><img src='Fruit/grapes.png'><br><font class='baseline'><strong>Great Grapes</strong><p><strong><font class='posOutcome'>You WON</font><p>You bet: 3</strong></font> &nbsp; &nbsp; &nbsp; &nbsp; &nbsp; &nbsp;<font class='posOutcome'>you receive: <strong>6</strong></font></div>","null","1","Great Grapes","Fruit/grapes.png","Won","0.8,0.35","10","0.8","8","1","",""
"","","","decision","5c75dbce7d36140017c53257","bdp_rwlrn","Tue Mar 14 2023 10:46:06 GMT-0700 (Pacific Daylight Time)","446775","Trustworthy,Untrustworthy","html-keyboard-response","14","96173","0.0-11.0-1.1","","1334","","<div class='trialDiv'><img src='Fruit/Kiwi.png'><br><font class='baseline'><strong>Kiwi Kash</strong><p>Choose number of points to bet.</font><div class='respPicDiv'><img src='img/responseButtonOffersNo0L.png' class='respPic'></div></div>","4","1","Kiwi Kash","Fruit/Kiwi.png","Won","0.8,0.2","14","0.8","13","2","",""
"","","","decisionFB","5c75dbce7d36140017c53257","bdp_rwlrn","Tue Mar 14 2023 10:46:06 GMT-0700 (Pacific Daylight Time)","446775","Trustworthy,Untrustworthy","html-keyboard-response","15","96438","0.0-11.0-2.1","","null","","<div class='trialDiv'><img src='Fruit/Kiwi.png'><br><font class='baseline'><strong>Kiwi Kash</strong><p>Choose number of points to bet.</font><div class='respPicDiv'><img src='img/responseButtonOffersNo0L4.png' class='respPic'></div></div>","null","1","Kiwi Kash","Fruit/Kiwi.png","Won","0.8,0.2","14","0.8","9","2","",""
"","","","feedback","5c75dbce7d36140017c53257","bdp_rwlrn","Tue Mar 14 2023 10:46:06 GMT-0700 (Pacific Daylight Time)","446775","Trustworthy,Untrustworthy","html-keyboard-response","16","97443","0.0-11.0-3.1","","null","","<div class='respPicDiv'><img src='img/responseButtonOffersNo0_wht.png' class='respPic'></div><div class='trialDiv'><img src='Fruit/Kiwi.png'><br><font class='baseline'><strong>Kiwi Kash</strong><p><strong><font class='posOutcome'>You WON</font><p>You bet: 4</strong></font> &nbsp; &nbsp; &nbsp; &nbsp; &nbsp; &nbsp;<font class='posOutcome'>you receive: <strong>8</strong></font></div>","null","1","Kiwi Kash","Fruit/Kiwi.png","Won","0.8,0.2","14","0.8","17","2","",""
"","","","decision","5c75dbce7d36140017c53257","bdp_rwlrn","Tue Mar 14 2023 10:46:06 GMT-0700 (Pacific Daylight Time)","446775","Trustworthy,Untrustworthy","html-keyboard-response","17","101799","0.0-11.0-1.2","","4356","","<div class='trialDiv'><img src='Fruit/mango.png'><br><font class='baseline'><strong>Mega Mangos</strong><p>Choose number of points to bet.</font><div class='respPicDiv'><img src='img/responseButtonOffersNo0L.png' class='respPic'></div></div>","3","1","Mega Mangos","Fruit/mango.png","Lost","0.2,0.65","10","0.2","22","3","",""
"","","","decisionFB","5c75dbce7d36140017c53257","bdp_rwlrn","Tue Mar 14 2023 10:46:06 GMT-0700 (Pacific Daylight Time)","446775","Trustworthy,Untrustworthy","html-keyboard-response","18","102050","0.0-11.0-2.2","","null","","<div class='trialDiv'><img src='Fruit/mango.png'><br><font class='baseline'><strong>Mega Mangos</strong><p>Choose number of points to bet.</font><div class='respPicDiv'><img src='img/responseButtonOffersNo0L3.png' class='respPic'></div></div>","null","1","Mega Mangos","Fruit/mango.png","Lost","0.2,0.65","10","0.2","19","3","",""
"","","","feedback","5c75dbce7d36140017c53257","bdp_rwlrn","Tue Mar 14 2023 10:46:06 GMT-0700 (Pacific Daylight Time)","446775","Trustworthy,Untrustworthy","html-keyboard-response","19","103058","0.0-11.0-3.2","","null","","<div class='respPicDiv'><img src='img/responseButtonOffersNo0_wht.png' class='respPic'></div><div class='trialDiv'><img src='Fruit/mango.png'><br><font class='baseline'><strong>Mega Mangos</strong><p><strong><font class='negOutcome'>You LOST</font><p>You bet: 3</strong></font> &nbsp; &nbsp; &nbsp; &nbsp; &nbsp; &nbsp;<font class='negOutcome'>You receive: <strong>0</strong></font></div>","null","1","Mega Mangos","Fruit/mango.png","Lost","0.2,0.65","10","0.2","19","3","",""
"","","","decision","5c75dbce7d36140017c53257","bdp_rwlrn","Tue Mar 14 2023 10:46:06 GMT-0700 (Pacific Daylight Time)","446775","Trustworthy,Untrustworthy","html-keyboard-response","20","105330","0.0-11.0-1.3","","2271","","<div class='trialDiv'><img src='Fruit/grapes.png'><br><font class='baseline'><strong>Great Grapes</strong><p>Choose number of points to bet.</font><div class='respPicDiv'><img src='img/responseButtonOffersNo0L.png' class='respPic'></div></div>","5","2","Great Grapes","Fruit/grapes.png","Won","0.8,0.35","10","0.8","24","4","",""
"","","","decisionFB","5c75dbce7d36140017c53257","bdp_rwlrn","Tue Mar 14 2023 10:46:06 GMT-0700 (Pacific Daylight Time)","446775","Trustworthy,Untrustworthy","html-keyboard-response","21","105585","0.0-11.0-2.3","","null","","<div class='trialDiv'><img src='Fruit/grapes.png'><br><font class='baseline'><strong>Great Grapes</strong><p>Choose number of points to bet.</font><div class='respPicDiv'><img src='img/responseButtonOffersNo0L5.png' class='respPic'></div></div>","null","2","Great Grapes","Fruit/grapes.png","Won","0.8,0.35","10","0.8","19","4","",""
"","","","feedback","5c75dbce7d36140017c53257","bdp_rwlrn","Tue Mar 14 2023 10:46:06 GMT-0700 (Pacific Daylight Time)","446775","Trustworthy,Untrustworthy","html-keyboard-response","22","106588","0.0-11.0-3.3","","null","","<div class='respPicDiv'><img src='img/responseButtonOffersNo0_wht.png' class='respPic'></div><div class='trialDiv'><img src='Fruit/grapes.png'><br><font class='baseline'><strong>Great Grapes</strong><p><strong><font class='posOutcome'>You WON</font><p>You bet: 5</strong></font> &nbsp; &nbsp; &nbsp; &nbsp; &nbsp; &nbsp;<font class='posOutcome'>you receive: <strong>10</strong></font></div>","null","2","Great Grapes","Fruit/grapes.png","Won","0.8,0.35","10","0.8","29","4","",""
"","","","decision","5c75dbce7d36140017c53257","bdp_rwlrn","Tue Mar 14 2023 10:46:06 GMT-0700 (Pacific Daylight Time)","446775","Trustworthy,Untrustworthy","html-keyboard-response","23","107302","0.0-11.0-1.4","","714","","<div class='trialDiv'><img src='Fruit/Kiwi.png'><br><font class='baseline'><strong>Kiwi Kash</strong><p>Choose number of points to bet.</font><div class='respPicDiv'><img src='img/responseButtonOffersNo0L.png' class='respPic'></div></div>","5","2","Kiwi Kash","Fruit/Kiwi.png","Won","0.8,0.2","14","0.8","34","5","",""
"","","","decisionFB","5c75dbce7d36140017c53257","bdp_rwlrn","Tue Mar 14 2023 10:46:06 GMT-0700 (Pacific Daylight Time)","446775","Trustworthy,Untrustworthy","html-keyboard-response","24","107561","0.0-11.0-2.4","","null","","<div class='trialDiv'><img src='Fruit/Kiwi.png'><br><font class='baseline'><strong>Kiwi Kash</strong><p>Choose number of points to bet.</font><div class='respPicDiv'><img src='img/responseButtonOffersNo0L5.png' class='respPic'></div></div>","null","2","Kiwi Kash","Fruit/Kiwi.png","Won","0.8,0.2","14","0.8","29","5","",""
"","","","feedback","5c75dbce7d36140017c53257","bdp_rwlrn","Tue Mar 14 2023 10:46:06 GMT-0700 (Pacific Daylight Time)","446775","Trustworthy,Untrustworthy","html-keyboard-response","25","108565","0.0-11.0-3.4","","null","","<div class='respPicDiv'><img src='img/responseButtonOffersNo0_wht.png' class='respPic'></div><div class='trialDiv'><img src='Fruit/Kiwi.png'><br><font class='baseline'><strong>Kiwi Kash</strong><p><strong><font class='posOutcome'>You WON</font><p>You bet: 5</strong></font> &nbsp; &nbsp; &nbsp; &nbsp; &nbsp; &nbsp;<font class='posOutcome'>you receive: <strong>10</strong></font></div>","null","2","Kiwi Kash","Fruit/Kiwi.png","Won","0.8,0.2","14","0.8","39","5","",""
"","","","decision","5c75dbce7d36140017c53257","bdp_rwlrn","Tue Mar 14 2023 10:46:06 GMT-0700 (Pacific Daylight Time)","446775","Trustworthy,Untrustworthy","html-keyboard-response","26","110265","0.0-11.0-1.5","","1700","","<div class='trialDiv'><img src='Fruit/mango.png'><br><font class='baseline'><strong>Mega Mangos</strong><p>Choose number of points to bet.</font><div class='respPicDiv'><img src='img/responseButtonOffersNo0L.png' class='respPic'></div></div>","1","2","Mega Mangos","Fruit/mango.png","Lost","0.2,0.65","10","0.2","44","6","",""
"","","","decisionFB","5c75dbce7d36140017c53257","bdp_rwlrn","Tue Mar 14 2023 10:46:06 GMT-0700 (Pacific Daylight Time)","446775","Trustworthy,Untrustworthy","html-keyboard-response","27","110526","0.0-11.0-2.5","","null","","<div class='trialDiv'><img src='Fruit/mango.png'><br><font class='baseline'><strong>Mega Mangos</strong><p>Choose number of points to bet.</font><div class='respPicDiv'><img src='img/responseButtonOffersNo0L1.png' class='respPic'></div></div>","null","2","Mega Mangos","Fruit/mango.png","Lost","0.2,0.65","10","0.2","43","6","",""
"","","","feedback","5c75dbce7d36140017c53257","bdp_rwlrn","Tue Mar 14 2023 10:46:06 GMT-0700 (Pacific Daylight Time)","446775","Trustworthy,Untrustworthy","html-keyboard-response","28","111530","0.0-11.0-3.5","","null","","<div class='respPicDiv'><img src='img/responseButtonOffersNo0_wht.png' class='respPic'></div><div class='trialDiv'><img src='Fruit/mango.png'><br><font class='baseline'><strong>Mega Mangos</strong><p><strong><font class='negOutcome'>You LOST</font><p>You bet: 1</strong></font> &nbsp; &nbsp; &nbsp; &nbsp; &nbsp; &nbsp;<font class='negOutcome'>You receive: <strong>0</strong></font></div>","null","2","Mega Mangos","Fruit/mango.png","Lost","0.2,0.65","10","0.2","43","6","",""
"","","","decision","5c75dbce7d36140017c53257","bdp_rwlrn","Tue Mar 14 2023 10:46:06 GMT-0700 (Pacific Daylight Time)","446775","Trustworthy,Untrustworthy","html-keyboard-response","29","115308","0.0-11.0-1.6","","3777","","<div class='trialDiv'><img src='Fruit/Kiwi.png'><br><font class='baseline'><strong>Kiwi Kash</strong><p>Choose number of points to bet.</font><div class='respPicDiv'><img src='img/responseButtonOffersNo0L.png' class='respPic'></div></div>","5","3","Kiwi Kash","Fruit/Kiwi.png","Lost","0.8,0.2","14","0.8","48","7","",""
"","","","decisionFB","5c75dbce7d36140017c53257","bdp_rwlrn","Tue Mar 14 2023 10:46:06 GMT-0700 (Pacific Daylight Time)","446775","Trustworthy,Untrustworthy","html-keyboard-response","30","115561","0.0-11.0-2.6","","null","","<div class='trialDiv'><img src='Fruit/Kiwi.png'><br><font class='baseline'><strong>Kiwi Kash</strong><p>Choose number of points to bet.</font><div class='respPicDiv'><img src='img/responseButtonOffersNo0L5.png' class='respPic'></div></div>","null","3","Kiwi Kash","Fruit/Kiwi.png","Lost","0.8,0.2","14","0.8","43","7","",""
"","","","feedback","5c75dbce7d36140017c53257","bdp_rwlrn","Tue Mar 14 2023 10:46:06 GMT-0700 (Pacific Daylight Time)","446775","Trustworthy,Untrustworthy","html-keyboard-response","31","116565","0.0-11.0-3.6","","null","","<div class='respPicDiv'><img src='img/responseButtonOffersNo0_wht.png' class='respPic'></div><div class='trialDiv'><img src='Fruit/Kiwi.png'><br><font class='baseline'><strong>Kiwi Kash</strong><p><strong><font class='negOutcome'>You LOST</font><p>You bet: 5</strong></font> &nbsp; &nbsp; &nbsp; &nbsp; &nbsp; &nbsp;<font class='negOutcome'>You receive: <strong>0</strong></font></div>","null","3","Kiwi Kash","Fruit/Kiwi.png","Lost","0.8,0.2","14","0.8","43","7","",""
"","","","decision","5c75dbce7d36140017c53257","bdp_rwlrn","Tue Mar 14 2023 10:46:06 GMT-0700 (Pacific Daylight Time)","446775","Trustworthy,Untrustworthy","html-keyboard-response","32","117906","0.0-11.0-1.7","","1340","","<div class='trialDiv'><img src='Fruit/mango.png'><br><font class='baseline'><strong>Mega Mangos</strong><p>Choose number of points to bet.</font><div class='respPicDiv'><img src='img/responseButtonOffersNo0L.png' class='respPic'></div></div>","1","3","Mega Mangos","Fruit/mango.png","Won","0.2,0.65","10","0.2","48","8","",""
"","","","decisionFB","5c75dbce7d36140017c53257","bdp_rwlrn","Tue Mar 14 2023 10:46:06 GMT-0700 (Pacific Daylight Time)","446775","Trustworthy,Untrustworthy","html-keyboard-response","33","118164","0.0-11.0-2.7","","null","","<div class='trialDiv'><img src='Fruit/mango.png'><br><font class='baseline'><strong>Mega Mangos</strong><p>Choose number of points to bet.</font><div class='respPicDiv'><img src='img/responseButtonOffersNo0L1.png' class='respPic'></div></div>","null","3","Mega Mangos","Fruit/mango.png","Won","0.2,0.65","10","0.2","47","8","",""
"","","","feedback","5c75dbce7d36140017c53257","bdp_rwlrn","Tue Mar 14 2023 10:46:06 GMT-0700 (Pacific Daylight Time)","446775","Trustworthy,Untrustworthy","html-keyboard-response","34","119173","0.0-11.0-3.7","","null","","<div class='respPicDiv'><img src='img/responseButtonOffersNo0_wht.png' class='respPic'></div><div class='trialDiv'><img src='Fruit/mango.png'><br><font class='baseline'><strong>Mega Mangos</strong><p><strong><font class='posOutcome'>You WON</font><p>You bet: 1</strong></font> &nbsp; &nbsp; &nbsp; &nbsp; &nbsp; &nbsp;<font class='posOutcome'>you receive: <strong>2</strong></font></div>","null","3","Mega Mangos","Fruit/mango.png","Won","0.2,0.65","10","0.2","49","8","",""
"","","","decision","5c75dbce7d36140017c53257","bdp_rwlrn","Tue Mar 14 2023 10:46:06 GMT-0700 (Pacific Daylight Time)","446775","Trustworthy,Untrustworthy","html-keyboard-response","35","121014","0.0-11.0-1.8","","1840","","<div class='trialDiv'><img src='Fruit/grapes.png'><br><font class='baseline'><strong>Great Grapes</strong><p>Choose number of points to bet.</font><div class='respPicDiv'><img src='img/responseButtonOffersNo0L.png' class='respPic'></div></div>","4","3","Great Grapes","Fruit/grapes.png","Lost","0.8,0.35","10","0.8","54","9","",""
"","","","decisionFB","5c75dbce7d36140017c53257","bdp_rwlrn","Tue Mar 14 2023 10:46:06 GMT-0700 (Pacific Daylight Time)","446775","Trustworthy,Untrustworthy","html-keyboard-response","36","121274","0.0-11.0-2.8","","null","","<div class='trialDiv'><img src='Fruit/grapes.png'><br><font class='baseline'><strong>Great Grapes</strong><p>Choose number of points to bet.</font><div class='respPicDiv'><img src='img/responseButtonOffersNo0L4.png' class='respPic'></div></div>","null","3","Great Grapes","Fruit/grapes.png","Lost","0.8,0.35","10","0.8","50","9","",""
"","","","feedback","5c75dbce7d36140017c53257","bdp_rwlrn","Tue Mar 14 2023 10:46:06 GMT-0700 (Pacific Daylight Time)","446775","Trustworthy,Untrustworthy","html-keyboard-response","37","122279","0.0-11.0-3.8","","null","","<div class='respPicDiv'><img src='img/responseButtonOffersNo0_wht.png' class='respPic'></div><div class='trialDiv'><img src='Fruit/grapes.png'><br><font class='baseline'><strong>Great Grapes</strong><p><strong><font class='negOutcome'>You LOST</font><p>You bet: 4</strong></font> &nbsp; &nbsp; &nbsp; &nbsp; &nbsp; &nbsp;<font class='negOutcome'>You receive: <strong>0</strong></font></div>","null","3","Great Grapes","Fruit/grapes.png","Lost","0.8,0.35","10","0.8","50","9","",""
"","","","decision","5c75dbce7d36140017c53257","bdp_rwlrn","Tue Mar 14 2023 10:46:06 GMT-0700 (Pacific Daylight Time)","446775","Trustworthy,Untrustworthy","html-keyboard-response","38","124445","0.0-11.0-1.9","","2166","","<div class='trialDiv'><img src='Fruit/Kiwi.png'><br><font class='baseline'><strong>Kiwi Kash</strong><p>Choose number of points to bet.</font><div class='respPicDiv'><img src='img/responseButtonOffersNo0L.png' class='respPic'></div></div>","5","4","Kiwi Kash","Fruit/Kiwi.png","Won","0.8,0.2","14","0.8","55","10","",""
"","","","decisionFB","5c75dbce7d36140017c53257","bdp_rwlrn","Tue Mar 14 2023 10:46:06 GMT-0700 (Pacific Daylight Time)","446775","Trustworthy,Untrustworthy","html-keyboard-response","39","124696","0.0-11.0-2.9","","null","","<div class='trialDiv'><img src='Fruit/Kiwi.png'><br><font class='baseline'><strong>Kiwi Kash</strong><p>Choose number of points to bet.</font><div class='respPicDiv'><img src='img/responseButtonOffersNo0L5.png' class='respPic'></div></div>","null","4","Kiwi Kash","Fruit/Kiwi.png","Won","0.8,0.2","14","0.8","50","10","",""
"","","","feedback","5c75dbce7d36140017c53257","bdp_rwlrn","Tue Mar 14 2023 10:46:06 GMT-0700 (Pacific Daylight Time)","446775","Trustworthy,Untrustworthy","html-keyboard-response","40","125701","0.0-11.0-3.9","","null","","<div class='respPicDiv'><img src='img/responseButtonOffersNo0_wht.png' class='respPic'></div><div class='trialDiv'><img src='Fruit/Kiwi.png'><br><font class='baseline'><strong>Kiwi Kash</strong><p><strong><font class='posOutcome'>You WON</font><p>You bet: 5</strong></font> &nbsp; &nbsp; &nbsp; &nbsp; &nbsp; &nbsp;<font class='posOutcome'>you receive: <strong>10</strong></font></div>","null","4","Kiwi Kash","Fruit/Kiwi.png","Won","0.8,0.2","14","0.8","60","10","",""
"","","","decision","5c75dbce7d36140017c53257","bdp_rwlrn","Tue Mar 14 2023 10:46:06 GMT-0700 (Pacific Daylight Time)","446775","Trustworthy,Untrustworthy","html-keyboard-response","41","127012","0.0-11.0-1.10","","1310","","<div class='trialDiv'><img src='Fruit/mango.png'><br><font class='baseline'><strong>Mega Mangos</strong><p>Choose number of points to bet.</font><div class='respPicDiv'><img src='img/responseButtonOffersNo0L.png' class='respPic'></div></div>","2","4","Mega Mangos","Fruit/mango.png","Lost","0.2,0.65","10","0.2","65","11","",""
"","","","decisionFB","5c75dbce7d36140017c53257","bdp_rwlrn","Tue Mar 14 2023 10:46:06 GMT-0700 (Pacific Daylight Time)","446775","Trustworthy,Untrustworthy","html-keyboard-response","42","127262","0.0-11.0-2.10","","null","","<div class='trialDiv'><img src='Fruit/mango.png'><br><font class='baseline'><strong>Mega Mangos</strong><p>Choose number of points to bet.</font><div class='respPicDiv'><img src='img/responseButtonOffersNo0L2.png' class='respPic'></div></div>","null","4","Mega Mangos","Fruit/mango.png","Lost","0.2,0.65","10","0.2","63","11","",""
"","","","feedback","5c75dbce7d36140017c53257","bdp_rwlrn","Tue Mar 14 2023 10:46:06 GMT-0700 (Pacific Daylight Time)","446775","Trustworthy,Untrustworthy","html-keyboard-response","43","128267","0.0-11.0-3.10","","null","","<div class='respPicDiv'><img src='img/responseButtonOffersNo0_wht.png' class='respPic'></div><div class='trialDiv'><img src='Fruit/mango.png'><br><font class='baseline'><strong>Mega Mangos</strong><p><strong><font class='negOutcome'>You LOST</font><p>You bet: 2</strong></font> &nbsp; &nbsp; &nbsp; &nbsp; &nbsp; &nbsp;<font class='negOutcome'>You receive: <strong>0</strong></font></div>","null","4","Mega Mangos","Fruit/mango.png","Lost","0.2,0.65","10","0.2","63","11","",""
"","","","decision","5c75dbce7d36140017c53257","bdp_rwlrn","Tue Mar 14 2023 10:46:06 GMT-0700 (Pacific Daylight Time)","446775","Trustworthy,Untrustworthy","html-keyboard-response","44","129982","0.0-11.0-1.11","","1714","","<div class='trialDiv'><img src='Fruit/grapes.png'><br><font class='baseline'><strong>Great Grapes</strong><p>Choose number of points to bet.</font><div class='respPicDiv'><img src='img/responseButtonOffersNo0L.png' class='respPic'></div></div>","5","4","Great Grapes","Fruit/grapes.png","Won","0.8,0.35","10","0.8","68","12","",""
"","","","decisionFB","5c75dbce7d36140017c53257","bdp_rwlrn","Tue Mar 14 2023 10:46:06 GMT-0700 (Pacific Daylight Time)","446775","Trustworthy,Untrustworthy","html-keyboard-response","45","130235","0.0-11.0-2.11","","null","","<div class='trialDiv'><img src='Fruit/grapes.png'><br><font class='baseline'><strong>Great Grapes</strong><p>Choose number of points to bet.</font><div class='respPicDiv'><img src='img/responseButtonOffersNo0L5.png' class='respPic'></div></div>","null","4","Great Grapes","Fruit/grapes.png","Won","0.8,0.35","10","0.8","63","12","",""
"","","","feedback","5c75dbce7d36140017c53257","bdp_rwlrn","Tue Mar 14 2023 10:46:06 GMT-0700 (Pacific Daylight Time)","446775","Trustworthy,Untrustworthy","html-keyboard-response","46","131241","0.0-11.0-3.11","","null","","<div class='respPicDiv'><img src='img/responseButtonOffersNo0_wht.png' class='respPic'></div><div class='trialDiv'><img src='Fruit/grapes.png'><br><font class='baseline'><strong>Great Grapes</strong><p><strong><font class='posOutcome'>You WON</font><p>You bet: 5</strong></font> &nbsp; &nbsp; &nbsp; &nbsp; &nbsp; &nbsp;<font class='posOutcome'>you receive: <strong>10</strong></font></div>","null","4","Great Grapes","Fruit/grapes.png","Won","0.8,0.35","10","0.8","73","12","",""
"","","","decision","5c75dbce7d36140017c53257","bdp_rwlrn","Tue Mar 14 2023 10:46:06 GMT-0700 (Pacific Daylight Time)","446775","Trustworthy,Untrustworthy","html-keyboard-response","47","132298","0.0-11.0-1.12","","1057","","<div class='trialDiv'><img src='Fruit/mango.png'><br><font class='baseline'><strong>Mega Mangos</strong><p>Choose number of points to bet.</font><div class='respPicDiv'><img src='img/responseButtonOffersNo0L.png' class='respPic'></div></div>","2","5","Mega Mangos","Fruit/mango.png","Lost","0.2,0.65","10","0.2","78","13","",""
"","","","decisionFB","5c75dbce7d36140017c53257","bdp_rwlrn","Tue Mar 14 2023 10:46:06 GMT-0700 (Pacific Daylight Time)","446775","Trustworthy,Untrustworthy","html-keyboard-response","48","132553","0.0-11.0-2.12","","null","","<div class='trialDiv'><img src='Fruit/mango.png'><br><font class='baseline'><strong>Mega Mangos</strong><p>Choose number of points to bet.</font><div class='respPicDiv'><img src='img/responseButtonOffersNo0L2.png' class='respPic'></div></div>","null","5","Mega Mangos","Fruit/mango.png","Lost","0.2,0.65","10","0.2","76","13","",""
"","","","feedback","5c75dbce7d36140017c53257","bdp_rwlrn","Tue Mar 14 2023 10:46:06 GMT-0700 (Pacific Daylight Time)","446775","Trustworthy,Untrustworthy","html-keyboard-response","49","133558","0.0-11.0-3.12","","null","","<div class='respPicDiv'><img src='img/responseButtonOffersNo0_wht.png' class='respPic'></div><div class='trialDiv'><img src='Fruit/mango.png'><br><font class='baseline'><strong>Mega Mangos</strong><p><strong><font class='negOutcome'>You LOST</font><p>You bet: 2</strong></font> &nbsp; &nbsp; &nbsp; &nbsp; &nbsp; &nbsp;<font class='negOutcome'>You receive: <strong>0</strong></font></div>","null","5","Mega Mangos","Fruit/mango.png","Lost","0.2,0.65","10","0.2","76","13","",""
"","","","decision","5c75dbce7d36140017c53257","bdp_rwlrn","Tue Mar 14 2023 10:46:06 GMT-0700 (Pacific Daylight Time)","446775","Trustworthy,Untrustworthy","html-keyboard-response","50","134320","0.0-11.0-1.13","","762","","<div class='trialDiv'><img src='Fruit/grapes.png'><br><font class='baseline'><strong>Great Grapes</strong><p>Choose number of points to bet.</font><div class='respPicDiv'><img src='img/responseButtonOffersNo0L.png' class='respPic'></div></div>","5","5","Great Grapes","Fruit/grapes.png","Won","0.8,0.35","10","0.8","81","14","",""
"","","","decisionFB","5c75dbce7d36140017c53257","bdp_rwlrn","Tue Mar 14 2023 10:46:06 GMT-0700 (Pacific Daylight Time)","446775","Trustworthy,Untrustworthy","html-keyboard-response","51","134575","0.0-11.0-2.13","","null","","<div class='trialDiv'><img src='Fruit/grapes.png'><br><font class='baseline'><strong>Great Grapes</strong><p>Choose number of points to bet.</font><div class='respPicDiv'><img src='img/responseButtonOffersNo0L5.png' class='respPic'></div></div>","null","5","Great Grapes","Fruit/grapes.png","Won","0.8,0.35","10","0.8","76","14","",""
"","","","feedback","5c75dbce7d36140017c53257","bdp_rwlrn","Tue Mar 14 2023 10:46:06 GMT-0700 (Pacific Daylight Time)","446775","Trustworthy,Untrustworthy","html-keyboard-response","52","135583","0.0-11.0-3.13","","null","","<div class='respPicDiv'><img src='img/responseButtonOffersNo0_wht.png' class='respPic'></div><div class='trialDiv'><img src='Fruit/grapes.png'><br><font class='baseline'><strong>Great Grapes</strong><p><strong><font class='posOutcome'>You WON</font><p>You bet: 5</strong></font> &nbsp; &nbsp; &nbsp; &nbsp; &nbsp; &nbsp;<font class='posOutcome'>you receive: <strong>10</strong></font></div>","null","5","Great Grapes","Fruit/grapes.png","Won","0.8,0.35","10","0.8","86","14","",""
"","","","decision","5c75dbce7d36140017c53257","bdp_rwlrn","Tue Mar 14 2023 10:46:06 GMT-0700 (Pacific Daylight Time)","446775","Trustworthy,Untrustworthy","html-keyboard-response","53","136411","0.0-11.0-1.14","","827","","<div class='trialDiv'><img src='Fruit/Kiwi.png'><br><font class='baseline'><strong>Kiwi Kash</strong><p>Choose number of points to bet.</font><div class='respPicDiv'><img src='img/responseButtonOffersNo0L.png' class='respPic'></div></div>","5","5","Kiwi Kash","Fruit/Kiwi.png","Won","0.8,0.2","14","0.8","91","15","",""
"","","","decisionFB","5c75dbce7d36140017c53257","bdp_rwlrn","Tue Mar 14 2023 10:46:06 GMT-0700 (Pacific Daylight Time)","446775","Trustworthy,Untrustworthy","html-keyboard-response","54","136671","0.0-11.0-2.14","","null","","<div class='trialDiv'><img src='Fruit/Kiwi.png'><br><font class='baseline'><strong>Kiwi Kash</strong><p>Choose number of points to bet.</font><div class='respPicDiv'><img src='img/responseButtonOffersNo0L5.png' class='respPic'></div></div>","null","5","Kiwi Kash","Fruit/Kiwi.png","Won","0.8,0.2","14","0.8","86","15","",""
"","","","feedback","5c75dbce7d36140017c53257","bdp_rwlrn","Tue Mar 14 2023 10:46:06 GMT-0700 (Pacific Daylight Time)","446775","Trustworthy,Untrustworthy","html-keyboard-response","55","137684","0.0-11.0-3.14","","null","","<div class='respPicDiv'><img src='img/responseButtonOffersNo0_wht.png' class='respPic'></div><div class='trialDiv'><img src='Fruit/Kiwi.png'><br><font class='baseline'><strong>Kiwi Kash</strong><p><strong><font class='posOutcome'>You WON</font><p>You bet: 5</strong></font> &nbsp; &nbsp; &nbsp; &nbsp; &nbsp; &nbsp;<font class='posOutcome'>you receive: <strong>10</strong></font></div>","null","5","Kiwi Kash","Fruit/Kiwi.png","Won","0.8,0.2","14","0.8","96","15","",""
"","","","decision","5c75dbce7d36140017c53257","bdp_rwlrn","Tue Mar 14 2023 10:46:06 GMT-0700 (Pacific Daylight Time)","446775","Trustworthy,Untrustworthy","html-keyboard-response","56","138527","0.0-11.0-1.15","","843","","<div class='trialDiv'><img src='Fruit/mango.png'><br><font class='baseline'><strong>Mega Mangos</strong><p>Choose number of points to bet.</font><div class='respPicDiv'><img src='img/responseButtonOffersNo0L.png' class='respPic'></div></div>","1","6","Mega Mangos","Fruit/mango.png","Lost","0.2,0.65","10","0.2","101","16","",""
"","","","decisionFB","5c75dbce7d36140017c53257","bdp_rwlrn","Tue Mar 14 2023 10:46:06 GMT-0700 (Pacific Daylight Time)","446775","Trustworthy,Untrustworthy","html-keyboard-response","57","138784","0.0-11.0-2.15","","null","","<div class='trialDiv'><img src='Fruit/mango.png'><br><font class='baseline'><strong>Mega Mangos</strong><p>Choose number of points to bet.</font><div class='respPicDiv'><img src='img/responseButtonOffersNo0L1.png' class='respPic'></div></div>","null","6","Mega Mangos","Fruit/mango.png","Lost","0.2,0.65","10","0.2","100","16","",""
"","","","feedback","5c75dbce7d36140017c53257","bdp_rwlrn","Tue Mar 14 2023 10:46:06 GMT-0700 (Pacific Daylight Time)","446775","Trustworthy,Untrustworthy","html-keyboard-response","58","139792","0.0-11.0-3.15","","null","","<div class='respPicDiv'><img src='img/responseButtonOffersNo0_wht.png' class='respPic'></div><div class='trialDiv'><img src='Fruit/mango.png'><br><font class='baseline'><strong>Mega Mangos</strong><p><strong><font class='negOutcome'>You LOST</font><p>You bet: 1</strong></font> &nbsp; &nbsp; &nbsp; &nbsp; &nbsp; &nbsp;<font class='negOutcome'>You receive: <strong>0</strong></font></div>","null","6","Mega Mangos","Fruit/mango.png","Lost","0.2,0.65","10","0.2","100","16","",""
"","","","decision","5c75dbce7d36140017c53257","bdp_rwlrn","Tue Mar 14 2023 10:46:06 GMT-0700 (Pacific Daylight Time)","446775","Trustworthy,Untrustworthy","html-keyboard-response","59","140874","0.0-11.0-1.16","","1082","","<div class='trialDiv'><img src='Fruit/Kiwi.png'><br><font class='baseline'><strong>Kiwi Kash</strong><p>Choose number of points to bet.</font><div class='respPicDiv'><img src='img/responseButtonOffersNo0L.png' class='respPic'></div></div>","5","6","Kiwi Kash","Fruit/Kiwi.png","Won","0.8,0.2","14","0.8","105","17","",""
"","","","decisionFB","5c75dbce7d36140017c53257","bdp_rwlrn","Tue Mar 14 2023 10:46:06 GMT-0700 (Pacific Daylight Time)","446775","Trustworthy,Untrustworthy","html-keyboard-response","60","141124","0.0-11.0-2.16","","null","","<div class='trialDiv'><img src='Fruit/Kiwi.png'><br><font class='baseline'><strong>Kiwi Kash</strong><p>Choose number of points to bet.</font><div class='respPicDiv'><img src='img/responseButtonOffersNo0L5.png' class='respPic'></div></div>","null","6","Kiwi Kash","Fruit/Kiwi.png","Won","0.8,0.2","14","0.8","100","17","",""
"","","","feedback","5c75dbce7d36140017c53257","bdp_rwlrn","Tue Mar 14 2023 10:46:06 GMT-0700 (Pacific Daylight Time)","446775","Trustworthy,Untrustworthy","html-keyboard-response","61","142136","0.0-11.0-3.16","","null","","<div class='respPicDiv'><img src='img/responseButtonOffersNo0_wht.png' class='respPic'></div><div class='trialDiv'><img src='Fruit/Kiwi.png'><br><font class='baseline'><strong>Kiwi Kash</strong><p><strong><font class='posOutcome'>You WON</font><p>You bet: 5</strong></font> &nbsp; &nbsp; &nbsp; &nbsp; &nbsp; &nbsp;<font class='posOutcome'>you receive: <strong>10</strong></font></div>","null","6","Kiwi Kash","Fruit/Kiwi.png","Won","0.8,0.2","14","0.8","110","17","",""
"","","","decision","5c75dbce7d36140017c53257","bdp_rwlrn","Tue Mar 14 2023 10:46:06 GMT-0700 (Pacific Daylight Time)","446775","Trustworthy,Untrustworthy","html-keyboard-response","62","142719","0.0-11.0-1.17","","581","","<div class='trialDiv'><img src='Fruit/grapes.png'><br><font class='baseline'><strong>Great Grapes</strong><p>Choose number of points to bet.</font><div class='respPicDiv'><img src='img/responseButtonOffersNo0L.png' class='respPic'></div></div>","1","6","Great Grapes","Fruit/grapes.png","Won","0.8,0.35","10","0.8","115","18","",""
"","","","decisionFB","5c75dbce7d36140017c53257","bdp_rwlrn","Tue Mar 14 2023 10:46:06 GMT-0700 (Pacific Daylight Time)","446775","Trustworthy,Untrustworthy","html-keyboard-response","63","142982","0.0-11.0-2.17","","null","","<div class='trialDiv'><img src='Fruit/grapes.png'><br><font class='baseline'><strong>Great Grapes</strong><p>Choose number of points to bet.</font><div class='respPicDiv'><img src='img/responseButtonOffersNo0L1.png' class='respPic'></div></div>","null","6","Great Grapes","Fruit/grapes.png","Won","0.8,0.35","10","0.8","114","18","",""
"","","","feedback","5c75dbce7d36140017c53257","bdp_rwlrn","Tue Mar 14 2023 10:46:06 GMT-0700 (Pacific Daylight Time)","446775","Trustworthy,Untrustworthy","html-keyboard-response","64","143991","0.0-11.0-3.17","","null","","<div class='respPicDiv'><img src='img/responseButtonOffersNo0_wht.png' class='respPic'></div><div class='trialDiv'><img src='Fruit/grapes.png'><br><font class='baseline'><strong>Great Grapes</strong><p><strong><font class='posOutcome'>You WON</font><p>You bet: 1</strong></font> &nbsp; &nbsp; &nbsp; &nbsp; &nbsp; &nbsp;<font class='posOutcome'>you receive: <strong>2</strong></font></div>","null","6","Great Grapes","Fruit/grapes.png","Won","0.8,0.35","10","0.8","116","18","",""
"","","","decision","5c75dbce7d36140017c53257","bdp_rwlrn","Tue Mar 14 2023 10:46:06 GMT-0700 (Pacific Daylight Time)","446775","Trustworthy,Untrustworthy","html-keyboard-response","65","144771","0.0-11.0-1.18","","780","","<div class='trialDiv'><img src='Fruit/mango.png'><br><font class='baseline'><strong>Mega Mangos</strong><p>Choose number of points to bet.</font><div class='respPicDiv'><img src='img/responseButtonOffersNo0L.png' class='respPic'></div></div>","1","7","Mega Mangos","Fruit/mango.png","Lost","0.2,0.65","10","0.2","121","19","",""
"","","","decisionFB","5c75dbce7d36140017c53257","bdp_rwlrn","Tue Mar 14 2023 10:46:06 GMT-0700 (Pacific Daylight Time)","446775","Trustworthy,Untrustworthy","html-keyboard-response","66","145029","0.0-11.0-2.18","","null","","<div class='trialDiv'><img src='Fruit/mango.png'><br><font class='baseline'><strong>Mega Mangos</strong><p>Choose number of points to bet.</font><div class='respPicDiv'><img src='img/responseButtonOffersNo0L1.png' class='respPic'></div></div>","null","7","Mega Mangos","Fruit/mango.png","Lost","0.2,0.65","10","0.2","120","19","",""
"","","","feedback","5c75dbce7d36140017c53257","bdp_rwlrn","Tue Mar 14 2023 10:46:06 GMT-0700 (Pacific Daylight Time)","446775","Trustworthy,Untrustworthy","html-keyboard-response","67","146034","0.0-11.0-3.18","","null","","<div class='respPicDiv'><img src='img/responseButtonOffersNo0_wht.png' class='respPic'></div><div class='trialDiv'><img src='Fruit/mango.png'><br><font class='baseline'><strong>Mega Mangos</strong><p><strong><font class='negOutcome'>You LOST</font><p>You bet: 1</strong></font> &nbsp; &nbsp; &nbsp; &nbsp; &nbsp; &nbsp;<font class='negOutcome'>You receive: <strong>0</strong></font></div>","null","7","Mega Mangos","Fruit/mango.png","Lost","0.2,0.65","10","0.2","120","19","",""
"","","","decision","5c75dbce7d36140017c53257","bdp_rwlrn","Tue Mar 14 2023 10:46:06 GMT-0700 (Pacific Daylight Time)","446775","Trustworthy,Untrustworthy","html-keyboard-response","68","146521","0.0-11.0-1.19","","486","","<div class='trialDiv'><img src='Fruit/grapes.png'><br><font class='baseline'><strong>Great Grapes</strong><p>Choose number of points to bet.</font><div class='respPicDiv'><img src='img/responseButtonOffersNo0L.png' class='respPic'></div></div>","5","7","Great Grapes","Fruit/grapes.png","Won","0.8,0.35","10","0.8","125","20","",""
"","","","decisionFB","5c75dbce7d36140017c53257","bdp_rwlrn","Tue Mar 14 2023 10:46:06 GMT-0700 (Pacific Daylight Time)","446775","Trustworthy,Untrustworthy","html-keyboard-response","69","146782","0.0-11.0-2.19","","null","","<div class='trialDiv'><img src='Fruit/grapes.png'><br><font class='baseline'><strong>Great Grapes</strong><p>Choose number of points to bet.</font><div class='respPicDiv'><img src='img/responseButtonOffersNo0L5.png' class='respPic'></div></div>","null","7","Great Grapes","Fruit/grapes.png","Won","0.8,0.35","10","0.8","120","20","",""
"","","","feedback","5c75dbce7d36140017c53257","bdp_rwlrn","Tue Mar 14 2023 10:46:06 GMT-0700 (Pacific Daylight Time)","446775","Trustworthy,Untrustworthy","html-keyboard-response","70","147786","0.0-11.0-3.19","","null","","<div class='respPicDiv'><img src='img/responseButtonOffersNo0_wht.png' class='respPic'></div><div class='trialDiv'><img src='Fruit/grapes.png'><br><font class='baseline'><strong>Great Grapes</strong><p><strong><font class='posOutcome'>You WON</font><p>You bet: 5</strong></font> &nbsp; &nbsp; &nbsp; &nbsp; &nbsp; &nbsp;<font class='posOutcome'>you receive: <strong>10</strong></font></div>","null","7","Great Grapes","Fruit/grapes.png","Won","0.8,0.35","10","0.8","130","20","",""
"","","","decision","5c75dbce7d36140017c53257","bdp_rwlrn","Tue Mar 14 2023 10:46:06 GMT-0700 (Pacific Daylight Time)","446775","Trustworthy,Untrustworthy","html-keyboard-response","71","148330","0.0-11.0-1.20","","544","","<div class='trialDiv'><img src='Fruit/Kiwi.png'><br><font class='baseline'><strong>Kiwi Kash</strong><p>Choose number of points to bet.</font><div class='respPicDiv'><img src='img/responseButtonOffersNo0L.png' class='respPic'></div></div>","5","7","Kiwi Kash","Fruit/Kiwi.png","Won","0.8,0.2","14","0.8","135","21","",""
"","","","decisionFB","5c75dbce7d36140017c53257","bdp_rwlrn","Tue Mar 14 2023 10:46:06 GMT-0700 (Pacific Daylight Time)","446775","Trustworthy,Untrustworthy","html-keyboard-response","72","148596","0.0-11.0-2.20","","null","","<div class='trialDiv'><img src='Fruit/Kiwi.png'><br><font class='baseline'><strong>Kiwi Kash</strong><p>Choose number of points to bet.</font><div class='respPicDiv'><img src='img/responseButtonOffersNo0L5.png' class='respPic'></div></div>","null","7","Kiwi Kash","Fruit/Kiwi.png","Won","0.8,0.2","14","0.8","130","21","",""
"","","","feedback","5c75dbce7d36140017c53257","bdp_rwlrn","Tue Mar 14 2023 10:46:06 GMT-0700 (Pacific Daylight Time)","446775","Trustworthy,Untrustworthy","html-keyboard-response","73","149604","0.0-11.0-3.20","","null","","<div class='respPicDiv'><img src='img/responseButtonOffersNo0_wht.png' class='respPic'></div><div class='trialDiv'><img src='Fruit/Kiwi.png'><br><font class='baseline'><strong>Kiwi Kash</strong><p><strong><font class='posOutcome'>You WON</font><p>You bet: 5</strong></font> &nbsp; &nbsp; &nbsp; &nbsp; &nbsp; &nbsp;<font class='posOutcome'>you receive: <strong>10</strong></font></div>","null","7","Kiwi Kash","Fruit/Kiwi.png","Won","0.8,0.2","14","0.8","140","21","",""
"","","","decision","5c75dbce7d36140017c53257","bdp_rwlrn","Tue Mar 14 2023 10:46:06 GMT-0700 (Pacific Daylight Time)","446775","Trustworthy,Untrustworthy","html-keyboard-response","74","150272","0.0-11.0-1.21","","668","","<div class='trialDiv'><img src='Fruit/grapes.png'><br><font class='baseline'><strong>Great Grapes</strong><p>Choose number of points to bet.</font><div class='respPicDiv'><img src='img/responseButtonOffersNo0L.png' class='respPic'></div></div>","5","8","Great Grapes","Fruit/grapes.png","Won","0.8,0.35","10","0.8","145","22","",""
"","","","decisionFB","5c75dbce7d36140017c53257","bdp_rwlrn","Tue Mar 14 2023 10:46:06 GMT-0700 (Pacific Daylight Time)","446775","Trustworthy,Untrustworthy","html-keyboard-response","75","150535","0.0-11.0-2.21","","null","","<div class='trialDiv'><img src='Fruit/grapes.png'><br><font class='baseline'><strong>Great Grapes</strong><p>Choose number of points to bet.</font><div class='respPicDiv'><img src='img/responseButtonOffersNo0L5.png' class='respPic'></div></div>","null","8","Great Grapes","Fruit/grapes.png","Won","0.8,0.35","10","0.8","140","22","",""
"","","","feedback","5c75dbce7d36140017c53257","bdp_rwlrn","Tue Mar 14 2023 10:46:06 GMT-0700 (Pacific Daylight Time)","446775","Trustworthy,Untrustworthy","html-keyboard-response","76","151549","0.0-11.0-3.21","","null","","<div class='respPicDiv'><img src='img/responseButtonOffersNo0_wht.png' class='respPic'></div><div class='trialDiv'><img src='Fruit/grapes.png'><br><font class='baseline'><strong>Great Grapes</strong><p><strong><font class='posOutcome'>You WON</font><p>You bet: 5</strong></font> &nbsp; &nbsp; &nbsp; &nbsp; &nbsp; &nbsp;<font class='posOutcome'>you receive: <strong>10</strong></font></div>","null","8","Great Grapes","Fruit/grapes.png","Won","0.8,0.35","10","0.8","150","22","",""
"","","","decision","5c75dbce7d36140017c53257","bdp_rwlrn","Tue Mar 14 2023 10:46:06 GMT-0700 (Pacific Daylight Time)","446775","Trustworthy,Untrustworthy","html-keyboard-response","77","152328","0.0-11.0-1.22","","778","","<div class='trialDiv'><img src='Fruit/mango.png'><br><font class='baseline'><strong>Mega Mangos</strong><p>Choose number of points to bet.</font><div class='respPicDiv'><img src='img/responseButtonOffersNo0L.png' class='respPic'></div></div>","1","8","Mega Mangos","Fruit/mango.png","Lost","0.2,0.65","10","0.2","155","23","",""
"","","","decisionFB","5c75dbce7d36140017c53257","bdp_rwlrn","Tue Mar 14 2023 10:46:06 GMT-0700 (Pacific Daylight Time)","446775","Trustworthy,Untrustworthy","html-keyboard-response","78","152589","0.0-11.0-2.22","","null","","<div class='trialDiv'><img src='Fruit/mango.png'><br><font class='baseline'><strong>Mega Mangos</strong><p>Choose number of points to bet.</font><div class='respPicDiv'><img src='img/responseButtonOffersNo0L1.png' class='respPic'></div></div>","null","8","Mega Mangos","Fruit/mango.png","Lost","0.2,0.65","10","0.2","154","23","",""
"","","","feedback","5c75dbce7d36140017c53257","bdp_rwlrn","Tue Mar 14 2023 10:46:06 GMT-0700 (Pacific Daylight Time)","446775","Trustworthy,Untrustworthy","html-keyboard-response","79","153594","0.0-11.0-3.22","","null","","<div class='respPicDiv'><img src='img/responseButtonOffersNo0_wht.png' class='respPic'></div><div class='trialDiv'><img src='Fruit/mango.png'><br><font class='baseline'><strong>Mega Mangos</strong><p><strong><font class='negOutcome'>You LOST</font><p>You bet: 1</strong></font> &nbsp; &nbsp; &nbsp; &nbsp; &nbsp; &nbsp;<font class='negOutcome'>You receive: <strong>0</strong></font></div>","null","8","Mega Mangos","Fruit/mango.png","Lost","0.2,0.65","10","0.2","154","23","",""
"","","","decision","5c75dbce7d36140017c53257","bdp_rwlrn","Tue Mar 14 2023 10:46:06 GMT-0700 (Pacific Daylight Time)","446775","Trustworthy,Untrustworthy","html-keyboard-response","80","154532","0.0-11.0-1.23","","938","","<div class='trialDiv'><img src='Fruit/Kiwi.png'><br><font class='baseline'><strong>Kiwi Kash</strong><p>Choose number of points to bet.</font><div class='respPicDiv'><img src='img/responseButtonOffersNo0L.png' class='respPic'></div></div>","5","8","Kiwi Kash","Fruit/Kiwi.png","Won","0.8,0.2","14","0.8","159","24","",""
"","","","decisionFB","5c75dbce7d36140017c53257","bdp_rwlrn","Tue Mar 14 2023 10:46:06 GMT-0700 (Pacific Daylight Time)","446775","Trustworthy,Untrustworthy","html-keyboard-response","81","154793","0.0-11.0-2.23","","null","","<div class='trialDiv'><img src='Fruit/Kiwi.png'><br><font class='baseline'><strong>Kiwi Kash</strong><p>Choose number of points to bet.</font><div class='respPicDiv'><img src='img/responseButtonOffersNo0L5.png' class='respPic'></div></div>","null","8","Kiwi Kash","Fruit/Kiwi.png","Won","0.8,0.2","14","0.8","154","24","",""
"","","","feedback","5c75dbce7d36140017c53257","bdp_rwlrn","Tue Mar 14 2023 10:46:06 GMT-0700 (Pacific Daylight Time)","446775","Trustworthy,Untrustworthy","html-keyboard-response","82","155802","0.0-11.0-3.23","","null","","<div class='respPicDiv'><img src='img/responseButtonOffersNo0_wht.png' class='respPic'></div><div class='trialDiv'><img src='Fruit/Kiwi.png'><br><font class='baseline'><strong>Kiwi Kash</strong><p><strong><font class='posOutcome'>You WON</font><p>You bet: 5</strong></font> &nbsp; &nbsp; &nbsp; &nbsp; &nbsp; &nbsp;<font class='posOutcome'>you receive: <strong>10</strong></font></div>","null","8","Kiwi Kash","Fruit/Kiwi.png","Won","0.8,0.2","14","0.8","164","24","",""
"","","","decision","5c75dbce7d36140017c53257","bdp_rwlrn","Tue Mar 14 2023 10:46:06 GMT-0700 (Pacific Daylight Time)","446775","Trustworthy,Untrustworthy","html-keyboard-response","83","156509","0.0-11.0-1.24","","707","","<div class='trialDiv'><img src='Fruit/grapes.png'><br><font class='baseline'><strong>Great Grapes</strong><p>Choose number of points to bet.</font><div class='respPicDiv'><img src='img/responseButtonOffersNo0L.png' class='respPic'></div></div>","5","9","Great Grapes","Fruit/grapes.png","Won","0.8,0.35","10","0.8","169","25","",""
"","","","decisionFB","5c75dbce7d36140017c53257","bdp_rwlrn","Tue Mar 14 2023 10:46:06 GMT-0700 (Pacific Daylight Time)","446775","Trustworthy,Untrustworthy","html-keyboard-response","84","156774","0.0-11.0-2.24","","null","","<div class='trialDiv'><img src='Fruit/grapes.png'><br><font class='baseline'><strong>Great Grapes</strong><p>Choose number of points to bet.</font><div class='respPicDiv'><img src='img/responseButtonOffersNo0L5.png' class='respPic'></div></div>","null","9","Great Grapes","Fruit/grapes.png","Won","0.8,0.35","10","0.8","164","25","",""
"","","","feedback","5c75dbce7d36140017c53257","bdp_rwlrn","Tue Mar 14 2023 10:46:06 GMT-0700 (Pacific Daylight Time)","446775","Trustworthy,Untrustworthy","html-keyboard-response","85","157782","0.0-11.0-3.24","","null","","<div class='respPicDiv'><img src='img/responseButtonOffersNo0_wht.png' class='respPic'></div><div class='trialDiv'><img src='Fruit/grapes.png'><br><font class='baseline'><strong>Great Grapes</strong><p><strong><font class='posOutcome'>You WON</font><p>You bet: 5</strong></font> &nbsp; &nbsp; &nbsp; &nbsp; &nbsp; &nbsp;<font class='posOutcome'>you receive: <strong>10</strong></font></div>","null","9","Great Grapes","Fruit/grapes.png","Won","0.8,0.35","10","0.8","174","25","",""
"","","","decision","5c75dbce7d36140017c53257","bdp_rwlrn","Tue Mar 14 2023 10:46:06 GMT-0700 (Pacific Daylight Time)","446775","Trustworthy,Untrustworthy","html-keyboard-response","86","158345","0.0-11.0-1.25","","562","","<div class='trialDiv'><img src='Fruit/Kiwi.png'><br><font class='baseline'><strong>Kiwi Kash</strong><p>Choose number of points to bet.</font><div class='respPicDiv'><img src='img/responseButtonOffersNo0L.png' class='respPic'></div></div>","5","9","Kiwi Kash","Fruit/Kiwi.png","Won","0.8,0.2","14","0.8","179","26","",""
"","","","decisionFB","5c75dbce7d36140017c53257","bdp_rwlrn","Tue Mar 14 2023 10:46:06 GMT-0700 (Pacific Daylight Time)","446775","Trustworthy,Untrustworthy","html-keyboard-response","87","158599","0.0-11.0-2.25","","null","","<div class='trialDiv'><img src='Fruit/Kiwi.png'><br><font class='baseline'><strong>Kiwi Kash</strong><p>Choose number of points to bet.</font><div class='respPicDiv'><img src='img/responseButtonOffersNo0L5.png' class='respPic'></div></div>","null","9","Kiwi Kash","Fruit/Kiwi.png","Won","0.8,0.2","14","0.8","174","26","",""
"","","","feedback","5c75dbce7d36140017c53257","bdp_rwlrn","Tue Mar 14 2023 10:46:06 GMT-0700 (Pacific Daylight Time)","446775","Trustworthy,Untrustworthy","html-keyboard-response","88","159607","0.0-11.0-3.25","","null","","<div class='respPicDiv'><img src='img/responseButtonOffersNo0_wht.png' class='respPic'></div><div class='trialDiv'><img src='Fruit/Kiwi.png'><br><font class='baseline'><strong>Kiwi Kash</strong><p><strong><font class='posOutcome'>You WON</font><p>You bet: 5</strong></font> &nbsp; &nbsp; &nbsp; &nbsp; &nbsp; &nbsp;<font class='posOutcome'>you receive: <strong>10</strong></font></div>","null","9","Kiwi Kash","Fruit/Kiwi.png","Won","0.8,0.2","14","0.8","184","26","",""
"","","","decision","5c75dbce7d36140017c53257","bdp_rwlrn","Tue Mar 14 2023 10:46:06 GMT-0700 (Pacific Daylight Time)","446775","Trustworthy,Untrustworthy","html-keyboard-response","89","160132","0.0-11.0-1.26","","524","","<div class='trialDiv'><img src='Fruit/mango.png'><br><font class='baseline'><strong>Mega Mangos</strong><p>Choose number of points to bet.</font><div class='respPicDiv'><img src='img/responseButtonOffersNo0L.png' class='respPic'></div></div>","1","9","Mega Mangos","Fruit/mango.png","Lost","0.2,0.65","10","0.2","189","27","",""
"","","","decisionFB","5c75dbce7d36140017c53257","bdp_rwlrn","Tue Mar 14 2023 10:46:06 GMT-0700 (Pacific Daylight Time)","446775","Trustworthy,Untrustworthy","html-keyboard-response","90","160392","0.0-11.0-2.26","","null","","<div class='trialDiv'><img src='Fruit/mango.png'><br><font class='baseline'><strong>Mega Mangos</strong><p>Choose number of points to bet.</font><div class='respPicDiv'><img src='img/responseButtonOffersNo0L1.png' class='respPic'></div></div>","null","9","Mega Mangos","Fruit/mango.png","Lost","0.2,0.65","10","0.2","188","27","",""
"","","","feedback","5c75dbce7d36140017c53257","bdp_rwlrn","Tue Mar 14 2023 10:46:06 GMT-0700 (Pacific Daylight Time)","446775","Trustworthy,Untrustworthy","html-keyboard-response","91","161406","0.0-11.0-3.26","","null","","<div class='respPicDiv'><img src='img/responseButtonOffersNo0_wht.png' class='respPic'></div><div class='trialDiv'><img src='Fruit/mango.png'><br><font class='baseline'><strong>Mega Mangos</strong><p><strong><font class='negOutcome'>You LOST</font><p>You bet: 1</strong></font> &nbsp; &nbsp; &nbsp; &nbsp; &nbsp; &nbsp;<font class='negOutcome'>You receive: <strong>0</strong></font></div>","null","9","Mega Mangos","Fruit/mango.png","Lost","0.2,0.65","10","0.2","188","27","",""
"","","","decision","5c75dbce7d36140017c53257","bdp_rwlrn","Tue Mar 14 2023 10:46:06 GMT-0700 (Pacific Daylight Time)","446775","Trustworthy,Untrustworthy","html-keyboard-response","92","161827","0.0-11.0-1.27","","421","","<div class='trialDiv'><img src='Fruit/grapes.png'><br><font class='baseline'><strong>Great Grapes</strong><p>Choose number of points to bet.</font><div class='respPicDiv'><img src='img/responseButtonOffersNo0L.png' class='respPic'></div></div>","5","10","Great Grapes","Fruit/grapes.png","Lost","0.8,0.35","10","0.8","193","28","",""
"","","","decisionFB","5c75dbce7d36140017c53257","bdp_rwlrn","Tue Mar 14 2023 10:46:06 GMT-0700 (Pacific Daylight Time)","446775","Trustworthy,Untrustworthy","html-keyboard-response","93","162078","0.0-11.0-2.27","","null","","<div class='trialDiv'><img src='Fruit/grapes.png'><br><font class='baseline'><strong>Great Grapes</strong><p>Choose number of points to bet.</font><div class='respPicDiv'><img src='img/responseButtonOffersNo0L5.png' class='respPic'></div></div>","null","10","Great Grapes","Fruit/grapes.png","Lost","0.8,0.35","10","0.8","188","28","",""
"","","","feedback","5c75dbce7d36140017c53257","bdp_rwlrn","Tue Mar 14 2023 10:46:06 GMT-0700 (Pacific Daylight Time)","446775","Trustworthy,Untrustworthy","html-keyboard-response","94","163090","0.0-11.0-3.27","","null","","<div class='respPicDiv'><img src='img/responseButtonOffersNo0_wht.png' class='respPic'></div><div class='trialDiv'><img src='Fruit/grapes.png'><br><font class='baseline'><strong>Great Grapes</strong><p><strong><font class='negOutcome'>You LOST</font><p>You bet: 5</strong></font> &nbsp; &nbsp; &nbsp; &nbsp; &nbsp; &nbsp;<font class='negOutcome'>You receive: <strong>0</strong></font></div>","null","10","Great Grapes","Fruit/grapes.png","Lost","0.8,0.35","10","0.8","188","28","",""
"","","","decision","5c75dbce7d36140017c53257","bdp_rwlrn","Tue Mar 14 2023 10:46:06 GMT-0700 (Pacific Daylight Time)","446775","Trustworthy,Untrustworthy","html-keyboard-response","95","163690","0.0-11.0-1.28","","600","","<div class='trialDiv'><img src='Fruit/Kiwi.png'><br><font class='baseline'><strong>Kiwi Kash</strong><p>Choose number of points to bet.</font><div class='respPicDiv'><img src='img/responseButtonOffersNo0L.png' class='respPic'></div></div>","5","10","Kiwi Kash","Fruit/Kiwi.png","Lost","0.8,0.2","14","0.8","193","29","",""
"","","","decisionFB","5c75dbce7d36140017c53257","bdp_rwlrn","Tue Mar 14 2023 10:46:06 GMT-0700 (Pacific Daylight Time)","446775","Trustworthy,Untrustworthy","html-keyboard-response","96","163951","0.0-11.0-2.28","","null","","<div class='trialDiv'><img src='Fruit/Kiwi.png'><br><font class='baseline'><strong>Kiwi Kash</strong><p>Choose number of points to bet.</font><div class='respPicDiv'><img src='img/responseButtonOffersNo0L5.png' class='respPic'></div></div>","null","10","Kiwi Kash","Fruit/Kiwi.png","Lost","0.8,0.2","14","0.8","188","29","",""
"","","","feedback","5c75dbce7d36140017c53257","bdp_rwlrn","Tue Mar 14 2023 10:46:06 GMT-0700 (Pacific Daylight Time)","446775","Trustworthy,Untrustworthy","html-keyboard-response","97","164951","0.0-11.0-3.28","","null","","<div class='respPicDiv'><img src='img/responseButtonOffersNo0_wht.png' class='respPic'></div><div class='trialDiv'><img src='Fruit/Kiwi.png'><br><font class='baseline'><strong>Kiwi Kash</strong><p><strong><font class='negOutcome'>You LOST</font><p>You bet: 5</strong></font> &nbsp; &nbsp; &nbsp; &nbsp; &nbsp; &nbsp;<font class='negOutcome'>You receive: <strong>0</strong></font></div>","null","10","Kiwi Kash","Fruit/Kiwi.png","Lost","0.8,0.2","14","0.8","188","29","",""
"","","","decision","5c75dbce7d36140017c53257","bdp_rwlrn","Tue Mar 14 2023 10:46:06 GMT-0700 (Pacific Daylight Time)","446775","Trustworthy,Untrustworthy","html-keyboard-response","98","165375","0.0-11.0-1.29","","422","","<div class='trialDiv'><img src='Fruit/mango.png'><br><font class='baseline'><strong>Mega Mangos</strong><p>Choose number of points to bet.</font><div class='respPicDiv'><img src='img/responseButtonOffersNo0L.png' class='respPic'></div></div>","5","10","Mega Mangos","Fruit/mango.png","Won","0.2,0.65","10","0.2","193","30","",""
"","","","decisionFB","5c75dbce7d36140017c53257","bdp_rwlrn","Tue Mar 14 2023 10:46:06 GMT-0700 (Pacific Daylight Time)","446775","Trustworthy,Untrustworthy","html-keyboard-response","99","165627","0.0-11.0-2.29","","null","","<div class='trialDiv'><img src='Fruit/mango.png'><br><font class='baseline'><strong>Mega Mangos</strong><p>Choose number of points to bet.</font><div class='respPicDiv'><img src='img/responseButtonOffersNo0L5.png' class='respPic'></div></div>","null","10","Mega Mangos","Fruit/mango.png","Won","0.2,0.65","10","0.2","188","30","",""
"","","","feedback","5c75dbce7d36140017c53257","bdp_rwlrn","Tue Mar 14 2023 10:46:06 GMT-0700 (Pacific Daylight Time)","446775","Trustworthy,Untrustworthy","html-keyboard-response","100","166628","0.0-11.0-3.29","","null","","<div class='respPicDiv'><img src='img/responseButtonOffersNo0_wht.png' class='respPic'></div><div class='trialDiv'><img src='Fruit/mango.png'><br><font class='baseline'><strong>Mega Mangos</strong><p><strong><font class='posOutcome'>You WON</font><p>You bet: 5</strong></font> &nbsp; &nbsp; &nbsp; &nbsp; &nbsp; &nbsp;<font class='posOutcome'>you receive: <strong>10</strong></font></div>","null","10","Mega Mangos","Fruit/mango.png","Won","0.2,0.65","10","0.2","198","30","",""
"","","","decision","5c75dbce7d36140017c53257","bdp_rwlrn","Tue Mar 14 2023 10:46:06 GMT-0700 (Pacific Daylight Time)","446775","Trustworthy,Untrustworthy","html-keyboard-response","101","168195","0.0-11.0-1.30","","1566","","<div class='trialDiv'><img src='Fruit/Kiwi.png'><br><font class='baseline'><strong>Kiwi Kash</strong><p>Choose number of points to bet.</font><div class='respPicDiv'><img src='img/responseButtonOffersNo0L.png' class='respPic'></div></div>","5","11","Kiwi Kash","Fruit/Kiwi.png","Won","0.8,0.2","14","0.8","203","31","",""
"","","","decisionFB","5c75dbce7d36140017c53257","bdp_rwlrn","Tue Mar 14 2023 10:46:06 GMT-0700 (Pacific Daylight Time)","446775","Trustworthy,Untrustworthy","html-keyboard-response","102","168461","0.0-11.0-2.30","","null","","<div class='trialDiv'><img src='Fruit/Kiwi.png'><br><font class='baseline'><strong>Kiwi Kash</strong><p>Choose number of points to bet.</font><div class='respPicDiv'><img src='img/responseButtonOffersNo0L5.png' class='respPic'></div></div>","null","11","Kiwi Kash","Fruit/Kiwi.png","Won","0.8,0.2","14","0.8","198","31","",""
"","","","feedback","5c75dbce7d36140017c53257","bdp_rwlrn","Tue Mar 14 2023 10:46:06 GMT-0700 (Pacific Daylight Time)","446775","Trustworthy,Untrustworthy","html-keyboard-response","103","169463","0.0-11.0-3.30","","null","","<div class='respPicDiv'><img src='img/responseButtonOffersNo0_wht.png' class='respPic'></div><div class='trialDiv'><img src='Fruit/Kiwi.png'><br><font class='baseline'><strong>Kiwi Kash</strong><p><strong><font class='posOutcome'>You WON</font><p>You bet: 5</strong></font> &nbsp; &nbsp; &nbsp; &nbsp; &nbsp; &nbsp;<font class='posOutcome'>you receive: <strong>10</strong></font></div>","null","11","Kiwi Kash","Fruit/Kiwi.png","Won","0.8,0.2","14","0.8","208","31","",""
"","","","decision","5c75dbce7d36140017c53257","bdp_rwlrn","Tue Mar 14 2023 10:46:06 GMT-0700 (Pacific Daylight Time)","446775","Trustworthy,Untrustworthy","html-keyboard-response","104","170204","0.0-11.0-1.31","","741","","<div class='trialDiv'><img src='Fruit/mango.png'><br><font class='baseline'><strong>Mega Mangos</strong><p>Choose number of points to bet.</font><div class='respPicDiv'><img src='img/responseButtonOffersNo0L.png' class='respPic'></div></div>","5","11","Mega Mangos","Fruit/mango.png","Lost","0.2,0.65","10","0.2","213","32","",""
"","","","decisionFB","5c75dbce7d36140017c53257","bdp_rwlrn","Tue Mar 14 2023 10:46:06 GMT-0700 (Pacific Daylight Time)","446775","Trustworthy,Untrustworthy","html-keyboard-response","105","170465","0.0-11.0-2.31","","null","","<div class='trialDiv'><img src='Fruit/mango.png'><br><font class='baseline'><strong>Mega Mangos</strong><p>Choose number of points to bet.</font><div class='respPicDiv'><img src='img/responseButtonOffersNo0L5.png' class='respPic'></div></div>","null","11","Mega Mangos","Fruit/mango.png","Lost","0.2,0.65","10","0.2","208","32","",""
"","","","feedback","5c75dbce7d36140017c53257","bdp_rwlrn","Tue Mar 14 2023 10:46:06 GMT-0700 (Pacific Daylight Time)","446775","Trustworthy,Untrustworthy","html-keyboard-response","106","171467","0.0-11.0-3.31","","null","","<div class='respPicDiv'><img src='img/responseButtonOffersNo0_wht.png' class='respPic'></div><div class='trialDiv'><img src='Fruit/mango.png'><br><font class='baseline'><strong>Mega Mangos</strong><p><strong><font class='negOutcome'>You LOST</font><p>You bet: 5</strong></font> &nbsp; &nbsp; &nbsp; &nbsp; &nbsp; &nbsp;<font class='negOutcome'>You receive: <strong>0</strong></font></div>","null","11","Mega Mangos","Fruit/mango.png","Lost","0.2,0.65","10","0.2","208","32","",""
"","","","decision","5c75dbce7d36140017c53257","bdp_rwlrn","Tue Mar 14 2023 10:46:06 GMT-0700 (Pacific Daylight Time)","446775","Trustworthy,Untrustworthy","html-keyboard-response","107","171909","0.0-11.0-1.32","","442","","<div class='trialDiv'><img src='Fruit/grapes.png'><br><font class='baseline'><strong>Great Grapes</strong><p>Choose number of points to bet.</font><div class='respPicDiv'><img src='img/responseButtonOffersNo0L.png' class='respPic'></div></div>","5","11","Great Grapes","Fruit/grapes.png","Lost","0.8,0.35","10","0.8","213","33","",""
"","","","decisionFB","5c75dbce7d36140017c53257","bdp_rwlrn","Tue Mar 14 2023 10:46:06 GMT-0700 (Pacific Daylight Time)","446775","Trustworthy,Untrustworthy","html-keyboard-response","108","172166","0.0-11.0-2.32","","null","","<div class='trialDiv'><img src='Fruit/grapes.png'><br><font class='baseline'><strong>Great Grapes</strong><p>Choose number of points to bet.</font><div class='respPicDiv'><img src='img/responseButtonOffersNo0L5.png' class='respPic'></div></div>","null","11","Great Grapes","Fruit/grapes.png","Lost","0.8,0.35","10","0.8","208","33","",""
"","","","feedback","5c75dbce7d36140017c53257","bdp_rwlrn","Tue Mar 14 2023 10:46:06 GMT-0700 (Pacific Daylight Time)","446775","Trustworthy,Untrustworthy","html-keyboard-response","109","173181","0.0-11.0-3.32","","null","","<div class='respPicDiv'><img src='img/responseButtonOffersNo0_wht.png' class='respPic'></div><div class='trialDiv'><img src='Fruit/grapes.png'><br><font class='baseline'><strong>Great Grapes</strong><p><strong><font class='negOutcome'>You LOST</font><p>You bet: 5</strong></font> &nbsp; &nbsp; &nbsp; &nbsp; &nbsp; &nbsp;<font class='negOutcome'>You receive: <strong>0</strong></font></div>","null","11","Great Grapes","Fruit/grapes.png","Lost","0.8,0.35","10","0.8","208","33","",""
"","","","decision","5c75dbce7d36140017c53257","bdp_rwlrn","Tue Mar 14 2023 10:46:06 GMT-0700 (Pacific Daylight Time)","446775","Trustworthy,Untrustworthy","html-keyboard-response","110","173951","0.0-11.0-1.33","","769","","<div class='trialDiv'><img src='Fruit/Kiwi.png'><br><font class='baseline'><strong>Kiwi Kash</strong><p>Choose number of points to bet.</font><div class='respPicDiv'><img src='img/responseButtonOffersNo0L.png' class='respPic'></div></div>","5","12","Kiwi Kash","Fruit/Kiwi.png","Won","0.8,0.2","14","0.8","213","34","",""
"","","","decisionFB","5c75dbce7d36140017c53257","bdp_rwlrn","Tue Mar 14 2023 10:46:06 GMT-0700 (Pacific Daylight Time)","446775","Trustworthy,Untrustworthy","html-keyboard-response","111","174213","0.0-11.0-2.33","","null","","<div class='trialDiv'><img src='Fruit/Kiwi.png'><br><font class='baseline'><strong>Kiwi Kash</strong><p>Choose number of points to bet.</font><div class='respPicDiv'><img src='img/responseButtonOffersNo0L5.png' class='respPic'></div></div>","null","12","Kiwi Kash","Fruit/Kiwi.png","Won","0.8,0.2","14","0.8","208","34","",""
"","","","feedback","5c75dbce7d36140017c53257","bdp_rwlrn","Tue Mar 14 2023 10:46:06 GMT-0700 (Pacific Daylight Time)","446775","Trustworthy,Untrustworthy","html-keyboard-response","112","175216","0.0-11.0-3.33","","null","","<div class='respPicDiv'><img src='img/responseButtonOffersNo0_wht.png' class='respPic'></div><div class='trialDiv'><img src='Fruit/Kiwi.png'><br><font class='baseline'><strong>Kiwi Kash</strong><p><strong><font class='posOutcome'>You WON</font><p>You bet: 5</strong></font> &nbsp; &nbsp; &nbsp; &nbsp; &nbsp; &nbsp;<font class='posOutcome'>you receive: <strong>10</strong></font></div>","null","12","Kiwi Kash","Fruit/Kiwi.png","Won","0.8,0.2","14","0.8","218","34","",""
"","","","decision","5c75dbce7d36140017c53257","bdp_rwlrn","Tue Mar 14 2023 10:46:06 GMT-0700 (Pacific Daylight Time)","446775","Trustworthy,Untrustworthy","html-keyboard-response","113","176904","0.0-11.0-1.34","","1688","","<div class='trialDiv'><img src='Fruit/grapes.png'><br><font class='baseline'><strong>Great Grapes</strong><p>Choose number of points to bet.</font><div class='respPicDiv'><img src='img/responseButtonOffersNo0L.png' class='respPic'></div></div>","3","12","Great Grapes","Fruit/grapes.png","Lost","0.8,0.35","10","0.8","223","35","",""
"","","","decisionFB","5c75dbce7d36140017c53257","bdp_rwlrn","Tue Mar 14 2023 10:46:06 GMT-0700 (Pacific Daylight Time)","446775","Trustworthy,Untrustworthy","html-keyboard-response","114","177160","0.0-11.0-2.34","","null","","<div class='trialDiv'><img src='Fruit/grapes.png'><br><font class='baseline'><strong>Great Grapes</strong><p>Choose number of points to bet.</font><div class='respPicDiv'><img src='img/responseButtonOffersNo0L3.png' class='respPic'></div></div>","null","12","Great Grapes","Fruit/grapes.png","Lost","0.8,0.35","10","0.8","220","35","",""
"","","","feedback","5c75dbce7d36140017c53257","bdp_rwlrn","Tue Mar 14 2023 10:46:06 GMT-0700 (Pacific Daylight Time)","446775","Trustworthy,Untrustworthy","html-keyboard-response","115","178162","0.0-11.0-3.34","","null","","<div class='respPicDiv'><img src='img/responseButtonOffersNo0_wht.png' class='respPic'></div><div class='trialDiv'><img src='Fruit/grapes.png'><br><font class='baseline'><strong>Great Grapes</strong><p><strong><font class='negOutcome'>You LOST</font><p>You bet: 3</strong></font> &nbsp; &nbsp; &nbsp; &nbsp; &nbsp; &nbsp;<font class='negOutcome'>You receive: <strong>0</strong></font></div>","null","12","Great Grapes","Fruit/grapes.png","Lost","0.8,0.35","10","0.8","220","35","",""
"","","","decision","5c75dbce7d36140017c53257","bdp_rwlrn","Tue Mar 14 2023 10:46:06 GMT-0700 (Pacific Daylight Time)","446775","Trustworthy,Untrustworthy","html-keyboard-response","116","179040","0.0-11.0-1.35","","877","","<div class='trialDiv'><img src='Fruit/mango.png'><br><font class='baseline'><strong>Mega Mangos</strong><p>Choose number of points to bet.</font><div class='respPicDiv'><img src='img/responseButtonOffersNo0L.png' class='respPic'></div></div>","1","12","Mega Mangos","Fruit/mango.png","Lost","0.2,0.65","10","0.2","225","36","",""
"","","","decisionFB","5c75dbce7d36140017c53257","bdp_rwlrn","Tue Mar 14 2023 10:46:06 GMT-0700 (Pacific Daylight Time)","446775","Trustworthy,Untrustworthy","html-keyboard-response","117","179304","0.0-11.0-2.35","","null","","<div class='trialDiv'><img src='Fruit/mango.png'><br><font class='baseline'><strong>Mega Mangos</strong><p>Choose number of points to bet.</font><div class='respPicDiv'><img src='img/responseButtonOffersNo0L1.png' class='respPic'></div></div>","null","12","Mega Mangos","Fruit/mango.png","Lost","0.2,0.65","10","0.2","224","36","",""
"","","","feedback","5c75dbce7d36140017c53257","bdp_rwlrn","Tue Mar 14 2023 10:46:06 GMT-0700 (Pacific Daylight Time)","446775","Trustworthy,Untrustworthy","html-keyboard-response","118","180310","0.0-11.0-3.35","","null","","<div class='respPicDiv'><img src='img/responseButtonOffersNo0_wht.png' class='respPic'></div><div class='trialDiv'><img src='Fruit/mango.png'><br><font class='baseline'><strong>Mega Mangos</strong><p><strong><font class='negOutcome'>You LOST</font><p>You bet: 1</strong></font> &nbsp; &nbsp; &nbsp; &nbsp; &nbsp; &nbsp;<font class='negOutcome'>You receive: <strong>0</strong></font></div>","null","12","Mega Mangos","Fruit/mango.png","Lost","0.2,0.65","10","0.2","224","36","",""
"","","","decision","5c75dbce7d36140017c53257","bdp_rwlrn","Tue Mar 14 2023 10:46:06 GMT-0700 (Pacific Daylight Time)","446775","Trustworthy,Untrustworthy","html-keyboard-response","119","180794","0.0-11.0-1.36","","484","","<div class='trialDiv'><img src='Fruit/Kiwi.png'><br><font class='baseline'><strong>Kiwi Kash</strong><p>Choose number of points to bet.</font><div class='respPicDiv'><img src='img/responseButtonOffersNo0L.png' class='respPic'></div></div>","5","13","Kiwi Kash","Fruit/Kiwi.png","Won","0.8,0.2","14","0.8","229","37","",""
"","","","decisionFB","5c75dbce7d36140017c53257","bdp_rwlrn","Tue Mar 14 2023 10:46:06 GMT-0700 (Pacific Daylight Time)","446775","Trustworthy,Untrustworthy","html-keyboard-response","120","181057","0.0-11.0-2.36","","null","","<div class='trialDiv'><img src='Fruit/Kiwi.png'><br><font class='baseline'><strong>Kiwi Kash</strong><p>Choose number of points to bet.</font><div class='respPicDiv'><img src='img/responseButtonOffersNo0L5.png' class='respPic'></div></div>","null","13","Kiwi Kash","Fruit/Kiwi.png","Won","0.8,0.2","14","0.8","224","37","",""
"","","","feedback","5c75dbce7d36140017c53257","bdp_rwlrn","Tue Mar 14 2023 10:46:06 GMT-0700 (Pacific Daylight Time)","446775","Trustworthy,Untrustworthy","html-keyboard-response","121","182068","0.0-11.0-3.36","","null","","<div class='respPicDiv'><img src='img/responseButtonOffersNo0_wht.png' class='respPic'></div><div class='trialDiv'><img src='Fruit/Kiwi.png'><br><font class='baseline'><strong>Kiwi Kash</strong><p><strong><font class='posOutcome'>You WON</font><p>You bet: 5</strong></font> &nbsp; &nbsp; &nbsp; &nbsp; &nbsp; &nbsp;<font class='posOutcome'>you receive: <strong>10</strong></font></div>","null","13","Kiwi Kash","Fruit/Kiwi.png","Won","0.8,0.2","14","0.8","234","37","",""
"","","","decision","5c75dbce7d36140017c53257","bdp_rwlrn","Tue Mar 14 2023 10:46:06 GMT-0700 (Pacific Daylight Time)","446775","Trustworthy,Untrustworthy","html-keyboard-response","122","183660","0.0-11.0-1.37","","1591","","<div class='trialDiv'><img src='Fruit/mango.png'><br><font class='baseline'><strong>Mega Mangos</strong><p>Choose number of points to bet.</font><div class='respPicDiv'><img src='img/responseButtonOffersNo0L.png' class='respPic'></div></div>","1","13","Mega Mangos","Fruit/mango.png","Won","0.2,0.65","10","0.2","239","38","",""
"","","","decisionFB","5c75dbce7d36140017c53257","bdp_rwlrn","Tue Mar 14 2023 10:46:06 GMT-0700 (Pacific Daylight Time)","446775","Trustworthy,Untrustworthy","html-keyboard-response","123","183920","0.0-11.0-2.37","","null","","<div class='trialDiv'><img src='Fruit/mango.png'><br><font class='baseline'><strong>Mega Mangos</strong><p>Choose number of points to bet.</font><div class='respPicDiv'><img src='img/responseButtonOffersNo0L1.png' class='respPic'></div></div>","null","13","Mega Mangos","Fruit/mango.png","Won","0.2,0.65","10","0.2","238","38","",""
"","","","feedback","5c75dbce7d36140017c53257","bdp_rwlrn","Tue Mar 14 2023 10:46:06 GMT-0700 (Pacific Daylight Time)","446775","Trustworthy,Untrustworthy","html-keyboard-response","124","184925","0.0-11.0-3.37","","null","","<div class='respPicDiv'><img src='img/responseButtonOffersNo0_wht.png' class='respPic'></div><div class='trialDiv'><img src='Fruit/mango.png'><br><font class='baseline'><strong>Mega Mangos</strong><p><strong><font class='posOutcome'>You WON</font><p>You bet: 1</strong></font> &nbsp; &nbsp; &nbsp; &nbsp; &nbsp; &nbsp;<font class='posOutcome'>you receive: <strong>2</strong></font></div>","null","13","Mega Mangos","Fruit/mango.png","Won","0.2,0.65","10","0.2","240","38","",""
"","","","decision","5c75dbce7d36140017c53257","bdp_rwlrn","Tue Mar 14 2023 10:46:06 GMT-0700 (Pacific Daylight Time)","446775","Trustworthy,Untrustworthy","html-keyboard-response","125","185423","0.0-11.0-1.38","","497","","<div class='trialDiv'><img src='Fruit/grapes.png'><br><font class='baseline'><strong>Great Grapes</strong><p>Choose number of points to bet.</font><div class='respPicDiv'><img src='img/responseButtonOffersNo0L.png' class='respPic'></div></div>","5","13","Great Grapes","Fruit/grapes.png","Lost","0.8,0.35","10","0.8","245","39","",""
"","","","decisionFB","5c75dbce7d36140017c53257","bdp_rwlrn","Tue Mar 14 2023 10:46:06 GMT-0700 (Pacific Daylight Time)","446775","Trustworthy,Untrustworthy","html-keyboard-response","126","185675","0.0-11.0-2.38","","null","","<div class='trialDiv'><img src='Fruit/grapes.png'><br><font class='baseline'><strong>Great Grapes</strong><p>Choose number of points to bet.</font><div class='respPicDiv'><img src='img/responseButtonOffersNo0L5.png' class='respPic'></div></div>","null","13","Great Grapes","Fruit/grapes.png","Lost","0.8,0.35","10","0.8","240","39","",""
"","","","feedback","5c75dbce7d36140017c53257","bdp_rwlrn","Tue Mar 14 2023 10:46:06 GMT-0700 (Pacific Daylight Time)","446775","Trustworthy,Untrustworthy","html-keyboard-response","127","186685","0.0-11.0-3.38","","null","","<div class='respPicDiv'><img src='img/responseButtonOffersNo0_wht.png' class='respPic'></div><div class='trialDiv'><img src='Fruit/grapes.png'><br><font class='baseline'><strong>Great Grapes</strong><p><strong><font class='negOutcome'>You LOST</font><p>You bet: 5</strong></font> &nbsp; &nbsp; &nbsp; &nbsp; &nbsp; &nbsp;<font class='negOutcome'>You receive: <strong>0</strong></font></div>","null","13","Great Grapes","Fruit/grapes.png","Lost","0.8,0.35","10","0.8","240","39","",""
"","","","decision","5c75dbce7d36140017c53257","bdp_rwlrn","Tue Mar 14 2023 10:46:06 GMT-0700 (Pacific Daylight Time)","446775","Trustworthy,Untrustworthy","html-keyboard-response","128","188043","0.0-11.0-1.39","","1357","","<div class='trialDiv'><img src='Fruit/Kiwi.png'><br><font class='baseline'><strong>Kiwi Kash</strong><p>Choose number of points to bet.</font><div class='respPicDiv'><img src='img/responseButtonOffersNo0L.png' class='respPic'></div></div>","5","14","Kiwi Kash","Fruit/Kiwi.png","Lost","0.8,0.2","14","0.8","245","40","",""
"","","","decisionFB","5c75dbce7d36140017c53257","bdp_rwlrn","Tue Mar 14 2023 10:46:06 GMT-0700 (Pacific Daylight Time)","446775","Trustworthy,Untrustworthy","html-keyboard-response","129","188303","0.0-11.0-2.39","","null","","<div class='trialDiv'><img src='Fruit/Kiwi.png'><br><font class='baseline'><strong>Kiwi Kash</strong><p>Choose number of points to bet.</font><div class='respPicDiv'><img src='img/responseButtonOffersNo0L5.png' class='respPic'></div></div>","null","14","Kiwi Kash","Fruit/Kiwi.png","Lost","0.8,0.2","14","0.8","240","40","",""
"","","","feedback","5c75dbce7d36140017c53257","bdp_rwlrn","Tue Mar 14 2023 10:46:06 GMT-0700 (Pacific Daylight Time)","446775","Trustworthy,Untrustworthy","html-keyboard-response","130","189316","0.0-11.0-3.39","","null","","<div class='respPicDiv'><img src='img/responseButtonOffersNo0_wht.png' class='respPic'></div><div class='trialDiv'><img src='Fruit/Kiwi.png'><br><font class='baseline'><strong>Kiwi Kash</strong><p><strong><font class='negOutcome'>You LOST</font><p>You bet: 5</strong></font> &nbsp; &nbsp; &nbsp; &nbsp; &nbsp; &nbsp;<font class='negOutcome'>You receive: <strong>0</strong></font></div>","null","14","Kiwi Kash","Fruit/Kiwi.png","Lost","0.8,0.2","14","0.8","240","40","",""
"","","","decision","5c75dbce7d36140017c53257","bdp_rwlrn","Tue Mar 14 2023 10:46:06 GMT-0700 (Pacific Daylight Time)","446775","Trustworthy,Untrustworthy","html-keyboard-response","131","189756","0.0-11.0-1.40","","440","","<div class='trialDiv'><img src='Fruit/mango.png'><br><font class='baseline'><strong>Mega Mangos</strong><p>Choose number of points to bet.</font><div class='respPicDiv'><img src='img/responseButtonOffersNo0L.png' class='respPic'></div></div>","5","14","Mega Mangos","Fruit/mango.png","Won","0.2,0.65","10","0.2","245","41","",""
"","","","decisionFB","5c75dbce7d36140017c53257","bdp_rwlrn","Tue Mar 14 2023 10:46:06 GMT-0700 (Pacific Daylight Time)","446775","Trustworthy,Untrustworthy","html-keyboard-response","132","190008","0.0-11.0-2.40","","null","","<div class='trialDiv'><img src='Fruit/mango.png'><br><font class='baseline'><strong>Mega Mangos</strong><p>Choose number of points to bet.</font><div class='respPicDiv'><img src='img/responseButtonOffersNo0L5.png' class='respPic'></div></div>","null","14","Mega Mangos","Fruit/mango.png","Won","0.2,0.65","10","0.2","240","41","",""
"","","","feedback","5c75dbce7d36140017c53257","bdp_rwlrn","Tue Mar 14 2023 10:46:06 GMT-0700 (Pacific Daylight Time)","446775","Trustworthy,Untrustworthy","html-keyboard-response","133","191010","0.0-11.0-3.40","","null","","<div class='respPicDiv'><img src='img/responseButtonOffersNo0_wht.png' class='respPic'></div><div class='trialDiv'><img src='Fruit/mango.png'><br><font class='baseline'><strong>Mega Mangos</strong><p><strong><font class='posOutcome'>You WON</font><p>You bet: 5</strong></font> &nbsp; &nbsp; &nbsp; &nbsp; &nbsp; &nbsp;<font class='posOutcome'>you receive: <strong>10</strong></font></div>","null","14","Mega Mangos","Fruit/mango.png","Won","0.2,0.65","10","0.2","250","41","",""
"","","","decision","5c75dbce7d36140017c53257","bdp_rwlrn","Tue Mar 14 2023 10:46:06 GMT-0700 (Pacific Daylight Time)","446775","Trustworthy,Untrustworthy","html-keyboard-response","134","191939","0.0-11.0-1.41","","928","","<div class='trialDiv'><img src='Fruit/grapes.png'><br><font class='baseline'><strong>Great Grapes</strong><p>Choose number of points to bet.</font><div class='respPicDiv'><img src='img/responseButtonOffersNo0L.png' class='respPic'></div></div>","1","14","Great Grapes","Fruit/grapes.png","Lost","0.8,0.35","10","0.8","255","42","",""
"","","","decisionFB","5c75dbce7d36140017c53257","bdp_rwlrn","Tue Mar 14 2023 10:46:06 GMT-0700 (Pacific Daylight Time)","446775","Trustworthy,Untrustworthy","html-keyboard-response","135","192201","0.0-11.0-2.41","","null","","<div class='trialDiv'><img src='Fruit/grapes.png'><br><font class='baseline'><strong>Great Grapes</strong><p>Choose number of points to bet.</font><div class='respPicDiv'><img src='img/responseButtonOffersNo0L1.png' class='respPic'></div></div>","null","14","Great Grapes","Fruit/grapes.png","Lost","0.8,0.35","10","0.8","254","42","",""
"","","","feedback","5c75dbce7d36140017c53257","bdp_rwlrn","Tue Mar 14 2023 10:46:06 GMT-0700 (Pacific Daylight Time)","446775","Trustworthy,Untrustworthy","html-keyboard-response","136","193208","0.0-11.0-3.41","","null","","<div class='respPicDiv'><img src='img/responseButtonOffersNo0_wht.png' class='respPic'></div><div class='trialDiv'><img src='Fruit/grapes.png'><br><font class='baseline'><strong>Great Grapes</strong><p><strong><font class='negOutcome'>You LOST</font><p>You bet: 1</strong></font> &nbsp; &nbsp; &nbsp; &nbsp; &nbsp; &nbsp;<font class='negOutcome'>You receive: <strong>0</strong></font></div>","null","14","Great Grapes","Fruit/grapes.png","Lost","0.8,0.35","10","0.8","254","42","",""
"","","","decision","5c75dbce7d36140017c53257","bdp_rwlrn","Tue Mar 14 2023 10:46:06 GMT-0700 (Pacific Daylight Time)","446775","Trustworthy,Untrustworthy","html-keyboard-response","137","193620","0.0-11.0-1.42","","412","","<div class='trialDiv'><img src='Fruit/Kiwi.png'><br><font class='baseline'><strong>Kiwi Kash</strong><p>Choose number of points to bet.</font><div class='respPicDiv'><img src='img/responseButtonOffersNo0L.png' class='respPic'></div></div>","1","15","Kiwi Kash","Fruit/Kiwi.png","Lost","0.8,0.2","14","0.8","259","43","",""
"","","","decisionFB","5c75dbce7d36140017c53257","bdp_rwlrn","Tue Mar 14 2023 10:46:06 GMT-0700 (Pacific Daylight Time)","446775","Trustworthy,Untrustworthy","html-keyboard-response","138","193873","0.0-11.0-2.42","","null","","<div class='trialDiv'><img src='Fruit/Kiwi.png'><br><font class='baseline'><strong>Kiwi Kash</strong><p>Choose number of points to bet.</font><div class='respPicDiv'><img src='img/responseButtonOffersNo0L1.png' class='respPic'></div></div>","null","15","Kiwi Kash","Fruit/Kiwi.png","Lost","0.8,0.2","14","0.8","258","43","",""
"","","","feedback","5c75dbce7d36140017c53257","bdp_rwlrn","Tue Mar 14 2023 10:46:06 GMT-0700 (Pacific Daylight Time)","446775","Trustworthy,Untrustworthy","html-keyboard-response","139","194880","0.0-11.0-3.42","","null","","<div class='respPicDiv'><img src='img/responseButtonOffersNo0_wht.png' class='respPic'></div><div class='trialDiv'><img src='Fruit/Kiwi.png'><br><font class='baseline'><strong>Kiwi Kash</strong><p><strong><font class='negOutcome'>You LOST</font><p>You bet: 1</strong></font> &nbsp; &nbsp; &nbsp; &nbsp; &nbsp; &nbsp;<font class='negOutcome'>You receive: <strong>0</strong></font></div>","null","15","Kiwi Kash","Fruit/Kiwi.png","Lost","0.8,0.2","14","0.8","258","43","",""
"","","","decision","5c75dbce7d36140017c53257","bdp_rwlrn","Tue Mar 14 2023 10:46:06 GMT-0700 (Pacific Daylight Time)","446775","Trustworthy,Untrustworthy","html-keyboard-response","140","195698","0.0-11.0-1.43","","818","","<div class='trialDiv'><img src='Fruit/grapes.png'><br><font class='baseline'><strong>Great Grapes</strong><p>Choose number of points to bet.</font><div class='respPicDiv'><img src='img/responseButtonOffersNo0L.png' class='respPic'></div></div>","1","15","Great Grapes","Fruit/grapes.png","Won","0.8,0.35","10","0.8","263","44","",""
"","","","decisionFB","5c75dbce7d36140017c53257","bdp_rwlrn","Tue Mar 14 2023 10:46:06 GMT-0700 (Pacific Daylight Time)","446775","Trustworthy,Untrustworthy","html-keyboard-response","141","195963","0.0-11.0-2.43","","null","","<div class='trialDiv'><img src='Fruit/grapes.png'><br><font class='baseline'><strong>Great Grapes</strong><p>Choose number of points to bet.</font><div class='respPicDiv'><img src='img/responseButtonOffersNo0L1.png' class='respPic'></div></div>","null","15","Great Grapes","Fruit/grapes.png","Won","0.8,0.35","10","0.8","262","44","",""
"","","","feedback","5c75dbce7d36140017c53257","bdp_rwlrn","Tue Mar 14 2023 10:46:06 GMT-0700 (Pacific Daylight Time)","446775","Trustworthy,Untrustworthy","html-keyboard-response","142","196973","0.0-11.0-3.43","","null","","<div class='respPicDiv'><img src='img/responseButtonOffersNo0_wht.png' class='respPic'></div><div class='trialDiv'><img src='Fruit/grapes.png'><br><font class='baseline'><strong>Great Grapes</strong><p><strong><font class='posOutcome'>You WON</font><p>You bet: 1</strong></font> &nbsp; &nbsp; &nbsp; &nbsp; &nbsp; &nbsp;<font class='posOutcome'>you receive: <strong>2</strong></font></div>","null","15","Great Grapes","Fruit/grapes.png","Won","0.8,0.35","10","0.8","264","44","",""
"","","","decision","5c75dbce7d36140017c53257","bdp_rwlrn","Tue Mar 14 2023 10:46:06 GMT-0700 (Pacific Daylight Time)","446775","Trustworthy,Untrustworthy","html-keyboard-response","143","197871","0.0-11.0-1.44","","898","","<div class='trialDiv'><img src='Fruit/mango.png'><br><font class='baseline'><strong>Mega Mangos</strong><p>Choose number of points to bet.</font><div class='respPicDiv'><img src='img/responseButtonOffersNo0L.png' class='respPic'></div></div>","5","15","Mega Mangos","Fruit/mango.png","Won","0.2,0.65","10","0.2","269","45","",""
"","","","decisionFB","5c75dbce7d36140017c53257","bdp_rwlrn","Tue Mar 14 2023 10:46:06 GMT-0700 (Pacific Daylight Time)","446775","Trustworthy,Untrustworthy","html-keyboard-response","144","198132","0.0-11.0-2.44","","null","","<div class='trialDiv'><img src='Fruit/mango.png'><br><font class='baseline'><strong>Mega Mangos</strong><p>Choose number of points to bet.</font><div class='respPicDiv'><img src='img/responseButtonOffersNo0L5.png' class='respPic'></div></div>","null","15","Mega Mangos","Fruit/mango.png","Won","0.2,0.65","10","0.2","264","45","",""
"","","","feedback","5c75dbce7d36140017c53257","bdp_rwlrn","Tue Mar 14 2023 10:46:06 GMT-0700 (Pacific Daylight Time)","446775","Trustworthy,Untrustworthy","html-keyboard-response","145","199137","0.0-11.0-3.44","","null","","<div class='respPicDiv'><img src='img/responseButtonOffersNo0_wht.png' class='respPic'></div><div class='trialDiv'><img src='Fruit/mango.png'><br><font class='baseline'><strong>Mega Mangos</strong><p><strong><font class='posOutcome'>You WON</font><p>You bet: 5</strong></font> &nbsp; &nbsp; &nbsp; &nbsp; &nbsp; &nbsp;<font class='posOutcome'>you receive: <strong>10</strong></font></div>","null","15","Mega Mangos","Fruit/mango.png","Won","0.2,0.65","10","0.2","274","45","",""
"","","","decision","5c75dbce7d36140017c53257","bdp_rwlrn","Tue Mar 14 2023 10:46:06 GMT-0700 (Pacific Daylight Time)","446775","Trustworthy,Untrustworthy","html-keyboard-response","146","200568","0.0-11.0-1.45","","1430","","<div class='trialDiv'><img src='Fruit/grapes.png'><br><font class='baseline'><strong>Great Grapes</strong><p>Choose number of points to bet.</font><div class='respPicDiv'><img src='img/responseButtonOffersNo0L.png' class='respPic'></div></div>","2","16","Great Grapes","Fruit/grapes.png","Lost","0.8,0.35","10","0.8","279","46","",""
"","","","decisionFB","5c75dbce7d36140017c53257","bdp_rwlrn","Tue Mar 14 2023 10:46:06 GMT-0700 (Pacific Daylight Time)","446775","Trustworthy,Untrustworthy","html-keyboard-response","147","200828","0.0-11.0-2.45","","null","","<div class='trialDiv'><img src='Fruit/grapes.png'><br><font class='baseline'><strong>Great Grapes</strong><p>Choose number of points to bet.</font><div class='respPicDiv'><img src='img/responseButtonOffersNo0L2.png' class='respPic'></div></div>","null","16","Great Grapes","Fruit/grapes.png","Lost","0.8,0.35","10","0.8","277","46","",""
"","","","feedback","5c75dbce7d36140017c53257","bdp_rwlrn","Tue Mar 14 2023 10:46:06 GMT-0700 (Pacific Daylight Time)","446775","Trustworthy,Untrustworthy","html-keyboard-response","148","201839","0.0-11.0-3.45","","null","","<div class='respPicDiv'><img src='img/responseButtonOffersNo0_wht.png' class='respPic'></div><div class='trialDiv'><img src='Fruit/grapes.png'><br><font class='baseline'><strong>Great Grapes</strong><p><strong><font class='negOutcome'>You LOST</font><p>You bet: 2</strong></font> &nbsp; &nbsp; &nbsp; &nbsp; &nbsp; &nbsp;<font class='negOutcome'>You receive: <strong>0</strong></font></div>","null","16","Great Grapes","Fruit/grapes.png","Lost","0.8,0.35","10","0.8","277","46","",""
"","","","decision","5c75dbce7d36140017c53257","bdp_rwlrn","Tue Mar 14 2023 10:46:06 GMT-0700 (Pacific Daylight Time)","446775","Trustworthy,Untrustworthy","html-keyboard-response","149","203489","0.0-11.0-1.46","","1649","","<div class='trialDiv'><img src='Fruit/mango.png'><br><font class='baseline'><strong>Mega Mangos</strong><p>Choose number of points to bet.</font><div class='respPicDiv'><img src='img/responseButtonOffersNo0L.png' class='respPic'></div></div>","5","16","Mega Mangos","Fruit/mango.png","Won","0.2,0.65","10","0.2","282","47","",""
"","","","decisionFB","5c75dbce7d36140017c53257","bdp_rwlrn","Tue Mar 14 2023 10:46:06 GMT-0700 (Pacific Daylight Time)","446775","Trustworthy,Untrustworthy","html-keyboard-response","150","203741","0.0-11.0-2.46","","null","","<div class='trialDiv'><img src='Fruit/mango.png'><br><font class='baseline'><strong>Mega Mangos</strong><p>Choose number of points to bet.</font><div class='respPicDiv'><img src='img/responseButtonOffersNo0L5.png' class='respPic'></div></div>","null","16","Mega Mangos","Fruit/mango.png","Won","0.2,0.65","10","0.2","277","47","",""
"","","","feedback","5c75dbce7d36140017c53257","bdp_rwlrn","Tue Mar 14 2023 10:46:06 GMT-0700 (Pacific Daylight Time)","446775","Trustworthy,Untrustworthy","html-keyboard-response","151","204751","0.0-11.0-3.46","","null","","<div class='respPicDiv'><img src='img/responseButtonOffersNo0_wht.png' class='respPic'></div><div class='trialDiv'><img src='Fruit/mango.png'><br><font class='baseline'><strong>Mega Mangos</strong><p><strong><font class='posOutcome'>You WON</font><p>You bet: 5</strong></font> &nbsp; &nbsp; &nbsp; &nbsp; &nbsp; &nbsp;<font class='posOutcome'>you receive: <strong>10</strong></font></div>","null","16","Mega Mangos","Fruit/mango.png","Won","0.2,0.65","10","0.2","287","47","",""
"","","","decision","5c75dbce7d36140017c53257","bdp_rwlrn","Tue Mar 14 2023 10:46:06 GMT-0700 (Pacific Daylight Time)","446775","Trustworthy,Untrustworthy","html-keyboard-response","152","205659","0.0-11.0-1.47","","906","","<div class='trialDiv'><img src='Fruit/Kiwi.png'><br><font class='baseline'><strong>Kiwi Kash</strong><p>Choose number of points to bet.</font><div class='respPicDiv'><img src='img/responseButtonOffersNo0L.png' class='respPic'></div></div>","2","16","Kiwi Kash","Fruit/Kiwi.png","Lost","0.8,0.2","14","0.8","292","48","",""
"","","","decisionFB","5c75dbce7d36140017c53257","bdp_rwlrn","Tue Mar 14 2023 10:46:06 GMT-0700 (Pacific Daylight Time)","446775","Trustworthy,Untrustworthy","html-keyboard-response","153","205916","0.0-11.0-2.47","","null","","<div class='trialDiv'><img src='Fruit/Kiwi.png'><br><font class='baseline'><strong>Kiwi Kash</strong><p>Choose number of points to bet.</font><div class='respPicDiv'><img src='img/responseButtonOffersNo0L2.png' class='respPic'></div></div>","null","16","Kiwi Kash","Fruit/Kiwi.png","Lost","0.8,0.2","14","0.8","290","48","",""
"","","","feedback","5c75dbce7d36140017c53257","bdp_rwlrn","Tue Mar 14 2023 10:46:06 GMT-0700 (Pacific Daylight Time)","446775","Trustworthy,Untrustworthy","html-keyboard-response","154","206932","0.0-11.0-3.47","","null","","<div class='respPicDiv'><img src='img/responseButtonOffersNo0_wht.png' class='respPic'></div><div class='trialDiv'><img src='Fruit/Kiwi.png'><br><font class='baseline'><strong>Kiwi Kash</strong><p><strong><font class='negOutcome'>You LOST</font><p>You bet: 2</strong></font> &nbsp; &nbsp; &nbsp; &nbsp; &nbsp; &nbsp;<font class='negOutcome'>You receive: <strong>0</strong></font></div>","null","16","Kiwi Kash","Fruit/Kiwi.png","Lost","0.8,0.2","14","0.8","290","48","",""
"","","","decision","5c75dbce7d36140017c53257","bdp_rwlrn","Tue Mar 14 2023 10:46:06 GMT-0700 (Pacific Daylight Time)","446775","Trustworthy,Untrustworthy","html-keyboard-response","155","209222","0.0-11.0-1.48","","2290","","<div class='trialDiv'><img src='Fruit/mango.png'><br><font class='baseline'><strong>Mega Mangos</strong><p>Choose number of points to bet.</font><div class='respPicDiv'><img src='img/responseButtonOffersNo0L.png' class='respPic'></div></div>","5","17","Mega Mangos","Fruit/mango.png","Won","0.2,0.65","10","0.2","295","49","",""
"","","","decisionFB","5c75dbce7d36140017c53257","bdp_rwlrn","Tue Mar 14 2023 10:46:06 GMT-0700 (Pacific Daylight Time)","446775","Trustworthy,Untrustworthy","html-keyboard-response","156","209473","0.0-11.0-2.48","","null","","<div class='trialDiv'><img src='Fruit/mango.png'><br><font class='baseline'><strong>Mega Mangos</strong><p>Choose number of points to bet.</font><div class='respPicDiv'><img src='img/responseButtonOffersNo0L5.png' class='respPic'></div></div>","null","17","Mega Mangos","Fruit/mango.png","Won","0.2,0.65","10","0.2","290","49","",""
"","","","feedback","5c75dbce7d36140017c53257","bdp_rwlrn","Tue Mar 14 2023 10:46:06 GMT-0700 (Pacific Daylight Time)","446775","Trustworthy,Untrustworthy","html-keyboard-response","157","210490","0.0-11.0-3.48","","null","","<div class='respPicDiv'><img src='img/responseButtonOffersNo0_wht.png' class='respPic'></div><div class='trialDiv'><img src='Fruit/mango.png'><br><font class='baseline'><strong>Mega Mangos</strong><p><strong><font class='posOutcome'>You WON</font><p>You bet: 5</strong></font> &nbsp; &nbsp; &nbsp; &nbsp; &nbsp; &nbsp;<font class='posOutcome'>you receive: <strong>10</strong></font></div>","null","17","Mega Mangos","Fruit/mango.png","Won","0.2,0.65","10","0.2","300","49","",""
"","","","decision","5c75dbce7d36140017c53257","bdp_rwlrn","Tue Mar 14 2023 10:46:06 GMT-0700 (Pacific Daylight Time)","446775","Trustworthy,Untrustworthy","html-keyboard-response","158","210980","0.0-11.0-1.49","","490","","<div class='trialDiv'><img src='Fruit/grapes.png'><br><font class='baseline'><strong>Great Grapes</strong><p>Choose number of points to bet.</font><div class='respPicDiv'><img src='img/responseButtonOffersNo0L.png' class='respPic'></div></div>","1","17","Great Grapes","Fruit/grapes.png","Lost","0.8,0.35","10","0.8","305","50","",""
"","","","decisionFB","5c75dbce7d36140017c53257","bdp_rwlrn","Tue Mar 14 2023 10:46:06 GMT-0700 (Pacific Daylight Time)","446775","Trustworthy,Untrustworthy","html-keyboard-response","159","211241","0.0-11.0-2.49","","null","","<div class='trialDiv'><img src='Fruit/grapes.png'><br><font class='baseline'><strong>Great Grapes</strong><p>Choose number of points to bet.</font><div class='respPicDiv'><img src='img/responseButtonOffersNo0L1.png' class='respPic'></div></div>","null","17","Great Grapes","Fruit/grapes.png","Lost","0.8,0.35","10","0.8","304","50","",""
"","","","feedback","5c75dbce7d36140017c53257","bdp_rwlrn","Tue Mar 14 2023 10:46:06 GMT-0700 (Pacific Daylight Time)","446775","Trustworthy,Untrustworthy","html-keyboard-response","160","212246","0.0-11.0-3.49","","null","","<div class='respPicDiv'><img src='img/responseButtonOffersNo0_wht.png' class='respPic'></div><div class='trialDiv'><img src='Fruit/grapes.png'><br><font class='baseline'><strong>Great Grapes</strong><p><strong><font class='negOutcome'>You LOST</font><p>You bet: 1</strong></font> &nbsp; &nbsp; &nbsp; &nbsp; &nbsp; &nbsp;<font class='negOutcome'>You receive: <strong>0</strong></font></div>","null","17","Great Grapes","Fruit/grapes.png","Lost","0.8,0.35","10","0.8","304","50","",""
"","","","decision","5c75dbce7d36140017c53257","bdp_rwlrn","Tue Mar 14 2023 10:46:06 GMT-0700 (Pacific Daylight Time)","446775","Trustworthy,Untrustworthy","html-keyboard-response","161","213364","0.0-11.0-1.50","","1118","","<div class='trialDiv'><img src='Fruit/Kiwi.png'><br><font class='baseline'><strong>Kiwi Kash</strong><p>Choose number of points to bet.</font><div class='respPicDiv'><img src='img/responseButtonOffersNo0L.png' class='respPic'></div></div>","2","17","Kiwi Kash","Fruit/Kiwi.png","Won","0.8,0.2","14","0.8","309","51","",""
"","","","decisionFB","5c75dbce7d36140017c53257","bdp_rwlrn","Tue Mar 14 2023 10:46:06 GMT-0700 (Pacific Daylight Time)","446775","Trustworthy,Untrustworthy","html-keyboard-response","162","213623","0.0-11.0-2.50","","null","","<div class='trialDiv'><img src='Fruit/Kiwi.png'><br><font class='baseline'><strong>Kiwi Kash</strong><p>Choose number of points to bet.</font><div class='respPicDiv'><img src='img/responseButtonOffersNo0L2.png' class='respPic'></div></div>","null","17","Kiwi Kash","Fruit/Kiwi.png","Won","0.8,0.2","14","0.8","307","51","",""
"","","","feedback","5c75dbce7d36140017c53257","bdp_rwlrn","Tue Mar 14 2023 10:46:06 GMT-0700 (Pacific Daylight Time)","446775","Trustworthy,Untrustworthy","html-keyboard-response","163","214627","0.0-11.0-3.50","","null","","<div class='respPicDiv'><img src='img/responseButtonOffersNo0_wht.png' class='respPic'></div><div class='trialDiv'><img src='Fruit/Kiwi.png'><br><font class='baseline'><strong>Kiwi Kash</strong><p><strong><font class='posOutcome'>You WON</font><p>You bet: 2</strong></font> &nbsp; &nbsp; &nbsp; &nbsp; &nbsp; &nbsp;<font class='posOutcome'>you receive: <strong>4</strong></font></div>","null","17","Kiwi Kash","Fruit/Kiwi.png","Won","0.8,0.2","14","0.8","311","51","",""
"","","","decision","5c75dbce7d36140017c53257","bdp_rwlrn","Tue Mar 14 2023 10:46:06 GMT-0700 (Pacific Daylight Time)","446775","Trustworthy,Untrustworthy","html-keyboard-response","164","215624","0.0-11.0-1.51","","997","","<div class='trialDiv'><img src='Fruit/grapes.png'><br><font class='baseline'><strong>Great Grapes</strong><p>Choose number of points to bet.</font><div class='respPicDiv'><img src='img/responseButtonOffersNo0L.png' class='respPic'></div></div>","1","18","Great Grapes","Fruit/grapes.png","Won","0.8,0.35","10","0.8","316","52","",""
"","","","decisionFB","5c75dbce7d36140017c53257","bdp_rwlrn","Tue Mar 14 2023 10:46:06 GMT-0700 (Pacific Daylight Time)","446775","Trustworthy,Untrustworthy","html-keyboard-response","165","215880","0.0-11.0-2.51","","null","","<div class='trialDiv'><img src='Fruit/grapes.png'><br><font class='baseline'><strong>Great Grapes</strong><p>Choose number of points to bet.</font><div class='respPicDiv'><img src='img/responseButtonOffersNo0L1.png' class='respPic'></div></div>","null","18","Great Grapes","Fruit/grapes.png","Won","0.8,0.35","10","0.8","315","52","",""
