"trial_type","trial_index","time_elapsed","internal_node_id","subject_id","task","startTime","totalTime","labels","event","trial","time","trialtype","view_history","rt","success","stimulus","key_press","ltround","name","fileID","outcome","lottotype","lottoswpt","lottocurrpshare","point_total","round","faceID","face"
"pavlovia","0","2","0.0-0.0","570fa921f895a7000f38ca6f","bdp_rwlrn","Wed Mar 15 2023 16:10:54 GMT-0400 (Eastern Daylight Time)","463548","Trustworthy,Untrustworthy","","","","","","","","","","","","","","","","","","","",""
"","","","","570fa921f895a7000f38ca6f","bdp_rwlrn","Wed Mar 15 2023 16:10:54 GMT-0400 (Eastern Daylight Time)","463548","Trustworthy,Untrustworthy","focus","1","57","focusevent","","","","","","","","","","","","","","","",""
"instructions","1","2741","0.0-1.0","570fa921f895a7000f38ca6f","bdp_rwlrn","Wed Mar 15 2023 16:10:54 GMT-0400 (Eastern Daylight Time)","463548","Trustworthy,Untrustworthy","","","","","[{""page_index"":0,""viewing_time"":2738}]","2739","","","","","","","","","","","","","",""
"","","","","570fa921f895a7000f38ca6f","bdp_rwlrn","Wed Mar 15 2023 16:10:54 GMT-0400 (Eastern Daylight Time)","463548","Trustworthy,Untrustworthy","fullscreenenter","2","4361","fullscreenenter","","","","","","","","","","","","","","","",""
"","","","","570fa921f895a7000f38ca6f","bdp_rwlrn","Wed Mar 15 2023 16:10:54 GMT-0400 (Eastern Daylight Time)","463548","Trustworthy,Untrustworthy","fullscreenexit","2","4688","fullscreenexit","","","","","","","","","","","","","","","",""
"fullscreen","2","5350","0.0-2.0","570fa921f895a7000f38ca6f","bdp_rwlrn","Wed Mar 15 2023 16:10:54 GMT-0400 (Eastern Daylight Time)","463548","Trustworthy,Untrustworthy","","","","","","","true","","","","","","","","","","","","",""
"image-keyboard-response","3","12047","0.0-3.0-0.0","570fa921f895a7000f38ca6f","bdp_rwlrn","Wed Mar 15 2023 16:10:54 GMT-0400 (Eastern Daylight Time)","463548","Trustworthy,Untrustworthy","","","","fullscreenfail","","6694","","","32","","","","","","","","","","",""
"instructions","4","164586","0.0-4.0","570fa921f895a7000f38ca6f","bdp_rwlrn","Wed Mar 15 2023 16:10:54 GMT-0400 (Eastern Daylight Time)","463548","Trustworthy,Untrustworthy","","","","","[{""page_index"":0,""viewing_time"":14187},{""page_index"":1,""viewing_time"":63009},{""page_index"":2,""viewing_time"":3678},{""page_index"":3,""viewing_time"":6540},{""page_index"":4,""viewing_time"":60722},{""page_index"":5,""viewing_time"":4139}]","152275","","","","","","","","","","","","","",""
"html-keyboard-response","5","167690","0.0-5.0","570fa921f895a7000f38ca6f","bdp_rwlrn","Wed Mar 15 2023 16:10:54 GMT-0400 (Eastern Daylight Time)","463548","Trustworthy,Untrustworthy","","","","","","3103","","<div class='header' style='text-align:left; position: absolute; top: 5%; left: 5%;'><small>Task 1 of 5</small></div><div class='instruxDiv'><p><strong>1) What is the maximum number of points you can choose to bet on a lottery?</strong></p><p>a) 0</p><p>b) 1</p><p>c) 5</p>","C","","","","","","","","","","",""
"html-keyboard-response","6","168921","0.0-6.0","570fa921f895a7000f38ca6f","bdp_rwlrn","Wed Mar 15 2023 16:10:54 GMT-0400 (Eastern Daylight Time)","463548","Trustworthy,Untrustworthy","","","","","","1122","","<div class='header' style='text-align:left; position: absolute; top: 5%; left: 5%;'><small>Task 1 of 5</small></div><div class='instruxDiv'><p><strong>1) What is the maximum number of points you can choose to bet on a lottery?</strong></p><p>a) 1</p><p>b) 1</p><p style='color:#00FF00'>c) 5</p><h3 style='color:#00FF00'>Correct!</h3><h3 class='center-content'>The correct response is c).</h3><h3 class='center-content'>The maximum number of points you can choose to bet on a lottery is 5 points.</h3><p><em>Press SPACEBAR to continue</em></p></div>"," ","","","","","","","","","","",""
"html-keyboard-response","7","171576","0.0-7.0","570fa921f895a7000f38ca6f","bdp_rwlrn","Wed Mar 15 2023 16:10:54 GMT-0400 (Eastern Daylight Time)","463548","Trustworthy,Untrustworthy","","","","","","2545","","<div class='header' style='text-align:left; position: absolute; top: 5%; left: 5%;'><small>Task 1 of 5</small></div><div class='instruxDiv'><p><strong>2) How many points can you win each round?</strong></p><p>a) 10 points</p><p>b) Double what you bet</p><p>c) Quadruple what you bet</p>","B","","","","","","","","","","",""
"html-keyboard-response","8","172246","0.0-8.0","570fa921f895a7000f38ca6f","bdp_rwlrn","Wed Mar 15 2023 16:10:54 GMT-0400 (Eastern Daylight Time)","463548","Trustworthy,Untrustworthy","","","","","","556","","<div class='header' style='text-align:left; position: absolute; top: 5%; left: 5%;'><small>Task 1 of 5</small></div><div class='instruxDiv'><p><strong>2) How many points can you win each round?</strong></p><p>a) 10 points</p><p style='color:#00FF00'>b) Double what you bet</p><p>c) Quadruple what you bet</p><h3 style='color:#00FF00'>Correct!</h3><h3 class='center-content'>The correct response is b).</h3><h3 class='center-content'>You can win double the amount of points you bet.</h3><p><em>Press SPACEBAR to continue</em></p></div>"," ","","","","","","","","","","",""
"html-keyboard-response","9","177362","0.0-9.0","570fa921f895a7000f38ca6f","bdp_rwlrn","Wed Mar 15 2023 16:10:54 GMT-0400 (Eastern Daylight Time)","463548","Trustworthy,Untrustworthy","","","","","","null","","<div class='header' style='text-align:left; position: absolute; top: 5%; left: 5%;'><small>Task 1 of 5</small></div><div class='instruxDiv'><p>Thank you for completing the quiz<p>These are the actual lotteries you will be playing in the next block:<p><div class='tc' align='center'><img class='introPic' src='Fruit/pears.png'><br><strong>Pears Aplenty</strong></div><div class='bl' align='center'><img class='introPic' src='Fruit/orange.png'><br><strong>Odds are Orange</strong></div><div class='br' align='center'><img class='introPic' src='Fruit/grapes.png'><br><strong>Great Grapes</strong></div></div><p>Across <strong>66 rounds</strong> you will play each lottery <strong>22 times</strong> (in random order).<p style='align:center; color:white'><font <em>Press SPACEBAR to continue</em></p>","null","","","","","","","","","","",""
"instructions","10","182479","0.0-10.0","570fa921f895a7000f38ca6f","bdp_rwlrn","Wed Mar 15 2023 16:10:54 GMT-0400 (Eastern Daylight Time)","463548","Trustworthy,Untrustworthy","","","","","[{""page_index"":0,""viewing_time"":2142},{""page_index"":1,""viewing_time"":2974}]","5116","","","","","","","","","","","","","",""
"html-keyboard-response","11","184478","0.0-11.0-1.0","570fa921f895a7000f38ca6f","bdp_rwlrn","Wed Mar 15 2023 16:10:54 GMT-0400 (Eastern Daylight Time)","463548","Trustworthy,Untrustworthy","","","","decision","","1880","","<div class='trialDiv'><img src='Fruit/pears.png'><br><font class='baseline'><strong>Pears Aplenty</strong><p>Choose number of points to bet.</font><div class='respPicDiv'><img src='img/responseButtonOffersNo0L.png' class='respPic'></div></div>","4","1","Pears Aplenty","Fruit/pears.png","Lost","0.35,0.8","13","0.35","5","1","",""
"html-keyboard-response","12","184734","0.0-11.0-2.0","570fa921f895a7000f38ca6f","bdp_rwlrn","Wed Mar 15 2023 16:10:54 GMT-0400 (Eastern Daylight Time)","463548","Trustworthy,Untrustworthy","","","","decisionFB","","null","","<div class='trialDiv'><img src='Fruit/pears.png'><br><font class='baseline'><strong>Pears Aplenty</strong><p>Choose number of points to bet.</font><div class='respPicDiv'><img src='img/responseButtonOffersNo0L4.png' class='respPic'></div></div>","null","1","Pears Aplenty","Fruit/pears.png","Lost","0.35,0.8","13","0.35","1","1","",""
"html-keyboard-response","13","185751","0.0-11.0-3.0","570fa921f895a7000f38ca6f","bdp_rwlrn","Wed Mar 15 2023 16:10:54 GMT-0400 (Eastern Daylight Time)","463548","Trustworthy,Untrustworthy","","","","feedback","","null","","<div class='respPicDiv'><img src='img/responseButtonOffersNo0_wht.png' class='respPic'></div><div class='trialDiv'><img src='Fruit/pears.png'><br><font class='baseline'><strong>Pears Aplenty</strong><p><strong><font class='negOutcome'>You LOST</font><p>You bet: 4</strong></font> &nbsp; &nbsp; &nbsp; &nbsp; &nbsp; &nbsp;<font class='negOutcome'>You receive: <strong>0</strong></font></div>","null","1","Pears Aplenty","Fruit/pears.png","Lost","0.35,0.8","13","0.35","1","1","",""
"html-keyboard-response","14","190074","0.0-11.0-1.1","570fa921f895a7000f38ca6f","bdp_rwlrn","Wed Mar 15 2023 16:10:54 GMT-0400 (Eastern Daylight Time)","463548","Trustworthy,Untrustworthy","","","","decision","","4322","","<div class='trialDiv'><img src='Fruit/grapes.png'><br><font class='baseline'><strong>Great Grapes</strong><p>Choose number of points to bet.</font><div class='respPicDiv'><img src='img/responseButtonOffersNo0L.png' class='respPic'></div></div>","5","1","Great Grapes","Fruit/grapes.png","Won","0.8,0.35","12","0.8","6","2","",""
"html-keyboard-response","15","190328","0.0-11.0-2.1","570fa921f895a7000f38ca6f","bdp_rwlrn","Wed Mar 15 2023 16:10:54 GMT-0400 (Eastern Daylight Time)","463548","Trustworthy,Untrustworthy","","","","decisionFB","","null","","<div class='trialDiv'><img src='Fruit/grapes.png'><br><font class='baseline'><strong>Great Grapes</strong><p>Choose number of points to bet.</font><div class='respPicDiv'><img src='img/responseButtonOffersNo0L5.png' class='respPic'></div></div>","null","1","Great Grapes","Fruit/grapes.png","Won","0.8,0.35","12","0.8","1","2","",""
"html-keyboard-response","16","191345","0.0-11.0-3.1","570fa921f895a7000f38ca6f","bdp_rwlrn","Wed Mar 15 2023 16:10:54 GMT-0400 (Eastern Daylight Time)","463548","Trustworthy,Untrustworthy","","","","feedback","","null","","<div class='respPicDiv'><img src='img/responseButtonOffersNo0_wht.png' class='respPic'></div><div class='trialDiv'><img src='Fruit/grapes.png'><br><font class='baseline'><strong>Great Grapes</strong><p><strong><font class='posOutcome'>You WON</font><p>You bet: 5</strong></font> &nbsp; &nbsp; &nbsp; &nbsp; &nbsp; &nbsp;<font class='posOutcome'>you receive: <strong>10</strong></font></div>","null","1","Great Grapes","Fruit/grapes.png","Won","0.8,0.35","12","0.8","11","2","",""
"html-keyboard-response","17","193143","0.0-11.0-1.2","570fa921f895a7000f38ca6f","bdp_rwlrn","Wed Mar 15 2023 16:10:54 GMT-0400 (Eastern Daylight Time)","463548","Trustworthy,Untrustworthy","","","","decision","","1797","","<div class='trialDiv'><img src='Fruit/orange.png'><br><font class='baseline'><strong>Odds are Orange</strong><p>Choose number of points to bet.</font><div class='respPicDiv'><img src='img/responseButtonOffersNo0L.png' class='respPic'></div></div>","3","1","Odds are Orange","Fruit/orange.png","Lost","0.35,0.65","13","0.35","16","3","",""
"html-keyboard-response","18","193407","0.0-11.0-2.2","570fa921f895a7000f38ca6f","bdp_rwlrn","Wed Mar 15 2023 16:10:54 GMT-0400 (Eastern Daylight Time)","463548","Trustworthy,Untrustworthy","","","","decisionFB","","null","","<div class='trialDiv'><img src='Fruit/orange.png'><br><font class='baseline'><strong>Odds are Orange</strong><p>Choose number of points to bet.</font><div class='respPicDiv'><img src='img/responseButtonOffersNo0L3.png' class='respPic'></div></div>","null","1","Odds are Orange","Fruit/orange.png","Lost","0.35,0.65","13","0.35","13","3","",""
"html-keyboard-response","19","194423","0.0-11.0-3.2","570fa921f895a7000f38ca6f","bdp_rwlrn","Wed Mar 15 2023 16:10:54 GMT-0400 (Eastern Daylight Time)","463548","Trustworthy,Untrustworthy","","","","feedback","","null","","<div class='respPicDiv'><img src='img/responseButtonOffersNo0_wht.png' class='respPic'></div><div class='trialDiv'><img src='Fruit/orange.png'><br><font class='baseline'><strong>Odds are Orange</strong><p><strong><font class='negOutcome'>You LOST</font><p>You bet: 3</strong></font> &nbsp; &nbsp; &nbsp; &nbsp; &nbsp; &nbsp;<font class='negOutcome'>You receive: <strong>0</strong></font></div>","null","1","Odds are Orange","Fruit/orange.png","Lost","0.35,0.65","13","0.35","13","3","",""
"html-keyboard-response","20","196084","0.0-11.0-1.3","570fa921f895a7000f38ca6f","bdp_rwlrn","Wed Mar 15 2023 16:10:54 GMT-0400 (Eastern Daylight Time)","463548","Trustworthy,Untrustworthy","","","","decision","","1661","","<div class='trialDiv'><img src='Fruit/pears.png'><br><font class='baseline'><strong>Pears Aplenty</strong><p>Choose number of points to bet.</font><div class='respPicDiv'><img src='img/responseButtonOffersNo0L.png' class='respPic'></div></div>","5","2","Pears Aplenty","Fruit/pears.png","Lost","0.35,0.8","13","0.35","18","4","",""
"html-keyboard-response","21","196346","0.0-11.0-2.3","570fa921f895a7000f38ca6f","bdp_rwlrn","Wed Mar 15 2023 16:10:54 GMT-0400 (Eastern Daylight Time)","463548","Trustworthy,Untrustworthy","","","","decisionFB","","null","","<div class='trialDiv'><img src='Fruit/pears.png'><br><font class='baseline'><strong>Pears Aplenty</strong><p>Choose number of points to bet.</font><div class='respPicDiv'><img src='img/responseButtonOffersNo0L5.png' class='respPic'></div></div>","null","2","Pears Aplenty","Fruit/pears.png","Lost","0.35,0.8","13","0.35","13","4","",""
"html-keyboard-response","22","197361","0.0-11.0-3.3","570fa921f895a7000f38ca6f","bdp_rwlrn","Wed Mar 15 2023 16:10:54 GMT-0400 (Eastern Daylight Time)","463548","Trustworthy,Untrustworthy","","","","feedback","","null","","<div class='respPicDiv'><img src='img/responseButtonOffersNo0_wht.png' class='respPic'></div><div class='trialDiv'><img src='Fruit/pears.png'><br><font class='baseline'><strong>Pears Aplenty</strong><p><strong><font class='negOutcome'>You LOST</font><p>You bet: 5</strong></font> &nbsp; &nbsp; &nbsp; &nbsp; &nbsp; &nbsp;<font class='negOutcome'>You receive: <strong>0</strong></font></div>","null","2","Pears Aplenty","Fruit/pears.png","Lost","0.35,0.8","13","0.35","13","4","",""
"html-keyboard-response","23","199249","0.0-11.0-1.4","570fa921f895a7000f38ca6f","bdp_rwlrn","Wed Mar 15 2023 16:10:54 GMT-0400 (Eastern Daylight Time)","463548","Trustworthy,Untrustworthy","","","","decision","","1887","","<div class='trialDiv'><img src='Fruit/orange.png'><br><font class='baseline'><strong>Odds are Orange</strong><p>Choose number of points to bet.</font><div class='respPicDiv'><img src='img/responseButtonOffersNo0L.png' class='respPic'></div></div>","5","2","Odds are Orange","Fruit/orange.png","Lost","0.35,0.65","13","0.35","18","5","",""
"html-keyboard-response","24","199501","0.0-11.0-2.4","570fa921f895a7000f38ca6f","bdp_rwlrn","Wed Mar 15 2023 16:10:54 GMT-0400 (Eastern Daylight Time)","463548","Trustworthy,Untrustworthy","","","","decisionFB","","null","","<div class='trialDiv'><img src='Fruit/orange.png'><br><font class='baseline'><strong>Odds are Orange</strong><p>Choose number of points to bet.</font><div class='respPicDiv'><img src='img/responseButtonOffersNo0L5.png' class='respPic'></div></div>","null","2","Odds are Orange","Fruit/orange.png","Lost","0.35,0.65","13","0.35","13","5","",""
"html-keyboard-response","25","200503","0.0-11.0-3.4","570fa921f895a7000f38ca6f","bdp_rwlrn","Wed Mar 15 2023 16:10:54 GMT-0400 (Eastern Daylight Time)","463548","Trustworthy,Untrustworthy","","","","feedback","","null","","<div class='respPicDiv'><img src='img/responseButtonOffersNo0_wht.png' class='respPic'></div><div class='trialDiv'><img src='Fruit/orange.png'><br><font class='baseline'><strong>Odds are Orange</strong><p><strong><font class='negOutcome'>You LOST</font><p>You bet: 5</strong></font> &nbsp; &nbsp; &nbsp; &nbsp; &nbsp; &nbsp;<font class='negOutcome'>You receive: <strong>0</strong></font></div>","null","2","Odds are Orange","Fruit/orange.png","Lost","0.35,0.65","13","0.35","13","5","",""
"html-keyboard-response","26","202447","0.0-11.0-1.5","570fa921f895a7000f38ca6f","bdp_rwlrn","Wed Mar 15 2023 16:10:54 GMT-0400 (Eastern Daylight Time)","463548","Trustworthy,Untrustworthy","","","","decision","","1943","","<div class='trialDiv'><img src='Fruit/grapes.png'><br><font class='baseline'><strong>Great Grapes</strong><p>Choose number of points to bet.</font><div class='respPicDiv'><img src='img/responseButtonOffersNo0L.png' class='respPic'></div></div>","5","2","Great Grapes","Fruit/grapes.png","Won","0.8,0.35","12","0.8","18","6","",""
"html-keyboard-response","27","202701","0.0-11.0-2.5","570fa921f895a7000f38ca6f","bdp_rwlrn","Wed Mar 15 2023 16:10:54 GMT-0400 (Eastern Daylight Time)","463548","Trustworthy,Untrustworthy","","","","decisionFB","","null","","<div class='trialDiv'><img src='Fruit/grapes.png'><br><font class='baseline'><strong>Great Grapes</strong><p>Choose number of points to bet.</font><div class='respPicDiv'><img src='img/responseButtonOffersNo0L5.png' class='respPic'></div></div>","null","2","Great Grapes","Fruit/grapes.png","Won","0.8,0.35","12","0.8","13","6","",""
"html-keyboard-response","28","203703","0.0-11.0-3.5","570fa921f895a7000f38ca6f","bdp_rwlrn","Wed Mar 15 2023 16:10:54 GMT-0400 (Eastern Daylight Time)","463548","Trustworthy,Untrustworthy","","","","feedback","","null","","<div class='respPicDiv'><img src='img/responseButtonOffersNo0_wht.png' class='respPic'></div><div class='trialDiv'><img src='Fruit/grapes.png'><br><font class='baseline'><strong>Great Grapes</strong><p><strong><font class='posOutcome'>You WON</font><p>You bet: 5</strong></font> &nbsp; &nbsp; &nbsp; &nbsp; &nbsp; &nbsp;<font class='posOutcome'>you receive: <strong>10</strong></font></div>","null","2","Great Grapes","Fruit/grapes.png","Won","0.8,0.35","12","0.8","23","6","",""
"html-keyboard-response","29","205965","0.0-11.0-1.6","570fa921f895a7000f38ca6f","bdp_rwlrn","Wed Mar 15 2023 16:10:54 GMT-0400 (Eastern Daylight Time)","463548","Trustworthy,Untrustworthy","","","","decision","","2260","","<div class='trialDiv'><img src='Fruit/pears.png'><br><font class='baseline'><strong>Pears Aplenty</strong><p>Choose number of points to bet.</font><div class='respPicDiv'><img src='img/responseButtonOffersNo0L.png' class='respPic'></div></div>","1","3","Pears Aplenty","Fruit/pears.png","Lost","0.35,0.8","13","0.35","28","7","",""
"html-keyboard-response","30","206221","0.0-11.0-2.6","570fa921f895a7000f38ca6f","bdp_rwlrn","Wed Mar 15 2023 16:10:54 GMT-0400 (Eastern Daylight Time)","463548","Trustworthy,Untrustworthy","","","","decisionFB","","null","","<div class='trialDiv'><img src='Fruit/pears.png'><br><font class='baseline'><strong>Pears Aplenty</strong><p>Choose number of points to bet.</font><div class='respPicDiv'><img src='img/responseButtonOffersNo0L1.png' class='respPic'></div></div>","null","3","Pears Aplenty","Fruit/pears.png","Lost","0.35,0.8","13","0.35","27","7","",""
"html-keyboard-response","31","207236","0.0-11.0-3.6","570fa921f895a7000f38ca6f","bdp_rwlrn","Wed Mar 15 2023 16:10:54 GMT-0400 (Eastern Daylight Time)","463548","Trustworthy,Untrustworthy","","","","feedback","","null","","<div class='respPicDiv'><img src='img/responseButtonOffersNo0_wht.png' class='respPic'></div><div class='trialDiv'><img src='Fruit/pears.png'><br><font class='baseline'><strong>Pears Aplenty</strong><p><strong><font class='negOutcome'>You LOST</font><p>You bet: 1</strong></font> &nbsp; &nbsp; &nbsp; &nbsp; &nbsp; &nbsp;<font class='negOutcome'>You receive: <strong>0</strong></font></div>","null","3","Pears Aplenty","Fruit/pears.png","Lost","0.35,0.8","13","0.35","27","7","",""
"html-keyboard-response","32","210121","0.0-11.0-1.7","570fa921f895a7000f38ca6f","bdp_rwlrn","Wed Mar 15 2023 16:10:54 GMT-0400 (Eastern Daylight Time)","463548","Trustworthy,Untrustworthy","","","","decision","","2883","","<div class='trialDiv'><img src='Fruit/orange.png'><br><font class='baseline'><strong>Odds are Orange</strong><p>Choose number of points to bet.</font><div class='respPicDiv'><img src='img/responseButtonOffersNo0L.png' class='respPic'></div></div>","1","3","Odds are Orange","Fruit/orange.png","Lost","0.35,0.65","13","0.35","32","8","",""
"html-keyboard-response","33","210377","0.0-11.0-2.7","570fa921f895a7000f38ca6f","bdp_rwlrn","Wed Mar 15 2023 16:10:54 GMT-0400 (Eastern Daylight Time)","463548","Trustworthy,Untrustworthy","","","","decisionFB","","null","","<div class='trialDiv'><img src='Fruit/orange.png'><br><font class='baseline'><strong>Odds are Orange</strong><p>Choose number of points to bet.</font><div class='respPicDiv'><img src='img/responseButtonOffersNo0L1.png' class='respPic'></div></div>","null","3","Odds are Orange","Fruit/orange.png","Lost","0.35,0.65","13","0.35","31","8","",""
"html-keyboard-response","34","211391","0.0-11.0-3.7","570fa921f895a7000f38ca6f","bdp_rwlrn","Wed Mar 15 2023 16:10:54 GMT-0400 (Eastern Daylight Time)","463548","Trustworthy,Untrustworthy","","","","feedback","","null","","<div class='respPicDiv'><img src='img/responseButtonOffersNo0_wht.png' class='respPic'></div><div class='trialDiv'><img src='Fruit/orange.png'><br><font class='baseline'><strong>Odds are Orange</strong><p><strong><font class='negOutcome'>You LOST</font><p>You bet: 1</strong></font> &nbsp; &nbsp; &nbsp; &nbsp; &nbsp; &nbsp;<font class='negOutcome'>You receive: <strong>0</strong></font></div>","null","3","Odds are Orange","Fruit/orange.png","Lost","0.35,0.65","13","0.35","31","8","",""
"html-keyboard-response","35","212551","0.0-11.0-1.8","570fa921f895a7000f38ca6f","bdp_rwlrn","Wed Mar 15 2023 16:10:54 GMT-0400 (Eastern Daylight Time)","463548","Trustworthy,Untrustworthy","","","","decision","","1159","","<div class='trialDiv'><img src='Fruit/grapes.png'><br><font class='baseline'><strong>Great Grapes</strong><p>Choose number of points to bet.</font><div class='respPicDiv'><img src='img/responseButtonOffersNo0L.png' class='respPic'></div></div>","5","3","Great Grapes","Fruit/grapes.png","Won","0.8,0.35","12","0.8","36","9","",""
"html-keyboard-response","36","212814","0.0-11.0-2.8","570fa921f895a7000f38ca6f","bdp_rwlrn","Wed Mar 15 2023 16:10:54 GMT-0400 (Eastern Daylight Time)","463548","Trustworthy,Untrustworthy","","","","decisionFB","","null","","<div class='trialDiv'><img src='Fruit/grapes.png'><br><font class='baseline'><strong>Great Grapes</strong><p>Choose number of points to bet.</font><div class='respPicDiv'><img src='img/responseButtonOffersNo0L5.png' class='respPic'></div></div>","null","3","Great Grapes","Fruit/grapes.png","Won","0.8,0.35","12","0.8","31","9","",""
"html-keyboard-response","37","213827","0.0-11.0-3.8","570fa921f895a7000f38ca6f","bdp_rwlrn","Wed Mar 15 2023 16:10:54 GMT-0400 (Eastern Daylight Time)","463548","Trustworthy,Untrustworthy","","","","feedback","","null","","<div class='respPicDiv'><img src='img/responseButtonOffersNo0_wht.png' class='respPic'></div><div class='trialDiv'><img src='Fruit/grapes.png'><br><font class='baseline'><strong>Great Grapes</strong><p><strong><font class='posOutcome'>You WON</font><p>You bet: 5</strong></font> &nbsp; &nbsp; &nbsp; &nbsp; &nbsp; &nbsp;<font class='posOutcome'>you receive: <strong>10</strong></font></div>","null","3","Great Grapes","Fruit/grapes.png","Won","0.8,0.35","12","0.8","41","9","",""
"html-keyboard-response","38","215045","0.0-11.0-1.9","570fa921f895a7000f38ca6f","bdp_rwlrn","Wed Mar 15 2023 16:10:54 GMT-0400 (Eastern Daylight Time)","463548","Trustworthy,Untrustworthy","","","","decision","","1217","","<div class='trialDiv'><img src='Fruit/pears.png'><br><font class='baseline'><strong>Pears Aplenty</strong><p>Choose number of points to bet.</font><div class='respPicDiv'><img src='img/responseButtonOffersNo0L.png' class='respPic'></div></div>","1","4","Pears Aplenty","Fruit/pears.png","Lost","0.35,0.8","13","0.35","46","10","",""
"html-keyboard-response","39","215298","0.0-11.0-2.9","570fa921f895a7000f38ca6f","bdp_rwlrn","Wed Mar 15 2023 16:10:54 GMT-0400 (Eastern Daylight Time)","463548","Trustworthy,Untrustworthy","","","","decisionFB","","null","","<div class='trialDiv'><img src='Fruit/pears.png'><br><font class='baseline'><strong>Pears Aplenty</strong><p>Choose number of points to bet.</font><div class='respPicDiv'><img src='img/responseButtonOffersNo0L1.png' class='respPic'></div></div>","null","4","Pears Aplenty","Fruit/pears.png","Lost","0.35,0.8","13","0.35","45","10","",""
"html-keyboard-response","40","216309","0.0-11.0-3.9","570fa921f895a7000f38ca6f","bdp_rwlrn","Wed Mar 15 2023 16:10:54 GMT-0400 (Eastern Daylight Time)","463548","Trustworthy,Untrustworthy","","","","feedback","","null","","<div class='respPicDiv'><img src='img/responseButtonOffersNo0_wht.png' class='respPic'></div><div class='trialDiv'><img src='Fruit/pears.png'><br><font class='baseline'><strong>Pears Aplenty</strong><p><strong><font class='negOutcome'>You LOST</font><p>You bet: 1</strong></font> &nbsp; &nbsp; &nbsp; &nbsp; &nbsp; &nbsp;<font class='negOutcome'>You receive: <strong>0</strong></font></div>","null","4","Pears Aplenty","Fruit/pears.png","Lost","0.35,0.8","13","0.35","45","10","",""
"html-keyboard-response","41","216964","0.0-11.0-1.10","570fa921f895a7000f38ca6f","bdp_rwlrn","Wed Mar 15 2023 16:10:54 GMT-0400 (Eastern Daylight Time)","463548","Trustworthy,Untrustworthy","","","","decision","","655","","<div class='trialDiv'><img src='Fruit/grapes.png'><br><font class='baseline'><strong>Great Grapes</strong><p>Choose number of points to bet.</font><div class='respPicDiv'><img src='img/responseButtonOffersNo0L.png' class='respPic'></div></div>","1","4","Great Grapes","Fruit/grapes.png","Won","0.8,0.35","12","0.8","50","11","",""
"html-keyboard-response","42","217216","0.0-11.0-2.10","570fa921f895a7000f38ca6f","bdp_rwlrn","Wed Mar 15 2023 16:10:54 GMT-0400 (Eastern Daylight Time)","463548","Trustworthy,Untrustworthy","","","","decisionFB","","null","","<div class='trialDiv'><img src='Fruit/grapes.png'><br><font class='baseline'><strong>Great Grapes</strong><p>Choose number of points to bet.</font><div class='respPicDiv'><img src='img/responseButtonOffersNo0L1.png' class='respPic'></div></div>","null","4","Great Grapes","Fruit/grapes.png","Won","0.8,0.35","12","0.8","49","11","",""
"html-keyboard-response","43","218220","0.0-11.0-3.10","570fa921f895a7000f38ca6f","bdp_rwlrn","Wed Mar 15 2023 16:10:54 GMT-0400 (Eastern Daylight Time)","463548","Trustworthy,Untrustworthy","","","","feedback","","null","","<div class='respPicDiv'><img src='img/responseButtonOffersNo0_wht.png' class='respPic'></div><div class='trialDiv'><img src='Fruit/grapes.png'><br><font class='baseline'><strong>Great Grapes</strong><p><strong><font class='posOutcome'>You WON</font><p>You bet: 1</strong></font> &nbsp; &nbsp; &nbsp; &nbsp; &nbsp; &nbsp;<font class='posOutcome'>you receive: <strong>2</strong></font></div>","null","4","Great Grapes","Fruit/grapes.png","Won","0.8,0.35","12","0.8","51","11","",""
"html-keyboard-response","44","218835","0.0-11.0-1.11","570fa921f895a7000f38ca6f","bdp_rwlrn","Wed Mar 15 2023 16:10:54 GMT-0400 (Eastern Daylight Time)","463548","Trustworthy,Untrustworthy","","","","decision","","614","","<div class='trialDiv'><img src='Fruit/orange.png'><br><font class='baseline'><strong>Odds are Orange</strong><p>Choose number of points to bet.</font><div class='respPicDiv'><img src='img/responseButtonOffersNo0L.png' class='respPic'></div></div>","1","4","Odds are Orange","Fruit/orange.png","Won","0.35,0.65","13","0.35","56","12","",""
"html-keyboard-response","45","219093","0.0-11.0-2.11","570fa921f895a7000f38ca6f","bdp_rwlrn","Wed Mar 15 2023 16:10:54 GMT-0400 (Eastern Daylight Time)","463548","Trustworthy,Untrustworthy","","","","decisionFB","","null","","<div class='trialDiv'><img src='Fruit/orange.png'><br><font class='baseline'><strong>Odds are Orange</strong><p>Choose number of points to bet.</font><div class='respPicDiv'><img src='img/responseButtonOffersNo0L1.png' class='respPic'></div></div>","null","4","Odds are Orange","Fruit/orange.png","Won","0.35,0.65","13","0.35","55","12","",""
"html-keyboard-response","46","220096","0.0-11.0-3.11","570fa921f895a7000f38ca6f","bdp_rwlrn","Wed Mar 15 2023 16:10:54 GMT-0400 (Eastern Daylight Time)","463548","Trustworthy,Untrustworthy","","","","feedback","","null","","<div class='respPicDiv'><img src='img/responseButtonOffersNo0_wht.png' class='respPic'></div><div class='trialDiv'><img src='Fruit/orange.png'><br><font class='baseline'><strong>Odds are Orange</strong><p><strong><font class='posOutcome'>You WON</font><p>You bet: 1</strong></font> &nbsp; &nbsp; &nbsp; &nbsp; &nbsp; &nbsp;<font class='posOutcome'>you receive: <strong>2</strong></font></div>","null","4","Odds are Orange","Fruit/orange.png","Won","0.35,0.65","13","0.35","57","12","",""
"html-keyboard-response","47","220689","0.0-11.0-1.12","570fa921f895a7000f38ca6f","bdp_rwlrn","Wed Mar 15 2023 16:10:54 GMT-0400 (Eastern Daylight Time)","463548","Trustworthy,Untrustworthy","","","","decision","","592","","<div class='trialDiv'><img src='Fruit/pears.png'><br><font class='baseline'><strong>Pears Aplenty</strong><p>Choose number of points to bet.</font><div class='respPicDiv'><img src='img/responseButtonOffersNo0L.png' class='respPic'></div></div>","1","5","Pears Aplenty","Fruit/pears.png","Lost","0.35,0.8","13","0.35","62","13","",""
"html-keyboard-response","48","220955","0.0-11.0-2.12","570fa921f895a7000f38ca6f","bdp_rwlrn","Wed Mar 15 2023 16:10:54 GMT-0400 (Eastern Daylight Time)","463548","Trustworthy,Untrustworthy","","","","decisionFB","","null","","<div class='trialDiv'><img src='Fruit/pears.png'><br><font class='baseline'><strong>Pears Aplenty</strong><p>Choose number of points to bet.</font><div class='respPicDiv'><img src='img/responseButtonOffersNo0L1.png' class='respPic'></div></div>","null","5","Pears Aplenty","Fruit/pears.png","Lost","0.35,0.8","13","0.35","61","13","",""
"html-keyboard-response","49","221956","0.0-11.0-3.12","570fa921f895a7000f38ca6f","bdp_rwlrn","Wed Mar 15 2023 16:10:54 GMT-0400 (Eastern Daylight Time)","463548","Trustworthy,Untrustworthy","","","","feedback","","null","","<div class='respPicDiv'><img src='img/responseButtonOffersNo0_wht.png' class='respPic'></div><div class='trialDiv'><img src='Fruit/pears.png'><br><font class='baseline'><strong>Pears Aplenty</strong><p><strong><font class='negOutcome'>You LOST</font><p>You bet: 1</strong></font> &nbsp; &nbsp; &nbsp; &nbsp; &nbsp; &nbsp;<font class='negOutcome'>You receive: <strong>0</strong></font></div>","null","5","Pears Aplenty","Fruit/pears.png","Lost","0.35,0.8","13","0.35","61","13","",""
"html-keyboard-response","50","222609","0.0-11.0-1.13","570fa921f895a7000f38ca6f","bdp_rwlrn","Wed Mar 15 2023 16:10:54 GMT-0400 (Eastern Daylight Time)","463548","Trustworthy,Untrustworthy","","","","decision","","652","","<div class='trialDiv'><img src='Fruit/grapes.png'><br><font class='baseline'><strong>Great Grapes</strong><p>Choose number of points to bet.</font><div class='respPicDiv'><img src='img/responseButtonOffersNo0L.png' class='respPic'></div></div>","5","5","Great Grapes","Fruit/grapes.png","Lost","0.8,0.35","12","0.8","66","14","",""
"html-keyboard-response","51","222862","0.0-11.0-2.13","570fa921f895a7000f38ca6f","bdp_rwlrn","Wed Mar 15 2023 16:10:54 GMT-0400 (Eastern Daylight Time)","463548","Trustworthy,Untrustworthy","","","","decisionFB","","null","","<div class='trialDiv'><img src='Fruit/grapes.png'><br><font class='baseline'><strong>Great Grapes</strong><p>Choose number of points to bet.</font><div class='respPicDiv'><img src='img/responseButtonOffersNo0L5.png' class='respPic'></div></div>","null","5","Great Grapes","Fruit/grapes.png","Lost","0.8,0.35","12","0.8","61","14","",""
"html-keyboard-response","52","223877","0.0-11.0-3.13","570fa921f895a7000f38ca6f","bdp_rwlrn","Wed Mar 15 2023 16:10:54 GMT-0400 (Eastern Daylight Time)","463548","Trustworthy,Untrustworthy","","","","feedback","","null","","<div class='respPicDiv'><img src='img/responseButtonOffersNo0_wht.png' class='respPic'></div><div class='trialDiv'><img src='Fruit/grapes.png'><br><font class='baseline'><strong>Great Grapes</strong><p><strong><font class='negOutcome'>You LOST</font><p>You bet: 5</strong></font> &nbsp; &nbsp; &nbsp; &nbsp; &nbsp; &nbsp;<font class='negOutcome'>You receive: <strong>0</strong></font></div>","null","5","Great Grapes","Fruit/grapes.png","Lost","0.8,0.35","12","0.8","61","14","",""
"html-keyboard-response","53","224688","0.0-11.0-1.14","570fa921f895a7000f38ca6f","bdp_rwlrn","Wed Mar 15 2023 16:10:54 GMT-0400 (Eastern Daylight Time)","463548","Trustworthy,Untrustworthy","","","","decision","","810","","<div class='trialDiv'><img src='Fruit/orange.png'><br><font class='baseline'><strong>Odds are Orange</strong><p>Choose number of points to bet.</font><div class='respPicDiv'><img src='img/responseButtonOffersNo0L.png' class='respPic'></div></div>","5","5","Odds are Orange","Fruit/orange.png","Won","0.35,0.65","13","0.35","66","15","",""
"html-keyboard-response","54","224952","0.0-11.0-2.14","570fa921f895a7000f38ca6f","bdp_rwlrn","Wed Mar 15 2023 16:10:54 GMT-0400 (Eastern Daylight Time)","463548","Trustworthy,Untrustworthy","","","","decisionFB","","null","","<div class='trialDiv'><img src='Fruit/orange.png'><br><font class='baseline'><strong>Odds are Orange</strong><p>Choose number of points to bet.</font><div class='respPicDiv'><img src='img/responseButtonOffersNo0L5.png' class='respPic'></div></div>","null","5","Odds are Orange","Fruit/orange.png","Won","0.35,0.65","13","0.35","61","15","",""
"html-keyboard-response","55","225955","0.0-11.0-3.14","570fa921f895a7000f38ca6f","bdp_rwlrn","Wed Mar 15 2023 16:10:54 GMT-0400 (Eastern Daylight Time)","463548","Trustworthy,Untrustworthy","","","","feedback","","null","","<div class='respPicDiv'><img src='img/responseButtonOffersNo0_wht.png' class='respPic'></div><div class='trialDiv'><img src='Fruit/orange.png'><br><font class='baseline'><strong>Odds are Orange</strong><p><strong><font class='posOutcome'>You WON</font><p>You bet: 5</strong></font> &nbsp; &nbsp; &nbsp; &nbsp; &nbsp; &nbsp;<font class='posOutcome'>you receive: <strong>10</strong></font></div>","null","5","Odds are Orange","Fruit/orange.png","Won","0.35,0.65","13","0.35","71","15","",""
"html-keyboard-response","56","226700","0.0-11.0-1.15","570fa921f895a7000f38ca6f","bdp_rwlrn","Wed Mar 15 2023 16:10:54 GMT-0400 (Eastern Daylight Time)","463548","Trustworthy,Untrustworthy","","","","decision","","744","","<div class='trialDiv'><img src='Fruit/pears.png'><br><font class='baseline'><strong>Pears Aplenty</strong><p>Choose number of points to bet.</font><div class='respPicDiv'><img src='img/responseButtonOffersNo0L.png' class='respPic'></div></div>","1","6","Pears Aplenty","Fruit/pears.png","Lost","0.35,0.8","13","0.35","76","16","",""
"html-keyboard-response","57","226953","0.0-11.0-2.15","570fa921f895a7000f38ca6f","bdp_rwlrn","Wed Mar 15 2023 16:10:54 GMT-0400 (Eastern Daylight Time)","463548","Trustworthy,Untrustworthy","","","","decisionFB","","null","","<div class='trialDiv'><img src='Fruit/pears.png'><br><font class='baseline'><strong>Pears Aplenty</strong><p>Choose number of points to bet.</font><div class='respPicDiv'><img src='img/responseButtonOffersNo0L1.png' class='respPic'></div></div>","null","6","Pears Aplenty","Fruit/pears.png","Lost","0.35,0.8","13","0.35","75","16","",""
"html-keyboard-response","58","227956","0.0-11.0-3.15","570fa921f895a7000f38ca6f","bdp_rwlrn","Wed Mar 15 2023 16:10:54 GMT-0400 (Eastern Daylight Time)","463548","Trustworthy,Untrustworthy","","","","feedback","","null","","<div class='respPicDiv'><img src='img/responseButtonOffersNo0_wht.png' class='respPic'></div><div class='trialDiv'><img src='Fruit/pears.png'><br><font class='baseline'><strong>Pears Aplenty</strong><p><strong><font class='negOutcome'>You LOST</font><p>You bet: 1</strong></font> &nbsp; &nbsp; &nbsp; &nbsp; &nbsp; &nbsp;<font class='negOutcome'>You receive: <strong>0</strong></font></div>","null","6","Pears Aplenty","Fruit/pears.png","Lost","0.35,0.8","13","0.35","75","16","",""
"html-keyboard-response","59","228827","0.0-11.0-1.16","570fa921f895a7000f38ca6f","bdp_rwlrn","Wed Mar 15 2023 16:10:54 GMT-0400 (Eastern Daylight Time)","463548","Trustworthy,Untrustworthy","","","","decision","","870","","<div class='trialDiv'><img src='Fruit/orange.png'><br><font class='baseline'><strong>Odds are Orange</strong><p>Choose number of points to bet.</font><div class='respPicDiv'><img src='img/responseButtonOffersNo0L.png' class='respPic'></div></div>","5","6","Odds are Orange","Fruit/orange.png","Won","0.35,0.65","13","0.35","80","17","",""
"html-keyboard-response","60","229090","0.0-11.0-2.16","570fa921f895a7000f38ca6f","bdp_rwlrn","Wed Mar 15 2023 16:10:54 GMT-0400 (Eastern Daylight Time)","463548","Trustworthy,Untrustworthy","","","","decisionFB","","null","","<div class='trialDiv'><img src='Fruit/orange.png'><br><font class='baseline'><strong>Odds are Orange</strong><p>Choose number of points to bet.</font><div class='respPicDiv'><img src='img/responseButtonOffersNo0L5.png' class='respPic'></div></div>","null","6","Odds are Orange","Fruit/orange.png","Won","0.35,0.65","13","0.35","75","17","",""
"html-keyboard-response","61","230095","0.0-11.0-3.16","570fa921f895a7000f38ca6f","bdp_rwlrn","Wed Mar 15 2023 16:10:54 GMT-0400 (Eastern Daylight Time)","463548","Trustworthy,Untrustworthy","","","","feedback","","null","","<div class='respPicDiv'><img src='img/responseButtonOffersNo0_wht.png' class='respPic'></div><div class='trialDiv'><img src='Fruit/orange.png'><br><font class='baseline'><strong>Odds are Orange</strong><p><strong><font class='posOutcome'>You WON</font><p>You bet: 5</strong></font> &nbsp; &nbsp; &nbsp; &nbsp; &nbsp; &nbsp;<font class='posOutcome'>you receive: <strong>10</strong></font></div>","null","6","Odds are Orange","Fruit/orange.png","Won","0.35,0.65","13","0.35","85","17","",""
"html-keyboard-response","62","230875","0.0-11.0-1.17","570fa921f895a7000f38ca6f","bdp_rwlrn","Wed Mar 15 2023 16:10:54 GMT-0400 (Eastern Daylight Time)","463548","Trustworthy,Untrustworthy","","","","decision","","778","","<div class='trialDiv'><img src='Fruit/grapes.png'><br><font class='baseline'><strong>Great Grapes</strong><p>Choose number of points to bet.</font><div class='respPicDiv'><img src='img/responseButtonOffersNo0L.png' class='respPic'></div></div>","1","6","Great Grapes","Fruit/grapes.png","Won","0.8,0.35","12","0.8","90","18","",""
"html-keyboard-response","63","231141","0.0-11.0-2.17","570fa921f895a7000f38ca6f","bdp_rwlrn","Wed Mar 15 2023 16:10:54 GMT-0400 (Eastern Daylight Time)","463548","Trustworthy,Untrustworthy","","","","decisionFB","","null","","<div class='trialDiv'><img src='Fruit/grapes.png'><br><font class='baseline'><strong>Great Grapes</strong><p>Choose number of points to bet.</font><div class='respPicDiv'><img src='img/responseButtonOffersNo0L1.png' class='respPic'></div></div>","null","6","Great Grapes","Fruit/grapes.png","Won","0.8,0.35","12","0.8","89","18","",""
"html-keyboard-response","64","232144","0.0-11.0-3.17","570fa921f895a7000f38ca6f","bdp_rwlrn","Wed Mar 15 2023 16:10:54 GMT-0400 (Eastern Daylight Time)","463548","Trustworthy,Untrustworthy","","","","feedback","","null","","<div class='respPicDiv'><img src='img/responseButtonOffersNo0_wht.png' class='respPic'></div><div class='trialDiv'><img src='Fruit/grapes.png'><br><font class='baseline'><strong>Great Grapes</strong><p><strong><font class='posOutcome'>You WON</font><p>You bet: 1</strong></font> &nbsp; &nbsp; &nbsp; &nbsp; &nbsp; &nbsp;<font class='posOutcome'>you receive: <strong>2</strong></font></div>","null","6","Great Grapes","Fruit/grapes.png","Won","0.8,0.35","12","0.8","91","18","",""
"html-keyboard-response","65","232825","0.0-11.0-1.18","570fa921f895a7000f38ca6f","bdp_rwlrn","Wed Mar 15 2023 16:10:54 GMT-0400 (Eastern Daylight Time)","463548","Trustworthy,Untrustworthy","","","","decision","","679","","<div class='trialDiv'><img src='Fruit/orange.png'><br><font class='baseline'><strong>Odds are Orange</strong><p>Choose number of points to bet.</font><div class='respPicDiv'><img src='img/responseButtonOffersNo0L.png' class='respPic'></div></div>","5","7","Odds are Orange","Fruit/orange.png","Lost","0.35,0.65","13","0.35","96","19","",""
"html-keyboard-response","66","233079","0.0-11.0-2.18","570fa921f895a7000f38ca6f","bdp_rwlrn","Wed Mar 15 2023 16:10:54 GMT-0400 (Eastern Daylight Time)","463548","Trustworthy,Untrustworthy","","","","decisionFB","","null","","<div class='trialDiv'><img src='Fruit/orange.png'><br><font class='baseline'><strong>Odds are Orange</strong><p>Choose number of points to bet.</font><div class='respPicDiv'><img src='img/responseButtonOffersNo0L5.png' class='respPic'></div></div>","null","7","Odds are Orange","Fruit/orange.png","Lost","0.35,0.65","13","0.35","91","19","",""
"html-keyboard-response","67","234096","0.0-11.0-3.18","570fa921f895a7000f38ca6f","bdp_rwlrn","Wed Mar 15 2023 16:10:54 GMT-0400 (Eastern Daylight Time)","463548","Trustworthy,Untrustworthy","","","","feedback","","null","","<div class='respPicDiv'><img src='img/responseButtonOffersNo0_wht.png' class='respPic'></div><div class='trialDiv'><img src='Fruit/orange.png'><br><font class='baseline'><strong>Odds are Orange</strong><p><strong><font class='negOutcome'>You LOST</font><p>You bet: 5</strong></font> &nbsp; &nbsp; &nbsp; &nbsp; &nbsp; &nbsp;<font class='negOutcome'>You receive: <strong>0</strong></font></div>","null","7","Odds are Orange","Fruit/orange.png","Lost","0.35,0.65","13","0.35","91","19","",""
"html-keyboard-response","68","235064","0.0-11.0-1.19","570fa921f895a7000f38ca6f","bdp_rwlrn","Wed Mar 15 2023 16:10:54 GMT-0400 (Eastern Daylight Time)","463548","Trustworthy,Untrustworthy","","","","decision","","967","","<div class='trialDiv'><img src='Fruit/pears.png'><br><font class='baseline'><strong>Pears Aplenty</strong><p>Choose number of points to bet.</font><div class='respPicDiv'><img src='img/responseButtonOffersNo0L.png' class='respPic'></div></div>","1","7","Pears Aplenty","Fruit/pears.png","Lost","0.35,0.8","13","0.35","96","20","",""
"html-keyboard-response","69","235328","0.0-11.0-2.19","570fa921f895a7000f38ca6f","bdp_rwlrn","Wed Mar 15 2023 16:10:54 GMT-0400 (Eastern Daylight Time)","463548","Trustworthy,Untrustworthy","","","","decisionFB","","null","","<div class='trialDiv'><img src='Fruit/pears.png'><br><font class='baseline'><strong>Pears Aplenty</strong><p>Choose number of points to bet.</font><div class='respPicDiv'><img src='img/responseButtonOffersNo0L1.png' class='respPic'></div></div>","null","7","Pears Aplenty","Fruit/pears.png","Lost","0.35,0.8","13","0.35","95","20","",""
"html-keyboard-response","70","236330","0.0-11.0-3.19","570fa921f895a7000f38ca6f","bdp_rwlrn","Wed Mar 15 2023 16:10:54 GMT-0400 (Eastern Daylight Time)","463548","Trustworthy,Untrustworthy","","","","feedback","","null","","<div class='respPicDiv'><img src='img/responseButtonOffersNo0_wht.png' class='respPic'></div><div class='trialDiv'><img src='Fruit/pears.png'><br><font class='baseline'><strong>Pears Aplenty</strong><p><strong><font class='negOutcome'>You LOST</font><p>You bet: 1</strong></font> &nbsp; &nbsp; &nbsp; &nbsp; &nbsp; &nbsp;<font class='negOutcome'>You receive: <strong>0</strong></font></div>","null","7","Pears Aplenty","Fruit/pears.png","Lost","0.35,0.8","13","0.35","95","20","",""
"html-keyboard-response","71","236820","0.0-11.0-1.20","570fa921f895a7000f38ca6f","bdp_rwlrn","Wed Mar 15 2023 16:10:54 GMT-0400 (Eastern Daylight Time)","463548","Trustworthy,Untrustworthy","","","","decision","","489","","<div class='trialDiv'><img src='Fruit/grapes.png'><br><font class='baseline'><strong>Great Grapes</strong><p>Choose number of points to bet.</font><div class='respPicDiv'><img src='img/responseButtonOffersNo0L.png' class='respPic'></div></div>","5","7","Great Grapes","Fruit/grapes.png","Lost","0.8,0.35","12","0.8","100","21","",""
"html-keyboard-response","72","237076","0.0-11.0-2.20","570fa921f895a7000f38ca6f","bdp_rwlrn","Wed Mar 15 2023 16:10:54 GMT-0400 (Eastern Daylight Time)","463548","Trustworthy,Untrustworthy","","","","decisionFB","","null","","<div class='trialDiv'><img src='Fruit/grapes.png'><br><font class='baseline'><strong>Great Grapes</strong><p>Choose number of points to bet.</font><div class='respPicDiv'><img src='img/responseButtonOffersNo0L5.png' class='respPic'></div></div>","null","7","Great Grapes","Fruit/grapes.png","Lost","0.8,0.35","12","0.8","95","21","",""
"html-keyboard-response","73","238080","0.0-11.0-3.20","570fa921f895a7000f38ca6f","bdp_rwlrn","Wed Mar 15 2023 16:10:54 GMT-0400 (Eastern Daylight Time)","463548","Trustworthy,Untrustworthy","","","","feedback","","null","","<div class='respPicDiv'><img src='img/responseButtonOffersNo0_wht.png' class='respPic'></div><div class='trialDiv'><img src='Fruit/grapes.png'><br><font class='baseline'><strong>Great Grapes</strong><p><strong><font class='negOutcome'>You LOST</font><p>You bet: 5</strong></font> &nbsp; &nbsp; &nbsp; &nbsp; &nbsp; &nbsp;<font class='negOutcome'>You receive: <strong>0</strong></font></div>","null","7","Great Grapes","Fruit/grapes.png","Lost","0.8,0.35","12","0.8","95","21","",""
"html-keyboard-response","74","239045","0.0-11.0-1.21","570fa921f895a7000f38ca6f","bdp_rwlrn","Wed Mar 15 2023 16:10:54 GMT-0400 (Eastern Daylight Time)","463548","Trustworthy,Untrustworthy","","","","decision","","963","","<div class='trialDiv'><img src='Fruit/pears.png'><br><font class='baseline'><strong>Pears Aplenty</strong><p>Choose number of points to bet.</font><div class='respPicDiv'><img src='img/responseButtonOffersNo0L.png' class='respPic'></div></div>","5","8","Pears Aplenty","Fruit/pears.png","Lost","0.35,0.8","13","0.35","100","22","",""
"html-keyboard-response","75","239300","0.0-11.0-2.21","570fa921f895a7000f38ca6f","bdp_rwlrn","Wed Mar 15 2023 16:10:54 GMT-0400 (Eastern Daylight Time)","463548","Trustworthy,Untrustworthy","","","","decisionFB","","null","","<div class='trialDiv'><img src='Fruit/pears.png'><br><font class='baseline'><strong>Pears Aplenty</strong><p>Choose number of points to bet.</font><div class='respPicDiv'><img src='img/responseButtonOffersNo0L5.png' class='respPic'></div></div>","null","8","Pears Aplenty","Fruit/pears.png","Lost","0.35,0.8","13","0.35","95","22","",""
"html-keyboard-response","76","240313","0.0-11.0-3.21","570fa921f895a7000f38ca6f","bdp_rwlrn","Wed Mar 15 2023 16:10:54 GMT-0400 (Eastern Daylight Time)","463548","Trustworthy,Untrustworthy","","","","feedback","","null","","<div class='respPicDiv'><img src='img/responseButtonOffersNo0_wht.png' class='respPic'></div><div class='trialDiv'><img src='Fruit/pears.png'><br><font class='baseline'><strong>Pears Aplenty</strong><p><strong><font class='negOutcome'>You LOST</font><p>You bet: 5</strong></font> &nbsp; &nbsp; &nbsp; &nbsp; &nbsp; &nbsp;<font class='negOutcome'>You receive: <strong>0</strong></font></div>","null","8","Pears Aplenty","Fruit/pears.png","Lost","0.35,0.8","13","0.35","95","22","",""
"html-keyboard-response","77","240708","0.0-11.0-1.22","570fa921f895a7000f38ca6f","bdp_rwlrn","Wed Mar 15 2023 16:10:54 GMT-0400 (Eastern Daylight Time)","463548","Trustworthy,Untrustworthy","","","","decision","","394","","<div class='trialDiv'><img src='Fruit/grapes.png'><br><font class='baseline'><strong>Great Grapes</strong><p>Choose number of points to bet.</font><div class='respPicDiv'><img src='img/responseButtonOffersNo0L.png' class='respPic'></div></div>","5","8","Great Grapes","Fruit/grapes.png","Won","0.8,0.35","12","0.8","100","23","",""
"html-keyboard-response","78","240968","0.0-11.0-2.22","570fa921f895a7000f38ca6f","bdp_rwlrn","Wed Mar 15 2023 16:10:54 GMT-0400 (Eastern Daylight Time)","463548","Trustworthy,Untrustworthy","","","","decisionFB","","null","","<div class='trialDiv'><img src='Fruit/grapes.png'><br><font class='baseline'><strong>Great Grapes</strong><p>Choose number of points to bet.</font><div class='respPicDiv'><img src='img/responseButtonOffersNo0L5.png' class='respPic'></div></div>","null","8","Great Grapes","Fruit/grapes.png","Won","0.8,0.35","12","0.8","95","23","",""
"html-keyboard-response","79","241971","0.0-11.0-3.22","570fa921f895a7000f38ca6f","bdp_rwlrn","Wed Mar 15 2023 16:10:54 GMT-0400 (Eastern Daylight Time)","463548","Trustworthy,Untrustworthy","","","","feedback","","null","","<div class='respPicDiv'><img src='img/responseButtonOffersNo0_wht.png' class='respPic'></div><div class='trialDiv'><img src='Fruit/grapes.png'><br><font class='baseline'><strong>Great Grapes</strong><p><strong><font class='posOutcome'>You WON</font><p>You bet: 5</strong></font> &nbsp; &nbsp; &nbsp; &nbsp; &nbsp; &nbsp;<font class='posOutcome'>you receive: <strong>10</strong></font></div>","null","8","Great Grapes","Fruit/grapes.png","Won","0.8,0.35","12","0.8","105","23","",""
"html-keyboard-response","80","242850","0.0-11.0-1.23","570fa921f895a7000f38ca6f","bdp_rwlrn","Wed Mar 15 2023 16:10:54 GMT-0400 (Eastern Daylight Time)","463548","Trustworthy,Untrustworthy","","","","decision","","877","","<div class='trialDiv'><img src='Fruit/orange.png'><br><font class='baseline'><strong>Odds are Orange</strong><p>Choose number of points to bet.</font><div class='respPicDiv'><img src='img/responseButtonOffersNo0L.png' class='respPic'></div></div>","1","8","Odds are Orange","Fruit/orange.png","Lost","0.35,0.65","13","0.35","110","24","",""
"html-keyboard-response","81","243110","0.0-11.0-2.23","570fa921f895a7000f38ca6f","bdp_rwlrn","Wed Mar 15 2023 16:10:54 GMT-0400 (Eastern Daylight Time)","463548","Trustworthy,Untrustworthy","","","","decisionFB","","null","","<div class='trialDiv'><img src='Fruit/orange.png'><br><font class='baseline'><strong>Odds are Orange</strong><p>Choose number of points to bet.</font><div class='respPicDiv'><img src='img/responseButtonOffersNo0L1.png' class='respPic'></div></div>","null","8","Odds are Orange","Fruit/orange.png","Lost","0.35,0.65","13","0.35","109","24","",""
"html-keyboard-response","82","244112","0.0-11.0-3.23","570fa921f895a7000f38ca6f","bdp_rwlrn","Wed Mar 15 2023 16:10:54 GMT-0400 (Eastern Daylight Time)","463548","Trustworthy,Untrustworthy","","","","feedback","","null","","<div class='respPicDiv'><img src='img/responseButtonOffersNo0_wht.png' class='respPic'></div><div class='trialDiv'><img src='Fruit/orange.png'><br><font class='baseline'><strong>Odds are Orange</strong><p><strong><font class='negOutcome'>You LOST</font><p>You bet: 1</strong></font> &nbsp; &nbsp; &nbsp; &nbsp; &nbsp; &nbsp;<font class='negOutcome'>You receive: <strong>0</strong></font></div>","null","8","Odds are Orange","Fruit/orange.png","Lost","0.35,0.65","13","0.35","109","24","",""
"html-keyboard-response","83","244769","0.0-11.0-1.24","570fa921f895a7000f38ca6f","bdp_rwlrn","Wed Mar 15 2023 16:10:54 GMT-0400 (Eastern Daylight Time)","463548","Trustworthy,Untrustworthy","","","","decision","","655","","<div class='trialDiv'><img src='Fruit/pears.png'><br><font class='baseline'><strong>Pears Aplenty</strong><p>Choose number of points to bet.</font><div class='respPicDiv'><img src='img/responseButtonOffersNo0L.png' class='respPic'></div></div>","5","9","Pears Aplenty","Fruit/pears.png","Won","0.35,0.8","13","0.35","114","25","",""
"html-keyboard-response","84","245031","0.0-11.0-2.24","570fa921f895a7000f38ca6f","bdp_rwlrn","Wed Mar 15 2023 16:10:54 GMT-0400 (Eastern Daylight Time)","463548","Trustworthy,Untrustworthy","","","","decisionFB","","null","","<div class='trialDiv'><img src='Fruit/pears.png'><br><font class='baseline'><strong>Pears Aplenty</strong><p>Choose number of points to bet.</font><div class='respPicDiv'><img src='img/responseButtonOffersNo0L5.png' class='respPic'></div></div>","null","9","Pears Aplenty","Fruit/pears.png","Won","0.35,0.8","13","0.35","109","25","",""
"html-keyboard-response","85","246048","0.0-11.0-3.24","570fa921f895a7000f38ca6f","bdp_rwlrn","Wed Mar 15 2023 16:10:54 GMT-0400 (Eastern Daylight Time)","463548","Trustworthy,Untrustworthy","","","","feedback","","null","","<div class='respPicDiv'><img src='img/responseButtonOffersNo0_wht.png' class='respPic'></div><div class='trialDiv'><img src='Fruit/pears.png'><br><font class='baseline'><strong>Pears Aplenty</strong><p><strong><font class='posOutcome'>You WON</font><p>You bet: 5</strong></font> &nbsp; &nbsp; &nbsp; &nbsp; &nbsp; &nbsp;<font class='posOutcome'>you receive: <strong>10</strong></font></div>","null","9","Pears Aplenty","Fruit/pears.png","Won","0.35,0.8","13","0.35","119","25","",""
"html-keyboard-response","86","246463","0.0-11.0-1.25","570fa921f895a7000f38ca6f","bdp_rwlrn","Wed Mar 15 2023 16:10:54 GMT-0400 (Eastern Daylight Time)","463548","Trustworthy,Untrustworthy","","","","decision","","413","","<div class='trialDiv'><img src='Fruit/grapes.png'><br><font class='baseline'><strong>Great Grapes</strong><p>Choose number of points to bet.</font><div class='respPicDiv'><img src='img/responseButtonOffersNo0L.png' class='respPic'></div></div>","5","9","Great Grapes","Fruit/grapes.png","Lost","0.8,0.35","12","0.8","124","26","",""
"html-keyboard-response","87","246720","0.0-11.0-2.25","570fa921f895a7000f38ca6f","bdp_rwlrn","Wed Mar 15 2023 16:10:54 GMT-0400 (Eastern Daylight Time)","463548","Trustworthy,Untrustworthy","","","","decisionFB","","null","","<div class='trialDiv'><img src='Fruit/grapes.png'><br><font class='baseline'><strong>Great Grapes</strong><p>Choose number of points to bet.</font><div class='respPicDiv'><img src='img/responseButtonOffersNo0L5.png' class='respPic'></div></div>","null","9","Great Grapes","Fruit/grapes.png","Lost","0.8,0.35","12","0.8","119","26","",""
"html-keyboard-response","88","247736","0.0-11.0-3.25","570fa921f895a7000f38ca6f","bdp_rwlrn","Wed Mar 15 2023 16:10:54 GMT-0400 (Eastern Daylight Time)","463548","Trustworthy,Untrustworthy","","","","feedback","","null","","<div class='respPicDiv'><img src='img/responseButtonOffersNo0_wht.png' class='respPic'></div><div class='trialDiv'><img src='Fruit/grapes.png'><br><font class='baseline'><strong>Great Grapes</strong><p><strong><font class='negOutcome'>You LOST</font><p>You bet: 5</strong></font> &nbsp; &nbsp; &nbsp; &nbsp; &nbsp; &nbsp;<font class='negOutcome'>You receive: <strong>0</strong></font></div>","null","9","Great Grapes","Fruit/grapes.png","Lost","0.8,0.35","12","0.8","119","26","",""
"html-keyboard-response","89","248317","0.0-11.0-1.26","570fa921f895a7000f38ca6f","bdp_rwlrn","Wed Mar 15 2023 16:10:54 GMT-0400 (Eastern Daylight Time)","463548","Trustworthy,Untrustworthy","","","","decision","","580","","<div class='trialDiv'><img src='Fruit/orange.png'><br><font class='baseline'><strong>Odds are Orange</strong><p>Choose number of points to bet.</font><div class='respPicDiv'><img src='img/responseButtonOffersNo0L.png' class='respPic'></div></div>","1","9","Odds are Orange","Fruit/orange.png","Lost","0.35,0.65","13","0.35","124","27","",""
"html-keyboard-response","90","248581","0.0-11.0-2.26","570fa921f895a7000f38ca6f","bdp_rwlrn","Wed Mar 15 2023 16:10:54 GMT-0400 (Eastern Daylight Time)","463548","Trustworthy,Untrustworthy","","","","decisionFB","","null","","<div class='trialDiv'><img src='Fruit/orange.png'><br><font class='baseline'><strong>Odds are Orange</strong><p>Choose number of points to bet.</font><div class='respPicDiv'><img src='img/responseButtonOffersNo0L1.png' class='respPic'></div></div>","null","9","Odds are Orange","Fruit/orange.png","Lost","0.35,0.65","13","0.35","123","27","",""
"html-keyboard-response","91","249594","0.0-11.0-3.26","570fa921f895a7000f38ca6f","bdp_rwlrn","Wed Mar 15 2023 16:10:54 GMT-0400 (Eastern Daylight Time)","463548","Trustworthy,Untrustworthy","","","","feedback","","null","","<div class='respPicDiv'><img src='img/responseButtonOffersNo0_wht.png' class='respPic'></div><div class='trialDiv'><img src='Fruit/orange.png'><br><font class='baseline'><strong>Odds are Orange</strong><p><strong><font class='negOutcome'>You LOST</font><p>You bet: 1</strong></font> &nbsp; &nbsp; &nbsp; &nbsp; &nbsp; &nbsp;<font class='negOutcome'>You receive: <strong>0</strong></font></div>","null","9","Odds are Orange","Fruit/orange.png","Lost","0.35,0.65","13","0.35","123","27","",""
"html-keyboard-response","92","250380","0.0-11.0-1.27","570fa921f895a7000f38ca6f","bdp_rwlrn","Wed Mar 15 2023 16:10:54 GMT-0400 (Eastern Daylight Time)","463548","Trustworthy,Untrustworthy","","","","decision","","784","","<div class='trialDiv'><img src='Fruit/pears.png'><br><font class='baseline'><strong>Pears Aplenty</strong><p>Choose number of points to bet.</font><div class='respPicDiv'><img src='img/responseButtonOffersNo0L.png' class='respPic'></div></div>","5","10","Pears Aplenty","Fruit/pears.png","Lost","0.35,0.8","13","0.35","128","28","",""
"html-keyboard-response","93","250644","0.0-11.0-2.27","570fa921f895a7000f38ca6f","bdp_rwlrn","Wed Mar 15 2023 16:10:54 GMT-0400 (Eastern Daylight Time)","463548","Trustworthy,Untrustworthy","","","","decisionFB","","null","","<div class='trialDiv'><img src='Fruit/pears.png'><br><font class='baseline'><strong>Pears Aplenty</strong><p>Choose number of points to bet.</font><div class='respPicDiv'><img src='img/responseButtonOffersNo0L5.png' class='respPic'></div></div>","null","10","Pears Aplenty","Fruit/pears.png","Lost","0.35,0.8","13","0.35","123","28","",""
"html-keyboard-response","94","251658","0.0-11.0-3.27","570fa921f895a7000f38ca6f","bdp_rwlrn","Wed Mar 15 2023 16:10:54 GMT-0400 (Eastern Daylight Time)","463548","Trustworthy,Untrustworthy","","","","feedback","","null","","<div class='respPicDiv'><img src='img/responseButtonOffersNo0_wht.png' class='respPic'></div><div class='trialDiv'><img src='Fruit/pears.png'><br><font class='baseline'><strong>Pears Aplenty</strong><p><strong><font class='negOutcome'>You LOST</font><p>You bet: 5</strong></font> &nbsp; &nbsp; &nbsp; &nbsp; &nbsp; &nbsp;<font class='negOutcome'>You receive: <strong>0</strong></font></div>","null","10","Pears Aplenty","Fruit/pears.png","Lost","0.35,0.8","13","0.35","123","28","",""
"html-keyboard-response","95","252283","0.0-11.0-1.28","570fa921f895a7000f38ca6f","bdp_rwlrn","Wed Mar 15 2023 16:10:54 GMT-0400 (Eastern Daylight Time)","463548","Trustworthy,Untrustworthy","","","","decision","","624","","<div class='trialDiv'><img src='Fruit/orange.png'><br><font class='baseline'><strong>Odds are Orange</strong><p>Choose number of points to bet.</font><div class='respPicDiv'><img src='img/responseButtonOffersNo0L.png' class='respPic'></div></div>","1","10","Odds are Orange","Fruit/orange.png","Lost","0.35,0.65","13","0.35","128","29","",""
"html-keyboard-response","96","252549","0.0-11.0-2.28","570fa921f895a7000f38ca6f","bdp_rwlrn","Wed Mar 15 2023 16:10:54 GMT-0400 (Eastern Daylight Time)","463548","Trustworthy,Untrustworthy","","","","decisionFB","","null","","<div class='trialDiv'><img src='Fruit/orange.png'><br><font class='baseline'><strong>Odds are Orange</strong><p>Choose number of points to bet.</font><div class='respPicDiv'><img src='img/responseButtonOffersNo0L1.png' class='respPic'></div></div>","null","10","Odds are Orange","Fruit/orange.png","Lost","0.35,0.65","13","0.35","127","29","",""
"html-keyboard-response","97","253564","0.0-11.0-3.28","570fa921f895a7000f38ca6f","bdp_rwlrn","Wed Mar 15 2023 16:10:54 GMT-0400 (Eastern Daylight Time)","463548","Trustworthy,Untrustworthy","","","","feedback","","null","","<div class='respPicDiv'><img src='img/responseButtonOffersNo0_wht.png' class='respPic'></div><div class='trialDiv'><img src='Fruit/orange.png'><br><font class='baseline'><strong>Odds are Orange</strong><p><strong><font class='negOutcome'>You LOST</font><p>You bet: 1</strong></font> &nbsp; &nbsp; &nbsp; &nbsp; &nbsp; &nbsp;<font class='negOutcome'>You receive: <strong>0</strong></font></div>","null","10","Odds are Orange","Fruit/orange.png","Lost","0.35,0.65","13","0.35","127","29","",""
"html-keyboard-response","98","254072","0.0-11.0-1.29","570fa921f895a7000f38ca6f","bdp_rwlrn","Wed Mar 15 2023 16:10:54 GMT-0400 (Eastern Daylight Time)","463548","Trustworthy,Untrustworthy","","","","decision","","508","","<div class='trialDiv'><img src='Fruit/grapes.png'><br><font class='baseline'><strong>Great Grapes</strong><p>Choose number of points to bet.</font><div class='respPicDiv'><img src='img/responseButtonOffersNo0L.png' class='respPic'></div></div>","5","10","Great Grapes","Fruit/grapes.png","Won","0.8,0.35","12","0.8","132","30","",""
"html-keyboard-response","99","254330","0.0-11.0-2.29","570fa921f895a7000f38ca6f","bdp_rwlrn","Wed Mar 15 2023 16:10:54 GMT-0400 (Eastern Daylight Time)","463548","Trustworthy,Untrustworthy","","","","decisionFB","","null","","<div class='trialDiv'><img src='Fruit/grapes.png'><br><font class='baseline'><strong>Great Grapes</strong><p>Choose number of points to bet.</font><div class='respPicDiv'><img src='img/responseButtonOffersNo0L5.png' class='respPic'></div></div>","null","10","Great Grapes","Fruit/grapes.png","Won","0.8,0.35","12","0.8","127","30","",""
"html-keyboard-response","100","255346","0.0-11.0-3.29","570fa921f895a7000f38ca6f","bdp_rwlrn","Wed Mar 15 2023 16:10:54 GMT-0400 (Eastern Daylight Time)","463548","Trustworthy,Untrustworthy","","","","feedback","","null","","<div class='respPicDiv'><img src='img/responseButtonOffersNo0_wht.png' class='respPic'></div><div class='trialDiv'><img src='Fruit/grapes.png'><br><font class='baseline'><strong>Great Grapes</strong><p><strong><font class='posOutcome'>You WON</font><p>You bet: 5</strong></font> &nbsp; &nbsp; &nbsp; &nbsp; &nbsp; &nbsp;<font class='posOutcome'>you receive: <strong>10</strong></font></div>","null","10","Great Grapes","Fruit/grapes.png","Won","0.8,0.35","12","0.8","137","30","",""
"html-keyboard-response","101","255864","0.0-11.0-1.30","570fa921f895a7000f38ca6f","bdp_rwlrn","Wed Mar 15 2023 16:10:54 GMT-0400 (Eastern Daylight Time)","463548","Trustworthy,Untrustworthy","","","","decision","","516","","<div class='trialDiv'><img src='Fruit/pears.png'><br><font class='baseline'><strong>Pears Aplenty</strong><p>Choose number of points to bet.</font><div class='respPicDiv'><img src='img/responseButtonOffersNo0L.png' class='respPic'></div></div>","1","11","Pears Aplenty","Fruit/pears.png","Won","0.35,0.8","13","0.35","142","31","",""
"html-keyboard-response","102","256129","0.0-11.0-2.30","570fa921f895a7000f38ca6f","bdp_rwlrn","Wed Mar 15 2023 16:10:54 GMT-0400 (Eastern Daylight Time)","463548","Trustworthy,Untrustworthy","","","","decisionFB","","null","","<div class='trialDiv'><img src='Fruit/pears.png'><br><font class='baseline'><strong>Pears Aplenty</strong><p>Choose number of points to bet.</font><div class='respPicDiv'><img src='img/responseButtonOffersNo0L1.png' class='respPic'></div></div>","null","11","Pears Aplenty","Fruit/pears.png","Won","0.35,0.8","13","0.35","141","31","",""
"html-keyboard-response","103","257144","0.0-11.0-3.30","570fa921f895a7000f38ca6f","bdp_rwlrn","Wed Mar 15 2023 16:10:54 GMT-0400 (Eastern Daylight Time)","463548","Trustworthy,Untrustworthy","","","","feedback","","null","","<div class='respPicDiv'><img src='img/responseButtonOffersNo0_wht.png' class='respPic'></div><div class='trialDiv'><img src='Fruit/pears.png'><br><font class='baseline'><strong>Pears Aplenty</strong><p><strong><font class='posOutcome'>You WON</font><p>You bet: 1</strong></font> &nbsp; &nbsp; &nbsp; &nbsp; &nbsp; &nbsp;<font class='posOutcome'>you receive: <strong>2</strong></font></div>","null","11","Pears Aplenty","Fruit/pears.png","Won","0.35,0.8","13","0.35","143","31","",""
"html-keyboard-response","104","257749","0.0-11.0-1.31","570fa921f895a7000f38ca6f","bdp_rwlrn","Wed Mar 15 2023 16:10:54 GMT-0400 (Eastern Daylight Time)","463548","Trustworthy,Untrustworthy","","","","decision","","603","","<div class='trialDiv'><img src='Fruit/grapes.png'><br><font class='baseline'><strong>Great Grapes</strong><p>Choose number of points to bet.</font><div class='respPicDiv'><img src='img/responseButtonOffersNo0L.png' class='respPic'></div></div>","5","11","Great Grapes","Fruit/grapes.png","Lost","0.8,0.35","12","0.8","148","32","",""
"html-keyboard-response","105","258003","0.0-11.0-2.31","570fa921f895a7000f38ca6f","bdp_rwlrn","Wed Mar 15 2023 16:10:54 GMT-0400 (Eastern Daylight Time)","463548","Trustworthy,Untrustworthy","","","","decisionFB","","null","","<div class='trialDiv'><img src='Fruit/grapes.png'><br><font class='baseline'><strong>Great Grapes</strong><p>Choose number of points to bet.</font><div class='respPicDiv'><img src='img/responseButtonOffersNo0L5.png' class='respPic'></div></div>","null","11","Great Grapes","Fruit/grapes.png","Lost","0.8,0.35","12","0.8","143","32","",""
"html-keyboard-response","106","259017","0.0-11.0-3.31","570fa921f895a7000f38ca6f","bdp_rwlrn","Wed Mar 15 2023 16:10:54 GMT-0400 (Eastern Daylight Time)","463548","Trustworthy,Untrustworthy","","","","feedback","","null","","<div class='respPicDiv'><img src='img/responseButtonOffersNo0_wht.png' class='respPic'></div><div class='trialDiv'><img src='Fruit/grapes.png'><br><font class='baseline'><strong>Great Grapes</strong><p><strong><font class='negOutcome'>You LOST</font><p>You bet: 5</strong></font> &nbsp; &nbsp; &nbsp; &nbsp; &nbsp; &nbsp;<font class='negOutcome'>You receive: <strong>0</strong></font></div>","null","11","Great Grapes","Fruit/grapes.png","Lost","0.8,0.35","12","0.8","143","32","",""
"html-keyboard-response","107","259781","0.0-11.0-1.32","570fa921f895a7000f38ca6f","bdp_rwlrn","Wed Mar 15 2023 16:10:54 GMT-0400 (Eastern Daylight Time)","463548","Trustworthy,Untrustworthy","","","","decision","","763","","<div class='trialDiv'><img src='Fruit/orange.png'><br><font class='baseline'><strong>Odds are Orange</strong><p>Choose number of points to bet.</font><div class='respPicDiv'><img src='img/responseButtonOffersNo0L.png' class='respPic'></div></div>","1","11","Odds are Orange","Fruit/orange.png","Lost","0.35,0.65","13","0.35","148","33","",""
"html-keyboard-response","108","260034","0.0-11.0-2.32","570fa921f895a7000f38ca6f","bdp_rwlrn","Wed Mar 15 2023 16:10:54 GMT-0400 (Eastern Daylight Time)","463548","Trustworthy,Untrustworthy","","","","decisionFB","","null","","<div class='trialDiv'><img src='Fruit/orange.png'><br><font class='baseline'><strong>Odds are Orange</strong><p>Choose number of points to bet.</font><div class='respPicDiv'><img src='img/responseButtonOffersNo0L1.png' class='respPic'></div></div>","null","11","Odds are Orange","Fruit/orange.png","Lost","0.35,0.65","13","0.35","147","33","",""
"html-keyboard-response","109","261050","0.0-11.0-3.32","570fa921f895a7000f38ca6f","bdp_rwlrn","Wed Mar 15 2023 16:10:54 GMT-0400 (Eastern Daylight Time)","463548","Trustworthy,Untrustworthy","","","","feedback","","null","","<div class='respPicDiv'><img src='img/responseButtonOffersNo0_wht.png' class='respPic'></div><div class='trialDiv'><img src='Fruit/orange.png'><br><font class='baseline'><strong>Odds are Orange</strong><p><strong><font class='negOutcome'>You LOST</font><p>You bet: 1</strong></font> &nbsp; &nbsp; &nbsp; &nbsp; &nbsp; &nbsp;<font class='negOutcome'>You receive: <strong>0</strong></font></div>","null","11","Odds are Orange","Fruit/orange.png","Lost","0.35,0.65","13","0.35","147","33","",""
"html-keyboard-response","110","261364","0.0-11.0-1.33","570fa921f895a7000f38ca6f","bdp_rwlrn","Wed Mar 15 2023 16:10:54 GMT-0400 (Eastern Daylight Time)","463548","Trustworthy,Untrustworthy","","","","decision","","313","","<div class='trialDiv'><img src='Fruit/grapes.png'><br><font class='baseline'><strong>Great Grapes</strong><p>Choose number of points to bet.</font><div class='respPicDiv'><img src='img/responseButtonOffersNo0L.png' class='respPic'></div></div>","5","12","Great Grapes","Fruit/grapes.png","Lost","0.8,0.35","12","0.8","152","34","",""
"html-keyboard-response","111","261626","0.0-11.0-2.33","570fa921f895a7000f38ca6f","bdp_rwlrn","Wed Mar 15 2023 16:10:54 GMT-0400 (Eastern Daylight Time)","463548","Trustworthy,Untrustworthy","","","","decisionFB","","null","","<div class='trialDiv'><img src='Fruit/grapes.png'><br><font class='baseline'><strong>Great Grapes</strong><p>Choose number of points to bet.</font><div class='respPicDiv'><img src='img/responseButtonOffersNo0L5.png' class='respPic'></div></div>","null","12","Great Grapes","Fruit/grapes.png","Lost","0.8,0.35","12","0.8","147","34","",""
"html-keyboard-response","112","262643","0.0-11.0-3.33","570fa921f895a7000f38ca6f","bdp_rwlrn","Wed Mar 15 2023 16:10:54 GMT-0400 (Eastern Daylight Time)","463548","Trustworthy,Untrustworthy","","","","feedback","","null","","<div class='respPicDiv'><img src='img/responseButtonOffersNo0_wht.png' class='respPic'></div><div class='trialDiv'><img src='Fruit/grapes.png'><br><font class='baseline'><strong>Great Grapes</strong><p><strong><font class='negOutcome'>You LOST</font><p>You bet: 5</strong></font> &nbsp; &nbsp; &nbsp; &nbsp; &nbsp; &nbsp;<font class='negOutcome'>You receive: <strong>0</strong></font></div>","null","12","Great Grapes","Fruit/grapes.png","Lost","0.8,0.35","12","0.8","147","34","",""
"html-keyboard-response","113","263347","0.0-11.0-1.34","570fa921f895a7000f38ca6f","bdp_rwlrn","Wed Mar 15 2023 16:10:54 GMT-0400 (Eastern Daylight Time)","463548","Trustworthy,Untrustworthy","","","","decision","","702","","<div class='trialDiv'><img src='Fruit/pears.png'><br><font class='baseline'><strong>Pears Aplenty</strong><p>Choose number of points to bet.</font><div class='respPicDiv'><img src='img/responseButtonOffersNo0L.png' class='respPic'></div></div>","5","12","Pears Aplenty","Fruit/pears.png","Won","0.35,0.8","13","0.35","152","35","",""
"html-keyboard-response","114","263607","0.0-11.0-2.34","570fa921f895a7000f38ca6f","bdp_rwlrn","Wed Mar 15 2023 16:10:54 GMT-0400 (Eastern Daylight Time)","463548","Trustworthy,Untrustworthy","","","","decisionFB","","null","","<div class='trialDiv'><img src='Fruit/pears.png'><br><font class='baseline'><strong>Pears Aplenty</strong><p>Choose number of points to bet.</font><div class='respPicDiv'><img src='img/responseButtonOffersNo0L5.png' class='respPic'></div></div>","null","12","Pears Aplenty","Fruit/pears.png","Won","0.35,0.8","13","0.35","147","35","",""
"html-keyboard-response","115","264610","0.0-11.0-3.34","570fa921f895a7000f38ca6f","bdp_rwlrn","Wed Mar 15 2023 16:10:54 GMT-0400 (Eastern Daylight Time)","463548","Trustworthy,Untrustworthy","","","","feedback","","null","","<div class='respPicDiv'><img src='img/responseButtonOffersNo0_wht.png' class='respPic'></div><div class='trialDiv'><img src='Fruit/pears.png'><br><font class='baseline'><strong>Pears Aplenty</strong><p><strong><font class='posOutcome'>You WON</font><p>You bet: 5</strong></font> &nbsp; &nbsp; &nbsp; &nbsp; &nbsp; &nbsp;<font class='posOutcome'>you receive: <strong>10</strong></font></div>","null","12","Pears Aplenty","Fruit/pears.png","Won","0.35,0.8","13","0.35","157","35","",""
"html-keyboard-response","116","265313","0.0-11.0-1.35","570fa921f895a7000f38ca6f","bdp_rwlrn","Wed Mar 15 2023 16:10:54 GMT-0400 (Eastern Daylight Time)","463548","Trustworthy,Untrustworthy","","","","decision","","702","","<div class='trialDiv'><img src='Fruit/orange.png'><br><font class='baseline'><strong>Odds are Orange</strong><p>Choose number of points to bet.</font><div class='respPicDiv'><img src='img/responseButtonOffersNo0L.png' class='respPic'></div></div>","1","12","Odds are Orange","Fruit/orange.png","Lost","0.35,0.65","13","0.35","162","36","",""
"html-keyboard-response","117","265575","0.0-11.0-2.35","570fa921f895a7000f38ca6f","bdp_rwlrn","Wed Mar 15 2023 16:10:54 GMT-0400 (Eastern Daylight Time)","463548","Trustworthy,Untrustworthy","","","","decisionFB","","null","","<div class='trialDiv'><img src='Fruit/orange.png'><br><font class='baseline'><strong>Odds are Orange</strong><p>Choose number of points to bet.</font><div class='respPicDiv'><img src='img/responseButtonOffersNo0L1.png' class='respPic'></div></div>","null","12","Odds are Orange","Fruit/orange.png","Lost","0.35,0.65","13","0.35","161","36","",""
"html-keyboard-response","118","266579","0.0-11.0-3.35","570fa921f895a7000f38ca6f","bdp_rwlrn","Wed Mar 15 2023 16:10:54 GMT-0400 (Eastern Daylight Time)","463548","Trustworthy,Untrustworthy","","","","feedback","","null","","<div class='respPicDiv'><img src='img/responseButtonOffersNo0_wht.png' class='respPic'></div><div class='trialDiv'><img src='Fruit/orange.png'><br><font class='baseline'><strong>Odds are Orange</strong><p><strong><font class='negOutcome'>You LOST</font><p>You bet: 1</strong></font> &nbsp; &nbsp; &nbsp; &nbsp; &nbsp; &nbsp;<font class='negOutcome'>You receive: <strong>0</strong></font></div>","null","12","Odds are Orange","Fruit/orange.png","Lost","0.35,0.65","13","0.35","161","36","",""
"html-keyboard-response","119","267568","0.0-11.0-1.36","570fa921f895a7000f38ca6f","bdp_rwlrn","Wed Mar 15 2023 16:10:54 GMT-0400 (Eastern Daylight Time)","463548","Trustworthy,Untrustworthy","","","","decision","","988","","<div class='trialDiv'><img src='Fruit/grapes.png'><br><font class='baseline'><strong>Great Grapes</strong><p>Choose number of points to bet.</font><div class='respPicDiv'><img src='img/responseButtonOffersNo0L.png' class='respPic'></div></div>","1","13","Great Grapes","Fruit/grapes.png","Won","0.8,0.35","12","0.8","166","37","",""
"html-keyboard-response","120","267828","0.0-11.0-2.36","570fa921f895a7000f38ca6f","bdp_rwlrn","Wed Mar 15 2023 16:10:54 GMT-0400 (Eastern Daylight Time)","463548","Trustworthy,Untrustworthy","","","","decisionFB","","null","","<div class='trialDiv'><img src='Fruit/grapes.png'><br><font class='baseline'><strong>Great Grapes</strong><p>Choose number of points to bet.</font><div class='respPicDiv'><img src='img/responseButtonOffersNo0L1.png' class='respPic'></div></div>","null","13","Great Grapes","Fruit/grapes.png","Won","0.8,0.35","12","0.8","165","37","",""
"html-keyboard-response","121","268845","0.0-11.0-3.36","570fa921f895a7000f38ca6f","bdp_rwlrn","Wed Mar 15 2023 16:10:54 GMT-0400 (Eastern Daylight Time)","463548","Trustworthy,Untrustworthy","","","","feedback","","null","","<div class='respPicDiv'><img src='img/responseButtonOffersNo0_wht.png' class='respPic'></div><div class='trialDiv'><img src='Fruit/grapes.png'><br><font class='baseline'><strong>Great Grapes</strong><p><strong><font class='posOutcome'>You WON</font><p>You bet: 1</strong></font> &nbsp; &nbsp; &nbsp; &nbsp; &nbsp; &nbsp;<font class='posOutcome'>you receive: <strong>2</strong></font></div>","null","13","Great Grapes","Fruit/grapes.png","Won","0.8,0.35","12","0.8","167","37","",""
"html-keyboard-response","122","269502","0.0-11.0-1.37","570fa921f895a7000f38ca6f","bdp_rwlrn","Wed Mar 15 2023 16:10:54 GMT-0400 (Eastern Daylight Time)","463548","Trustworthy,Untrustworthy","","","","decision","","656","","<div class='trialDiv'><img src='Fruit/orange.png'><br><font class='baseline'><strong>Odds are Orange</strong><p>Choose number of points to bet.</font><div class='respPicDiv'><img src='img/responseButtonOffersNo0L.png' class='respPic'></div></div>","1","13","Odds are Orange","Fruit/orange.png","Won","0.35,0.65","13","0.35","172","38","",""
"html-keyboard-response","123","269764","0.0-11.0-2.37","570fa921f895a7000f38ca6f","bdp_rwlrn","Wed Mar 15 2023 16:10:54 GMT-0400 (Eastern Daylight Time)","463548","Trustworthy,Untrustworthy","","","","decisionFB","","null","","<div class='trialDiv'><img src='Fruit/orange.png'><br><font class='baseline'><strong>Odds are Orange</strong><p>Choose number of points to bet.</font><div class='respPicDiv'><img src='img/responseButtonOffersNo0L1.png' class='respPic'></div></div>","null","13","Odds are Orange","Fruit/orange.png","Won","0.35,0.65","13","0.35","171","38","",""
"html-keyboard-response","124","270777","0.0-11.0-3.37","570fa921f895a7000f38ca6f","bdp_rwlrn","Wed Mar 15 2023 16:10:54 GMT-0400 (Eastern Daylight Time)","463548","Trustworthy,Untrustworthy","","","","feedback","","null","","<div class='respPicDiv'><img src='img/responseButtonOffersNo0_wht.png' class='respPic'></div><div class='trialDiv'><img src='Fruit/orange.png'><br><font class='baseline'><strong>Odds are Orange</strong><p><strong><font class='posOutcome'>You WON</font><p>You bet: 1</strong></font> &nbsp; &nbsp; &nbsp; &nbsp; &nbsp; &nbsp;<font class='posOutcome'>you receive: <strong>2</strong></font></div>","null","13","Odds are Orange","Fruit/orange.png","Won","0.35,0.65","13","0.35","173","38","",""
"html-keyboard-response","125","271757","0.0-11.0-1.38","570fa921f895a7000f38ca6f","bdp_rwlrn","Wed Mar 15 2023 16:10:54 GMT-0400 (Eastern Daylight Time)","463548","Trustworthy,Untrustworthy","","","","decision","","978","","<div class='trialDiv'><img src='Fruit/pears.png'><br><font class='baseline'><strong>Pears Aplenty</strong><p>Choose number of points to bet.</font><div class='respPicDiv'><img src='img/responseButtonOffersNo0L.png' class='respPic'></div></div>","1","13","Pears Aplenty","Fruit/pears.png","Lost","0.35,0.8","13","0.35","178","39","",""
"html-keyboard-response","126","272015","0.0-11.0-2.38","570fa921f895a7000f38ca6f","bdp_rwlrn","Wed Mar 15 2023 16:10:54 GMT-0400 (Eastern Daylight Time)","463548","Trustworthy,Untrustworthy","","","","decisionFB","","null","","<div class='trialDiv'><img src='Fruit/pears.png'><br><font class='baseline'><strong>Pears Aplenty</strong><p>Choose number of points to bet.</font><div class='respPicDiv'><img src='img/responseButtonOffersNo0L1.png' class='respPic'></div></div>","null","13","Pears Aplenty","Fruit/pears.png","Lost","0.35,0.8","13","0.35","177","39","",""
"html-keyboard-response","127","273019","0.0-11.0-3.38","570fa921f895a7000f38ca6f","bdp_rwlrn","Wed Mar 15 2023 16:10:54 GMT-0400 (Eastern Daylight Time)","463548","Trustworthy,Untrustworthy","","","","feedback","","null","","<div class='respPicDiv'><img src='img/responseButtonOffersNo0_wht.png' class='respPic'></div><div class='trialDiv'><img src='Fruit/pears.png'><br><font class='baseline'><strong>Pears Aplenty</strong><p><strong><font class='negOutcome'>You LOST</font><p>You bet: 1</strong></font> &nbsp; &nbsp; &nbsp; &nbsp; &nbsp; &nbsp;<font class='negOutcome'>You receive: <strong>0</strong></font></div>","null","13","Pears Aplenty","Fruit/pears.png","Lost","0.35,0.8","13","0.35","177","39","",""
"html-keyboard-response","128","273913","0.0-11.0-1.39","570fa921f895a7000f38ca6f","bdp_rwlrn","Wed Mar 15 2023 16:10:54 GMT-0400 (Eastern Daylight Time)","463548","Trustworthy,Untrustworthy","","","","decision","","893","","<div class='trialDiv'><img src='Fruit/orange.png'><br><font class='baseline'><strong>Odds are Orange</strong><p>Choose number of points to bet.</font><div class='respPicDiv'><img src='img/responseButtonOffersNo0L.png' class='respPic'></div></div>","1","14","Odds are Orange","Fruit/orange.png","Lost","0.35,0.65","13","0.35","182","40","",""
"html-keyboard-response","129","274172","0.0-11.0-2.39","570fa921f895a7000f38ca6f","bdp_rwlrn","Wed Mar 15 2023 16:10:54 GMT-0400 (Eastern Daylight Time)","463548","Trustworthy,Untrustworthy","","","","decisionFB","","null","","<div class='trialDiv'><img src='Fruit/orange.png'><br><font class='baseline'><strong>Odds are Orange</strong><p>Choose number of points to bet.</font><div class='respPicDiv'><img src='img/responseButtonOffersNo0L1.png' class='respPic'></div></div>","null","14","Odds are Orange","Fruit/orange.png","Lost","0.35,0.65","13","0.35","181","40","",""
"html-keyboard-response","130","275184","0.0-11.0-3.39","570fa921f895a7000f38ca6f","bdp_rwlrn","Wed Mar 15 2023 16:10:54 GMT-0400 (Eastern Daylight Time)","463548","Trustworthy,Untrustworthy","","","","feedback","","null","","<div class='respPicDiv'><img src='img/responseButtonOffersNo0_wht.png' class='respPic'></div><div class='trialDiv'><img src='Fruit/orange.png'><br><font class='baseline'><strong>Odds are Orange</strong><p><strong><font class='negOutcome'>You LOST</font><p>You bet: 1</strong></font> &nbsp; &nbsp; &nbsp; &nbsp; &nbsp; &nbsp;<font class='negOutcome'>You receive: <strong>0</strong></font></div>","null","14","Odds are Orange","Fruit/orange.png","Lost","0.35,0.65","13","0.35","181","40","",""
"html-keyboard-response","131","275608","0.0-11.0-1.40","570fa921f895a7000f38ca6f","bdp_rwlrn","Wed Mar 15 2023 16:10:54 GMT-0400 (Eastern Daylight Time)","463548","Trustworthy,Untrustworthy","","","","decision","","423","","<div class='trialDiv'><img src='Fruit/grapes.png'><br><font class='baseline'><strong>Great Grapes</strong><p>Choose number of points to bet.</font><div class='respPicDiv'><img src='img/responseButtonOffersNo0L.png' class='respPic'></div></div>","5","14","Great Grapes","Fruit/grapes.png","Won","0.8,0.35","12","0.8","186","41","",""
"html-keyboard-response","132","275862","0.0-11.0-2.40","570fa921f895a7000f38ca6f","bdp_rwlrn","Wed Mar 15 2023 16:10:54 GMT-0400 (Eastern Daylight Time)","463548","Trustworthy,Untrustworthy","","","","decisionFB","","null","","<div class='trialDiv'><img src='Fruit/grapes.png'><br><font class='baseline'><strong>Great Grapes</strong><p>Choose number of points to bet.</font><div class='respPicDiv'><img src='img/responseButtonOffersNo0L5.png' class='respPic'></div></div>","null","14","Great Grapes","Fruit/grapes.png","Won","0.8,0.35","12","0.8","181","41","",""
"html-keyboard-response","133","276872","0.0-11.0-3.40","570fa921f895a7000f38ca6f","bdp_rwlrn","Wed Mar 15 2023 16:10:54 GMT-0400 (Eastern Daylight Time)","463548","Trustworthy,Untrustworthy","","","","feedback","","null","","<div class='respPicDiv'><img src='img/responseButtonOffersNo0_wht.png' class='respPic'></div><div class='trialDiv'><img src='Fruit/grapes.png'><br><font class='baseline'><strong>Great Grapes</strong><p><strong><font class='posOutcome'>You WON</font><p>You bet: 5</strong></font> &nbsp; &nbsp; &nbsp; &nbsp; &nbsp; &nbsp;<font class='posOutcome'>you receive: <strong>10</strong></font></div>","null","14","Great Grapes","Fruit/grapes.png","Won","0.8,0.35","12","0.8","191","41","",""
"html-keyboard-response","134","277495","0.0-11.0-1.41","570fa921f895a7000f38ca6f","bdp_rwlrn","Wed Mar 15 2023 16:10:54 GMT-0400 (Eastern Daylight Time)","463548","Trustworthy,Untrustworthy","","","","decision","","621","","<div class='trialDiv'><img src='Fruit/pears.png'><br><font class='baseline'><strong>Pears Aplenty</strong><p>Choose number of points to bet.</font><div class='respPicDiv'><img src='img/responseButtonOffersNo0L.png' class='respPic'></div></div>","5","14","Pears Aplenty","Fruit/pears.png","Lost","0.35,0.8","13","0.35","196","42","",""
"html-keyboard-response","135","277754","0.0-11.0-2.41","570fa921f895a7000f38ca6f","bdp_rwlrn","Wed Mar 15 2023 16:10:54 GMT-0400 (Eastern Daylight Time)","463548","Trustworthy,Untrustworthy","","","","decisionFB","","null","","<div class='trialDiv'><img src='Fruit/pears.png'><br><font class='baseline'><strong>Pears Aplenty</strong><p>Choose number of points to bet.</font><div class='respPicDiv'><img src='img/responseButtonOffersNo0L5.png' class='respPic'></div></div>","null","14","Pears Aplenty","Fruit/pears.png","Lost","0.35,0.8","13","0.35","191","42","",""
"html-keyboard-response","136","278758","0.0-11.0-3.41","570fa921f895a7000f38ca6f","bdp_rwlrn","Wed Mar 15 2023 16:10:54 GMT-0400 (Eastern Daylight Time)","463548","Trustworthy,Untrustworthy","","","","feedback","","null","","<div class='respPicDiv'><img src='img/responseButtonOffersNo0_wht.png' class='respPic'></div><div class='trialDiv'><img src='Fruit/pears.png'><br><font class='baseline'><strong>Pears Aplenty</strong><p><strong><font class='negOutcome'>You LOST</font><p>You bet: 5</strong></font> &nbsp; &nbsp; &nbsp; &nbsp; &nbsp; &nbsp;<font class='negOutcome'>You receive: <strong>0</strong></font></div>","null","14","Pears Aplenty","Fruit/pears.png","Lost","0.35,0.8","13","0.35","191","42","",""
"html-keyboard-response","137","279237","0.0-11.0-1.42","570fa921f895a7000f38ca6f","bdp_rwlrn","Wed Mar 15 2023 16:10:54 GMT-0400 (Eastern Daylight Time)","463548","Trustworthy,Untrustworthy","","","","decision","","479","","<div class='trialDiv'><img src='Fruit/grapes.png'><br><font class='baseline'><strong>Great Grapes</strong><p>Choose number of points to bet.</font><div class='respPicDiv'><img src='img/responseButtonOffersNo0L.png' class='respPic'></div></div>","5","15","Great Grapes","Fruit/grapes.png","Lost","0.8,0.35","12","0.8","196","43","",""
"html-keyboard-response","138","279496","0.0-11.0-2.42","570fa921f895a7000f38ca6f","bdp_rwlrn","Wed Mar 15 2023 16:10:54 GMT-0400 (Eastern Daylight Time)","463548","Trustworthy,Untrustworthy","","","","decisionFB","","null","","<div class='trialDiv'><img src='Fruit/grapes.png'><br><font class='baseline'><strong>Great Grapes</strong><p>Choose number of points to bet.</font><div class='respPicDiv'><img src='img/responseButtonOffersNo0L5.png' class='respPic'></div></div>","null","15","Great Grapes","Fruit/grapes.png","Lost","0.8,0.35","12","0.8","191","43","",""
"html-keyboard-response","139","280511","0.0-11.0-3.42","570fa921f895a7000f38ca6f","bdp_rwlrn","Wed Mar 15 2023 16:10:54 GMT-0400 (Eastern Daylight Time)","463548","Trustworthy,Untrustworthy","","","","feedback","","null","","<div class='respPicDiv'><img src='img/responseButtonOffersNo0_wht.png' class='respPic'></div><div class='trialDiv'><img src='Fruit/grapes.png'><br><font class='baseline'><strong>Great Grapes</strong><p><strong><font class='negOutcome'>You LOST</font><p>You bet: 5</strong></font> &nbsp; &nbsp; &nbsp; &nbsp; &nbsp; &nbsp;<font class='negOutcome'>You receive: <strong>0</strong></font></div>","null","15","Great Grapes","Fruit/grapes.png","Lost","0.8,0.35","12","0.8","191","43","",""
"html-keyboard-response","140","280996","0.0-11.0-1.43","570fa921f895a7000f38ca6f","bdp_rwlrn","Wed Mar 15 2023 16:10:54 GMT-0400 (Eastern Daylight Time)","463548","Trustworthy,Untrustworthy","","","","decision","","484","","<div class='trialDiv'><img src='Fruit/pears.png'><br><font class='baseline'><strong>Pears Aplenty</strong><p>Choose number of points to bet.</font><div class='respPicDiv'><img src='img/responseButtonOffersNo0L.png' class='respPic'></div></div>","1","15","Pears Aplenty","Fruit/pears.png","Won","0.35,0.8","13","0.35","196","44","",""
"html-keyboard-response","141","281261","0.0-11.0-2.43","570fa921f895a7000f38ca6f","bdp_rwlrn","Wed Mar 15 2023 16:10:54 GMT-0400 (Eastern Daylight Time)","463548","Trustworthy,Untrustworthy","","","","decisionFB","","null","","<div class='trialDiv'><img src='Fruit/pears.png'><br><font class='baseline'><strong>Pears Aplenty</strong><p>Choose number of points to bet.</font><div class='respPicDiv'><img src='img/responseButtonOffersNo0L1.png' class='respPic'></div></div>","null","15","Pears Aplenty","Fruit/pears.png","Won","0.35,0.8","13","0.35","195","44","",""
"html-keyboard-response","142","282266","0.0-11.0-3.43","570fa921f895a7000f38ca6f","bdp_rwlrn","Wed Mar 15 2023 16:10:54 GMT-0400 (Eastern Daylight Time)","463548","Trustworthy,Untrustworthy","","","","feedback","","null","","<div class='respPicDiv'><img src='img/responseButtonOffersNo0_wht.png' class='respPic'></div><div class='trialDiv'><img src='Fruit/pears.png'><br><font class='baseline'><strong>Pears Aplenty</strong><p><strong><font class='posOutcome'>You WON</font><p>You bet: 1</strong></font> &nbsp; &nbsp; &nbsp; &nbsp; &nbsp; &nbsp;<font class='posOutcome'>you receive: <strong>2</strong></font></div>","null","15","Pears Aplenty","Fruit/pears.png","Won","0.35,0.8","13","0.35","197","44","",""
"html-keyboard-response","143","282881","0.0-11.0-1.44","570fa921f895a7000f38ca6f","bdp_rwlrn","Wed Mar 15 2023 16:10:54 GMT-0400 (Eastern Daylight Time)","463548","Trustworthy,Untrustworthy","","","","decision","","614","","<div class='trialDiv'><img src='Fruit/orange.png'><br><font class='baseline'><strong>Odds are Orange</strong><p>Choose number of points to bet.</font><div class='respPicDiv'><img src='img/responseButtonOffersNo0L.png' class='respPic'></div></div>","1","15","Odds are Orange","Fruit/orange.png","Won","0.35,0.65","13","0.35","202","45","",""
"html-keyboard-response","144","283140","0.0-11.0-2.44","570fa921f895a7000f38ca6f","bdp_rwlrn","Wed Mar 15 2023 16:10:54 GMT-0400 (Eastern Daylight Time)","463548","Trustworthy,Untrustworthy","","","","decisionFB","","null","","<div class='trialDiv'><img src='Fruit/orange.png'><br><font class='baseline'><strong>Odds are Orange</strong><p>Choose number of points to bet.</font><div class='respPicDiv'><img src='img/responseButtonOffersNo0L1.png' class='respPic'></div></div>","null","15","Odds are Orange","Fruit/orange.png","Won","0.35,0.65","13","0.35","201","45","",""
"html-keyboard-response","145","284157","0.0-11.0-3.44","570fa921f895a7000f38ca6f","bdp_rwlrn","Wed Mar 15 2023 16:10:54 GMT-0400 (Eastern Daylight Time)","463548","Trustworthy,Untrustworthy","","","","feedback","","null","","<div class='respPicDiv'><img src='img/responseButtonOffersNo0_wht.png' class='respPic'></div><div class='trialDiv'><img src='Fruit/orange.png'><br><font class='baseline'><strong>Odds are Orange</strong><p><strong><font class='posOutcome'>You WON</font><p>You bet: 1</strong></font> &nbsp; &nbsp; &nbsp; &nbsp; &nbsp; &nbsp;<font class='posOutcome'>you receive: <strong>2</strong></font></div>","null","15","Odds are Orange","Fruit/orange.png","Won","0.35,0.65","13","0.35","203","45","",""
"html-keyboard-response","146","285234","0.0-11.0-1.45","570fa921f895a7000f38ca6f","bdp_rwlrn","Wed Mar 15 2023 16:10:54 GMT-0400 (Eastern Daylight Time)","463548","Trustworthy,Untrustworthy","","","","decision","","1075","","<div class='trialDiv'><img src='Fruit/pears.png'><br><font class='baseline'><strong>Pears Aplenty</strong><p>Choose number of points to bet.</font><div class='respPicDiv'><img src='img/responseButtonOffersNo0L.png' class='respPic'></div></div>","5","16","Pears Aplenty","Fruit/pears.png","Won","0.35,0.8","13","0.35","208","46","",""
"html-keyboard-response","147","285496","0.0-11.0-2.45","570fa921f895a7000f38ca6f","bdp_rwlrn","Wed Mar 15 2023 16:10:54 GMT-0400 (Eastern Daylight Time)","463548","Trustworthy,Untrustworthy","","","","decisionFB","","null","","<div class='trialDiv'><img src='Fruit/pears.png'><br><font class='baseline'><strong>Pears Aplenty</strong><p>Choose number of points to bet.</font><div class='respPicDiv'><img src='img/responseButtonOffersNo0L5.png' class='respPic'></div></div>","null","16","Pears Aplenty","Fruit/pears.png","Won","0.35,0.8","13","0.35","203","46","",""
"html-keyboard-response","148","286501","0.0-11.0-3.45","570fa921f895a7000f38ca6f","bdp_rwlrn","Wed Mar 15 2023 16:10:54 GMT-0400 (Eastern Daylight Time)","463548","Trustworthy,Untrustworthy","","","","feedback","","null","","<div class='respPicDiv'><img src='img/responseButtonOffersNo0_wht.png' class='respPic'></div><div class='trialDiv'><img src='Fruit/pears.png'><br><font class='baseline'><strong>Pears Aplenty</strong><p><strong><font class='posOutcome'>You WON</font><p>You bet: 5</strong></font> &nbsp; &nbsp; &nbsp; &nbsp; &nbsp; &nbsp;<font class='posOutcome'>you receive: <strong>10</strong></font></div>","null","16","Pears Aplenty","Fruit/pears.png","Won","0.35,0.8","13","0.35","213","46","",""
"html-keyboard-response","149","287070","0.0-11.0-1.46","570fa921f895a7000f38ca6f","bdp_rwlrn","Wed Mar 15 2023 16:10:54 GMT-0400 (Eastern Daylight Time)","463548","Trustworthy,Untrustworthy","","","","decision","","568","","<div class='trialDiv'><img src='Fruit/orange.png'><br><font class='baseline'><strong>Odds are Orange</strong><p>Choose number of points to bet.</font><div class='respPicDiv'><img src='img/responseButtonOffersNo0L.png' class='respPic'></div></div>","5","16","Odds are Orange","Fruit/orange.png","Lost","0.35,0.65","13","0.35","218","47","",""
"html-keyboard-response","150","287326","0.0-11.0-2.46","570fa921f895a7000f38ca6f","bdp_rwlrn","Wed Mar 15 2023 16:10:54 GMT-0400 (Eastern Daylight Time)","463548","Trustworthy,Untrustworthy","","","","decisionFB","","null","","<div class='trialDiv'><img src='Fruit/orange.png'><br><font class='baseline'><strong>Odds are Orange</strong><p>Choose number of points to bet.</font><div class='respPicDiv'><img src='img/responseButtonOffersNo0L5.png' class='respPic'></div></div>","null","16","Odds are Orange","Fruit/orange.png","Lost","0.35,0.65","13","0.35","213","47","",""
"html-keyboard-response","151","288330","0.0-11.0-3.46","570fa921f895a7000f38ca6f","bdp_rwlrn","Wed Mar 15 2023 16:10:54 GMT-0400 (Eastern Daylight Time)","463548","Trustworthy,Untrustworthy","","","","feedback","","null","","<div class='respPicDiv'><img src='img/responseButtonOffersNo0_wht.png' class='respPic'></div><div class='trialDiv'><img src='Fruit/orange.png'><br><font class='baseline'><strong>Odds are Orange</strong><p><strong><font class='negOutcome'>You LOST</font><p>You bet: 5</strong></font> &nbsp; &nbsp; &nbsp; &nbsp; &nbsp; &nbsp;<font class='negOutcome'>You receive: <strong>0</strong></font></div>","null","16","Odds are Orange","Fruit/orange.png","Lost","0.35,0.65","13","0.35","213","47","",""
"html-keyboard-response","152","288765","0.0-11.0-1.47","570fa921f895a7000f38ca6f","bdp_rwlrn","Wed Mar 15 2023 16:10:54 GMT-0400 (Eastern Daylight Time)","463548","Trustworthy,Untrustworthy","","","","decision","","434","","<div class='trialDiv'><img src='Fruit/grapes.png'><br><font class='baseline'><strong>Great Grapes</strong><p>Choose number of points to bet.</font><div class='respPicDiv'><img src='img/responseButtonOffersNo0L.png' class='respPic'></div></div>","5","16","Great Grapes","Fruit/grapes.png","Lost","0.8,0.35","12","0.8","218","48","",""
"html-keyboard-response","153","289018","0.0-11.0-2.47","570fa921f895a7000f38ca6f","bdp_rwlrn","Wed Mar 15 2023 16:10:54 GMT-0400 (Eastern Daylight Time)","463548","Trustworthy,Untrustworthy","","","","decisionFB","","null","","<div class='trialDiv'><img src='Fruit/grapes.png'><br><font class='baseline'><strong>Great Grapes</strong><p>Choose number of points to bet.</font><div class='respPicDiv'><img src='img/responseButtonOffersNo0L5.png' class='respPic'></div></div>","null","16","Great Grapes","Fruit/grapes.png","Lost","0.8,0.35","12","0.8","213","48","",""
"html-keyboard-response","154","290031","0.0-11.0-3.47","570fa921f895a7000f38ca6f","bdp_rwlrn","Wed Mar 15 2023 16:10:54 GMT-0400 (Eastern Daylight Time)","463548","Trustworthy,Untrustworthy","","","","feedback","","null","","<div class='respPicDiv'><img src='img/responseButtonOffersNo0_wht.png' class='respPic'></div><div class='trialDiv'><img src='Fruit/grapes.png'><br><font class='baseline'><strong>Great Grapes</strong><p><strong><font class='negOutcome'>You LOST</font><p>You bet: 5</strong></font> &nbsp; &nbsp; &nbsp; &nbsp; &nbsp; &nbsp;<font class='negOutcome'>You receive: <strong>0</strong></font></div>","null","16","Great Grapes","Fruit/grapes.png","Lost","0.8,0.35","12","0.8","213","48","",""
"html-keyboard-response","155","290701","0.0-11.0-1.48","570fa921f895a7000f38ca6f","bdp_rwlrn","Wed Mar 15 2023 16:10:54 GMT-0400 (Eastern Daylight Time)","463548","Trustworthy,Untrustworthy","","","","decision","","668","","<div class='trialDiv'><img src='Fruit/pears.png'><br><font class='baseline'><strong>Pears Aplenty</strong><p>Choose number of points to bet.</font><div class='respPicDiv'><img src='img/responseButtonOffersNo0L.png' class='respPic'></div></div>","5","17","Pears Aplenty","Fruit/pears.png","Lost","0.35,0.8","13","0.35","218","49","",""
"html-keyboard-response","156","290954","0.0-11.0-2.48","570fa921f895a7000f38ca6f","bdp_rwlrn","Wed Mar 15 2023 16:10:54 GMT-0400 (Eastern Daylight Time)","463548","Trustworthy,Untrustworthy","","","","decisionFB","","null","","<div class='trialDiv'><img src='Fruit/pears.png'><br><font class='baseline'><strong>Pears Aplenty</strong><p>Choose number of points to bet.</font><div class='respPicDiv'><img src='img/responseButtonOffersNo0L5.png' class='respPic'></div></div>","null","17","Pears Aplenty","Fruit/pears.png","Lost","0.35,0.8","13","0.35","213","49","",""
"html-keyboard-response","157","291969","0.0-11.0-3.48","570fa921f895a7000f38ca6f","bdp_rwlrn","Wed Mar 15 2023 16:10:54 GMT-0400 (Eastern Daylight Time)","463548","Trustworthy,Untrustworthy","","","","feedback","","null","","<div class='respPicDiv'><img src='img/responseButtonOffersNo0_wht.png' class='respPic'></div><div class='trialDiv'><img src='Fruit/pears.png'><br><font class='baseline'><strong>Pears Aplenty</strong><p><strong><font class='negOutcome'>You LOST</font><p>You bet: 5</strong></font> &nbsp; &nbsp; &nbsp; &nbsp; &nbsp; &nbsp;<font class='negOutcome'>You receive: <strong>0</strong></font></div>","null","17","Pears Aplenty","Fruit/pears.png","Lost","0.35,0.8","13","0.35","213","49","",""
"html-keyboard-response","158","292635","0.0-11.0-1.49","570fa921f895a7000f38ca6f","bdp_rwlrn","Wed Mar 15 2023 16:10:54 GMT-0400 (Eastern Daylight Time)","463548","Trustworthy,Untrustworthy","","","","decision","","664","","<div class='trialDiv'><img src='Fruit/grapes.png'><br><font class='baseline'><strong>Great Grapes</strong><p>Choose number of points to bet.</font><div class='respPicDiv'><img src='img/responseButtonOffersNo0L.png' class='respPic'></div></div>","5","17","Great Grapes","Fruit/grapes.png","Lost","0.8,0.35","12","0.8","218","50","",""
"html-keyboard-response","159","292892","0.0-11.0-2.49","570fa921f895a7000f38ca6f","bdp_rwlrn","Wed Mar 15 2023 16:10:54 GMT-0400 (Eastern Daylight Time)","463548","Trustworthy,Untrustworthy","","","","decisionFB","","null","","<div class='trialDiv'><img src='Fruit/grapes.png'><br><font class='baseline'><strong>Great Grapes</strong><p>Choose number of points to bet.</font><div class='respPicDiv'><img src='img/responseButtonOffersNo0L5.png' class='respPic'></div></div>","null","17","Great Grapes","Fruit/grapes.png","Lost","0.8,0.35","12","0.8","213","50","",""
"html-keyboard-response","160","293906","0.0-11.0-3.49","570fa921f895a7000f38ca6f","bdp_rwlrn","Wed Mar 15 2023 16:10:54 GMT-0400 (Eastern Daylight Time)","463548","Trustworthy,Untrustworthy","","","","feedback","","null","","<div class='respPicDiv'><img src='img/responseButtonOffersNo0_wht.png' class='respPic'></div><div class='trialDiv'><img src='Fruit/grapes.png'><br><font class='baseline'><strong>Great Grapes</strong><p><strong><font class='negOutcome'>You LOST</font><p>You bet: 5</strong></font> &nbsp; &nbsp; &nbsp; &nbsp; &nbsp; &nbsp;<font class='negOutcome'>You receive: <strong>0</strong></font></div>","null","17","Great Grapes","Fruit/grapes.png","Lost","0.8,0.35","12","0.8","213","50","",""
"html-keyboard-response","161","294314","0.0-11.0-1.50","570fa921f895a7000f38ca6f","bdp_rwlrn","Wed Mar 15 2023 16:10:54 GMT-0400 (Eastern Daylight Time)","463548","Trustworthy,Untrustworthy","","","","decision","","405","","<div class='trialDiv'><img src='Fruit/orange.png'><br><font class='baseline'><strong>Odds are Orange</strong><p>Choose number of points to bet.</font><div class='respPicDiv'><img src='img/responseButtonOffersNo0L.png' class='respPic'></div></div>","1","17","Odds are Orange","Fruit/orange.png","Lost","0.35,0.65","13","0.35","218","51","",""
"html-keyboard-response","162","294576","0.0-11.0-2.50","570fa921f895a7000f38ca6f","bdp_rwlrn","Wed Mar 15 2023 16:10:54 GMT-0400 (Eastern Daylight Time)","463548","Trustworthy,Untrustworthy","","","","decisionFB","","null","","<div class='trialDiv'><img src='Fruit/orange.png'><br><font class='baseline'><strong>Odds are Orange</strong><p>Choose number of points to bet.</font><div class='respPicDiv'><img src='img/responseButtonOffersNo0L1.png' class='respPic'></div></div>","null","17","Odds are Orange","Fruit/orange.png","Lost","0.35,0.65","13","0.35","217","51","",""
