"trial_type","trial_index","time_elapsed","internal_node_id","subject_id","task","startTime","totalTime","labels","view_history","rt","event","trial","time","trialtype","success","stimulus","key_press","ltround","name","fileID","outcome","lottotype","lottoswpt","lottocurrpshare","point_total","round","faceID","face"
"pavlovia","0","4","0.0-0.0","5b9b422307c6960001614c35","bdp_rwlrn","Mon Mar 13 2023 14:56:41 GMT-0400 (Eastern Daylight Time)","590323","Trustworthy,Untrustworthy","","","","","","","","","","","","","","","","","","","",""
"instructions","1","8915","0.0-1.0","5b9b422307c6960001614c35","bdp_rwlrn","Mon Mar 13 2023 14:56:41 GMT-0400 (Eastern Daylight Time)","590323","Trustworthy,Untrustworthy","[{""page_index"":0,""viewing_time"":8910}]","8910","","","","","","","","","","","","","","","","","",""
"","","","","5b9b422307c6960001614c35","bdp_rwlrn","Mon Mar 13 2023 14:56:41 GMT-0400 (Eastern Daylight Time)","590323","Trustworthy,Untrustworthy","","","fullscreenenter","2","21762","fullscreenenter","","","","","","","","","","","","","",""
"fullscreen","2","22752","0.0-2.0","5b9b422307c6960001614c35","bdp_rwlrn","Mon Mar 13 2023 14:56:41 GMT-0400 (Eastern Daylight Time)","590323","Trustworthy,Untrustworthy","","","","","","","true","","","","","","","","","","","","",""
"instructions","3","148715","0.0-4.0","5b9b422307c6960001614c35","bdp_rwlrn","Mon Mar 13 2023 14:56:41 GMT-0400 (Eastern Daylight Time)","590323","Trustworthy,Untrustworthy","[{""page_index"":0,""viewing_time"":13133},{""page_index"":1,""viewing_time"":39295},{""page_index"":2,""viewing_time"":20317},{""page_index"":3,""viewing_time"":13676},{""page_index"":4,""viewing_time"":31327},{""page_index"":5,""viewing_time"":8210}]","125959","","","","","","","","","","","","","","","","","",""
"html-keyboard-response","4","153393","0.0-5.0","5b9b422307c6960001614c35","bdp_rwlrn","Mon Mar 13 2023 14:56:41 GMT-0400 (Eastern Daylight Time)","590323","Trustworthy,Untrustworthy","","4673","","","","","","<div class='header' style='text-align:left; position: absolute; top: 5%; left: 5%;'><small>Task 1 of 5</small></div><div class='instruxDiv'><p><strong>1) What is the maximum number of points you can choose to bet on a lottery?</strong></p><p>a) 0</p><p>b) 1</p><p>c) 5</p>","C","","","","","","","","","","",""
"html-keyboard-response","5","156116","0.0-6.0","5b9b422307c6960001614c35","bdp_rwlrn","Mon Mar 13 2023 14:56:41 GMT-0400 (Eastern Daylight Time)","590323","Trustworthy,Untrustworthy","","2618","","","","","","<div class='header' style='text-align:left; position: absolute; top: 5%; left: 5%;'><small>Task 1 of 5</small></div><div class='instruxDiv'><p><strong>1) What is the maximum number of points you can choose to bet on a lottery?</strong></p><p>a) 1</p><p>b) 1</p><p style='color:#00FF00'>c) 5</p><h3 style='color:#00FF00'>Correct!</h3><h3 class='center-content'>The correct response is c).</h3><h3 class='center-content'>The maximum number of points you can choose to bet on a lottery is 5 points.</h3><p><em>Press SPACEBAR to continue</em></p></div>"," ","","","","","","","","","","",""
"html-keyboard-response","6","160051","0.0-7.0","5b9b422307c6960001614c35","bdp_rwlrn","Mon Mar 13 2023 14:56:41 GMT-0400 (Eastern Daylight Time)","590323","Trustworthy,Untrustworthy","","3824","","","","","","<div class='header' style='text-align:left; position: absolute; top: 5%; left: 5%;'><small>Task 1 of 5</small></div><div class='instruxDiv'><p><strong>2) How many points can you win each round?</strong></p><p>a) 10 points</p><p>b) Double what you bet</p><p>c) Quadruple what you bet</p>","B","","","","","","","","","","",""
"html-keyboard-response","7","161878","0.0-8.0","5b9b422307c6960001614c35","bdp_rwlrn","Mon Mar 13 2023 14:56:41 GMT-0400 (Eastern Daylight Time)","590323","Trustworthy,Untrustworthy","","1716","","","","","","<div class='header' style='text-align:left; position: absolute; top: 5%; left: 5%;'><small>Task 1 of 5</small></div><div class='instruxDiv'><p><strong>2) How many points can you win each round?</strong></p><p>a) 10 points</p><p style='color:#00FF00'>b) Double what you bet</p><p>c) Quadruple what you bet</p><h3 style='color:#00FF00'>Correct!</h3><h3 class='center-content'>The correct response is b).</h3><h3 class='center-content'>You can win double the amount of points you bet.</h3><p><em>Press SPACEBAR to continue</em></p></div>"," ","","","","","","","","","","",""
"html-keyboard-response","8","166996","0.0-9.0","5b9b422307c6960001614c35","bdp_rwlrn","Mon Mar 13 2023 14:56:41 GMT-0400 (Eastern Daylight Time)","590323","Trustworthy,Untrustworthy","","null","","","","","","<div class='header' style='text-align:left; position: absolute; top: 5%; left: 5%;'><small>Task 1 of 5</small></div><div class='instruxDiv'><p>Thank you for completing the quiz<p>These are the actual lotteries you will be playing in the next block:<p><div class='tc' align='center'><img class='introPic' src='Fruit/mixed-berries2.png'><br><strong>Berry Bla$t</strong></div><div class='bl' align='center'><img class='introPic' src='Fruit/bananas.png'><br><strong>Banana Bonanza</strong></div><div class='br' align='center'><img class='introPic' src='Fruit/lemon.png'><br><strong>Lucky Lemons</strong></div></div><p>Across <strong>66 rounds</strong> you will play each lottery <strong>22 times</strong> (in random order).<p style='align:center; color:white'><font <em>Press SPACEBAR to continue</em></p>","null","","","","","","","","","","",""
"instructions","9","198977","0.0-10.0","5b9b422307c6960001614c35","bdp_rwlrn","Mon Mar 13 2023 14:56:41 GMT-0400 (Eastern Daylight Time)","590323","Trustworthy,Untrustworthy","[{""page_index"":0,""viewing_time"":17489},{""page_index"":1,""viewing_time"":14489}]","31979","","","","","","","","","","","","","","","","","",""
"html-keyboard-response","10","203306","0.0-11.0-1.0","5b9b422307c6960001614c35","bdp_rwlrn","Mon Mar 13 2023 14:56:41 GMT-0400 (Eastern Daylight Time)","590323","Trustworthy,Untrustworthy","","4219","","","","decision","","<div class='trialDiv'><img src='Fruit/mixed-berries2.png'><br><font class='baseline'><strong>Berry Bla$t</strong><p>Choose number of points to bet.</font><div class='respPicDiv'><img src='img/responseButtonOffersNo0L.png' class='respPic'></div></div>","4","1","Berry Bla$t","Fruit/mixed-berries2.png","Won","0.8,0.35","14","0.8","5","1","",""
"html-keyboard-response","11","203561","0.0-11.0-2.0","5b9b422307c6960001614c35","bdp_rwlrn","Mon Mar 13 2023 14:56:41 GMT-0400 (Eastern Daylight Time)","590323","Trustworthy,Untrustworthy","","null","","","","decisionFB","","<div class='trialDiv'><img src='Fruit/mixed-berries2.png'><br><font class='baseline'><strong>Berry Bla$t</strong><p>Choose number of points to bet.</font><div class='respPicDiv'><img src='img/responseButtonOffersNo0L4.png' class='respPic'></div></div>","null","1","Berry Bla$t","Fruit/mixed-berries2.png","Won","0.8,0.35","14","0.8","1","1","",""
"html-keyboard-response","12","204571","0.0-11.0-3.0","5b9b422307c6960001614c35","bdp_rwlrn","Mon Mar 13 2023 14:56:41 GMT-0400 (Eastern Daylight Time)","590323","Trustworthy,Untrustworthy","","null","","","","feedback","","<div class='respPicDiv'><img src='img/responseButtonOffersNo0_wht.png' class='respPic'></div><div class='trialDiv'><img src='Fruit/mixed-berries2.png'><br><font class='baseline'><strong>Berry Bla$t</strong><p><strong><font class='posOutcome'>You WON</font><p>You bet: 4</strong></font> &nbsp; &nbsp; &nbsp; &nbsp; &nbsp; &nbsp;<font class='posOutcome'>you receive: <strong>8</strong></font></div>","null","1","Berry Bla$t","Fruit/mixed-berries2.png","Won","0.8,0.35","14","0.8","9","1","",""
"html-keyboard-response","13","205440","0.0-11.0-1.1","5b9b422307c6960001614c35","bdp_rwlrn","Mon Mar 13 2023 14:56:41 GMT-0400 (Eastern Daylight Time)","590323","Trustworthy,Untrustworthy","","867","","","","decision","","<div class='trialDiv'><img src='Fruit/bananas.png'><br><font class='baseline'><strong>Banana Bonanza</strong><p>Choose number of points to bet.</font><div class='respPicDiv'><img src='img/responseButtonOffersNo0L.png' class='respPic'></div></div>","3","1","Banana Bonanza","Fruit/bananas.png","Lost","0.2,0.65","14","0.2","14","2","",""
"html-keyboard-response","14","205696","0.0-11.0-2.1","5b9b422307c6960001614c35","bdp_rwlrn","Mon Mar 13 2023 14:56:41 GMT-0400 (Eastern Daylight Time)","590323","Trustworthy,Untrustworthy","","null","","","","decisionFB","","<div class='trialDiv'><img src='Fruit/bananas.png'><br><font class='baseline'><strong>Banana Bonanza</strong><p>Choose number of points to bet.</font><div class='respPicDiv'><img src='img/responseButtonOffersNo0L3.png' class='respPic'></div></div>","null","1","Banana Bonanza","Fruit/bananas.png","Lost","0.2,0.65","14","0.2","11","2","",""
"html-keyboard-response","15","206706","0.0-11.0-3.1","5b9b422307c6960001614c35","bdp_rwlrn","Mon Mar 13 2023 14:56:41 GMT-0400 (Eastern Daylight Time)","590323","Trustworthy,Untrustworthy","","null","","","","feedback","","<div class='respPicDiv'><img src='img/responseButtonOffersNo0_wht.png' class='respPic'></div><div class='trialDiv'><img src='Fruit/bananas.png'><br><font class='baseline'><strong>Banana Bonanza</strong><p><strong><font class='negOutcome'>You LOST</font><p>You bet: 3</strong></font> &nbsp; &nbsp; &nbsp; &nbsp; &nbsp; &nbsp;<font class='negOutcome'>You receive: <strong>0</strong></font></div>","null","1","Banana Bonanza","Fruit/bananas.png","Lost","0.2,0.65","14","0.2","11","2","",""
"html-keyboard-response","16","209370","0.0-11.0-1.2","5b9b422307c6960001614c35","bdp_rwlrn","Mon Mar 13 2023 14:56:41 GMT-0400 (Eastern Daylight Time)","590323","Trustworthy,Untrustworthy","","2663","","","","decision","","<div class='trialDiv'><img src='Fruit/lemon.png'><br><font class='baseline'><strong>Lucky Lemons</strong><p>Choose number of points to bet.</font><div class='respPicDiv'><img src='img/responseButtonOffersNo0L.png' class='respPic'></div></div>","5","1","Lucky Lemons","Fruit/lemon.png","Lost","0.2,0.8","14","0.2","16","3","",""
"html-keyboard-response","17","209626","0.0-11.0-2.2","5b9b422307c6960001614c35","bdp_rwlrn","Mon Mar 13 2023 14:56:41 GMT-0400 (Eastern Daylight Time)","590323","Trustworthy,Untrustworthy","","null","","","","decisionFB","","<div class='trialDiv'><img src='Fruit/lemon.png'><br><font class='baseline'><strong>Lucky Lemons</strong><p>Choose number of points to bet.</font><div class='respPicDiv'><img src='img/responseButtonOffersNo0L5.png' class='respPic'></div></div>","null","1","Lucky Lemons","Fruit/lemon.png","Lost","0.2,0.8","14","0.2","11","3","",""
"html-keyboard-response","18","210631","0.0-11.0-3.2","5b9b422307c6960001614c35","bdp_rwlrn","Mon Mar 13 2023 14:56:41 GMT-0400 (Eastern Daylight Time)","590323","Trustworthy,Untrustworthy","","null","","","","feedback","","<div class='respPicDiv'><img src='img/responseButtonOffersNo0_wht.png' class='respPic'></div><div class='trialDiv'><img src='Fruit/lemon.png'><br><font class='baseline'><strong>Lucky Lemons</strong><p><strong><font class='negOutcome'>You LOST</font><p>You bet: 5</strong></font> &nbsp; &nbsp; &nbsp; &nbsp; &nbsp; &nbsp;<font class='negOutcome'>You receive: <strong>0</strong></font></div>","null","1","Lucky Lemons","Fruit/lemon.png","Lost","0.2,0.8","14","0.2","11","3","",""
"html-keyboard-response","19","211318","0.0-11.0-1.3","5b9b422307c6960001614c35","bdp_rwlrn","Mon Mar 13 2023 14:56:41 GMT-0400 (Eastern Daylight Time)","590323","Trustworthy,Untrustworthy","","687","","","","decision","","<div class='trialDiv'><img src='Fruit/bananas.png'><br><font class='baseline'><strong>Banana Bonanza</strong><p>Choose number of points to bet.</font><div class='respPicDiv'><img src='img/responseButtonOffersNo0L.png' class='respPic'></div></div>","4","2","Banana Bonanza","Fruit/bananas.png","Won","0.2,0.65","14","0.2","16","4","",""
"html-keyboard-response","20","211576","0.0-11.0-2.3","5b9b422307c6960001614c35","bdp_rwlrn","Mon Mar 13 2023 14:56:41 GMT-0400 (Eastern Daylight Time)","590323","Trustworthy,Untrustworthy","","null","","","","decisionFB","","<div class='trialDiv'><img src='Fruit/bananas.png'><br><font class='baseline'><strong>Banana Bonanza</strong><p>Choose number of points to bet.</font><div class='respPicDiv'><img src='img/responseButtonOffersNo0L4.png' class='respPic'></div></div>","null","2","Banana Bonanza","Fruit/bananas.png","Won","0.2,0.65","14","0.2","12","4","",""
"html-keyboard-response","21","212586","0.0-11.0-3.3","5b9b422307c6960001614c35","bdp_rwlrn","Mon Mar 13 2023 14:56:41 GMT-0400 (Eastern Daylight Time)","590323","Trustworthy,Untrustworthy","","null","","","","feedback","","<div class='respPicDiv'><img src='img/responseButtonOffersNo0_wht.png' class='respPic'></div><div class='trialDiv'><img src='Fruit/bananas.png'><br><font class='baseline'><strong>Banana Bonanza</strong><p><strong><font class='posOutcome'>You WON</font><p>You bet: 4</strong></font> &nbsp; &nbsp; &nbsp; &nbsp; &nbsp; &nbsp;<font class='posOutcome'>you receive: <strong>8</strong></font></div>","null","2","Banana Bonanza","Fruit/bananas.png","Won","0.2,0.65","14","0.2","20","4","",""
"html-keyboard-response","22","213986","0.0-11.0-1.4","5b9b422307c6960001614c35","bdp_rwlrn","Mon Mar 13 2023 14:56:41 GMT-0400 (Eastern Daylight Time)","590323","Trustworthy,Untrustworthy","","1397","","","","decision","","<div class='trialDiv'><img src='Fruit/mixed-berries2.png'><br><font class='baseline'><strong>Berry Bla$t</strong><p>Choose number of points to bet.</font><div class='respPicDiv'><img src='img/responseButtonOffersNo0L.png' class='respPic'></div></div>","3","2","Berry Bla$t","Fruit/mixed-berries2.png","Won","0.8,0.35","14","0.8","25","5","",""
"html-keyboard-response","23","214241","0.0-11.0-2.4","5b9b422307c6960001614c35","bdp_rwlrn","Mon Mar 13 2023 14:56:41 GMT-0400 (Eastern Daylight Time)","590323","Trustworthy,Untrustworthy","","null","","","","decisionFB","","<div class='trialDiv'><img src='Fruit/mixed-berries2.png'><br><font class='baseline'><strong>Berry Bla$t</strong><p>Choose number of points to bet.</font><div class='respPicDiv'><img src='img/responseButtonOffersNo0L3.png' class='respPic'></div></div>","null","2","Berry Bla$t","Fruit/mixed-berries2.png","Won","0.8,0.35","14","0.8","22","5","",""
"html-keyboard-response","24","215251","0.0-11.0-3.4","5b9b422307c6960001614c35","bdp_rwlrn","Mon Mar 13 2023 14:56:41 GMT-0400 (Eastern Daylight Time)","590323","Trustworthy,Untrustworthy","","null","","","","feedback","","<div class='respPicDiv'><img src='img/responseButtonOffersNo0_wht.png' class='respPic'></div><div class='trialDiv'><img src='Fruit/mixed-berries2.png'><br><font class='baseline'><strong>Berry Bla$t</strong><p><strong><font class='posOutcome'>You WON</font><p>You bet: 3</strong></font> &nbsp; &nbsp; &nbsp; &nbsp; &nbsp; &nbsp;<font class='posOutcome'>you receive: <strong>6</strong></font></div>","null","2","Berry Bla$t","Fruit/mixed-berries2.png","Won","0.8,0.35","14","0.8","28","5","",""
"html-keyboard-response","25","217319","0.0-11.0-1.5","5b9b422307c6960001614c35","bdp_rwlrn","Mon Mar 13 2023 14:56:41 GMT-0400 (Eastern Daylight Time)","590323","Trustworthy,Untrustworthy","","2067","","","","decision","","<div class='trialDiv'><img src='Fruit/lemon.png'><br><font class='baseline'><strong>Lucky Lemons</strong><p>Choose number of points to bet.</font><div class='respPicDiv'><img src='img/responseButtonOffersNo0L.png' class='respPic'></div></div>","4","2","Lucky Lemons","Fruit/lemon.png","Won","0.2,0.8","14","0.2","33","6","",""
"html-keyboard-response","26","217571","0.0-11.0-2.5","5b9b422307c6960001614c35","bdp_rwlrn","Mon Mar 13 2023 14:56:41 GMT-0400 (Eastern Daylight Time)","590323","Trustworthy,Untrustworthy","","null","","","","decisionFB","","<div class='trialDiv'><img src='Fruit/lemon.png'><br><font class='baseline'><strong>Lucky Lemons</strong><p>Choose number of points to bet.</font><div class='respPicDiv'><img src='img/responseButtonOffersNo0L4.png' class='respPic'></div></div>","null","2","Lucky Lemons","Fruit/lemon.png","Won","0.2,0.8","14","0.2","29","6","",""
"html-keyboard-response","27","218577","0.0-11.0-3.5","5b9b422307c6960001614c35","bdp_rwlrn","Mon Mar 13 2023 14:56:41 GMT-0400 (Eastern Daylight Time)","590323","Trustworthy,Untrustworthy","","null","","","","feedback","","<div class='respPicDiv'><img src='img/responseButtonOffersNo0_wht.png' class='respPic'></div><div class='trialDiv'><img src='Fruit/lemon.png'><br><font class='baseline'><strong>Lucky Lemons</strong><p><strong><font class='posOutcome'>You WON</font><p>You bet: 4</strong></font> &nbsp; &nbsp; &nbsp; &nbsp; &nbsp; &nbsp;<font class='posOutcome'>you receive: <strong>8</strong></font></div>","null","2","Lucky Lemons","Fruit/lemon.png","Won","0.2,0.8","14","0.2","37","6","",""
"html-keyboard-response","28","219834","0.0-11.0-1.6","5b9b422307c6960001614c35","bdp_rwlrn","Mon Mar 13 2023 14:56:41 GMT-0400 (Eastern Daylight Time)","590323","Trustworthy,Untrustworthy","","1255","","","","decision","","<div class='trialDiv'><img src='Fruit/bananas.png'><br><font class='baseline'><strong>Banana Bonanza</strong><p>Choose number of points to bet.</font><div class='respPicDiv'><img src='img/responseButtonOffersNo0L.png' class='respPic'></div></div>","5","3","Banana Bonanza","Fruit/bananas.png","Won","0.2,0.65","14","0.2","42","7","",""
"html-keyboard-response","29","220088","0.0-11.0-2.6","5b9b422307c6960001614c35","bdp_rwlrn","Mon Mar 13 2023 14:56:41 GMT-0400 (Eastern Daylight Time)","590323","Trustworthy,Untrustworthy","","null","","","","decisionFB","","<div class='trialDiv'><img src='Fruit/bananas.png'><br><font class='baseline'><strong>Banana Bonanza</strong><p>Choose number of points to bet.</font><div class='respPicDiv'><img src='img/responseButtonOffersNo0L5.png' class='respPic'></div></div>","null","3","Banana Bonanza","Fruit/bananas.png","Won","0.2,0.65","14","0.2","37","7","",""
"html-keyboard-response","30","221096","0.0-11.0-3.6","5b9b422307c6960001614c35","bdp_rwlrn","Mon Mar 13 2023 14:56:41 GMT-0400 (Eastern Daylight Time)","590323","Trustworthy,Untrustworthy","","null","","","","feedback","","<div class='respPicDiv'><img src='img/responseButtonOffersNo0_wht.png' class='respPic'></div><div class='trialDiv'><img src='Fruit/bananas.png'><br><font class='baseline'><strong>Banana Bonanza</strong><p><strong><font class='posOutcome'>You WON</font><p>You bet: 5</strong></font> &nbsp; &nbsp; &nbsp; &nbsp; &nbsp; &nbsp;<font class='posOutcome'>you receive: <strong>10</strong></font></div>","null","3","Banana Bonanza","Fruit/bananas.png","Won","0.2,0.65","14","0.2","47","7","",""
"html-keyboard-response","31","222418","0.0-11.0-1.7","5b9b422307c6960001614c35","bdp_rwlrn","Mon Mar 13 2023 14:56:41 GMT-0400 (Eastern Daylight Time)","590323","Trustworthy,Untrustworthy","","1319","","","","decision","","<div class='trialDiv'><img src='Fruit/mixed-berries2.png'><br><font class='baseline'><strong>Berry Bla$t</strong><p>Choose number of points to bet.</font><div class='respPicDiv'><img src='img/responseButtonOffersNo0L.png' class='respPic'></div></div>","3","3","Berry Bla$t","Fruit/mixed-berries2.png","Won","0.8,0.35","14","0.8","52","8","",""
"html-keyboard-response","32","222676","0.0-11.0-2.7","5b9b422307c6960001614c35","bdp_rwlrn","Mon Mar 13 2023 14:56:41 GMT-0400 (Eastern Daylight Time)","590323","Trustworthy,Untrustworthy","","null","","","","decisionFB","","<div class='trialDiv'><img src='Fruit/mixed-berries2.png'><br><font class='baseline'><strong>Berry Bla$t</strong><p>Choose number of points to bet.</font><div class='respPicDiv'><img src='img/responseButtonOffersNo0L3.png' class='respPic'></div></div>","null","3","Berry Bla$t","Fruit/mixed-berries2.png","Won","0.8,0.35","14","0.8","49","8","",""
"html-keyboard-response","33","223681","0.0-11.0-3.7","5b9b422307c6960001614c35","bdp_rwlrn","Mon Mar 13 2023 14:56:41 GMT-0400 (Eastern Daylight Time)","590323","Trustworthy,Untrustworthy","","null","","","","feedback","","<div class='respPicDiv'><img src='img/responseButtonOffersNo0_wht.png' class='respPic'></div><div class='trialDiv'><img src='Fruit/mixed-berries2.png'><br><font class='baseline'><strong>Berry Bla$t</strong><p><strong><font class='posOutcome'>You WON</font><p>You bet: 3</strong></font> &nbsp; &nbsp; &nbsp; &nbsp; &nbsp; &nbsp;<font class='posOutcome'>you receive: <strong>6</strong></font></div>","null","3","Berry Bla$t","Fruit/mixed-berries2.png","Won","0.8,0.35","14","0.8","55","8","",""
"html-keyboard-response","34","224698","0.0-11.0-1.8","5b9b422307c6960001614c35","bdp_rwlrn","Mon Mar 13 2023 14:56:41 GMT-0400 (Eastern Daylight Time)","590323","Trustworthy,Untrustworthy","","1016","","","","decision","","<div class='trialDiv'><img src='Fruit/lemon.png'><br><font class='baseline'><strong>Lucky Lemons</strong><p>Choose number of points to bet.</font><div class='respPicDiv'><img src='img/responseButtonOffersNo0L.png' class='respPic'></div></div>","5","3","Lucky Lemons","Fruit/lemon.png","Won","0.2,0.8","14","0.2","60","9","",""
"html-keyboard-response","35","224951","0.0-11.0-2.8","5b9b422307c6960001614c35","bdp_rwlrn","Mon Mar 13 2023 14:56:41 GMT-0400 (Eastern Daylight Time)","590323","Trustworthy,Untrustworthy","","null","","","","decisionFB","","<div class='trialDiv'><img src='Fruit/lemon.png'><br><font class='baseline'><strong>Lucky Lemons</strong><p>Choose number of points to bet.</font><div class='respPicDiv'><img src='img/responseButtonOffersNo0L5.png' class='respPic'></div></div>","null","3","Lucky Lemons","Fruit/lemon.png","Won","0.2,0.8","14","0.2","55","9","",""
"html-keyboard-response","36","225962","0.0-11.0-3.8","5b9b422307c6960001614c35","bdp_rwlrn","Mon Mar 13 2023 14:56:41 GMT-0400 (Eastern Daylight Time)","590323","Trustworthy,Untrustworthy","","null","","","","feedback","","<div class='respPicDiv'><img src='img/responseButtonOffersNo0_wht.png' class='respPic'></div><div class='trialDiv'><img src='Fruit/lemon.png'><br><font class='baseline'><strong>Lucky Lemons</strong><p><strong><font class='posOutcome'>You WON</font><p>You bet: 5</strong></font> &nbsp; &nbsp; &nbsp; &nbsp; &nbsp; &nbsp;<font class='posOutcome'>you receive: <strong>10</strong></font></div>","null","3","Lucky Lemons","Fruit/lemon.png","Won","0.2,0.8","14","0.2","65","9","",""
"html-keyboard-response","37","228375","0.0-11.0-1.9","5b9b422307c6960001614c35","bdp_rwlrn","Mon Mar 13 2023 14:56:41 GMT-0400 (Eastern Daylight Time)","590323","Trustworthy,Untrustworthy","","2411","","","","decision","","<div class='trialDiv'><img src='Fruit/bananas.png'><br><font class='baseline'><strong>Banana Bonanza</strong><p>Choose number of points to bet.</font><div class='respPicDiv'><img src='img/responseButtonOffersNo0L.png' class='respPic'></div></div>","5","4","Banana Bonanza","Fruit/bananas.png","Lost","0.2,0.65","14","0.2","70","10","",""
"html-keyboard-response","38","228630","0.0-11.0-2.9","5b9b422307c6960001614c35","bdp_rwlrn","Mon Mar 13 2023 14:56:41 GMT-0400 (Eastern Daylight Time)","590323","Trustworthy,Untrustworthy","","null","","","","decisionFB","","<div class='trialDiv'><img src='Fruit/bananas.png'><br><font class='baseline'><strong>Banana Bonanza</strong><p>Choose number of points to bet.</font><div class='respPicDiv'><img src='img/responseButtonOffersNo0L5.png' class='respPic'></div></div>","null","4","Banana Bonanza","Fruit/bananas.png","Lost","0.2,0.65","14","0.2","65","10","",""
"html-keyboard-response","39","229642","0.0-11.0-3.9","5b9b422307c6960001614c35","bdp_rwlrn","Mon Mar 13 2023 14:56:41 GMT-0400 (Eastern Daylight Time)","590323","Trustworthy,Untrustworthy","","null","","","","feedback","","<div class='respPicDiv'><img src='img/responseButtonOffersNo0_wht.png' class='respPic'></div><div class='trialDiv'><img src='Fruit/bananas.png'><br><font class='baseline'><strong>Banana Bonanza</strong><p><strong><font class='negOutcome'>You LOST</font><p>You bet: 5</strong></font> &nbsp; &nbsp; &nbsp; &nbsp; &nbsp; &nbsp;<font class='negOutcome'>You receive: <strong>0</strong></font></div>","null","4","Banana Bonanza","Fruit/bananas.png","Lost","0.2,0.65","14","0.2","65","10","",""
"html-keyboard-response","40","230581","0.0-11.0-1.10","5b9b422307c6960001614c35","bdp_rwlrn","Mon Mar 13 2023 14:56:41 GMT-0400 (Eastern Daylight Time)","590323","Trustworthy,Untrustworthy","","939","","","","decision","","<div class='trialDiv'><img src='Fruit/lemon.png'><br><font class='baseline'><strong>Lucky Lemons</strong><p>Choose number of points to bet.</font><div class='respPicDiv'><img src='img/responseButtonOffersNo0L.png' class='respPic'></div></div>","5","4","Lucky Lemons","Fruit/lemon.png","Lost","0.2,0.8","14","0.2","70","11","",""
"html-keyboard-response","41","230843","0.0-11.0-2.10","5b9b422307c6960001614c35","bdp_rwlrn","Mon Mar 13 2023 14:56:41 GMT-0400 (Eastern Daylight Time)","590323","Trustworthy,Untrustworthy","","null","","","","decisionFB","","<div class='trialDiv'><img src='Fruit/lemon.png'><br><font class='baseline'><strong>Lucky Lemons</strong><p>Choose number of points to bet.</font><div class='respPicDiv'><img src='img/responseButtonOffersNo0L5.png' class='respPic'></div></div>","null","4","Lucky Lemons","Fruit/lemon.png","Lost","0.2,0.8","14","0.2","65","11","",""
"html-keyboard-response","42","231847","0.0-11.0-3.10","5b9b422307c6960001614c35","bdp_rwlrn","Mon Mar 13 2023 14:56:41 GMT-0400 (Eastern Daylight Time)","590323","Trustworthy,Untrustworthy","","null","","","","feedback","","<div class='respPicDiv'><img src='img/responseButtonOffersNo0_wht.png' class='respPic'></div><div class='trialDiv'><img src='Fruit/lemon.png'><br><font class='baseline'><strong>Lucky Lemons</strong><p><strong><font class='negOutcome'>You LOST</font><p>You bet: 5</strong></font> &nbsp; &nbsp; &nbsp; &nbsp; &nbsp; &nbsp;<font class='negOutcome'>You receive: <strong>0</strong></font></div>","null","4","Lucky Lemons","Fruit/lemon.png","Lost","0.2,0.8","14","0.2","65","11","",""
"html-keyboard-response","43","232649","0.0-11.0-1.11","5b9b422307c6960001614c35","bdp_rwlrn","Mon Mar 13 2023 14:56:41 GMT-0400 (Eastern Daylight Time)","590323","Trustworthy,Untrustworthy","","801","","","","decision","","<div class='trialDiv'><img src='Fruit/mixed-berries2.png'><br><font class='baseline'><strong>Berry Bla$t</strong><p>Choose number of points to bet.</font><div class='respPicDiv'><img src='img/responseButtonOffersNo0L.png' class='respPic'></div></div>","5","4","Berry Bla$t","Fruit/mixed-berries2.png","Won","0.8,0.35","14","0.8","70","12","",""
"html-keyboard-response","44","232904","0.0-11.0-2.11","5b9b422307c6960001614c35","bdp_rwlrn","Mon Mar 13 2023 14:56:41 GMT-0400 (Eastern Daylight Time)","590323","Trustworthy,Untrustworthy","","null","","","","decisionFB","","<div class='trialDiv'><img src='Fruit/mixed-berries2.png'><br><font class='baseline'><strong>Berry Bla$t</strong><p>Choose number of points to bet.</font><div class='respPicDiv'><img src='img/responseButtonOffersNo0L5.png' class='respPic'></div></div>","null","4","Berry Bla$t","Fruit/mixed-berries2.png","Won","0.8,0.35","14","0.8","65","12","",""
"html-keyboard-response","45","233914","0.0-11.0-3.11","5b9b422307c6960001614c35","bdp_rwlrn","Mon Mar 13 2023 14:56:41 GMT-0400 (Eastern Daylight Time)","590323","Trustworthy,Untrustworthy","","null","","","","feedback","","<div class='respPicDiv'><img src='img/responseButtonOffersNo0_wht.png' class='respPic'></div><div class='trialDiv'><img src='Fruit/mixed-berries2.png'><br><font class='baseline'><strong>Berry Bla$t</strong><p><strong><font class='posOutcome'>You WON</font><p>You bet: 5</strong></font> &nbsp; &nbsp; &nbsp; &nbsp; &nbsp; &nbsp;<font class='posOutcome'>you receive: <strong>10</strong></font></div>","null","4","Berry Bla$t","Fruit/mixed-berries2.png","Won","0.8,0.35","14","0.8","75","12","",""
"html-keyboard-response","46","236519","0.0-11.0-1.12","5b9b422307c6960001614c35","bdp_rwlrn","Mon Mar 13 2023 14:56:41 GMT-0400 (Eastern Daylight Time)","590323","Trustworthy,Untrustworthy","","2604","","","","decision","","<div class='trialDiv'><img src='Fruit/lemon.png'><br><font class='baseline'><strong>Lucky Lemons</strong><p>Choose number of points to bet.</font><div class='respPicDiv'><img src='img/responseButtonOffersNo0L.png' class='respPic'></div></div>","5","5","Lucky Lemons","Fruit/lemon.png","Lost","0.2,0.8","14","0.2","80","13","",""
"html-keyboard-response","47","236776","0.0-11.0-2.12","5b9b422307c6960001614c35","bdp_rwlrn","Mon Mar 13 2023 14:56:41 GMT-0400 (Eastern Daylight Time)","590323","Trustworthy,Untrustworthy","","null","","","","decisionFB","","<div class='trialDiv'><img src='Fruit/lemon.png'><br><font class='baseline'><strong>Lucky Lemons</strong><p>Choose number of points to bet.</font><div class='respPicDiv'><img src='img/responseButtonOffersNo0L5.png' class='respPic'></div></div>","null","5","Lucky Lemons","Fruit/lemon.png","Lost","0.2,0.8","14","0.2","75","13","",""
"html-keyboard-response","48","237787","0.0-11.0-3.12","5b9b422307c6960001614c35","bdp_rwlrn","Mon Mar 13 2023 14:56:41 GMT-0400 (Eastern Daylight Time)","590323","Trustworthy,Untrustworthy","","null","","","","feedback","","<div class='respPicDiv'><img src='img/responseButtonOffersNo0_wht.png' class='respPic'></div><div class='trialDiv'><img src='Fruit/lemon.png'><br><font class='baseline'><strong>Lucky Lemons</strong><p><strong><font class='negOutcome'>You LOST</font><p>You bet: 5</strong></font> &nbsp; &nbsp; &nbsp; &nbsp; &nbsp; &nbsp;<font class='negOutcome'>You receive: <strong>0</strong></font></div>","null","5","Lucky Lemons","Fruit/lemon.png","Lost","0.2,0.8","14","0.2","75","13","",""
"html-keyboard-response","49","238707","0.0-11.0-1.13","5b9b422307c6960001614c35","bdp_rwlrn","Mon Mar 13 2023 14:56:41 GMT-0400 (Eastern Daylight Time)","590323","Trustworthy,Untrustworthy","","917","","","","decision","","<div class='trialDiv'><img src='Fruit/mixed-berries2.png'><br><font class='baseline'><strong>Berry Bla$t</strong><p>Choose number of points to bet.</font><div class='respPicDiv'><img src='img/responseButtonOffersNo0L.png' class='respPic'></div></div>","5","5","Berry Bla$t","Fruit/mixed-berries2.png","Won","0.8,0.35","14","0.8","80","14","",""
"html-keyboard-response","50","238960","0.0-11.0-2.13","5b9b422307c6960001614c35","bdp_rwlrn","Mon Mar 13 2023 14:56:41 GMT-0400 (Eastern Daylight Time)","590323","Trustworthy,Untrustworthy","","null","","","","decisionFB","","<div class='trialDiv'><img src='Fruit/mixed-berries2.png'><br><font class='baseline'><strong>Berry Bla$t</strong><p>Choose number of points to bet.</font><div class='respPicDiv'><img src='img/responseButtonOffersNo0L5.png' class='respPic'></div></div>","null","5","Berry Bla$t","Fruit/mixed-berries2.png","Won","0.8,0.35","14","0.8","75","14","",""
"html-keyboard-response","51","239968","0.0-11.0-3.13","5b9b422307c6960001614c35","bdp_rwlrn","Mon Mar 13 2023 14:56:41 GMT-0400 (Eastern Daylight Time)","590323","Trustworthy,Untrustworthy","","null","","","","feedback","","<div class='respPicDiv'><img src='img/responseButtonOffersNo0_wht.png' class='respPic'></div><div class='trialDiv'><img src='Fruit/mixed-berries2.png'><br><font class='baseline'><strong>Berry Bla$t</strong><p><strong><font class='posOutcome'>You WON</font><p>You bet: 5</strong></font> &nbsp; &nbsp; &nbsp; &nbsp; &nbsp; &nbsp;<font class='posOutcome'>you receive: <strong>10</strong></font></div>","null","5","Berry Bla$t","Fruit/mixed-berries2.png","Won","0.8,0.35","14","0.8","85","14","",""
"html-keyboard-response","52","240906","0.0-11.0-1.14","5b9b422307c6960001614c35","bdp_rwlrn","Mon Mar 13 2023 14:56:41 GMT-0400 (Eastern Daylight Time)","590323","Trustworthy,Untrustworthy","","936","","","","decision","","<div class='trialDiv'><img src='Fruit/bananas.png'><br><font class='baseline'><strong>Banana Bonanza</strong><p>Choose number of points to bet.</font><div class='respPicDiv'><img src='img/responseButtonOffersNo0L.png' class='respPic'></div></div>","5","5","Banana Bonanza","Fruit/bananas.png","Lost","0.2,0.65","14","0.2","90","15","",""
"html-keyboard-response","53","241160","0.0-11.0-2.14","5b9b422307c6960001614c35","bdp_rwlrn","Mon Mar 13 2023 14:56:41 GMT-0400 (Eastern Daylight Time)","590323","Trustworthy,Untrustworthy","","null","","","","decisionFB","","<div class='trialDiv'><img src='Fruit/bananas.png'><br><font class='baseline'><strong>Banana Bonanza</strong><p>Choose number of points to bet.</font><div class='respPicDiv'><img src='img/responseButtonOffersNo0L5.png' class='respPic'></div></div>","null","5","Banana Bonanza","Fruit/bananas.png","Lost","0.2,0.65","14","0.2","85","15","",""
"html-keyboard-response","54","242168","0.0-11.0-3.14","5b9b422307c6960001614c35","bdp_rwlrn","Mon Mar 13 2023 14:56:41 GMT-0400 (Eastern Daylight Time)","590323","Trustworthy,Untrustworthy","","null","","","","feedback","","<div class='respPicDiv'><img src='img/responseButtonOffersNo0_wht.png' class='respPic'></div><div class='trialDiv'><img src='Fruit/bananas.png'><br><font class='baseline'><strong>Banana Bonanza</strong><p><strong><font class='negOutcome'>You LOST</font><p>You bet: 5</strong></font> &nbsp; &nbsp; &nbsp; &nbsp; &nbsp; &nbsp;<font class='negOutcome'>You receive: <strong>0</strong></font></div>","null","5","Banana Bonanza","Fruit/bananas.png","Lost","0.2,0.65","14","0.2","85","15","",""
"html-keyboard-response","55","243418","0.0-11.0-1.15","5b9b422307c6960001614c35","bdp_rwlrn","Mon Mar 13 2023 14:56:41 GMT-0400 (Eastern Daylight Time)","590323","Trustworthy,Untrustworthy","","1248","","","","decision","","<div class='trialDiv'><img src='Fruit/lemon.png'><br><font class='baseline'><strong>Lucky Lemons</strong><p>Choose number of points to bet.</font><div class='respPicDiv'><img src='img/responseButtonOffersNo0L.png' class='respPic'></div></div>","5","6","Lucky Lemons","Fruit/lemon.png","Lost","0.2,0.8","14","0.2","90","16","",""
"html-keyboard-response","56","243672","0.0-11.0-2.15","5b9b422307c6960001614c35","bdp_rwlrn","Mon Mar 13 2023 14:56:41 GMT-0400 (Eastern Daylight Time)","590323","Trustworthy,Untrustworthy","","null","","","","decisionFB","","<div class='trialDiv'><img src='Fruit/lemon.png'><br><font class='baseline'><strong>Lucky Lemons</strong><p>Choose number of points to bet.</font><div class='respPicDiv'><img src='img/responseButtonOffersNo0L5.png' class='respPic'></div></div>","null","6","Lucky Lemons","Fruit/lemon.png","Lost","0.2,0.8","14","0.2","85","16","",""
"html-keyboard-response","57","244682","0.0-11.0-3.15","5b9b422307c6960001614c35","bdp_rwlrn","Mon Mar 13 2023 14:56:41 GMT-0400 (Eastern Daylight Time)","590323","Trustworthy,Untrustworthy","","null","","","","feedback","","<div class='respPicDiv'><img src='img/responseButtonOffersNo0_wht.png' class='respPic'></div><div class='trialDiv'><img src='Fruit/lemon.png'><br><font class='baseline'><strong>Lucky Lemons</strong><p><strong><font class='negOutcome'>You LOST</font><p>You bet: 5</strong></font> &nbsp; &nbsp; &nbsp; &nbsp; &nbsp; &nbsp;<font class='negOutcome'>You receive: <strong>0</strong></font></div>","null","6","Lucky Lemons","Fruit/lemon.png","Lost","0.2,0.8","14","0.2","85","16","",""
"html-keyboard-response","58","245616","0.0-11.0-1.16","5b9b422307c6960001614c35","bdp_rwlrn","Mon Mar 13 2023 14:56:41 GMT-0400 (Eastern Daylight Time)","590323","Trustworthy,Untrustworthy","","932","","","","decision","","<div class='trialDiv'><img src='Fruit/bananas.png'><br><font class='baseline'><strong>Banana Bonanza</strong><p>Choose number of points to bet.</font><div class='respPicDiv'><img src='img/responseButtonOffersNo0L.png' class='respPic'></div></div>","5","6","Banana Bonanza","Fruit/bananas.png","Lost","0.2,0.65","14","0.2","90","17","",""
"html-keyboard-response","59","245871","0.0-11.0-2.16","5b9b422307c6960001614c35","bdp_rwlrn","Mon Mar 13 2023 14:56:41 GMT-0400 (Eastern Daylight Time)","590323","Trustworthy,Untrustworthy","","null","","","","decisionFB","","<div class='trialDiv'><img src='Fruit/bananas.png'><br><font class='baseline'><strong>Banana Bonanza</strong><p>Choose number of points to bet.</font><div class='respPicDiv'><img src='img/responseButtonOffersNo0L5.png' class='respPic'></div></div>","null","6","Banana Bonanza","Fruit/bananas.png","Lost","0.2,0.65","14","0.2","85","17","",""
"html-keyboard-response","60","246882","0.0-11.0-3.16","5b9b422307c6960001614c35","bdp_rwlrn","Mon Mar 13 2023 14:56:41 GMT-0400 (Eastern Daylight Time)","590323","Trustworthy,Untrustworthy","","null","","","","feedback","","<div class='respPicDiv'><img src='img/responseButtonOffersNo0_wht.png' class='respPic'></div><div class='trialDiv'><img src='Fruit/bananas.png'><br><font class='baseline'><strong>Banana Bonanza</strong><p><strong><font class='negOutcome'>You LOST</font><p>You bet: 5</strong></font> &nbsp; &nbsp; &nbsp; &nbsp; &nbsp; &nbsp;<font class='negOutcome'>You receive: <strong>0</strong></font></div>","null","6","Banana Bonanza","Fruit/bananas.png","Lost","0.2,0.65","14","0.2","85","17","",""
"html-keyboard-response","61","247201","0.0-11.0-1.17","5b9b422307c6960001614c35","bdp_rwlrn","Mon Mar 13 2023 14:56:41 GMT-0400 (Eastern Daylight Time)","590323","Trustworthy,Untrustworthy","","318","","","","decision","","<div class='trialDiv'><img src='Fruit/mixed-berries2.png'><br><font class='baseline'><strong>Berry Bla$t</strong><p>Choose number of points to bet.</font><div class='respPicDiv'><img src='img/responseButtonOffersNo0L.png' class='respPic'></div></div>","5","6","Berry Bla$t","Fruit/mixed-berries2.png","Lost","0.8,0.35","14","0.8","90","18","",""
"html-keyboard-response","62","247457","0.0-11.0-2.17","5b9b422307c6960001614c35","bdp_rwlrn","Mon Mar 13 2023 14:56:41 GMT-0400 (Eastern Daylight Time)","590323","Trustworthy,Untrustworthy","","null","","","","decisionFB","","<div class='trialDiv'><img src='Fruit/mixed-berries2.png'><br><font class='baseline'><strong>Berry Bla$t</strong><p>Choose number of points to bet.</font><div class='respPicDiv'><img src='img/responseButtonOffersNo0L5.png' class='respPic'></div></div>","null","6","Berry Bla$t","Fruit/mixed-berries2.png","Lost","0.8,0.35","14","0.8","85","18","",""
"html-keyboard-response","63","248468","0.0-11.0-3.17","5b9b422307c6960001614c35","bdp_rwlrn","Mon Mar 13 2023 14:56:41 GMT-0400 (Eastern Daylight Time)","590323","Trustworthy,Untrustworthy","","null","","","","feedback","","<div class='respPicDiv'><img src='img/responseButtonOffersNo0_wht.png' class='respPic'></div><div class='trialDiv'><img src='Fruit/mixed-berries2.png'><br><font class='baseline'><strong>Berry Bla$t</strong><p><strong><font class='negOutcome'>You LOST</font><p>You bet: 5</strong></font> &nbsp; &nbsp; &nbsp; &nbsp; &nbsp; &nbsp;<font class='negOutcome'>You receive: <strong>0</strong></font></div>","null","6","Berry Bla$t","Fruit/mixed-berries2.png","Lost","0.8,0.35","14","0.8","85","18","",""
"html-keyboard-response","64","249945","0.0-11.0-1.18","5b9b422307c6960001614c35","bdp_rwlrn","Mon Mar 13 2023 14:56:41 GMT-0400 (Eastern Daylight Time)","590323","Trustworthy,Untrustworthy","","1476","","","","decision","","<div class='trialDiv'><img src='Fruit/lemon.png'><br><font class='baseline'><strong>Lucky Lemons</strong><p>Choose number of points to bet.</font><div class='respPicDiv'><img src='img/responseButtonOffersNo0L.png' class='respPic'></div></div>","5","7","Lucky Lemons","Fruit/lemon.png","Lost","0.2,0.8","14","0.2","90","19","",""
"html-keyboard-response","65","250203","0.0-11.0-2.18","5b9b422307c6960001614c35","bdp_rwlrn","Mon Mar 13 2023 14:56:41 GMT-0400 (Eastern Daylight Time)","590323","Trustworthy,Untrustworthy","","null","","","","decisionFB","","<div class='trialDiv'><img src='Fruit/lemon.png'><br><font class='baseline'><strong>Lucky Lemons</strong><p>Choose number of points to bet.</font><div class='respPicDiv'><img src='img/responseButtonOffersNo0L5.png' class='respPic'></div></div>","null","7","Lucky Lemons","Fruit/lemon.png","Lost","0.2,0.8","14","0.2","85","19","",""
"html-keyboard-response","66","251208","0.0-11.0-3.18","5b9b422307c6960001614c35","bdp_rwlrn","Mon Mar 13 2023 14:56:41 GMT-0400 (Eastern Daylight Time)","590323","Trustworthy,Untrustworthy","","null","","","","feedback","","<div class='respPicDiv'><img src='img/responseButtonOffersNo0_wht.png' class='respPic'></div><div class='trialDiv'><img src='Fruit/lemon.png'><br><font class='baseline'><strong>Lucky Lemons</strong><p><strong><font class='negOutcome'>You LOST</font><p>You bet: 5</strong></font> &nbsp; &nbsp; &nbsp; &nbsp; &nbsp; &nbsp;<font class='negOutcome'>You receive: <strong>0</strong></font></div>","null","7","Lucky Lemons","Fruit/lemon.png","Lost","0.2,0.8","14","0.2","85","19","",""
"html-keyboard-response","67","251672","0.0-11.0-1.19","5b9b422307c6960001614c35","bdp_rwlrn","Mon Mar 13 2023 14:56:41 GMT-0400 (Eastern Daylight Time)","590323","Trustworthy,Untrustworthy","","463","","","","decision","","<div class='trialDiv'><img src='Fruit/bananas.png'><br><font class='baseline'><strong>Banana Bonanza</strong><p>Choose number of points to bet.</font><div class='respPicDiv'><img src='img/responseButtonOffersNo0L.png' class='respPic'></div></div>","5","7","Banana Bonanza","Fruit/bananas.png","Lost","0.2,0.65","14","0.2","90","20","",""
"html-keyboard-response","68","251927","0.0-11.0-2.19","5b9b422307c6960001614c35","bdp_rwlrn","Mon Mar 13 2023 14:56:41 GMT-0400 (Eastern Daylight Time)","590323","Trustworthy,Untrustworthy","","null","","","","decisionFB","","<div class='trialDiv'><img src='Fruit/bananas.png'><br><font class='baseline'><strong>Banana Bonanza</strong><p>Choose number of points to bet.</font><div class='respPicDiv'><img src='img/responseButtonOffersNo0L5.png' class='respPic'></div></div>","null","7","Banana Bonanza","Fruit/bananas.png","Lost","0.2,0.65","14","0.2","85","20","",""
"html-keyboard-response","69","252937","0.0-11.0-3.19","5b9b422307c6960001614c35","bdp_rwlrn","Mon Mar 13 2023 14:56:41 GMT-0400 (Eastern Daylight Time)","590323","Trustworthy,Untrustworthy","","null","","","","feedback","","<div class='respPicDiv'><img src='img/responseButtonOffersNo0_wht.png' class='respPic'></div><div class='trialDiv'><img src='Fruit/bananas.png'><br><font class='baseline'><strong>Banana Bonanza</strong><p><strong><font class='negOutcome'>You LOST</font><p>You bet: 5</strong></font> &nbsp; &nbsp; &nbsp; &nbsp; &nbsp; &nbsp;<font class='negOutcome'>You receive: <strong>0</strong></font></div>","null","7","Banana Bonanza","Fruit/bananas.png","Lost","0.2,0.65","14","0.2","85","20","",""
"html-keyboard-response","70","253229","0.0-11.0-1.20","5b9b422307c6960001614c35","bdp_rwlrn","Mon Mar 13 2023 14:56:41 GMT-0400 (Eastern Daylight Time)","590323","Trustworthy,Untrustworthy","","292","","","","decision","","<div class='trialDiv'><img src='Fruit/mixed-berries2.png'><br><font class='baseline'><strong>Berry Bla$t</strong><p>Choose number of points to bet.</font><div class='respPicDiv'><img src='img/responseButtonOffersNo0L.png' class='respPic'></div></div>","5","7","Berry Bla$t","Fruit/mixed-berries2.png","Won","0.8,0.35","14","0.8","90","21","",""
"html-keyboard-response","71","253488","0.0-11.0-2.20","5b9b422307c6960001614c35","bdp_rwlrn","Mon Mar 13 2023 14:56:41 GMT-0400 (Eastern Daylight Time)","590323","Trustworthy,Untrustworthy","","null","","","","decisionFB","","<div class='trialDiv'><img src='Fruit/mixed-berries2.png'><br><font class='baseline'><strong>Berry Bla$t</strong><p>Choose number of points to bet.</font><div class='respPicDiv'><img src='img/responseButtonOffersNo0L5.png' class='respPic'></div></div>","null","7","Berry Bla$t","Fruit/mixed-berries2.png","Won","0.8,0.35","14","0.8","85","21","",""
"html-keyboard-response","72","254498","0.0-11.0-3.20","5b9b422307c6960001614c35","bdp_rwlrn","Mon Mar 13 2023 14:56:41 GMT-0400 (Eastern Daylight Time)","590323","Trustworthy,Untrustworthy","","null","","","","feedback","","<div class='respPicDiv'><img src='img/responseButtonOffersNo0_wht.png' class='respPic'></div><div class='trialDiv'><img src='Fruit/mixed-berries2.png'><br><font class='baseline'><strong>Berry Bla$t</strong><p><strong><font class='posOutcome'>You WON</font><p>You bet: 5</strong></font> &nbsp; &nbsp; &nbsp; &nbsp; &nbsp; &nbsp;<font class='posOutcome'>you receive: <strong>10</strong></font></div>","null","7","Berry Bla$t","Fruit/mixed-berries2.png","Won","0.8,0.35","14","0.8","95","21","",""
"html-keyboard-response","73","255389","0.0-11.0-1.21","5b9b422307c6960001614c35","bdp_rwlrn","Mon Mar 13 2023 14:56:41 GMT-0400 (Eastern Daylight Time)","590323","Trustworthy,Untrustworthy","","890","","","","decision","","<div class='trialDiv'><img src='Fruit/lemon.png'><br><font class='baseline'><strong>Lucky Lemons</strong><p>Choose number of points to bet.</font><div class='respPicDiv'><img src='img/responseButtonOffersNo0L.png' class='respPic'></div></div>","5","8","Lucky Lemons","Fruit/lemon.png","Won","0.2,0.8","14","0.2","100","22","",""
"html-keyboard-response","74","255642","0.0-11.0-2.21","5b9b422307c6960001614c35","bdp_rwlrn","Mon Mar 13 2023 14:56:41 GMT-0400 (Eastern Daylight Time)","590323","Trustworthy,Untrustworthy","","null","","","","decisionFB","","<div class='trialDiv'><img src='Fruit/lemon.png'><br><font class='baseline'><strong>Lucky Lemons</strong><p>Choose number of points to bet.</font><div class='respPicDiv'><img src='img/responseButtonOffersNo0L5.png' class='respPic'></div></div>","null","8","Lucky Lemons","Fruit/lemon.png","Won","0.2,0.8","14","0.2","95","22","",""
"html-keyboard-response","75","256651","0.0-11.0-3.21","5b9b422307c6960001614c35","bdp_rwlrn","Mon Mar 13 2023 14:56:41 GMT-0400 (Eastern Daylight Time)","590323","Trustworthy,Untrustworthy","","null","","","","feedback","","<div class='respPicDiv'><img src='img/responseButtonOffersNo0_wht.png' class='respPic'></div><div class='trialDiv'><img src='Fruit/lemon.png'><br><font class='baseline'><strong>Lucky Lemons</strong><p><strong><font class='posOutcome'>You WON</font><p>You bet: 5</strong></font> &nbsp; &nbsp; &nbsp; &nbsp; &nbsp; &nbsp;<font class='posOutcome'>you receive: <strong>10</strong></font></div>","null","8","Lucky Lemons","Fruit/lemon.png","Won","0.2,0.8","14","0.2","105","22","",""
"html-keyboard-response","76","257158","0.0-11.0-1.22","5b9b422307c6960001614c35","bdp_rwlrn","Mon Mar 13 2023 14:56:41 GMT-0400 (Eastern Daylight Time)","590323","Trustworthy,Untrustworthy","","506","","","","decision","","<div class='trialDiv'><img src='Fruit/mixed-berries2.png'><br><font class='baseline'><strong>Berry Bla$t</strong><p>Choose number of points to bet.</font><div class='respPicDiv'><img src='img/responseButtonOffersNo0L.png' class='respPic'></div></div>","5","8","Berry Bla$t","Fruit/mixed-berries2.png","Won","0.8,0.35","14","0.8","110","23","",""
"html-keyboard-response","77","257418","0.0-11.0-2.22","5b9b422307c6960001614c35","bdp_rwlrn","Mon Mar 13 2023 14:56:41 GMT-0400 (Eastern Daylight Time)","590323","Trustworthy,Untrustworthy","","null","","","","decisionFB","","<div class='trialDiv'><img src='Fruit/mixed-berries2.png'><br><font class='baseline'><strong>Berry Bla$t</strong><p>Choose number of points to bet.</font><div class='respPicDiv'><img src='img/responseButtonOffersNo0L5.png' class='respPic'></div></div>","null","8","Berry Bla$t","Fruit/mixed-berries2.png","Won","0.8,0.35","14","0.8","105","23","",""
"html-keyboard-response","78","258424","0.0-11.0-3.22","5b9b422307c6960001614c35","bdp_rwlrn","Mon Mar 13 2023 14:56:41 GMT-0400 (Eastern Daylight Time)","590323","Trustworthy,Untrustworthy","","null","","","","feedback","","<div class='respPicDiv'><img src='img/responseButtonOffersNo0_wht.png' class='respPic'></div><div class='trialDiv'><img src='Fruit/mixed-berries2.png'><br><font class='baseline'><strong>Berry Bla$t</strong><p><strong><font class='posOutcome'>You WON</font><p>You bet: 5</strong></font> &nbsp; &nbsp; &nbsp; &nbsp; &nbsp; &nbsp;<font class='posOutcome'>you receive: <strong>10</strong></font></div>","null","8","Berry Bla$t","Fruit/mixed-berries2.png","Won","0.8,0.35","14","0.8","115","23","",""
"html-keyboard-response","79","258717","0.0-11.0-1.23","5b9b422307c6960001614c35","bdp_rwlrn","Mon Mar 13 2023 14:56:41 GMT-0400 (Eastern Daylight Time)","590323","Trustworthy,Untrustworthy","","292","","","","decision","","<div class='trialDiv'><img src='Fruit/bananas.png'><br><font class='baseline'><strong>Banana Bonanza</strong><p>Choose number of points to bet.</font><div class='respPicDiv'><img src='img/responseButtonOffersNo0L.png' class='respPic'></div></div>","5","8","Banana Bonanza","Fruit/bananas.png","Lost","0.2,0.65","14","0.2","120","24","",""
"html-keyboard-response","80","258976","0.0-11.0-2.23","5b9b422307c6960001614c35","bdp_rwlrn","Mon Mar 13 2023 14:56:41 GMT-0400 (Eastern Daylight Time)","590323","Trustworthy,Untrustworthy","","null","","","","decisionFB","","<div class='trialDiv'><img src='Fruit/bananas.png'><br><font class='baseline'><strong>Banana Bonanza</strong><p>Choose number of points to bet.</font><div class='respPicDiv'><img src='img/responseButtonOffersNo0L5.png' class='respPic'></div></div>","null","8","Banana Bonanza","Fruit/bananas.png","Lost","0.2,0.65","14","0.2","115","24","",""
"html-keyboard-response","81","259984","0.0-11.0-3.23","5b9b422307c6960001614c35","bdp_rwlrn","Mon Mar 13 2023 14:56:41 GMT-0400 (Eastern Daylight Time)","590323","Trustworthy,Untrustworthy","","null","","","","feedback","","<div class='respPicDiv'><img src='img/responseButtonOffersNo0_wht.png' class='respPic'></div><div class='trialDiv'><img src='Fruit/bananas.png'><br><font class='baseline'><strong>Banana Bonanza</strong><p><strong><font class='negOutcome'>You LOST</font><p>You bet: 5</strong></font> &nbsp; &nbsp; &nbsp; &nbsp; &nbsp; &nbsp;<font class='negOutcome'>You receive: <strong>0</strong></font></div>","null","8","Banana Bonanza","Fruit/bananas.png","Lost","0.2,0.65","14","0.2","115","24","",""
"html-keyboard-response","82","260761","0.0-11.0-1.24","5b9b422307c6960001614c35","bdp_rwlrn","Mon Mar 13 2023 14:56:41 GMT-0400 (Eastern Daylight Time)","590323","Trustworthy,Untrustworthy","","775","","","","decision","","<div class='trialDiv'><img src='Fruit/mixed-berries2.png'><br><font class='baseline'><strong>Berry Bla$t</strong><p>Choose number of points to bet.</font><div class='respPicDiv'><img src='img/responseButtonOffersNo0L.png' class='respPic'></div></div>","5","9","Berry Bla$t","Fruit/mixed-berries2.png","Won","0.8,0.35","14","0.8","120","25","",""
"html-keyboard-response","83","261017","0.0-11.0-2.24","5b9b422307c6960001614c35","bdp_rwlrn","Mon Mar 13 2023 14:56:41 GMT-0400 (Eastern Daylight Time)","590323","Trustworthy,Untrustworthy","","null","","","","decisionFB","","<div class='trialDiv'><img src='Fruit/mixed-berries2.png'><br><font class='baseline'><strong>Berry Bla$t</strong><p>Choose number of points to bet.</font><div class='respPicDiv'><img src='img/responseButtonOffersNo0L5.png' class='respPic'></div></div>","null","9","Berry Bla$t","Fruit/mixed-berries2.png","Won","0.8,0.35","14","0.8","115","25","",""
"html-keyboard-response","84","262027","0.0-11.0-3.24","5b9b422307c6960001614c35","bdp_rwlrn","Mon Mar 13 2023 14:56:41 GMT-0400 (Eastern Daylight Time)","590323","Trustworthy,Untrustworthy","","null","","","","feedback","","<div class='respPicDiv'><img src='img/responseButtonOffersNo0_wht.png' class='respPic'></div><div class='trialDiv'><img src='Fruit/mixed-berries2.png'><br><font class='baseline'><strong>Berry Bla$t</strong><p><strong><font class='posOutcome'>You WON</font><p>You bet: 5</strong></font> &nbsp; &nbsp; &nbsp; &nbsp; &nbsp; &nbsp;<font class='posOutcome'>you receive: <strong>10</strong></font></div>","null","9","Berry Bla$t","Fruit/mixed-berries2.png","Won","0.8,0.35","14","0.8","125","25","",""
"html-keyboard-response","85","262503","0.0-11.0-1.25","5b9b422307c6960001614c35","bdp_rwlrn","Mon Mar 13 2023 14:56:41 GMT-0400 (Eastern Daylight Time)","590323","Trustworthy,Untrustworthy","","474","","","","decision","","<div class='trialDiv'><img src='Fruit/lemon.png'><br><font class='baseline'><strong>Lucky Lemons</strong><p>Choose number of points to bet.</font><div class='respPicDiv'><img src='img/responseButtonOffersNo0L.png' class='respPic'></div></div>","5","9","Lucky Lemons","Fruit/lemon.png","Won","0.2,0.8","14","0.2","130","26","",""
"html-keyboard-response","86","262759","0.0-11.0-2.25","5b9b422307c6960001614c35","bdp_rwlrn","Mon Mar 13 2023 14:56:41 GMT-0400 (Eastern Daylight Time)","590323","Trustworthy,Untrustworthy","","null","","","","decisionFB","","<div class='trialDiv'><img src='Fruit/lemon.png'><br><font class='baseline'><strong>Lucky Lemons</strong><p>Choose number of points to bet.</font><div class='respPicDiv'><img src='img/responseButtonOffersNo0L5.png' class='respPic'></div></div>","null","9","Lucky Lemons","Fruit/lemon.png","Won","0.2,0.8","14","0.2","125","26","",""
"html-keyboard-response","87","263769","0.0-11.0-3.25","5b9b422307c6960001614c35","bdp_rwlrn","Mon Mar 13 2023 14:56:41 GMT-0400 (Eastern Daylight Time)","590323","Trustworthy,Untrustworthy","","null","","","","feedback","","<div class='respPicDiv'><img src='img/responseButtonOffersNo0_wht.png' class='respPic'></div><div class='trialDiv'><img src='Fruit/lemon.png'><br><font class='baseline'><strong>Lucky Lemons</strong><p><strong><font class='posOutcome'>You WON</font><p>You bet: 5</strong></font> &nbsp; &nbsp; &nbsp; &nbsp; &nbsp; &nbsp;<font class='posOutcome'>you receive: <strong>10</strong></font></div>","null","9","Lucky Lemons","Fruit/lemon.png","Won","0.2,0.8","14","0.2","135","26","",""
"html-keyboard-response","88","264119","0.0-11.0-1.26","5b9b422307c6960001614c35","bdp_rwlrn","Mon Mar 13 2023 14:56:41 GMT-0400 (Eastern Daylight Time)","590323","Trustworthy,Untrustworthy","","349","","","","decision","","<div class='trialDiv'><img src='Fruit/bananas.png'><br><font class='baseline'><strong>Banana Bonanza</strong><p>Choose number of points to bet.</font><div class='respPicDiv'><img src='img/responseButtonOffersNo0L.png' class='respPic'></div></div>","3","9","Banana Bonanza","Fruit/bananas.png","Lost","0.2,0.65","14","0.2","140","27","",""
"html-keyboard-response","89","264378","0.0-11.0-2.26","5b9b422307c6960001614c35","bdp_rwlrn","Mon Mar 13 2023 14:56:41 GMT-0400 (Eastern Daylight Time)","590323","Trustworthy,Untrustworthy","","null","","","","decisionFB","","<div class='trialDiv'><img src='Fruit/bananas.png'><br><font class='baseline'><strong>Banana Bonanza</strong><p>Choose number of points to bet.</font><div class='respPicDiv'><img src='img/responseButtonOffersNo0L3.png' class='respPic'></div></div>","null","9","Banana Bonanza","Fruit/bananas.png","Lost","0.2,0.65","14","0.2","137","27","",""
"html-keyboard-response","90","265383","0.0-11.0-3.26","5b9b422307c6960001614c35","bdp_rwlrn","Mon Mar 13 2023 14:56:41 GMT-0400 (Eastern Daylight Time)","590323","Trustworthy,Untrustworthy","","null","","","","feedback","","<div class='respPicDiv'><img src='img/responseButtonOffersNo0_wht.png' class='respPic'></div><div class='trialDiv'><img src='Fruit/bananas.png'><br><font class='baseline'><strong>Banana Bonanza</strong><p><strong><font class='negOutcome'>You LOST</font><p>You bet: 3</strong></font> &nbsp; &nbsp; &nbsp; &nbsp; &nbsp; &nbsp;<font class='negOutcome'>You receive: <strong>0</strong></font></div>","null","9","Banana Bonanza","Fruit/bananas.png","Lost","0.2,0.65","14","0.2","137","27","",""
"html-keyboard-response","91","266157","0.0-11.0-1.27","5b9b422307c6960001614c35","bdp_rwlrn","Mon Mar 13 2023 14:56:41 GMT-0400 (Eastern Daylight Time)","590323","Trustworthy,Untrustworthy","","773","","","","decision","","<div class='trialDiv'><img src='Fruit/mixed-berries2.png'><br><font class='baseline'><strong>Berry Bla$t</strong><p>Choose number of points to bet.</font><div class='respPicDiv'><img src='img/responseButtonOffersNo0L.png' class='respPic'></div></div>","5","10","Berry Bla$t","Fruit/mixed-berries2.png","Won","0.8,0.35","14","0.8","142","28","",""
"html-keyboard-response","92","266416","0.0-11.0-2.27","5b9b422307c6960001614c35","bdp_rwlrn","Mon Mar 13 2023 14:56:41 GMT-0400 (Eastern Daylight Time)","590323","Trustworthy,Untrustworthy","","null","","","","decisionFB","","<div class='trialDiv'><img src='Fruit/mixed-berries2.png'><br><font class='baseline'><strong>Berry Bla$t</strong><p>Choose number of points to bet.</font><div class='respPicDiv'><img src='img/responseButtonOffersNo0L5.png' class='respPic'></div></div>","null","10","Berry Bla$t","Fruit/mixed-berries2.png","Won","0.8,0.35","14","0.8","137","28","",""
"html-keyboard-response","93","267426","0.0-11.0-3.27","5b9b422307c6960001614c35","bdp_rwlrn","Mon Mar 13 2023 14:56:41 GMT-0400 (Eastern Daylight Time)","590323","Trustworthy,Untrustworthy","","null","","","","feedback","","<div class='respPicDiv'><img src='img/responseButtonOffersNo0_wht.png' class='respPic'></div><div class='trialDiv'><img src='Fruit/mixed-berries2.png'><br><font class='baseline'><strong>Berry Bla$t</strong><p><strong><font class='posOutcome'>You WON</font><p>You bet: 5</strong></font> &nbsp; &nbsp; &nbsp; &nbsp; &nbsp; &nbsp;<font class='posOutcome'>you receive: <strong>10</strong></font></div>","null","10","Berry Bla$t","Fruit/mixed-berries2.png","Won","0.8,0.35","14","0.8","147","28","",""
"html-keyboard-response","94","268349","0.0-11.0-1.28","5b9b422307c6960001614c35","bdp_rwlrn","Mon Mar 13 2023 14:56:41 GMT-0400 (Eastern Daylight Time)","590323","Trustworthy,Untrustworthy","","921","","","","decision","","<div class='trialDiv'><img src='Fruit/bananas.png'><br><font class='baseline'><strong>Banana Bonanza</strong><p>Choose number of points to bet.</font><div class='respPicDiv'><img src='img/responseButtonOffersNo0L.png' class='respPic'></div></div>","3","10","Banana Bonanza","Fruit/bananas.png","Won","0.2,0.65","14","0.2","152","29","",""
"html-keyboard-response","95","268610","0.0-11.0-2.28","5b9b422307c6960001614c35","bdp_rwlrn","Mon Mar 13 2023 14:56:41 GMT-0400 (Eastern Daylight Time)","590323","Trustworthy,Untrustworthy","","null","","","","decisionFB","","<div class='trialDiv'><img src='Fruit/bananas.png'><br><font class='baseline'><strong>Banana Bonanza</strong><p>Choose number of points to bet.</font><div class='respPicDiv'><img src='img/responseButtonOffersNo0L3.png' class='respPic'></div></div>","null","10","Banana Bonanza","Fruit/bananas.png","Won","0.2,0.65","14","0.2","149","29","",""
"html-keyboard-response","96","269618","0.0-11.0-3.28","5b9b422307c6960001614c35","bdp_rwlrn","Mon Mar 13 2023 14:56:41 GMT-0400 (Eastern Daylight Time)","590323","Trustworthy,Untrustworthy","","null","","","","feedback","","<div class='respPicDiv'><img src='img/responseButtonOffersNo0_wht.png' class='respPic'></div><div class='trialDiv'><img src='Fruit/bananas.png'><br><font class='baseline'><strong>Banana Bonanza</strong><p><strong><font class='posOutcome'>You WON</font><p>You bet: 3</strong></font> &nbsp; &nbsp; &nbsp; &nbsp; &nbsp; &nbsp;<font class='posOutcome'>you receive: <strong>6</strong></font></div>","null","10","Banana Bonanza","Fruit/bananas.png","Won","0.2,0.65","14","0.2","155","29","",""
"html-keyboard-response","97","270192","0.0-11.0-1.29","5b9b422307c6960001614c35","bdp_rwlrn","Mon Mar 13 2023 14:56:41 GMT-0400 (Eastern Daylight Time)","590323","Trustworthy,Untrustworthy","","573","","","","decision","","<div class='trialDiv'><img src='Fruit/lemon.png'><br><font class='baseline'><strong>Lucky Lemons</strong><p>Choose number of points to bet.</font><div class='respPicDiv'><img src='img/responseButtonOffersNo0L.png' class='respPic'></div></div>","5","10","Lucky Lemons","Fruit/lemon.png","Lost","0.2,0.8","14","0.2","160","30","",""
"html-keyboard-response","98","270450","0.0-11.0-2.29","5b9b422307c6960001614c35","bdp_rwlrn","Mon Mar 13 2023 14:56:41 GMT-0400 (Eastern Daylight Time)","590323","Trustworthy,Untrustworthy","","null","","","","decisionFB","","<div class='trialDiv'><img src='Fruit/lemon.png'><br><font class='baseline'><strong>Lucky Lemons</strong><p>Choose number of points to bet.</font><div class='respPicDiv'><img src='img/responseButtonOffersNo0L5.png' class='respPic'></div></div>","null","10","Lucky Lemons","Fruit/lemon.png","Lost","0.2,0.8","14","0.2","155","30","",""
"html-keyboard-response","99","271455","0.0-11.0-3.29","5b9b422307c6960001614c35","bdp_rwlrn","Mon Mar 13 2023 14:56:41 GMT-0400 (Eastern Daylight Time)","590323","Trustworthy,Untrustworthy","","null","","","","feedback","","<div class='respPicDiv'><img src='img/responseButtonOffersNo0_wht.png' class='respPic'></div><div class='trialDiv'><img src='Fruit/lemon.png'><br><font class='baseline'><strong>Lucky Lemons</strong><p><strong><font class='negOutcome'>You LOST</font><p>You bet: 5</strong></font> &nbsp; &nbsp; &nbsp; &nbsp; &nbsp; &nbsp;<font class='negOutcome'>You receive: <strong>0</strong></font></div>","null","10","Lucky Lemons","Fruit/lemon.png","Lost","0.2,0.8","14","0.2","155","30","",""
"html-keyboard-response","100","272308","0.0-11.0-1.30","5b9b422307c6960001614c35","bdp_rwlrn","Mon Mar 13 2023 14:56:41 GMT-0400 (Eastern Daylight Time)","590323","Trustworthy,Untrustworthy","","852","","","","decision","","<div class='trialDiv'><img src='Fruit/bananas.png'><br><font class='baseline'><strong>Banana Bonanza</strong><p>Choose number of points to bet.</font><div class='respPicDiv'><img src='img/responseButtonOffersNo0L.png' class='respPic'></div></div>","3","11","Banana Bonanza","Fruit/bananas.png","Won","0.2,0.65","14","0.2","160","31","",""
"html-keyboard-response","101","272571","0.0-11.0-2.30","5b9b422307c6960001614c35","bdp_rwlrn","Mon Mar 13 2023 14:56:41 GMT-0400 (Eastern Daylight Time)","590323","Trustworthy,Untrustworthy","","null","","","","decisionFB","","<div class='trialDiv'><img src='Fruit/bananas.png'><br><font class='baseline'><strong>Banana Bonanza</strong><p>Choose number of points to bet.</font><div class='respPicDiv'><img src='img/responseButtonOffersNo0L3.png' class='respPic'></div></div>","null","11","Banana Bonanza","Fruit/bananas.png","Won","0.2,0.65","14","0.2","157","31","",""
"html-keyboard-response","102","273579","0.0-11.0-3.30","5b9b422307c6960001614c35","bdp_rwlrn","Mon Mar 13 2023 14:56:41 GMT-0400 (Eastern Daylight Time)","590323","Trustworthy,Untrustworthy","","null","","","","feedback","","<div class='respPicDiv'><img src='img/responseButtonOffersNo0_wht.png' class='respPic'></div><div class='trialDiv'><img src='Fruit/bananas.png'><br><font class='baseline'><strong>Banana Bonanza</strong><p><strong><font class='posOutcome'>You WON</font><p>You bet: 3</strong></font> &nbsp; &nbsp; &nbsp; &nbsp; &nbsp; &nbsp;<font class='posOutcome'>you receive: <strong>6</strong></font></div>","null","11","Banana Bonanza","Fruit/bananas.png","Won","0.2,0.65","14","0.2","163","31","",""
"html-keyboard-response","103","274234","0.0-11.0-1.31","5b9b422307c6960001614c35","bdp_rwlrn","Mon Mar 13 2023 14:56:41 GMT-0400 (Eastern Daylight Time)","590323","Trustworthy,Untrustworthy","","653","","","","decision","","<div class='trialDiv'><img src='Fruit/mixed-berries2.png'><br><font class='baseline'><strong>Berry Bla$t</strong><p>Choose number of points to bet.</font><div class='respPicDiv'><img src='img/responseButtonOffersNo0L.png' class='respPic'></div></div>","5","11","Berry Bla$t","Fruit/mixed-berries2.png","Won","0.8,0.35","14","0.8","168","32","",""
"html-keyboard-response","104","274491","0.0-11.0-2.31","5b9b422307c6960001614c35","bdp_rwlrn","Mon Mar 13 2023 14:56:41 GMT-0400 (Eastern Daylight Time)","590323","Trustworthy,Untrustworthy","","null","","","","decisionFB","","<div class='trialDiv'><img src='Fruit/mixed-berries2.png'><br><font class='baseline'><strong>Berry Bla$t</strong><p>Choose number of points to bet.</font><div class='respPicDiv'><img src='img/responseButtonOffersNo0L5.png' class='respPic'></div></div>","null","11","Berry Bla$t","Fruit/mixed-berries2.png","Won","0.8,0.35","14","0.8","163","32","",""
"html-keyboard-response","105","275495","0.0-11.0-3.31","5b9b422307c6960001614c35","bdp_rwlrn","Mon Mar 13 2023 14:56:41 GMT-0400 (Eastern Daylight Time)","590323","Trustworthy,Untrustworthy","","null","","","","feedback","","<div class='respPicDiv'><img src='img/responseButtonOffersNo0_wht.png' class='respPic'></div><div class='trialDiv'><img src='Fruit/mixed-berries2.png'><br><font class='baseline'><strong>Berry Bla$t</strong><p><strong><font class='posOutcome'>You WON</font><p>You bet: 5</strong></font> &nbsp; &nbsp; &nbsp; &nbsp; &nbsp; &nbsp;<font class='posOutcome'>you receive: <strong>10</strong></font></div>","null","11","Berry Bla$t","Fruit/mixed-berries2.png","Won","0.8,0.35","14","0.8","173","32","",""
"html-keyboard-response","106","276120","0.0-11.0-1.32","5b9b422307c6960001614c35","bdp_rwlrn","Mon Mar 13 2023 14:56:41 GMT-0400 (Eastern Daylight Time)","590323","Trustworthy,Untrustworthy","","623","","","","decision","","<div class='trialDiv'><img src='Fruit/lemon.png'><br><font class='baseline'><strong>Lucky Lemons</strong><p>Choose number of points to bet.</font><div class='respPicDiv'><img src='img/responseButtonOffersNo0L.png' class='respPic'></div></div>","5","11","Lucky Lemons","Fruit/lemon.png","Won","0.2,0.8","14","0.2","178","33","",""
"html-keyboard-response","107","276377","0.0-11.0-2.32","5b9b422307c6960001614c35","bdp_rwlrn","Mon Mar 13 2023 14:56:41 GMT-0400 (Eastern Daylight Time)","590323","Trustworthy,Untrustworthy","","null","","","","decisionFB","","<div class='trialDiv'><img src='Fruit/lemon.png'><br><font class='baseline'><strong>Lucky Lemons</strong><p>Choose number of points to bet.</font><div class='respPicDiv'><img src='img/responseButtonOffersNo0L5.png' class='respPic'></div></div>","null","11","Lucky Lemons","Fruit/lemon.png","Won","0.2,0.8","14","0.2","173","33","",""
"html-keyboard-response","108","277387","0.0-11.0-3.32","5b9b422307c6960001614c35","bdp_rwlrn","Mon Mar 13 2023 14:56:41 GMT-0400 (Eastern Daylight Time)","590323","Trustworthy,Untrustworthy","","null","","","","feedback","","<div class='respPicDiv'><img src='img/responseButtonOffersNo0_wht.png' class='respPic'></div><div class='trialDiv'><img src='Fruit/lemon.png'><br><font class='baseline'><strong>Lucky Lemons</strong><p><strong><font class='posOutcome'>You WON</font><p>You bet: 5</strong></font> &nbsp; &nbsp; &nbsp; &nbsp; &nbsp; &nbsp;<font class='posOutcome'>you receive: <strong>10</strong></font></div>","null","11","Lucky Lemons","Fruit/lemon.png","Won","0.2,0.8","14","0.2","183","33","",""
"html-keyboard-response","109","277921","0.0-11.0-1.33","5b9b422307c6960001614c35","bdp_rwlrn","Mon Mar 13 2023 14:56:41 GMT-0400 (Eastern Daylight Time)","590323","Trustworthy,Untrustworthy","","532","","","","decision","","<div class='trialDiv'><img src='Fruit/bananas.png'><br><font class='baseline'><strong>Banana Bonanza</strong><p>Choose number of points to bet.</font><div class='respPicDiv'><img src='img/responseButtonOffersNo0L.png' class='respPic'></div></div>","5","12","Banana Bonanza","Fruit/bananas.png","Won","0.2,0.65","14","0.2","188","34","",""
"html-keyboard-response","110","278176","0.0-11.0-2.33","5b9b422307c6960001614c35","bdp_rwlrn","Mon Mar 13 2023 14:56:41 GMT-0400 (Eastern Daylight Time)","590323","Trustworthy,Untrustworthy","","null","","","","decisionFB","","<div class='trialDiv'><img src='Fruit/bananas.png'><br><font class='baseline'><strong>Banana Bonanza</strong><p>Choose number of points to bet.</font><div class='respPicDiv'><img src='img/responseButtonOffersNo0L5.png' class='respPic'></div></div>","null","12","Banana Bonanza","Fruit/bananas.png","Won","0.2,0.65","14","0.2","183","34","",""
"html-keyboard-response","111","279187","0.0-11.0-3.33","5b9b422307c6960001614c35","bdp_rwlrn","Mon Mar 13 2023 14:56:41 GMT-0400 (Eastern Daylight Time)","590323","Trustworthy,Untrustworthy","","null","","","","feedback","","<div class='respPicDiv'><img src='img/responseButtonOffersNo0_wht.png' class='respPic'></div><div class='trialDiv'><img src='Fruit/bananas.png'><br><font class='baseline'><strong>Banana Bonanza</strong><p><strong><font class='posOutcome'>You WON</font><p>You bet: 5</strong></font> &nbsp; &nbsp; &nbsp; &nbsp; &nbsp; &nbsp;<font class='posOutcome'>you receive: <strong>10</strong></font></div>","null","12","Banana Bonanza","Fruit/bananas.png","Won","0.2,0.65","14","0.2","193","34","",""
"html-keyboard-response","112","279809","0.0-11.0-1.34","5b9b422307c6960001614c35","bdp_rwlrn","Mon Mar 13 2023 14:56:41 GMT-0400 (Eastern Daylight Time)","590323","Trustworthy,Untrustworthy","","621","","","","decision","","<div class='trialDiv'><img src='Fruit/mixed-berries2.png'><br><font class='baseline'><strong>Berry Bla$t</strong><p>Choose number of points to bet.</font><div class='respPicDiv'><img src='img/responseButtonOffersNo0L.png' class='respPic'></div></div>","5","12","Berry Bla$t","Fruit/mixed-berries2.png","Won","0.8,0.35","14","0.8","198","35","",""
"html-keyboard-response","113","280063","0.0-11.0-2.34","5b9b422307c6960001614c35","bdp_rwlrn","Mon Mar 13 2023 14:56:41 GMT-0400 (Eastern Daylight Time)","590323","Trustworthy,Untrustworthy","","null","","","","decisionFB","","<div class='trialDiv'><img src='Fruit/mixed-berries2.png'><br><font class='baseline'><strong>Berry Bla$t</strong><p>Choose number of points to bet.</font><div class='respPicDiv'><img src='img/responseButtonOffersNo0L5.png' class='respPic'></div></div>","null","12","Berry Bla$t","Fruit/mixed-berries2.png","Won","0.8,0.35","14","0.8","193","35","",""
"html-keyboard-response","114","281073","0.0-11.0-3.34","5b9b422307c6960001614c35","bdp_rwlrn","Mon Mar 13 2023 14:56:41 GMT-0400 (Eastern Daylight Time)","590323","Trustworthy,Untrustworthy","","null","","","","feedback","","<div class='respPicDiv'><img src='img/responseButtonOffersNo0_wht.png' class='respPic'></div><div class='trialDiv'><img src='Fruit/mixed-berries2.png'><br><font class='baseline'><strong>Berry Bla$t</strong><p><strong><font class='posOutcome'>You WON</font><p>You bet: 5</strong></font> &nbsp; &nbsp; &nbsp; &nbsp; &nbsp; &nbsp;<font class='posOutcome'>you receive: <strong>10</strong></font></div>","null","12","Berry Bla$t","Fruit/mixed-berries2.png","Won","0.8,0.35","14","0.8","203","35","",""
"html-keyboard-response","115","281369","0.0-11.0-1.35","5b9b422307c6960001614c35","bdp_rwlrn","Mon Mar 13 2023 14:56:41 GMT-0400 (Eastern Daylight Time)","590323","Trustworthy,Untrustworthy","","294","","","","decision","","<div class='trialDiv'><img src='Fruit/lemon.png'><br><font class='baseline'><strong>Lucky Lemons</strong><p>Choose number of points to bet.</font><div class='respPicDiv'><img src='img/responseButtonOffersNo0L.png' class='respPic'></div></div>","5","12","Lucky Lemons","Fruit/lemon.png","Lost","0.2,0.8","14","0.2","208","36","",""
"html-keyboard-response","116","281625","0.0-11.0-2.35","5b9b422307c6960001614c35","bdp_rwlrn","Mon Mar 13 2023 14:56:41 GMT-0400 (Eastern Daylight Time)","590323","Trustworthy,Untrustworthy","","null","","","","decisionFB","","<div class='trialDiv'><img src='Fruit/lemon.png'><br><font class='baseline'><strong>Lucky Lemons</strong><p>Choose number of points to bet.</font><div class='respPicDiv'><img src='img/responseButtonOffersNo0L5.png' class='respPic'></div></div>","null","12","Lucky Lemons","Fruit/lemon.png","Lost","0.2,0.8","14","0.2","203","36","",""
"html-keyboard-response","117","282635","0.0-11.0-3.35","5b9b422307c6960001614c35","bdp_rwlrn","Mon Mar 13 2023 14:56:41 GMT-0400 (Eastern Daylight Time)","590323","Trustworthy,Untrustworthy","","null","","","","feedback","","<div class='respPicDiv'><img src='img/responseButtonOffersNo0_wht.png' class='respPic'></div><div class='trialDiv'><img src='Fruit/lemon.png'><br><font class='baseline'><strong>Lucky Lemons</strong><p><strong><font class='negOutcome'>You LOST</font><p>You bet: 5</strong></font> &nbsp; &nbsp; &nbsp; &nbsp; &nbsp; &nbsp;<font class='negOutcome'>You receive: <strong>0</strong></font></div>","null","12","Lucky Lemons","Fruit/lemon.png","Lost","0.2,0.8","14","0.2","203","36","",""
"html-keyboard-response","118","284280","0.0-11.0-1.36","5b9b422307c6960001614c35","bdp_rwlrn","Mon Mar 13 2023 14:56:41 GMT-0400 (Eastern Daylight Time)","590323","Trustworthy,Untrustworthy","","1645","","","","decision","","<div class='trialDiv'><img src='Fruit/mixed-berries2.png'><br><font class='baseline'><strong>Berry Bla$t</strong><p>Choose number of points to bet.</font><div class='respPicDiv'><img src='img/responseButtonOffersNo0L.png' class='respPic'></div></div>","5","13","Berry Bla$t","Fruit/mixed-berries2.png","Won","0.8,0.35","14","0.8","208","37","",""
"html-keyboard-response","119","284539","0.0-11.0-2.36","5b9b422307c6960001614c35","bdp_rwlrn","Mon Mar 13 2023 14:56:41 GMT-0400 (Eastern Daylight Time)","590323","Trustworthy,Untrustworthy","","null","","","","decisionFB","","<div class='trialDiv'><img src='Fruit/mixed-berries2.png'><br><font class='baseline'><strong>Berry Bla$t</strong><p>Choose number of points to bet.</font><div class='respPicDiv'><img src='img/responseButtonOffersNo0L5.png' class='respPic'></div></div>","null","13","Berry Bla$t","Fruit/mixed-berries2.png","Won","0.8,0.35","14","0.8","203","37","",""
"html-keyboard-response","120","285543","0.0-11.0-3.36","5b9b422307c6960001614c35","bdp_rwlrn","Mon Mar 13 2023 14:56:41 GMT-0400 (Eastern Daylight Time)","590323","Trustworthy,Untrustworthy","","null","","","","feedback","","<div class='respPicDiv'><img src='img/responseButtonOffersNo0_wht.png' class='respPic'></div><div class='trialDiv'><img src='Fruit/mixed-berries2.png'><br><font class='baseline'><strong>Berry Bla$t</strong><p><strong><font class='posOutcome'>You WON</font><p>You bet: 5</strong></font> &nbsp; &nbsp; &nbsp; &nbsp; &nbsp; &nbsp;<font class='posOutcome'>you receive: <strong>10</strong></font></div>","null","13","Berry Bla$t","Fruit/mixed-berries2.png","Won","0.8,0.35","14","0.8","213","37","",""
"html-keyboard-response","121","286232","0.0-11.0-1.37","5b9b422307c6960001614c35","bdp_rwlrn","Mon Mar 13 2023 14:56:41 GMT-0400 (Eastern Daylight Time)","590323","Trustworthy,Untrustworthy","","687","","","","decision","","<div class='trialDiv'><img src='Fruit/bananas.png'><br><font class='baseline'><strong>Banana Bonanza</strong><p>Choose number of points to bet.</font><div class='respPicDiv'><img src='img/responseButtonOffersNo0L.png' class='respPic'></div></div>","3","13","Banana Bonanza","Fruit/bananas.png","Lost","0.2,0.65","14","0.2","218","38","",""
"html-keyboard-response","122","286489","0.0-11.0-2.37","5b9b422307c6960001614c35","bdp_rwlrn","Mon Mar 13 2023 14:56:41 GMT-0400 (Eastern Daylight Time)","590323","Trustworthy,Untrustworthy","","null","","","","decisionFB","","<div class='trialDiv'><img src='Fruit/bananas.png'><br><font class='baseline'><strong>Banana Bonanza</strong><p>Choose number of points to bet.</font><div class='respPicDiv'><img src='img/responseButtonOffersNo0L3.png' class='respPic'></div></div>","null","13","Banana Bonanza","Fruit/bananas.png","Lost","0.2,0.65","14","0.2","215","38","",""
"html-keyboard-response","123","287496","0.0-11.0-3.37","5b9b422307c6960001614c35","bdp_rwlrn","Mon Mar 13 2023 14:56:41 GMT-0400 (Eastern Daylight Time)","590323","Trustworthy,Untrustworthy","","null","","","","feedback","","<div class='respPicDiv'><img src='img/responseButtonOffersNo0_wht.png' class='respPic'></div><div class='trialDiv'><img src='Fruit/bananas.png'><br><font class='baseline'><strong>Banana Bonanza</strong><p><strong><font class='negOutcome'>You LOST</font><p>You bet: 3</strong></font> &nbsp; &nbsp; &nbsp; &nbsp; &nbsp; &nbsp;<font class='negOutcome'>You receive: <strong>0</strong></font></div>","null","13","Banana Bonanza","Fruit/bananas.png","Lost","0.2,0.65","14","0.2","215","38","",""
"html-keyboard-response","124","288405","0.0-11.0-1.38","5b9b422307c6960001614c35","bdp_rwlrn","Mon Mar 13 2023 14:56:41 GMT-0400 (Eastern Daylight Time)","590323","Trustworthy,Untrustworthy","","908","","","","decision","","<div class='trialDiv'><img src='Fruit/lemon.png'><br><font class='baseline'><strong>Lucky Lemons</strong><p>Choose number of points to bet.</font><div class='respPicDiv'><img src='img/responseButtonOffersNo0L.png' class='respPic'></div></div>","5","13","Lucky Lemons","Fruit/lemon.png","Won","0.2,0.8","14","0.2","220","39","",""
"html-keyboard-response","125","288666","0.0-11.0-2.38","5b9b422307c6960001614c35","bdp_rwlrn","Mon Mar 13 2023 14:56:41 GMT-0400 (Eastern Daylight Time)","590323","Trustworthy,Untrustworthy","","null","","","","decisionFB","","<div class='trialDiv'><img src='Fruit/lemon.png'><br><font class='baseline'><strong>Lucky Lemons</strong><p>Choose number of points to bet.</font><div class='respPicDiv'><img src='img/responseButtonOffersNo0L5.png' class='respPic'></div></div>","null","13","Lucky Lemons","Fruit/lemon.png","Won","0.2,0.8","14","0.2","215","39","",""
"html-keyboard-response","126","289672","0.0-11.0-3.38","5b9b422307c6960001614c35","bdp_rwlrn","Mon Mar 13 2023 14:56:41 GMT-0400 (Eastern Daylight Time)","590323","Trustworthy,Untrustworthy","","null","","","","feedback","","<div class='respPicDiv'><img src='img/responseButtonOffersNo0_wht.png' class='respPic'></div><div class='trialDiv'><img src='Fruit/lemon.png'><br><font class='baseline'><strong>Lucky Lemons</strong><p><strong><font class='posOutcome'>You WON</font><p>You bet: 5</strong></font> &nbsp; &nbsp; &nbsp; &nbsp; &nbsp; &nbsp;<font class='posOutcome'>you receive: <strong>10</strong></font></div>","null","13","Lucky Lemons","Fruit/lemon.png","Won","0.2,0.8","14","0.2","225","39","",""
"html-keyboard-response","127","290160","0.0-11.0-1.39","5b9b422307c6960001614c35","bdp_rwlrn","Mon Mar 13 2023 14:56:41 GMT-0400 (Eastern Daylight Time)","590323","Trustworthy,Untrustworthy","","486","","","","decision","","<div class='trialDiv'><img src='Fruit/bananas.png'><br><font class='baseline'><strong>Banana Bonanza</strong><p>Choose number of points to bet.</font><div class='respPicDiv'><img src='img/responseButtonOffersNo0L.png' class='respPic'></div></div>","5","14","Banana Bonanza","Fruit/bananas.png","Won","0.2,0.65","14","0.2","230","40","",""
"html-keyboard-response","128","290415","0.0-11.0-2.39","5b9b422307c6960001614c35","bdp_rwlrn","Mon Mar 13 2023 14:56:41 GMT-0400 (Eastern Daylight Time)","590323","Trustworthy,Untrustworthy","","null","","","","decisionFB","","<div class='trialDiv'><img src='Fruit/bananas.png'><br><font class='baseline'><strong>Banana Bonanza</strong><p>Choose number of points to bet.</font><div class='respPicDiv'><img src='img/responseButtonOffersNo0L5.png' class='respPic'></div></div>","null","14","Banana Bonanza","Fruit/bananas.png","Won","0.2,0.65","14","0.2","225","40","",""
"html-keyboard-response","129","291424","0.0-11.0-3.39","5b9b422307c6960001614c35","bdp_rwlrn","Mon Mar 13 2023 14:56:41 GMT-0400 (Eastern Daylight Time)","590323","Trustworthy,Untrustworthy","","null","","","","feedback","","<div class='respPicDiv'><img src='img/responseButtonOffersNo0_wht.png' class='respPic'></div><div class='trialDiv'><img src='Fruit/bananas.png'><br><font class='baseline'><strong>Banana Bonanza</strong><p><strong><font class='posOutcome'>You WON</font><p>You bet: 5</strong></font> &nbsp; &nbsp; &nbsp; &nbsp; &nbsp; &nbsp;<font class='posOutcome'>you receive: <strong>10</strong></font></div>","null","14","Banana Bonanza","Fruit/bananas.png","Won","0.2,0.65","14","0.2","235","40","",""
"html-keyboard-response","130","292141","0.0-11.0-1.40","5b9b422307c6960001614c35","bdp_rwlrn","Mon Mar 13 2023 14:56:41 GMT-0400 (Eastern Daylight Time)","590323","Trustworthy,Untrustworthy","","715","","","","decision","","<div class='trialDiv'><img src='Fruit/lemon.png'><br><font class='baseline'><strong>Lucky Lemons</strong><p>Choose number of points to bet.</font><div class='respPicDiv'><img src='img/responseButtonOffersNo0L.png' class='respPic'></div></div>","5","14","Lucky Lemons","Fruit/lemon.png","Won","0.2,0.8","14","0.2","240","41","",""
"html-keyboard-response","131","292393","0.0-11.0-2.40","5b9b422307c6960001614c35","bdp_rwlrn","Mon Mar 13 2023 14:56:41 GMT-0400 (Eastern Daylight Time)","590323","Trustworthy,Untrustworthy","","null","","","","decisionFB","","<div class='trialDiv'><img src='Fruit/lemon.png'><br><font class='baseline'><strong>Lucky Lemons</strong><p>Choose number of points to bet.</font><div class='respPicDiv'><img src='img/responseButtonOffersNo0L5.png' class='respPic'></div></div>","null","14","Lucky Lemons","Fruit/lemon.png","Won","0.2,0.8","14","0.2","235","41","",""
"html-keyboard-response","132","293403","0.0-11.0-3.40","5b9b422307c6960001614c35","bdp_rwlrn","Mon Mar 13 2023 14:56:41 GMT-0400 (Eastern Daylight Time)","590323","Trustworthy,Untrustworthy","","null","","","","feedback","","<div class='respPicDiv'><img src='img/responseButtonOffersNo0_wht.png' class='respPic'></div><div class='trialDiv'><img src='Fruit/lemon.png'><br><font class='baseline'><strong>Lucky Lemons</strong><p><strong><font class='posOutcome'>You WON</font><p>You bet: 5</strong></font> &nbsp; &nbsp; &nbsp; &nbsp; &nbsp; &nbsp;<font class='posOutcome'>you receive: <strong>10</strong></font></div>","null","14","Lucky Lemons","Fruit/lemon.png","Won","0.2,0.8","14","0.2","245","41","",""
"html-keyboard-response","133","293969","0.0-11.0-1.41","5b9b422307c6960001614c35","bdp_rwlrn","Mon Mar 13 2023 14:56:41 GMT-0400 (Eastern Daylight Time)","590323","Trustworthy,Untrustworthy","","566","","","","decision","","<div class='trialDiv'><img src='Fruit/mixed-berries2.png'><br><font class='baseline'><strong>Berry Bla$t</strong><p>Choose number of points to bet.</font><div class='respPicDiv'><img src='img/responseButtonOffersNo0L.png' class='respPic'></div></div>","5","14","Berry Bla$t","Fruit/mixed-berries2.png","Lost","0.8,0.35","14","0.8","250","42","",""
"html-keyboard-response","134","294224","0.0-11.0-2.41","5b9b422307c6960001614c35","bdp_rwlrn","Mon Mar 13 2023 14:56:41 GMT-0400 (Eastern Daylight Time)","590323","Trustworthy,Untrustworthy","","null","","","","decisionFB","","<div class='trialDiv'><img src='Fruit/mixed-berries2.png'><br><font class='baseline'><strong>Berry Bla$t</strong><p>Choose number of points to bet.</font><div class='respPicDiv'><img src='img/responseButtonOffersNo0L5.png' class='respPic'></div></div>","null","14","Berry Bla$t","Fruit/mixed-berries2.png","Lost","0.8,0.35","14","0.8","245","42","",""
"html-keyboard-response","135","295232","0.0-11.0-3.41","5b9b422307c6960001614c35","bdp_rwlrn","Mon Mar 13 2023 14:56:41 GMT-0400 (Eastern Daylight Time)","590323","Trustworthy,Untrustworthy","","null","","","","feedback","","<div class='respPicDiv'><img src='img/responseButtonOffersNo0_wht.png' class='respPic'></div><div class='trialDiv'><img src='Fruit/mixed-berries2.png'><br><font class='baseline'><strong>Berry Bla$t</strong><p><strong><font class='negOutcome'>You LOST</font><p>You bet: 5</strong></font> &nbsp; &nbsp; &nbsp; &nbsp; &nbsp; &nbsp;<font class='negOutcome'>You receive: <strong>0</strong></font></div>","null","14","Berry Bla$t","Fruit/mixed-berries2.png","Lost","0.8,0.35","14","0.8","245","42","",""
"html-keyboard-response","136","296615","0.0-11.0-1.42","5b9b422307c6960001614c35","bdp_rwlrn","Mon Mar 13 2023 14:56:41 GMT-0400 (Eastern Daylight Time)","590323","Trustworthy,Untrustworthy","","1381","","","","decision","","<div class='trialDiv'><img src='Fruit/bananas.png'><br><font class='baseline'><strong>Banana Bonanza</strong><p>Choose number of points to bet.</font><div class='respPicDiv'><img src='img/responseButtonOffersNo0L.png' class='respPic'></div></div>","5","15","Banana Bonanza","Fruit/bananas.png","Won","0.2,0.65","14","0.2","250","43","",""
"html-keyboard-response","137","296875","0.0-11.0-2.42","5b9b422307c6960001614c35","bdp_rwlrn","Mon Mar 13 2023 14:56:41 GMT-0400 (Eastern Daylight Time)","590323","Trustworthy,Untrustworthy","","null","","","","decisionFB","","<div class='trialDiv'><img src='Fruit/bananas.png'><br><font class='baseline'><strong>Banana Bonanza</strong><p>Choose number of points to bet.</font><div class='respPicDiv'><img src='img/responseButtonOffersNo0L5.png' class='respPic'></div></div>","null","15","Banana Bonanza","Fruit/bananas.png","Won","0.2,0.65","14","0.2","245","43","",""
"html-keyboard-response","138","297879","0.0-11.0-3.42","5b9b422307c6960001614c35","bdp_rwlrn","Mon Mar 13 2023 14:56:41 GMT-0400 (Eastern Daylight Time)","590323","Trustworthy,Untrustworthy","","null","","","","feedback","","<div class='respPicDiv'><img src='img/responseButtonOffersNo0_wht.png' class='respPic'></div><div class='trialDiv'><img src='Fruit/bananas.png'><br><font class='baseline'><strong>Banana Bonanza</strong><p><strong><font class='posOutcome'>You WON</font><p>You bet: 5</strong></font> &nbsp; &nbsp; &nbsp; &nbsp; &nbsp; &nbsp;<font class='posOutcome'>you receive: <strong>10</strong></font></div>","null","15","Banana Bonanza","Fruit/bananas.png","Won","0.2,0.65","14","0.2","255","43","",""
"html-keyboard-response","139","298741","0.0-11.0-1.43","5b9b422307c6960001614c35","bdp_rwlrn","Mon Mar 13 2023 14:56:41 GMT-0400 (Eastern Daylight Time)","590323","Trustworthy,Untrustworthy","","860","","","","decision","","<div class='trialDiv'><img src='Fruit/mixed-berries2.png'><br><font class='baseline'><strong>Berry Bla$t</strong><p>Choose number of points to bet.</font><div class='respPicDiv'><img src='img/responseButtonOffersNo0L.png' class='respPic'></div></div>","5","15","Berry Bla$t","Fruit/mixed-berries2.png","Won","0.8,0.35","14","0.8","260","44","",""
"html-keyboard-response","140","298999","0.0-11.0-2.43","5b9b422307c6960001614c35","bdp_rwlrn","Mon Mar 13 2023 14:56:41 GMT-0400 (Eastern Daylight Time)","590323","Trustworthy,Untrustworthy","","null","","","","decisionFB","","<div class='trialDiv'><img src='Fruit/mixed-berries2.png'><br><font class='baseline'><strong>Berry Bla$t</strong><p>Choose number of points to bet.</font><div class='respPicDiv'><img src='img/responseButtonOffersNo0L5.png' class='respPic'></div></div>","null","15","Berry Bla$t","Fruit/mixed-berries2.png","Won","0.8,0.35","14","0.8","255","44","",""
"html-keyboard-response","141","300010","0.0-11.0-3.43","5b9b422307c6960001614c35","bdp_rwlrn","Mon Mar 13 2023 14:56:41 GMT-0400 (Eastern Daylight Time)","590323","Trustworthy,Untrustworthy","","null","","","","feedback","","<div class='respPicDiv'><img src='img/responseButtonOffersNo0_wht.png' class='respPic'></div><div class='trialDiv'><img src='Fruit/mixed-berries2.png'><br><font class='baseline'><strong>Berry Bla$t</strong><p><strong><font class='posOutcome'>You WON</font><p>You bet: 5</strong></font> &nbsp; &nbsp; &nbsp; &nbsp; &nbsp; &nbsp;<font class='posOutcome'>you receive: <strong>10</strong></font></div>","null","15","Berry Bla$t","Fruit/mixed-berries2.png","Won","0.8,0.35","14","0.8","265","44","",""
"html-keyboard-response","142","300688","0.0-11.0-1.44","5b9b422307c6960001614c35","bdp_rwlrn","Mon Mar 13 2023 14:56:41 GMT-0400 (Eastern Daylight Time)","590323","Trustworthy,Untrustworthy","","677","","","","decision","","<div class='trialDiv'><img src='Fruit/lemon.png'><br><font class='baseline'><strong>Lucky Lemons</strong><p>Choose number of points to bet.</font><div class='respPicDiv'><img src='img/responseButtonOffersNo0L.png' class='respPic'></div></div>","5","15","Lucky Lemons","Fruit/lemon.png","Lost","0.2,0.8","14","0.2","270","45","",""
"html-keyboard-response","143","300946","0.0-11.0-2.44","5b9b422307c6960001614c35","bdp_rwlrn","Mon Mar 13 2023 14:56:41 GMT-0400 (Eastern Daylight Time)","590323","Trustworthy,Untrustworthy","","null","","","","decisionFB","","<div class='trialDiv'><img src='Fruit/lemon.png'><br><font class='baseline'><strong>Lucky Lemons</strong><p>Choose number of points to bet.</font><div class='respPicDiv'><img src='img/responseButtonOffersNo0L5.png' class='respPic'></div></div>","null","15","Lucky Lemons","Fruit/lemon.png","Lost","0.2,0.8","14","0.2","265","45","",""
"html-keyboard-response","144","301954","0.0-11.0-3.44","5b9b422307c6960001614c35","bdp_rwlrn","Mon Mar 13 2023 14:56:41 GMT-0400 (Eastern Daylight Time)","590323","Trustworthy,Untrustworthy","","null","","","","feedback","","<div class='respPicDiv'><img src='img/responseButtonOffersNo0_wht.png' class='respPic'></div><div class='trialDiv'><img src='Fruit/lemon.png'><br><font class='baseline'><strong>Lucky Lemons</strong><p><strong><font class='negOutcome'>You LOST</font><p>You bet: 5</strong></font> &nbsp; &nbsp; &nbsp; &nbsp; &nbsp; &nbsp;<font class='negOutcome'>You receive: <strong>0</strong></font></div>","null","15","Lucky Lemons","Fruit/lemon.png","Lost","0.2,0.8","14","0.2","265","45","",""
"html-keyboard-response","145","303029","0.0-11.0-1.45","5b9b422307c6960001614c35","bdp_rwlrn","Mon Mar 13 2023 14:56:41 GMT-0400 (Eastern Daylight Time)","590323","Trustworthy,Untrustworthy","","1074","","","","decision","","<div class='trialDiv'><img src='Fruit/bananas.png'><br><font class='baseline'><strong>Banana Bonanza</strong><p>Choose number of points to bet.</font><div class='respPicDiv'><img src='img/responseButtonOffersNo0L.png' class='respPic'></div></div>","5","16","Banana Bonanza","Fruit/bananas.png","Lost","0.2,0.65","14","0.2","270","46","",""
"html-keyboard-response","146","303289","0.0-11.0-2.45","5b9b422307c6960001614c35","bdp_rwlrn","Mon Mar 13 2023 14:56:41 GMT-0400 (Eastern Daylight Time)","590323","Trustworthy,Untrustworthy","","null","","","","decisionFB","","<div class='trialDiv'><img src='Fruit/bananas.png'><br><font class='baseline'><strong>Banana Bonanza</strong><p>Choose number of points to bet.</font><div class='respPicDiv'><img src='img/responseButtonOffersNo0L5.png' class='respPic'></div></div>","null","16","Banana Bonanza","Fruit/bananas.png","Lost","0.2,0.65","14","0.2","265","46","",""
"html-keyboard-response","147","304299","0.0-11.0-3.45","5b9b422307c6960001614c35","bdp_rwlrn","Mon Mar 13 2023 14:56:41 GMT-0400 (Eastern Daylight Time)","590323","Trustworthy,Untrustworthy","","null","","","","feedback","","<div class='respPicDiv'><img src='img/responseButtonOffersNo0_wht.png' class='respPic'></div><div class='trialDiv'><img src='Fruit/bananas.png'><br><font class='baseline'><strong>Banana Bonanza</strong><p><strong><font class='negOutcome'>You LOST</font><p>You bet: 5</strong></font> &nbsp; &nbsp; &nbsp; &nbsp; &nbsp; &nbsp;<font class='negOutcome'>You receive: <strong>0</strong></font></div>","null","16","Banana Bonanza","Fruit/bananas.png","Lost","0.2,0.65","14","0.2","265","46","",""
"html-keyboard-response","148","304708","0.0-11.0-1.46","5b9b422307c6960001614c35","bdp_rwlrn","Mon Mar 13 2023 14:56:41 GMT-0400 (Eastern Daylight Time)","590323","Trustworthy,Untrustworthy","","407","","","","decision","","<div class='trialDiv'><img src='Fruit/mixed-berries2.png'><br><font class='baseline'><strong>Berry Bla$t</strong><p>Choose number of points to bet.</font><div class='respPicDiv'><img src='img/responseButtonOffersNo0L.png' class='respPic'></div></div>","5","16","Berry Bla$t","Fruit/mixed-berries2.png","Won","0.8,0.35","14","0.8","270","47","",""
"html-keyboard-response","149","304966","0.0-11.0-2.46","5b9b422307c6960001614c35","bdp_rwlrn","Mon Mar 13 2023 14:56:41 GMT-0400 (Eastern Daylight Time)","590323","Trustworthy,Untrustworthy","","null","","","","decisionFB","","<div class='trialDiv'><img src='Fruit/mixed-berries2.png'><br><font class='baseline'><strong>Berry Bla$t</strong><p>Choose number of points to bet.</font><div class='respPicDiv'><img src='img/responseButtonOffersNo0L5.png' class='respPic'></div></div>","null","16","Berry Bla$t","Fruit/mixed-berries2.png","Won","0.8,0.35","14","0.8","265","47","",""
"html-keyboard-response","150","305977","0.0-11.0-3.46","5b9b422307c6960001614c35","bdp_rwlrn","Mon Mar 13 2023 14:56:41 GMT-0400 (Eastern Daylight Time)","590323","Trustworthy,Untrustworthy","","null","","","","feedback","","<div class='respPicDiv'><img src='img/responseButtonOffersNo0_wht.png' class='respPic'></div><div class='trialDiv'><img src='Fruit/mixed-berries2.png'><br><font class='baseline'><strong>Berry Bla$t</strong><p><strong><font class='posOutcome'>You WON</font><p>You bet: 5</strong></font> &nbsp; &nbsp; &nbsp; &nbsp; &nbsp; &nbsp;<font class='posOutcome'>you receive: <strong>10</strong></font></div>","null","16","Berry Bla$t","Fruit/mixed-berries2.png","Won","0.8,0.35","14","0.8","275","47","",""
"html-keyboard-response","151","306842","0.0-11.0-1.47","5b9b422307c6960001614c35","bdp_rwlrn","Mon Mar 13 2023 14:56:41 GMT-0400 (Eastern Daylight Time)","590323","Trustworthy,Untrustworthy","","864","","","","decision","","<div class='trialDiv'><img src='Fruit/lemon.png'><br><font class='baseline'><strong>Lucky Lemons</strong><p>Choose number of points to bet.</font><div class='respPicDiv'><img src='img/responseButtonOffersNo0L.png' class='respPic'></div></div>","5","16","Lucky Lemons","Fruit/lemon.png","Won","0.2,0.8","14","0.2","280","48","",""
"html-keyboard-response","152","307097","0.0-11.0-2.47","5b9b422307c6960001614c35","bdp_rwlrn","Mon Mar 13 2023 14:56:41 GMT-0400 (Eastern Daylight Time)","590323","Trustworthy,Untrustworthy","","null","","","","decisionFB","","<div class='trialDiv'><img src='Fruit/lemon.png'><br><font class='baseline'><strong>Lucky Lemons</strong><p>Choose number of points to bet.</font><div class='respPicDiv'><img src='img/responseButtonOffersNo0L5.png' class='respPic'></div></div>","null","16","Lucky Lemons","Fruit/lemon.png","Won","0.2,0.8","14","0.2","275","48","",""
"html-keyboard-response","153","308107","0.0-11.0-3.47","5b9b422307c6960001614c35","bdp_rwlrn","Mon Mar 13 2023 14:56:41 GMT-0400 (Eastern Daylight Time)","590323","Trustworthy,Untrustworthy","","null","","","","feedback","","<div class='respPicDiv'><img src='img/responseButtonOffersNo0_wht.png' class='respPic'></div><div class='trialDiv'><img src='Fruit/lemon.png'><br><font class='baseline'><strong>Lucky Lemons</strong><p><strong><font class='posOutcome'>You WON</font><p>You bet: 5</strong></font> &nbsp; &nbsp; &nbsp; &nbsp; &nbsp; &nbsp;<font class='posOutcome'>you receive: <strong>10</strong></font></div>","null","16","Lucky Lemons","Fruit/lemon.png","Won","0.2,0.8","14","0.2","285","48","",""
"html-keyboard-response","154","309057","0.0-11.0-1.48","5b9b422307c6960001614c35","bdp_rwlrn","Mon Mar 13 2023 14:56:41 GMT-0400 (Eastern Daylight Time)","590323","Trustworthy,Untrustworthy","","948","","","","decision","","<div class='trialDiv'><img src='Fruit/mixed-berries2.png'><br><font class='baseline'><strong>Berry Bla$t</strong><p>Choose number of points to bet.</font><div class='respPicDiv'><img src='img/responseButtonOffersNo0L.png' class='respPic'></div></div>","5","17","Berry Bla$t","Fruit/mixed-berries2.png","Lost","0.8,0.35","14","0.8","290","49","",""
"html-keyboard-response","155","309314","0.0-11.0-2.48","5b9b422307c6960001614c35","bdp_rwlrn","Mon Mar 13 2023 14:56:41 GMT-0400 (Eastern Daylight Time)","590323","Trustworthy,Untrustworthy","","null","","","","decisionFB","","<div class='trialDiv'><img src='Fruit/mixed-berries2.png'><br><font class='baseline'><strong>Berry Bla$t</strong><p>Choose number of points to bet.</font><div class='respPicDiv'><img src='img/responseButtonOffersNo0L5.png' class='respPic'></div></div>","null","17","Berry Bla$t","Fruit/mixed-berries2.png","Lost","0.8,0.35","14","0.8","285","49","",""
"html-keyboard-response","156","310319","0.0-11.0-3.48","5b9b422307c6960001614c35","bdp_rwlrn","Mon Mar 13 2023 14:56:41 GMT-0400 (Eastern Daylight Time)","590323","Trustworthy,Untrustworthy","","null","","","","feedback","","<div class='respPicDiv'><img src='img/responseButtonOffersNo0_wht.png' class='respPic'></div><div class='trialDiv'><img src='Fruit/mixed-berries2.png'><br><font class='baseline'><strong>Berry Bla$t</strong><p><strong><font class='negOutcome'>You LOST</font><p>You bet: 5</strong></font> &nbsp; &nbsp; &nbsp; &nbsp; &nbsp; &nbsp;<font class='negOutcome'>You receive: <strong>0</strong></font></div>","null","17","Berry Bla$t","Fruit/mixed-berries2.png","Lost","0.8,0.35","14","0.8","285","49","",""
"html-keyboard-response","157","310678","0.0-11.0-1.49","5b9b422307c6960001614c35","bdp_rwlrn","Mon Mar 13 2023 14:56:41 GMT-0400 (Eastern Daylight Time)","590323","Trustworthy,Untrustworthy","","358","","","","decision","","<div class='trialDiv'><img src='Fruit/lemon.png'><br><font class='baseline'><strong>Lucky Lemons</strong><p>Choose number of points to bet.</font><div class='respPicDiv'><img src='img/responseButtonOffersNo0L.png' class='respPic'></div></div>","5","17","Lucky Lemons","Fruit/lemon.png","Lost","0.2,0.8","14","0.2","290","50","",""
"html-keyboard-response","158","310936","0.0-11.0-2.49","5b9b422307c6960001614c35","bdp_rwlrn","Mon Mar 13 2023 14:56:41 GMT-0400 (Eastern Daylight Time)","590323","Trustworthy,Untrustworthy","","null","","","","decisionFB","","<div class='trialDiv'><img src='Fruit/lemon.png'><br><font class='baseline'><strong>Lucky Lemons</strong><p>Choose number of points to bet.</font><div class='respPicDiv'><img src='img/responseButtonOffersNo0L5.png' class='respPic'></div></div>","null","17","Lucky Lemons","Fruit/lemon.png","Lost","0.2,0.8","14","0.2","285","50","",""
"html-keyboard-response","159","311944","0.0-11.0-3.49","5b9b422307c6960001614c35","bdp_rwlrn","Mon Mar 13 2023 14:56:41 GMT-0400 (Eastern Daylight Time)","590323","Trustworthy,Untrustworthy","","null","","","","feedback","","<div class='respPicDiv'><img src='img/responseButtonOffersNo0_wht.png' class='respPic'></div><div class='trialDiv'><img src='Fruit/lemon.png'><br><font class='baseline'><strong>Lucky Lemons</strong><p><strong><font class='negOutcome'>You LOST</font><p>You bet: 5</strong></font> &nbsp; &nbsp; &nbsp; &nbsp; &nbsp; &nbsp;<font class='negOutcome'>You receive: <strong>0</strong></font></div>","null","17","Lucky Lemons","Fruit/lemon.png","Lost","0.2,0.8","14","0.2","285","50","",""
"html-keyboard-response","160","312511","0.0-11.0-1.50","5b9b422307c6960001614c35","bdp_rwlrn","Mon Mar 13 2023 14:56:41 GMT-0400 (Eastern Daylight Time)","590323","Trustworthy,Untrustworthy","","566","","","","decision","","<div class='trialDiv'><img src='Fruit/bananas.png'><br><font class='baseline'><strong>Banana Bonanza</strong><p>Choose number of points to bet.</font><div class='respPicDiv'><img src='img/responseButtonOffersNo0L.png' class='respPic'></div></div>","3","17","Banana Bonanza","Fruit/bananas.png","Won","0.2,0.65","14","0.2","290","51","",""
"html-keyboard-response","161","312768","0.0-11.0-2.50","5b9b422307c6960001614c35","bdp_rwlrn","Mon Mar 13 2023 14:56:41 GMT-0400 (Eastern Daylight Time)","590323","Trustworthy,Untrustworthy","","null","","","","decisionFB","","<div class='trialDiv'><img src='Fruit/bananas.png'><br><font class='baseline'><strong>Banana Bonanza</strong><p>Choose number of points to bet.</font><div class='respPicDiv'><img src='img/responseButtonOffersNo0L3.png' class='respPic'></div></div>","null","17","Banana Bonanza","Fruit/bananas.png","Won","0.2,0.65","14","0.2","287","51","",""
"html-keyboard-response","162","313779","0.0-11.0-3.50","5b9b422307c6960001614c35","bdp_rwlrn","Mon Mar 13 2023 14:56:41 GMT-0400 (Eastern Daylight Time)","590323","Trustworthy,Untrustworthy","","null","","","","feedback","","<div class='respPicDiv'><img src='img/responseButtonOffersNo0_wht.png' class='respPic'></div><div class='trialDiv'><img src='Fruit/bananas.png'><br><font class='baseline'><strong>Banana Bonanza</strong><p><strong><font class='posOutcome'>You WON</font><p>You bet: 3</strong></font> &nbsp; &nbsp; &nbsp; &nbsp; &nbsp; &nbsp;<font class='posOutcome'>you receive: <strong>6</strong></font></div>","null","17","Banana Bonanza","Fruit/bananas.png","Won","0.2,0.65","14","0.2","293","51","",""
