"trial_type","trial_index","time_elapsed","internal_node_id","subject_id","task","startTime","totalTime","labels","view_history","rt","event","trial","time","trialtype","success","stimulus","key_press","ltround","name","fileID","outcome","lottotype","lottoswpt","lottocurrpshare","point_total","round","faceID","face"
"pavlovia","0","4","0.0-0.0","5fb7c9fa2be0a83d8f8913b8","bdp_rwlrn","Sun Mar 12 2023 21:08:23 GMT-0700 (PDT)","368783","Untrustworthy,Trustworthy","","","","","","","","","","","","","","","","","","","",""
"instructions","1","2624","0.0-1.0","5fb7c9fa2be0a83d8f8913b8","bdp_rwlrn","Sun Mar 12 2023 21:08:23 GMT-0700 (PDT)","368783","Untrustworthy,Trustworthy","[{""page_index"":0,""viewing_time"":2620}]","2620","","","","","","","","","","","","","","","","","",""
"","","","","5fb7c9fa2be0a83d8f8913b8","bdp_rwlrn","Sun Mar 12 2023 21:08:23 GMT-0700 (PDT)","368783","Untrustworthy,Trustworthy","","","fullscreenenter","2","6388","fullscreenenter","","","","","","","","","","","","","",""
"fullscreen","2","7327","0.0-2.0","5fb7c9fa2be0a83d8f8913b8","bdp_rwlrn","Sun Mar 12 2023 21:08:23 GMT-0700 (PDT)","368783","Untrustworthy,Trustworthy","","","","","","","true","","","","","","","","","","","","",""
"instructions","3","52473","0.0-4.0","5fb7c9fa2be0a83d8f8913b8","bdp_rwlrn","Sun Mar 12 2023 21:08:23 GMT-0700 (PDT)","368783","Untrustworthy,Trustworthy","[{""page_index"":0,""viewing_time"":9047},{""page_index"":1,""viewing_time"":11012},{""page_index"":2,""viewing_time"":1789},{""page_index"":3,""viewing_time"":7914},{""page_index"":4,""viewing_time"":13211},{""page_index"":5,""viewing_time"":2170}]","45144","","","","","","","","","","","","","","","","","",""
"html-keyboard-response","4","57872","0.0-5.0","5fb7c9fa2be0a83d8f8913b8","bdp_rwlrn","Sun Mar 12 2023 21:08:23 GMT-0700 (PDT)","368783","Untrustworthy,Trustworthy","","5393","","","","","","<div class='header' style='text-align:left; position: absolute; top: 5%; left: 5%;'><small>Task 3 of 5</small></div><div class='instruxDiv'><p><strong>1) What is the maximum number of points you can choose to bet on a lottery?</strong></p><p>a) 0</p><p>b) 1</p><p>c) 5</p>","C","","","","","","","","","","",""
"html-keyboard-response","5","59311","0.0-6.0","5fb7c9fa2be0a83d8f8913b8","bdp_rwlrn","Sun Mar 12 2023 21:08:23 GMT-0700 (PDT)","368783","Untrustworthy,Trustworthy","","1336","","","","","","<div class='header' style='text-align:left; position: absolute; top: 5%; left: 5%;'><small>Task 3 of 5</small></div><div class='instruxDiv'><p><strong>1) What is the maximum number of points you can choose to bet on a lottery?</strong></p><p>a) 1</p><p>b) 1</p><p style='color:#00FF00'>c) 5</p><h3 style='color:#00FF00'>Correct!</h3><h3 class='center-content'>The correct response is c).</h3><h3 class='center-content'>The maximum number of points you can choose to bet on a lottery is 5 points.</h3><p><em>Press SPACEBAR to continue</em></p></div>"," ","","","","","","","","","","",""
"html-keyboard-response","6","63207","0.0-7.0","5fb7c9fa2be0a83d8f8913b8","bdp_rwlrn","Sun Mar 12 2023 21:08:23 GMT-0700 (PDT)","368783","Untrustworthy,Trustworthy","","3794","","","","","","<div class='header' style='text-align:left; position: absolute; top: 5%; left: 5%;'><small>Task 3 of 5</small></div><div class='instruxDiv'><p><strong>2) How many points can you win each round?</strong></p><p>a) 10 points</p><p>b) Double what you bet</p><p>c) Quadruple what you bet</p>","B","","","","","","","","","","",""
"html-keyboard-response","7","64331","0.0-8.0","5fb7c9fa2be0a83d8f8913b8","bdp_rwlrn","Sun Mar 12 2023 21:08:23 GMT-0700 (PDT)","368783","Untrustworthy,Trustworthy","","1022","","","","","","<div class='header' style='text-align:left; position: absolute; top: 5%; left: 5%;'><small>Task 3 of 5</small></div><div class='instruxDiv'><p><strong>2) How many points can you win each round?</strong></p><p>a) 10 points</p><p style='color:#00FF00'>b) Double what you bet</p><p>c) Quadruple what you bet</p><h3 style='color:#00FF00'>Correct!</h3><h3 class='center-content'>The correct response is b).</h3><h3 class='center-content'>You can win double the amount of points you bet.</h3><p><em>Press SPACEBAR to continue</em></p></div>"," ","","","","","","","","","","",""
"html-keyboard-response","8","69436","0.0-9.0","5fb7c9fa2be0a83d8f8913b8","bdp_rwlrn","Sun Mar 12 2023 21:08:23 GMT-0700 (PDT)","368783","Untrustworthy,Trustworthy","","null","","","","","","<div class='header' style='text-align:left; position: absolute; top: 5%; left: 5%;'><small>Task 3 of 5</small></div><div class='instruxDiv'><p>Thank you for completing the quiz<p>These are the actual lotteries you will be playing in the next block:<p><div class='tc' align='center'><img class='introPic' src='Fruit/melon.png'><br><strong>Melon Millions</strong></div><div class='bl' align='center'><img class='introPic' src='Fruit/orange.png'><br><strong>Odds are Orange</strong></div><div class='br' align='center'><img class='introPic' src='Fruit/pears.png'><br><strong>Pears Aplenty</strong></div></div><p>Across <strong>66 rounds</strong> you will play each lottery <strong>22 times</strong> (in random order).<p style='align:center; color:white'><font <em>Press SPACEBAR to continue</em></p>","null","","","","","","","","","","",""
"instructions","9","71712","0.0-10.0","5fb7c9fa2be0a83d8f8913b8","bdp_rwlrn","Sun Mar 12 2023 21:08:23 GMT-0700 (PDT)","368783","Untrustworthy,Trustworthy","[{""page_index"":0,""viewing_time"":1161},{""page_index"":1,""viewing_time"":1112}]","2274","","","","","","","","","","","","","","","","","",""
"html-keyboard-response","10","74534","0.0-11.0-1.0","5fb7c9fa2be0a83d8f8913b8","bdp_rwlrn","Sun Mar 12 2023 21:08:23 GMT-0700 (PDT)","368783","Untrustworthy,Trustworthy","","2718","","","","decision","","<div class='trialDiv'><img src='Fruit/melon.png'><br><font class='baseline'><strong>Melon Millions</strong><p>Choose number of points to bet.</font><div class='respPicDiv'><img src='img/responseButtonOffersNo0L.png' class='respPic'></div></div>","2","1","Melon Millions","Fruit/melon.png","Lost","0.35,0.8","12","0.35","5","1","",""
"html-keyboard-response","11","74787","0.0-11.0-2.0","5fb7c9fa2be0a83d8f8913b8","bdp_rwlrn","Sun Mar 12 2023 21:08:23 GMT-0700 (PDT)","368783","Untrustworthy,Trustworthy","","null","","","","decisionFB","","<div class='trialDiv'><img src='Fruit/melon.png'><br><font class='baseline'><strong>Melon Millions</strong><p>Choose number of points to bet.</font><div class='respPicDiv'><img src='img/responseButtonOffersNo0L2.png' class='respPic'></div></div>","null","1","Melon Millions","Fruit/melon.png","Lost","0.35,0.8","12","0.35","3","1","",""
"html-keyboard-response","12","75791","0.0-11.0-3.0","5fb7c9fa2be0a83d8f8913b8","bdp_rwlrn","Sun Mar 12 2023 21:08:23 GMT-0700 (PDT)","368783","Untrustworthy,Trustworthy","","null","","","","feedback","","<div class='respPicDiv'><img src='img/responseButtonOffersNo0_wht.png' class='respPic'></div><div class='trialDiv'><img src='Fruit/melon.png'><br><font class='baseline'><strong>Melon Millions</strong><p><strong><font class='negOutcome'>You LOST</font><p>You bet: 2</strong></font> &nbsp; &nbsp; &nbsp; &nbsp; &nbsp; &nbsp;<font class='negOutcome'>You receive: <strong>0</strong></font></div>","null","1","Melon Millions","Fruit/melon.png","Lost","0.35,0.8","12","0.35","3","1","",""
"html-keyboard-response","13","76559","0.0-11.0-1.1","5fb7c9fa2be0a83d8f8913b8","bdp_rwlrn","Sun Mar 12 2023 21:08:23 GMT-0700 (PDT)","368783","Untrustworthy,Trustworthy","","765","","","","decision","","<div class='trialDiv'><img src='Fruit/orange.png'><br><font class='baseline'><strong>Odds are Orange</strong><p>Choose number of points to bet.</font><div class='respPicDiv'><img src='img/responseButtonOffersNo0L.png' class='respPic'></div></div>","1","1","Odds are Orange","Fruit/orange.png","Won","0.2,0.8","11","0.2","8","2","",""
"html-keyboard-response","14","76812","0.0-11.0-2.1","5fb7c9fa2be0a83d8f8913b8","bdp_rwlrn","Sun Mar 12 2023 21:08:23 GMT-0700 (PDT)","368783","Untrustworthy,Trustworthy","","null","","","","decisionFB","","<div class='trialDiv'><img src='Fruit/orange.png'><br><font class='baseline'><strong>Odds are Orange</strong><p>Choose number of points to bet.</font><div class='respPicDiv'><img src='img/responseButtonOffersNo0L1.png' class='respPic'></div></div>","null","1","Odds are Orange","Fruit/orange.png","Won","0.2,0.8","11","0.2","7","2","",""
"html-keyboard-response","15","77815","0.0-11.0-3.1","5fb7c9fa2be0a83d8f8913b8","bdp_rwlrn","Sun Mar 12 2023 21:08:23 GMT-0700 (PDT)","368783","Untrustworthy,Trustworthy","","null","","","","feedback","","<div class='respPicDiv'><img src='img/responseButtonOffersNo0_wht.png' class='respPic'></div><div class='trialDiv'><img src='Fruit/orange.png'><br><font class='baseline'><strong>Odds are Orange</strong><p><strong><font class='posOutcome'>You WON</font><p>You bet: 1</strong></font> &nbsp; &nbsp; &nbsp; &nbsp; &nbsp; &nbsp;<font class='posOutcome'>you receive: <strong>2</strong></font></div>","null","1","Odds are Orange","Fruit/orange.png","Won","0.2,0.8","11","0.2","9","2","",""
"html-keyboard-response","16","78624","0.0-11.0-1.2","5fb7c9fa2be0a83d8f8913b8","bdp_rwlrn","Sun Mar 12 2023 21:08:23 GMT-0700 (PDT)","368783","Untrustworthy,Trustworthy","","808","","","","decision","","<div class='trialDiv'><img src='Fruit/pears.png'><br><font class='baseline'><strong>Pears Aplenty</strong><p>Choose number of points to bet.</font><div class='respPicDiv'><img src='img/responseButtonOffersNo0L.png' class='respPic'></div></div>","1","1","Pears Aplenty","Fruit/pears.png","Won","0.8,0.35","12","0.8","14","3","",""
"html-keyboard-response","17","78877","0.0-11.0-2.2","5fb7c9fa2be0a83d8f8913b8","bdp_rwlrn","Sun Mar 12 2023 21:08:23 GMT-0700 (PDT)","368783","Untrustworthy,Trustworthy","","null","","","","decisionFB","","<div class='trialDiv'><img src='Fruit/pears.png'><br><font class='baseline'><strong>Pears Aplenty</strong><p>Choose number of points to bet.</font><div class='respPicDiv'><img src='img/responseButtonOffersNo0L1.png' class='respPic'></div></div>","null","1","Pears Aplenty","Fruit/pears.png","Won","0.8,0.35","12","0.8","13","3","",""
"html-keyboard-response","18","79879","0.0-11.0-3.2","5fb7c9fa2be0a83d8f8913b8","bdp_rwlrn","Sun Mar 12 2023 21:08:23 GMT-0700 (PDT)","368783","Untrustworthy,Trustworthy","","null","","","","feedback","","<div class='respPicDiv'><img src='img/responseButtonOffersNo0_wht.png' class='respPic'></div><div class='trialDiv'><img src='Fruit/pears.png'><br><font class='baseline'><strong>Pears Aplenty</strong><p><strong><font class='posOutcome'>You WON</font><p>You bet: 1</strong></font> &nbsp; &nbsp; &nbsp; &nbsp; &nbsp; &nbsp;<font class='posOutcome'>you receive: <strong>2</strong></font></div>","null","1","Pears Aplenty","Fruit/pears.png","Won","0.8,0.35","12","0.8","15","3","",""
"html-keyboard-response","19","80652","0.0-11.0-1.3","5fb7c9fa2be0a83d8f8913b8","bdp_rwlrn","Sun Mar 12 2023 21:08:23 GMT-0700 (PDT)","368783","Untrustworthy,Trustworthy","","771","","","","decision","","<div class='trialDiv'><img src='Fruit/orange.png'><br><font class='baseline'><strong>Odds are Orange</strong><p>Choose number of points to bet.</font><div class='respPicDiv'><img src='img/responseButtonOffersNo0L.png' class='respPic'></div></div>","1","2","Odds are Orange","Fruit/orange.png","Lost","0.2,0.8","11","0.2","20","4","",""
"html-keyboard-response","20","80904","0.0-11.0-2.3","5fb7c9fa2be0a83d8f8913b8","bdp_rwlrn","Sun Mar 12 2023 21:08:23 GMT-0700 (PDT)","368783","Untrustworthy,Trustworthy","","null","","","","decisionFB","","<div class='trialDiv'><img src='Fruit/orange.png'><br><font class='baseline'><strong>Odds are Orange</strong><p>Choose number of points to bet.</font><div class='respPicDiv'><img src='img/responseButtonOffersNo0L1.png' class='respPic'></div></div>","null","2","Odds are Orange","Fruit/orange.png","Lost","0.2,0.8","11","0.2","19","4","",""
"html-keyboard-response","21","81906","0.0-11.0-3.3","5fb7c9fa2be0a83d8f8913b8","bdp_rwlrn","Sun Mar 12 2023 21:08:23 GMT-0700 (PDT)","368783","Untrustworthy,Trustworthy","","null","","","","feedback","","<div class='respPicDiv'><img src='img/responseButtonOffersNo0_wht.png' class='respPic'></div><div class='trialDiv'><img src='Fruit/orange.png'><br><font class='baseline'><strong>Odds are Orange</strong><p><strong><font class='negOutcome'>You LOST</font><p>You bet: 1</strong></font> &nbsp; &nbsp; &nbsp; &nbsp; &nbsp; &nbsp;<font class='negOutcome'>You receive: <strong>0</strong></font></div>","null","2","Odds are Orange","Fruit/orange.png","Lost","0.2,0.8","11","0.2","19","4","",""
"html-keyboard-response","22","82715","0.0-11.0-1.4","5fb7c9fa2be0a83d8f8913b8","bdp_rwlrn","Sun Mar 12 2023 21:08:23 GMT-0700 (PDT)","368783","Untrustworthy,Trustworthy","","807","","","","decision","","<div class='trialDiv'><img src='Fruit/pears.png'><br><font class='baseline'><strong>Pears Aplenty</strong><p>Choose number of points to bet.</font><div class='respPicDiv'><img src='img/responseButtonOffersNo0L.png' class='respPic'></div></div>","2","2","Pears Aplenty","Fruit/pears.png","Won","0.8,0.35","12","0.8","24","5","",""
"html-keyboard-response","23","82968","0.0-11.0-2.4","5fb7c9fa2be0a83d8f8913b8","bdp_rwlrn","Sun Mar 12 2023 21:08:23 GMT-0700 (PDT)","368783","Untrustworthy,Trustworthy","","null","","","","decisionFB","","<div class='trialDiv'><img src='Fruit/pears.png'><br><font class='baseline'><strong>Pears Aplenty</strong><p>Choose number of points to bet.</font><div class='respPicDiv'><img src='img/responseButtonOffersNo0L2.png' class='respPic'></div></div>","null","2","Pears Aplenty","Fruit/pears.png","Won","0.8,0.35","12","0.8","22","5","",""
"html-keyboard-response","24","83970","0.0-11.0-3.4","5fb7c9fa2be0a83d8f8913b8","bdp_rwlrn","Sun Mar 12 2023 21:08:23 GMT-0700 (PDT)","368783","Untrustworthy,Trustworthy","","null","","","","feedback","","<div class='respPicDiv'><img src='img/responseButtonOffersNo0_wht.png' class='respPic'></div><div class='trialDiv'><img src='Fruit/pears.png'><br><font class='baseline'><strong>Pears Aplenty</strong><p><strong><font class='posOutcome'>You WON</font><p>You bet: 2</strong></font> &nbsp; &nbsp; &nbsp; &nbsp; &nbsp; &nbsp;<font class='posOutcome'>you receive: <strong>4</strong></font></div>","null","2","Pears Aplenty","Fruit/pears.png","Won","0.8,0.35","12","0.8","26","5","",""
"html-keyboard-response","25","84778","0.0-11.0-1.5","5fb7c9fa2be0a83d8f8913b8","bdp_rwlrn","Sun Mar 12 2023 21:08:23 GMT-0700 (PDT)","368783","Untrustworthy,Trustworthy","","806","","","","decision","","<div class='trialDiv'><img src='Fruit/melon.png'><br><font class='baseline'><strong>Melon Millions</strong><p>Choose number of points to bet.</font><div class='respPicDiv'><img src='img/responseButtonOffersNo0L.png' class='respPic'></div></div>","2","2","Melon Millions","Fruit/melon.png","Won","0.35,0.8","12","0.35","31","6","",""
"html-keyboard-response","26","85030","0.0-11.0-2.5","5fb7c9fa2be0a83d8f8913b8","bdp_rwlrn","Sun Mar 12 2023 21:08:23 GMT-0700 (PDT)","368783","Untrustworthy,Trustworthy","","null","","","","decisionFB","","<div class='trialDiv'><img src='Fruit/melon.png'><br><font class='baseline'><strong>Melon Millions</strong><p>Choose number of points to bet.</font><div class='respPicDiv'><img src='img/responseButtonOffersNo0L2.png' class='respPic'></div></div>","null","2","Melon Millions","Fruit/melon.png","Won","0.35,0.8","12","0.35","29","6","",""
"html-keyboard-response","27","86032","0.0-11.0-3.5","5fb7c9fa2be0a83d8f8913b8","bdp_rwlrn","Sun Mar 12 2023 21:08:23 GMT-0700 (PDT)","368783","Untrustworthy,Trustworthy","","null","","","","feedback","","<div class='respPicDiv'><img src='img/responseButtonOffersNo0_wht.png' class='respPic'></div><div class='trialDiv'><img src='Fruit/melon.png'><br><font class='baseline'><strong>Melon Millions</strong><p><strong><font class='posOutcome'>You WON</font><p>You bet: 2</strong></font> &nbsp; &nbsp; &nbsp; &nbsp; &nbsp; &nbsp;<font class='posOutcome'>you receive: <strong>4</strong></font></div>","null","2","Melon Millions","Fruit/melon.png","Won","0.35,0.8","12","0.35","33","6","",""
"html-keyboard-response","28","86619","0.0-11.0-1.6","5fb7c9fa2be0a83d8f8913b8","bdp_rwlrn","Sun Mar 12 2023 21:08:23 GMT-0700 (PDT)","368783","Untrustworthy,Trustworthy","","585","","","","decision","","<div class='trialDiv'><img src='Fruit/pears.png'><br><font class='baseline'><strong>Pears Aplenty</strong><p>Choose number of points to bet.</font><div class='respPicDiv'><img src='img/responseButtonOffersNo0L.png' class='respPic'></div></div>","2","3","Pears Aplenty","Fruit/pears.png","Won","0.8,0.35","12","0.8","38","7","",""
"html-keyboard-response","29","86870","0.0-11.0-2.6","5fb7c9fa2be0a83d8f8913b8","bdp_rwlrn","Sun Mar 12 2023 21:08:23 GMT-0700 (PDT)","368783","Untrustworthy,Trustworthy","","null","","","","decisionFB","","<div class='trialDiv'><img src='Fruit/pears.png'><br><font class='baseline'><strong>Pears Aplenty</strong><p>Choose number of points to bet.</font><div class='respPicDiv'><img src='img/responseButtonOffersNo0L2.png' class='respPic'></div></div>","null","3","Pears Aplenty","Fruit/pears.png","Won","0.8,0.35","12","0.8","36","7","",""
"html-keyboard-response","30","87873","0.0-11.0-3.6","5fb7c9fa2be0a83d8f8913b8","bdp_rwlrn","Sun Mar 12 2023 21:08:23 GMT-0700 (PDT)","368783","Untrustworthy,Trustworthy","","null","","","","feedback","","<div class='respPicDiv'><img src='img/responseButtonOffersNo0_wht.png' class='respPic'></div><div class='trialDiv'><img src='Fruit/pears.png'><br><font class='baseline'><strong>Pears Aplenty</strong><p><strong><font class='posOutcome'>You WON</font><p>You bet: 2</strong></font> &nbsp; &nbsp; &nbsp; &nbsp; &nbsp; &nbsp;<font class='posOutcome'>you receive: <strong>4</strong></font></div>","null","3","Pears Aplenty","Fruit/pears.png","Won","0.8,0.35","12","0.8","40","7","",""
"html-keyboard-response","31","89105","0.0-11.0-1.7","5fb7c9fa2be0a83d8f8913b8","bdp_rwlrn","Sun Mar 12 2023 21:08:23 GMT-0700 (PDT)","368783","Untrustworthy,Trustworthy","","1230","","","","decision","","<div class='trialDiv'><img src='Fruit/orange.png'><br><font class='baseline'><strong>Odds are Orange</strong><p>Choose number of points to bet.</font><div class='respPicDiv'><img src='img/responseButtonOffersNo0L.png' class='respPic'></div></div>","2","3","Odds are Orange","Fruit/orange.png","Lost","0.2,0.8","11","0.2","45","8","",""
"html-keyboard-response","32","89358","0.0-11.0-2.7","5fb7c9fa2be0a83d8f8913b8","bdp_rwlrn","Sun Mar 12 2023 21:08:23 GMT-0700 (PDT)","368783","Untrustworthy,Trustworthy","","null","","","","decisionFB","","<div class='trialDiv'><img src='Fruit/orange.png'><br><font class='baseline'><strong>Odds are Orange</strong><p>Choose number of points to bet.</font><div class='respPicDiv'><img src='img/responseButtonOffersNo0L2.png' class='respPic'></div></div>","null","3","Odds are Orange","Fruit/orange.png","Lost","0.2,0.8","11","0.2","43","8","",""
"html-keyboard-response","33","90360","0.0-11.0-3.7","5fb7c9fa2be0a83d8f8913b8","bdp_rwlrn","Sun Mar 12 2023 21:08:23 GMT-0700 (PDT)","368783","Untrustworthy,Trustworthy","","null","","","","feedback","","<div class='respPicDiv'><img src='img/responseButtonOffersNo0_wht.png' class='respPic'></div><div class='trialDiv'><img src='Fruit/orange.png'><br><font class='baseline'><strong>Odds are Orange</strong><p><strong><font class='negOutcome'>You LOST</font><p>You bet: 2</strong></font> &nbsp; &nbsp; &nbsp; &nbsp; &nbsp; &nbsp;<font class='negOutcome'>You receive: <strong>0</strong></font></div>","null","3","Odds are Orange","Fruit/orange.png","Lost","0.2,0.8","11","0.2","43","8","",""
"html-keyboard-response","34","90941","0.0-11.0-1.8","5fb7c9fa2be0a83d8f8913b8","bdp_rwlrn","Sun Mar 12 2023 21:08:23 GMT-0700 (PDT)","368783","Untrustworthy,Trustworthy","","580","","","","decision","","<div class='trialDiv'><img src='Fruit/melon.png'><br><font class='baseline'><strong>Melon Millions</strong><p>Choose number of points to bet.</font><div class='respPicDiv'><img src='img/responseButtonOffersNo0L.png' class='respPic'></div></div>","2","3","Melon Millions","Fruit/melon.png","Lost","0.35,0.8","12","0.35","48","9","",""
"html-keyboard-response","35","91194","0.0-11.0-2.8","5fb7c9fa2be0a83d8f8913b8","bdp_rwlrn","Sun Mar 12 2023 21:08:23 GMT-0700 (PDT)","368783","Untrustworthy,Trustworthy","","null","","","","decisionFB","","<div class='trialDiv'><img src='Fruit/melon.png'><br><font class='baseline'><strong>Melon Millions</strong><p>Choose number of points to bet.</font><div class='respPicDiv'><img src='img/responseButtonOffersNo0L2.png' class='respPic'></div></div>","null","3","Melon Millions","Fruit/melon.png","Lost","0.35,0.8","12","0.35","46","9","",""
"html-keyboard-response","36","92197","0.0-11.0-3.8","5fb7c9fa2be0a83d8f8913b8","bdp_rwlrn","Sun Mar 12 2023 21:08:23 GMT-0700 (PDT)","368783","Untrustworthy,Trustworthy","","null","","","","feedback","","<div class='respPicDiv'><img src='img/responseButtonOffersNo0_wht.png' class='respPic'></div><div class='trialDiv'><img src='Fruit/melon.png'><br><font class='baseline'><strong>Melon Millions</strong><p><strong><font class='negOutcome'>You LOST</font><p>You bet: 2</strong></font> &nbsp; &nbsp; &nbsp; &nbsp; &nbsp; &nbsp;<font class='negOutcome'>You receive: <strong>0</strong></font></div>","null","3","Melon Millions","Fruit/melon.png","Lost","0.35,0.8","12","0.35","46","9","",""
"html-keyboard-response","37","92736","0.0-11.0-1.9","5fb7c9fa2be0a83d8f8913b8","bdp_rwlrn","Sun Mar 12 2023 21:08:23 GMT-0700 (PDT)","368783","Untrustworthy,Trustworthy","","538","","","","decision","","<div class='trialDiv'><img src='Fruit/orange.png'><br><font class='baseline'><strong>Odds are Orange</strong><p>Choose number of points to bet.</font><div class='respPicDiv'><img src='img/responseButtonOffersNo0L.png' class='respPic'></div></div>","2","4","Odds are Orange","Fruit/orange.png","Won","0.2,0.8","11","0.2","51","10","",""
"html-keyboard-response","38","92989","0.0-11.0-2.9","5fb7c9fa2be0a83d8f8913b8","bdp_rwlrn","Sun Mar 12 2023 21:08:23 GMT-0700 (PDT)","368783","Untrustworthy,Trustworthy","","null","","","","decisionFB","","<div class='trialDiv'><img src='Fruit/orange.png'><br><font class='baseline'><strong>Odds are Orange</strong><p>Choose number of points to bet.</font><div class='respPicDiv'><img src='img/responseButtonOffersNo0L2.png' class='respPic'></div></div>","null","4","Odds are Orange","Fruit/orange.png","Won","0.2,0.8","11","0.2","49","10","",""
"html-keyboard-response","39","93991","0.0-11.0-3.9","5fb7c9fa2be0a83d8f8913b8","bdp_rwlrn","Sun Mar 12 2023 21:08:23 GMT-0700 (PDT)","368783","Untrustworthy,Trustworthy","","null","","","","feedback","","<div class='respPicDiv'><img src='img/responseButtonOffersNo0_wht.png' class='respPic'></div><div class='trialDiv'><img src='Fruit/orange.png'><br><font class='baseline'><strong>Odds are Orange</strong><p><strong><font class='posOutcome'>You WON</font><p>You bet: 2</strong></font> &nbsp; &nbsp; &nbsp; &nbsp; &nbsp; &nbsp;<font class='posOutcome'>you receive: <strong>4</strong></font></div>","null","4","Odds are Orange","Fruit/orange.png","Won","0.2,0.8","11","0.2","53","10","",""
"html-keyboard-response","40","94905","0.0-11.0-1.10","5fb7c9fa2be0a83d8f8913b8","bdp_rwlrn","Sun Mar 12 2023 21:08:23 GMT-0700 (PDT)","368783","Untrustworthy,Trustworthy","","912","","","","decision","","<div class='trialDiv'><img src='Fruit/melon.png'><br><font class='baseline'><strong>Melon Millions</strong><p>Choose number of points to bet.</font><div class='respPicDiv'><img src='img/responseButtonOffersNo0L.png' class='respPic'></div></div>","1","4","Melon Millions","Fruit/melon.png","Won","0.35,0.8","12","0.35","58","11","",""
"html-keyboard-response","41","95157","0.0-11.0-2.10","5fb7c9fa2be0a83d8f8913b8","bdp_rwlrn","Sun Mar 12 2023 21:08:23 GMT-0700 (PDT)","368783","Untrustworthy,Trustworthy","","null","","","","decisionFB","","<div class='trialDiv'><img src='Fruit/melon.png'><br><font class='baseline'><strong>Melon Millions</strong><p>Choose number of points to bet.</font><div class='respPicDiv'><img src='img/responseButtonOffersNo0L1.png' class='respPic'></div></div>","null","4","Melon Millions","Fruit/melon.png","Won","0.35,0.8","12","0.35","57","11","",""
"html-keyboard-response","42","96158","0.0-11.0-3.10","5fb7c9fa2be0a83d8f8913b8","bdp_rwlrn","Sun Mar 12 2023 21:08:23 GMT-0700 (PDT)","368783","Untrustworthy,Trustworthy","","null","","","","feedback","","<div class='respPicDiv'><img src='img/responseButtonOffersNo0_wht.png' class='respPic'></div><div class='trialDiv'><img src='Fruit/melon.png'><br><font class='baseline'><strong>Melon Millions</strong><p><strong><font class='posOutcome'>You WON</font><p>You bet: 1</strong></font> &nbsp; &nbsp; &nbsp; &nbsp; &nbsp; &nbsp;<font class='posOutcome'>you receive: <strong>2</strong></font></div>","null","4","Melon Millions","Fruit/melon.png","Won","0.35,0.8","12","0.35","59","11","",""
"html-keyboard-response","43","96897","0.0-11.0-1.11","5fb7c9fa2be0a83d8f8913b8","bdp_rwlrn","Sun Mar 12 2023 21:08:23 GMT-0700 (PDT)","368783","Untrustworthy,Trustworthy","","737","","","","decision","","<div class='trialDiv'><img src='Fruit/pears.png'><br><font class='baseline'><strong>Pears Aplenty</strong><p>Choose number of points to bet.</font><div class='respPicDiv'><img src='img/responseButtonOffersNo0L.png' class='respPic'></div></div>","1","4","Pears Aplenty","Fruit/pears.png","Won","0.8,0.35","12","0.8","64","12","",""
"html-keyboard-response","44","97148","0.0-11.0-2.11","5fb7c9fa2be0a83d8f8913b8","bdp_rwlrn","Sun Mar 12 2023 21:08:23 GMT-0700 (PDT)","368783","Untrustworthy,Trustworthy","","null","","","","decisionFB","","<div class='trialDiv'><img src='Fruit/pears.png'><br><font class='baseline'><strong>Pears Aplenty</strong><p>Choose number of points to bet.</font><div class='respPicDiv'><img src='img/responseButtonOffersNo0L1.png' class='respPic'></div></div>","null","4","Pears Aplenty","Fruit/pears.png","Won","0.8,0.35","12","0.8","63","12","",""
"html-keyboard-response","45","98151","0.0-11.0-3.11","5fb7c9fa2be0a83d8f8913b8","bdp_rwlrn","Sun Mar 12 2023 21:08:23 GMT-0700 (PDT)","368783","Untrustworthy,Trustworthy","","null","","","","feedback","","<div class='respPicDiv'><img src='img/responseButtonOffersNo0_wht.png' class='respPic'></div><div class='trialDiv'><img src='Fruit/pears.png'><br><font class='baseline'><strong>Pears Aplenty</strong><p><strong><font class='posOutcome'>You WON</font><p>You bet: 1</strong></font> &nbsp; &nbsp; &nbsp; &nbsp; &nbsp; &nbsp;<font class='posOutcome'>you receive: <strong>2</strong></font></div>","null","4","Pears Aplenty","Fruit/pears.png","Won","0.8,0.35","12","0.8","65","12","",""
"html-keyboard-response","46","98568","0.0-11.0-1.12","5fb7c9fa2be0a83d8f8913b8","bdp_rwlrn","Sun Mar 12 2023 21:08:23 GMT-0700 (PDT)","368783","Untrustworthy,Trustworthy","","416","","","","decision","","<div class='trialDiv'><img src='Fruit/melon.png'><br><font class='baseline'><strong>Melon Millions</strong><p>Choose number of points to bet.</font><div class='respPicDiv'><img src='img/responseButtonOffersNo0L.png' class='respPic'></div></div>","3","5","Melon Millions","Fruit/melon.png","Lost","0.35,0.8","12","0.35","70","13","",""
"html-keyboard-response","47","98820","0.0-11.0-2.12","5fb7c9fa2be0a83d8f8913b8","bdp_rwlrn","Sun Mar 12 2023 21:08:23 GMT-0700 (PDT)","368783","Untrustworthy,Trustworthy","","null","","","","decisionFB","","<div class='trialDiv'><img src='Fruit/melon.png'><br><font class='baseline'><strong>Melon Millions</strong><p>Choose number of points to bet.</font><div class='respPicDiv'><img src='img/responseButtonOffersNo0L3.png' class='respPic'></div></div>","null","5","Melon Millions","Fruit/melon.png","Lost","0.35,0.8","12","0.35","67","13","",""
"html-keyboard-response","48","99824","0.0-11.0-3.12","5fb7c9fa2be0a83d8f8913b8","bdp_rwlrn","Sun Mar 12 2023 21:08:23 GMT-0700 (PDT)","368783","Untrustworthy,Trustworthy","","null","","","","feedback","","<div class='respPicDiv'><img src='img/responseButtonOffersNo0_wht.png' class='respPic'></div><div class='trialDiv'><img src='Fruit/melon.png'><br><font class='baseline'><strong>Melon Millions</strong><p><strong><font class='negOutcome'>You LOST</font><p>You bet: 3</strong></font> &nbsp; &nbsp; &nbsp; &nbsp; &nbsp; &nbsp;<font class='negOutcome'>You receive: <strong>0</strong></font></div>","null","5","Melon Millions","Fruit/melon.png","Lost","0.35,0.8","12","0.35","67","13","",""
"html-keyboard-response","49","101426","0.0-11.0-1.13","5fb7c9fa2be0a83d8f8913b8","bdp_rwlrn","Sun Mar 12 2023 21:08:23 GMT-0700 (PDT)","368783","Untrustworthy,Trustworthy","","1600","","","","decision","","<div class='trialDiv'><img src='Fruit/pears.png'><br><font class='baseline'><strong>Pears Aplenty</strong><p>Choose number of points to bet.</font><div class='respPicDiv'><img src='img/responseButtonOffersNo0L.png' class='respPic'></div></div>","2","5","Pears Aplenty","Fruit/pears.png","Won","0.8,0.35","12","0.8","72","14","",""
"html-keyboard-response","50","101678","0.0-11.0-2.13","5fb7c9fa2be0a83d8f8913b8","bdp_rwlrn","Sun Mar 12 2023 21:08:23 GMT-0700 (PDT)","368783","Untrustworthy,Trustworthy","","null","","","","decisionFB","","<div class='trialDiv'><img src='Fruit/pears.png'><br><font class='baseline'><strong>Pears Aplenty</strong><p>Choose number of points to bet.</font><div class='respPicDiv'><img src='img/responseButtonOffersNo0L2.png' class='respPic'></div></div>","null","5","Pears Aplenty","Fruit/pears.png","Won","0.8,0.35","12","0.8","70","14","",""
"html-keyboard-response","51","102679","0.0-11.0-3.13","5fb7c9fa2be0a83d8f8913b8","bdp_rwlrn","Sun Mar 12 2023 21:08:23 GMT-0700 (PDT)","368783","Untrustworthy,Trustworthy","","null","","","","feedback","","<div class='respPicDiv'><img src='img/responseButtonOffersNo0_wht.png' class='respPic'></div><div class='trialDiv'><img src='Fruit/pears.png'><br><font class='baseline'><strong>Pears Aplenty</strong><p><strong><font class='posOutcome'>You WON</font><p>You bet: 2</strong></font> &nbsp; &nbsp; &nbsp; &nbsp; &nbsp; &nbsp;<font class='posOutcome'>you receive: <strong>4</strong></font></div>","null","5","Pears Aplenty","Fruit/pears.png","Won","0.8,0.35","12","0.8","74","14","",""
"html-keyboard-response","52","103533","0.0-11.0-1.14","5fb7c9fa2be0a83d8f8913b8","bdp_rwlrn","Sun Mar 12 2023 21:08:23 GMT-0700 (PDT)","368783","Untrustworthy,Trustworthy","","852","","","","decision","","<div class='trialDiv'><img src='Fruit/orange.png'><br><font class='baseline'><strong>Odds are Orange</strong><p>Choose number of points to bet.</font><div class='respPicDiv'><img src='img/responseButtonOffersNo0L.png' class='respPic'></div></div>","2","5","Odds are Orange","Fruit/orange.png","Won","0.2,0.8","11","0.2","79","15","",""
"html-keyboard-response","53","103786","0.0-11.0-2.14","5fb7c9fa2be0a83d8f8913b8","bdp_rwlrn","Sun Mar 12 2023 21:08:23 GMT-0700 (PDT)","368783","Untrustworthy,Trustworthy","","null","","","","decisionFB","","<div class='trialDiv'><img src='Fruit/orange.png'><br><font class='baseline'><strong>Odds are Orange</strong><p>Choose number of points to bet.</font><div class='respPicDiv'><img src='img/responseButtonOffersNo0L2.png' class='respPic'></div></div>","null","5","Odds are Orange","Fruit/orange.png","Won","0.2,0.8","11","0.2","77","15","",""
"html-keyboard-response","54","104788","0.0-11.0-3.14","5fb7c9fa2be0a83d8f8913b8","bdp_rwlrn","Sun Mar 12 2023 21:08:23 GMT-0700 (PDT)","368783","Untrustworthy,Trustworthy","","null","","","","feedback","","<div class='respPicDiv'><img src='img/responseButtonOffersNo0_wht.png' class='respPic'></div><div class='trialDiv'><img src='Fruit/orange.png'><br><font class='baseline'><strong>Odds are Orange</strong><p><strong><font class='posOutcome'>You WON</font><p>You bet: 2</strong></font> &nbsp; &nbsp; &nbsp; &nbsp; &nbsp; &nbsp;<font class='posOutcome'>you receive: <strong>4</strong></font></div>","null","5","Odds are Orange","Fruit/orange.png","Won","0.2,0.8","11","0.2","81","15","",""
"html-keyboard-response","55","105511","0.0-11.0-1.15","5fb7c9fa2be0a83d8f8913b8","bdp_rwlrn","Sun Mar 12 2023 21:08:23 GMT-0700 (PDT)","368783","Untrustworthy,Trustworthy","","722","","","","decision","","<div class='trialDiv'><img src='Fruit/pears.png'><br><font class='baseline'><strong>Pears Aplenty</strong><p>Choose number of points to bet.</font><div class='respPicDiv'><img src='img/responseButtonOffersNo0L.png' class='respPic'></div></div>","1","6","Pears Aplenty","Fruit/pears.png","Won","0.8,0.35","12","0.8","86","16","",""
"html-keyboard-response","56","105762","0.0-11.0-2.15","5fb7c9fa2be0a83d8f8913b8","bdp_rwlrn","Sun Mar 12 2023 21:08:23 GMT-0700 (PDT)","368783","Untrustworthy,Trustworthy","","null","","","","decisionFB","","<div class='trialDiv'><img src='Fruit/pears.png'><br><font class='baseline'><strong>Pears Aplenty</strong><p>Choose number of points to bet.</font><div class='respPicDiv'><img src='img/responseButtonOffersNo0L1.png' class='respPic'></div></div>","null","6","Pears Aplenty","Fruit/pears.png","Won","0.8,0.35","12","0.8","85","16","",""
"html-keyboard-response","57","106764","0.0-11.0-3.15","5fb7c9fa2be0a83d8f8913b8","bdp_rwlrn","Sun Mar 12 2023 21:08:23 GMT-0700 (PDT)","368783","Untrustworthy,Trustworthy","","null","","","","feedback","","<div class='respPicDiv'><img src='img/responseButtonOffersNo0_wht.png' class='respPic'></div><div class='trialDiv'><img src='Fruit/pears.png'><br><font class='baseline'><strong>Pears Aplenty</strong><p><strong><font class='posOutcome'>You WON</font><p>You bet: 1</strong></font> &nbsp; &nbsp; &nbsp; &nbsp; &nbsp; &nbsp;<font class='posOutcome'>you receive: <strong>2</strong></font></div>","null","6","Pears Aplenty","Fruit/pears.png","Won","0.8,0.35","12","0.8","87","16","",""
"html-keyboard-response","58","107481","0.0-11.0-1.16","5fb7c9fa2be0a83d8f8913b8","bdp_rwlrn","Sun Mar 12 2023 21:08:23 GMT-0700 (PDT)","368783","Untrustworthy,Trustworthy","","716","","","","decision","","<div class='trialDiv'><img src='Fruit/orange.png'><br><font class='baseline'><strong>Odds are Orange</strong><p>Choose number of points to bet.</font><div class='respPicDiv'><img src='img/responseButtonOffersNo0L.png' class='respPic'></div></div>","2","6","Odds are Orange","Fruit/orange.png","Lost","0.2,0.8","11","0.2","92","17","",""
"html-keyboard-response","59","107733","0.0-11.0-2.16","5fb7c9fa2be0a83d8f8913b8","bdp_rwlrn","Sun Mar 12 2023 21:08:23 GMT-0700 (PDT)","368783","Untrustworthy,Trustworthy","","null","","","","decisionFB","","<div class='trialDiv'><img src='Fruit/orange.png'><br><font class='baseline'><strong>Odds are Orange</strong><p>Choose number of points to bet.</font><div class='respPicDiv'><img src='img/responseButtonOffersNo0L2.png' class='respPic'></div></div>","null","6","Odds are Orange","Fruit/orange.png","Lost","0.2,0.8","11","0.2","90","17","",""
"html-keyboard-response","60","108735","0.0-11.0-3.16","5fb7c9fa2be0a83d8f8913b8","bdp_rwlrn","Sun Mar 12 2023 21:08:23 GMT-0700 (PDT)","368783","Untrustworthy,Trustworthy","","null","","","","feedback","","<div class='respPicDiv'><img src='img/responseButtonOffersNo0_wht.png' class='respPic'></div><div class='trialDiv'><img src='Fruit/orange.png'><br><font class='baseline'><strong>Odds are Orange</strong><p><strong><font class='negOutcome'>You LOST</font><p>You bet: 2</strong></font> &nbsp; &nbsp; &nbsp; &nbsp; &nbsp; &nbsp;<font class='negOutcome'>You receive: <strong>0</strong></font></div>","null","6","Odds are Orange","Fruit/orange.png","Lost","0.2,0.8","11","0.2","90","17","",""
"html-keyboard-response","61","109819","0.0-11.0-1.17","5fb7c9fa2be0a83d8f8913b8","bdp_rwlrn","Sun Mar 12 2023 21:08:23 GMT-0700 (PDT)","368783","Untrustworthy,Trustworthy","","1083","","","","decision","","<div class='trialDiv'><img src='Fruit/melon.png'><br><font class='baseline'><strong>Melon Millions</strong><p>Choose number of points to bet.</font><div class='respPicDiv'><img src='img/responseButtonOffersNo0L.png' class='respPic'></div></div>","2","6","Melon Millions","Fruit/melon.png","Lost","0.35,0.8","12","0.35","95","18","",""
"html-keyboard-response","62","110076","0.0-11.0-2.17","5fb7c9fa2be0a83d8f8913b8","bdp_rwlrn","Sun Mar 12 2023 21:08:23 GMT-0700 (PDT)","368783","Untrustworthy,Trustworthy","","null","","","","decisionFB","","<div class='trialDiv'><img src='Fruit/melon.png'><br><font class='baseline'><strong>Melon Millions</strong><p>Choose number of points to bet.</font><div class='respPicDiv'><img src='img/responseButtonOffersNo0L2.png' class='respPic'></div></div>","null","6","Melon Millions","Fruit/melon.png","Lost","0.35,0.8","12","0.35","93","18","",""
"html-keyboard-response","63","111083","0.0-11.0-3.17","5fb7c9fa2be0a83d8f8913b8","bdp_rwlrn","Sun Mar 12 2023 21:08:23 GMT-0700 (PDT)","368783","Untrustworthy,Trustworthy","","null","","","","feedback","","<div class='respPicDiv'><img src='img/responseButtonOffersNo0_wht.png' class='respPic'></div><div class='trialDiv'><img src='Fruit/melon.png'><br><font class='baseline'><strong>Melon Millions</strong><p><strong><font class='negOutcome'>You LOST</font><p>You bet: 2</strong></font> &nbsp; &nbsp; &nbsp; &nbsp; &nbsp; &nbsp;<font class='negOutcome'>You receive: <strong>0</strong></font></div>","null","6","Melon Millions","Fruit/melon.png","Lost","0.35,0.8","12","0.35","93","18","",""
"html-keyboard-response","64","113063","0.0-11.0-1.18","5fb7c9fa2be0a83d8f8913b8","bdp_rwlrn","Sun Mar 12 2023 21:08:23 GMT-0700 (PDT)","368783","Untrustworthy,Trustworthy","","1977","","","","decision","","<div class='trialDiv'><img src='Fruit/pears.png'><br><font class='baseline'><strong>Pears Aplenty</strong><p>Choose number of points to bet.</font><div class='respPicDiv'><img src='img/responseButtonOffersNo0L.png' class='respPic'></div></div>","1","7","Pears Aplenty","Fruit/pears.png","Won","0.8,0.35","12","0.8","98","19","",""
"html-keyboard-response","65","113317","0.0-11.0-2.18","5fb7c9fa2be0a83d8f8913b8","bdp_rwlrn","Sun Mar 12 2023 21:08:23 GMT-0700 (PDT)","368783","Untrustworthy,Trustworthy","","null","","","","decisionFB","","<div class='trialDiv'><img src='Fruit/pears.png'><br><font class='baseline'><strong>Pears Aplenty</strong><p>Choose number of points to bet.</font><div class='respPicDiv'><img src='img/responseButtonOffersNo0L1.png' class='respPic'></div></div>","null","7","Pears Aplenty","Fruit/pears.png","Won","0.8,0.35","12","0.8","97","19","",""
"html-keyboard-response","66","114321","0.0-11.0-3.18","5fb7c9fa2be0a83d8f8913b8","bdp_rwlrn","Sun Mar 12 2023 21:08:23 GMT-0700 (PDT)","368783","Untrustworthy,Trustworthy","","null","","","","feedback","","<div class='respPicDiv'><img src='img/responseButtonOffersNo0_wht.png' class='respPic'></div><div class='trialDiv'><img src='Fruit/pears.png'><br><font class='baseline'><strong>Pears Aplenty</strong><p><strong><font class='posOutcome'>You WON</font><p>You bet: 1</strong></font> &nbsp; &nbsp; &nbsp; &nbsp; &nbsp; &nbsp;<font class='posOutcome'>you receive: <strong>2</strong></font></div>","null","7","Pears Aplenty","Fruit/pears.png","Won","0.8,0.35","12","0.8","99","19","",""
"html-keyboard-response","67","114792","0.0-11.0-1.19","5fb7c9fa2be0a83d8f8913b8","bdp_rwlrn","Sun Mar 12 2023 21:08:23 GMT-0700 (PDT)","368783","Untrustworthy,Trustworthy","","469","","","","decision","","<div class='trialDiv'><img src='Fruit/melon.png'><br><font class='baseline'><strong>Melon Millions</strong><p>Choose number of points to bet.</font><div class='respPicDiv'><img src='img/responseButtonOffersNo0L.png' class='respPic'></div></div>","1","7","Melon Millions","Fruit/melon.png","Lost","0.35,0.8","12","0.35","104","20","",""
"html-keyboard-response","68","115044","0.0-11.0-2.19","5fb7c9fa2be0a83d8f8913b8","bdp_rwlrn","Sun Mar 12 2023 21:08:23 GMT-0700 (PDT)","368783","Untrustworthy,Trustworthy","","null","","","","decisionFB","","<div class='trialDiv'><img src='Fruit/melon.png'><br><font class='baseline'><strong>Melon Millions</strong><p>Choose number of points to bet.</font><div class='respPicDiv'><img src='img/responseButtonOffersNo0L1.png' class='respPic'></div></div>","null","7","Melon Millions","Fruit/melon.png","Lost","0.35,0.8","12","0.35","103","20","",""
"html-keyboard-response","69","116046","0.0-11.0-3.19","5fb7c9fa2be0a83d8f8913b8","bdp_rwlrn","Sun Mar 12 2023 21:08:23 GMT-0700 (PDT)","368783","Untrustworthy,Trustworthy","","null","","","","feedback","","<div class='respPicDiv'><img src='img/responseButtonOffersNo0_wht.png' class='respPic'></div><div class='trialDiv'><img src='Fruit/melon.png'><br><font class='baseline'><strong>Melon Millions</strong><p><strong><font class='negOutcome'>You LOST</font><p>You bet: 1</strong></font> &nbsp; &nbsp; &nbsp; &nbsp; &nbsp; &nbsp;<font class='negOutcome'>You receive: <strong>0</strong></font></div>","null","7","Melon Millions","Fruit/melon.png","Lost","0.35,0.8","12","0.35","103","20","",""
"html-keyboard-response","70","116495","0.0-11.0-1.20","5fb7c9fa2be0a83d8f8913b8","bdp_rwlrn","Sun Mar 12 2023 21:08:23 GMT-0700 (PDT)","368783","Untrustworthy,Trustworthy","","448","","","","decision","","<div class='trialDiv'><img src='Fruit/orange.png'><br><font class='baseline'><strong>Odds are Orange</strong><p>Choose number of points to bet.</font><div class='respPicDiv'><img src='img/responseButtonOffersNo0L.png' class='respPic'></div></div>","1","7","Odds are Orange","Fruit/orange.png","Lost","0.2,0.8","11","0.2","108","21","",""
"html-keyboard-response","71","116749","0.0-11.0-2.20","5fb7c9fa2be0a83d8f8913b8","bdp_rwlrn","Sun Mar 12 2023 21:08:23 GMT-0700 (PDT)","368783","Untrustworthy,Trustworthy","","null","","","","decisionFB","","<div class='trialDiv'><img src='Fruit/orange.png'><br><font class='baseline'><strong>Odds are Orange</strong><p>Choose number of points to bet.</font><div class='respPicDiv'><img src='img/responseButtonOffersNo0L1.png' class='respPic'></div></div>","null","7","Odds are Orange","Fruit/orange.png","Lost","0.2,0.8","11","0.2","107","21","",""
"html-keyboard-response","72","117752","0.0-11.0-3.20","5fb7c9fa2be0a83d8f8913b8","bdp_rwlrn","Sun Mar 12 2023 21:08:23 GMT-0700 (PDT)","368783","Untrustworthy,Trustworthy","","null","","","","feedback","","<div class='respPicDiv'><img src='img/responseButtonOffersNo0_wht.png' class='respPic'></div><div class='trialDiv'><img src='Fruit/orange.png'><br><font class='baseline'><strong>Odds are Orange</strong><p><strong><font class='negOutcome'>You LOST</font><p>You bet: 1</strong></font> &nbsp; &nbsp; &nbsp; &nbsp; &nbsp; &nbsp;<font class='negOutcome'>You receive: <strong>0</strong></font></div>","null","7","Odds are Orange","Fruit/orange.png","Lost","0.2,0.8","11","0.2","107","21","",""
"html-keyboard-response","73","119925","0.0-11.0-1.21","5fb7c9fa2be0a83d8f8913b8","bdp_rwlrn","Sun Mar 12 2023 21:08:23 GMT-0700 (PDT)","368783","Untrustworthy,Trustworthy","","2172","","","","decision","","<div class='trialDiv'><img src='Fruit/pears.png'><br><font class='baseline'><strong>Pears Aplenty</strong><p>Choose number of points to bet.</font><div class='respPicDiv'><img src='img/responseButtonOffersNo0L.png' class='respPic'></div></div>","5","8","Pears Aplenty","Fruit/pears.png","Won","0.8,0.35","12","0.8","112","22","",""
"html-keyboard-response","74","120193","0.0-11.0-2.21","5fb7c9fa2be0a83d8f8913b8","bdp_rwlrn","Sun Mar 12 2023 21:08:23 GMT-0700 (PDT)","368783","Untrustworthy,Trustworthy","","null","","","","decisionFB","","<div class='trialDiv'><img src='Fruit/pears.png'><br><font class='baseline'><strong>Pears Aplenty</strong><p>Choose number of points to bet.</font><div class='respPicDiv'><img src='img/responseButtonOffersNo0L5.png' class='respPic'></div></div>","null","8","Pears Aplenty","Fruit/pears.png","Won","0.8,0.35","12","0.8","107","22","",""
"html-keyboard-response","75","121196","0.0-11.0-3.21","5fb7c9fa2be0a83d8f8913b8","bdp_rwlrn","Sun Mar 12 2023 21:08:23 GMT-0700 (PDT)","368783","Untrustworthy,Trustworthy","","null","","","","feedback","","<div class='respPicDiv'><img src='img/responseButtonOffersNo0_wht.png' class='respPic'></div><div class='trialDiv'><img src='Fruit/pears.png'><br><font class='baseline'><strong>Pears Aplenty</strong><p><strong><font class='posOutcome'>You WON</font><p>You bet: 5</strong></font> &nbsp; &nbsp; &nbsp; &nbsp; &nbsp; &nbsp;<font class='posOutcome'>you receive: <strong>10</strong></font></div>","null","8","Pears Aplenty","Fruit/pears.png","Won","0.8,0.35","12","0.8","117","22","",""
"html-keyboard-response","76","122075","0.0-11.0-1.22","5fb7c9fa2be0a83d8f8913b8","bdp_rwlrn","Sun Mar 12 2023 21:08:23 GMT-0700 (PDT)","368783","Untrustworthy,Trustworthy","","878","","","","decision","","<div class='trialDiv'><img src='Fruit/orange.png'><br><font class='baseline'><strong>Odds are Orange</strong><p>Choose number of points to bet.</font><div class='respPicDiv'><img src='img/responseButtonOffersNo0L.png' class='respPic'></div></div>","5","8","Odds are Orange","Fruit/orange.png","Lost","0.2,0.8","11","0.2","122","23","",""
"html-keyboard-response","77","122328","0.0-11.0-2.22","5fb7c9fa2be0a83d8f8913b8","bdp_rwlrn","Sun Mar 12 2023 21:08:23 GMT-0700 (PDT)","368783","Untrustworthy,Trustworthy","","null","","","","decisionFB","","<div class='trialDiv'><img src='Fruit/orange.png'><br><font class='baseline'><strong>Odds are Orange</strong><p>Choose number of points to bet.</font><div class='respPicDiv'><img src='img/responseButtonOffersNo0L5.png' class='respPic'></div></div>","null","8","Odds are Orange","Fruit/orange.png","Lost","0.2,0.8","11","0.2","117","23","",""
"html-keyboard-response","78","123331","0.0-11.0-3.22","5fb7c9fa2be0a83d8f8913b8","bdp_rwlrn","Sun Mar 12 2023 21:08:23 GMT-0700 (PDT)","368783","Untrustworthy,Trustworthy","","null","","","","feedback","","<div class='respPicDiv'><img src='img/responseButtonOffersNo0_wht.png' class='respPic'></div><div class='trialDiv'><img src='Fruit/orange.png'><br><font class='baseline'><strong>Odds are Orange</strong><p><strong><font class='negOutcome'>You LOST</font><p>You bet: 5</strong></font> &nbsp; &nbsp; &nbsp; &nbsp; &nbsp; &nbsp;<font class='negOutcome'>You receive: <strong>0</strong></font></div>","null","8","Odds are Orange","Fruit/orange.png","Lost","0.2,0.8","11","0.2","117","23","",""
"html-keyboard-response","79","123780","0.0-11.0-1.23","5fb7c9fa2be0a83d8f8913b8","bdp_rwlrn","Sun Mar 12 2023 21:08:23 GMT-0700 (PDT)","368783","Untrustworthy,Trustworthy","","448","","","","decision","","<div class='trialDiv'><img src='Fruit/melon.png'><br><font class='baseline'><strong>Melon Millions</strong><p>Choose number of points to bet.</font><div class='respPicDiv'><img src='img/responseButtonOffersNo0L.png' class='respPic'></div></div>","5","8","Melon Millions","Fruit/melon.png","Lost","0.35,0.8","12","0.35","122","24","",""
"html-keyboard-response","80","124032","0.0-11.0-2.23","5fb7c9fa2be0a83d8f8913b8","bdp_rwlrn","Sun Mar 12 2023 21:08:23 GMT-0700 (PDT)","368783","Untrustworthy,Trustworthy","","null","","","","decisionFB","","<div class='trialDiv'><img src='Fruit/melon.png'><br><font class='baseline'><strong>Melon Millions</strong><p>Choose number of points to bet.</font><div class='respPicDiv'><img src='img/responseButtonOffersNo0L5.png' class='respPic'></div></div>","null","8","Melon Millions","Fruit/melon.png","Lost","0.35,0.8","12","0.35","117","24","",""
"html-keyboard-response","81","125035","0.0-11.0-3.23","5fb7c9fa2be0a83d8f8913b8","bdp_rwlrn","Sun Mar 12 2023 21:08:23 GMT-0700 (PDT)","368783","Untrustworthy,Trustworthy","","null","","","","feedback","","<div class='respPicDiv'><img src='img/responseButtonOffersNo0_wht.png' class='respPic'></div><div class='trialDiv'><img src='Fruit/melon.png'><br><font class='baseline'><strong>Melon Millions</strong><p><strong><font class='negOutcome'>You LOST</font><p>You bet: 5</strong></font> &nbsp; &nbsp; &nbsp; &nbsp; &nbsp; &nbsp;<font class='negOutcome'>You receive: <strong>0</strong></font></div>","null","8","Melon Millions","Fruit/melon.png","Lost","0.35,0.8","12","0.35","117","24","",""
"html-keyboard-response","82","125633","0.0-11.0-1.24","5fb7c9fa2be0a83d8f8913b8","bdp_rwlrn","Sun Mar 12 2023 21:08:23 GMT-0700 (PDT)","368783","Untrustworthy,Trustworthy","","597","","","","decision","","<div class='trialDiv'><img src='Fruit/orange.png'><br><font class='baseline'><strong>Odds are Orange</strong><p>Choose number of points to bet.</font><div class='respPicDiv'><img src='img/responseButtonOffersNo0L.png' class='respPic'></div></div>","4","9","Odds are Orange","Fruit/orange.png","Lost","0.2,0.8","11","0.2","122","25","",""
"html-keyboard-response","83","125886","0.0-11.0-2.24","5fb7c9fa2be0a83d8f8913b8","bdp_rwlrn","Sun Mar 12 2023 21:08:23 GMT-0700 (PDT)","368783","Untrustworthy,Trustworthy","","null","","","","decisionFB","","<div class='trialDiv'><img src='Fruit/orange.png'><br><font class='baseline'><strong>Odds are Orange</strong><p>Choose number of points to bet.</font><div class='respPicDiv'><img src='img/responseButtonOffersNo0L4.png' class='respPic'></div></div>","null","9","Odds are Orange","Fruit/orange.png","Lost","0.2,0.8","11","0.2","118","25","",""
"html-keyboard-response","84","126888","0.0-11.0-3.24","5fb7c9fa2be0a83d8f8913b8","bdp_rwlrn","Sun Mar 12 2023 21:08:23 GMT-0700 (PDT)","368783","Untrustworthy,Trustworthy","","null","","","","feedback","","<div class='respPicDiv'><img src='img/responseButtonOffersNo0_wht.png' class='respPic'></div><div class='trialDiv'><img src='Fruit/orange.png'><br><font class='baseline'><strong>Odds are Orange</strong><p><strong><font class='negOutcome'>You LOST</font><p>You bet: 4</strong></font> &nbsp; &nbsp; &nbsp; &nbsp; &nbsp; &nbsp;<font class='negOutcome'>You receive: <strong>0</strong></font></div>","null","9","Odds are Orange","Fruit/orange.png","Lost","0.2,0.8","11","0.2","118","25","",""
"html-keyboard-response","85","128160","0.0-11.0-1.25","5fb7c9fa2be0a83d8f8913b8","bdp_rwlrn","Sun Mar 12 2023 21:08:23 GMT-0700 (PDT)","368783","Untrustworthy,Trustworthy","","1270","","","","decision","","<div class='trialDiv'><img src='Fruit/pears.png'><br><font class='baseline'><strong>Pears Aplenty</strong><p>Choose number of points to bet.</font><div class='respPicDiv'><img src='img/responseButtonOffersNo0L.png' class='respPic'></div></div>","3","9","Pears Aplenty","Fruit/pears.png","Won","0.8,0.35","12","0.8","123","26","",""
"html-keyboard-response","86","128411","0.0-11.0-2.25","5fb7c9fa2be0a83d8f8913b8","bdp_rwlrn","Sun Mar 12 2023 21:08:23 GMT-0700 (PDT)","368783","Untrustworthy,Trustworthy","","null","","","","decisionFB","","<div class='trialDiv'><img src='Fruit/pears.png'><br><font class='baseline'><strong>Pears Aplenty</strong><p>Choose number of points to bet.</font><div class='respPicDiv'><img src='img/responseButtonOffersNo0L3.png' class='respPic'></div></div>","null","9","Pears Aplenty","Fruit/pears.png","Won","0.8,0.35","12","0.8","120","26","",""
"html-keyboard-response","87","129414","0.0-11.0-3.25","5fb7c9fa2be0a83d8f8913b8","bdp_rwlrn","Sun Mar 12 2023 21:08:23 GMT-0700 (PDT)","368783","Untrustworthy,Trustworthy","","null","","","","feedback","","<div class='respPicDiv'><img src='img/responseButtonOffersNo0_wht.png' class='respPic'></div><div class='trialDiv'><img src='Fruit/pears.png'><br><font class='baseline'><strong>Pears Aplenty</strong><p><strong><font class='posOutcome'>You WON</font><p>You bet: 3</strong></font> &nbsp; &nbsp; &nbsp; &nbsp; &nbsp; &nbsp;<font class='posOutcome'>you receive: <strong>6</strong></font></div>","null","9","Pears Aplenty","Fruit/pears.png","Won","0.8,0.35","12","0.8","126","26","",""
"html-keyboard-response","88","130573","0.0-11.0-1.26","5fb7c9fa2be0a83d8f8913b8","bdp_rwlrn","Sun Mar 12 2023 21:08:23 GMT-0700 (PDT)","368783","Untrustworthy,Trustworthy","","1157","","","","decision","","<div class='trialDiv'><img src='Fruit/melon.png'><br><font class='baseline'><strong>Melon Millions</strong><p>Choose number of points to bet.</font><div class='respPicDiv'><img src='img/responseButtonOffersNo0L.png' class='respPic'></div></div>","2","9","Melon Millions","Fruit/melon.png","Lost","0.35,0.8","12","0.35","131","27","",""
"html-keyboard-response","89","130825","0.0-11.0-2.26","5fb7c9fa2be0a83d8f8913b8","bdp_rwlrn","Sun Mar 12 2023 21:08:23 GMT-0700 (PDT)","368783","Untrustworthy,Trustworthy","","null","","","","decisionFB","","<div class='trialDiv'><img src='Fruit/melon.png'><br><font class='baseline'><strong>Melon Millions</strong><p>Choose number of points to bet.</font><div class='respPicDiv'><img src='img/responseButtonOffersNo0L2.png' class='respPic'></div></div>","null","9","Melon Millions","Fruit/melon.png","Lost","0.35,0.8","12","0.35","129","27","",""
"html-keyboard-response","90","131828","0.0-11.0-3.26","5fb7c9fa2be0a83d8f8913b8","bdp_rwlrn","Sun Mar 12 2023 21:08:23 GMT-0700 (PDT)","368783","Untrustworthy,Trustworthy","","null","","","","feedback","","<div class='respPicDiv'><img src='img/responseButtonOffersNo0_wht.png' class='respPic'></div><div class='trialDiv'><img src='Fruit/melon.png'><br><font class='baseline'><strong>Melon Millions</strong><p><strong><font class='negOutcome'>You LOST</font><p>You bet: 2</strong></font> &nbsp; &nbsp; &nbsp; &nbsp; &nbsp; &nbsp;<font class='negOutcome'>You receive: <strong>0</strong></font></div>","null","9","Melon Millions","Fruit/melon.png","Lost","0.35,0.8","12","0.35","129","27","",""
"html-keyboard-response","91","132369","0.0-11.0-1.27","5fb7c9fa2be0a83d8f8913b8","bdp_rwlrn","Sun Mar 12 2023 21:08:23 GMT-0700 (PDT)","368783","Untrustworthy,Trustworthy","","539","","","","decision","","<div class='trialDiv'><img src='Fruit/orange.png'><br><font class='baseline'><strong>Odds are Orange</strong><p>Choose number of points to bet.</font><div class='respPicDiv'><img src='img/responseButtonOffersNo0L.png' class='respPic'></div></div>","1","10","Odds are Orange","Fruit/orange.png","Lost","0.2,0.8","11","0.2","134","28","",""
"html-keyboard-response","92","132621","0.0-11.0-2.27","5fb7c9fa2be0a83d8f8913b8","bdp_rwlrn","Sun Mar 12 2023 21:08:23 GMT-0700 (PDT)","368783","Untrustworthy,Trustworthy","","null","","","","decisionFB","","<div class='trialDiv'><img src='Fruit/orange.png'><br><font class='baseline'><strong>Odds are Orange</strong><p>Choose number of points to bet.</font><div class='respPicDiv'><img src='img/responseButtonOffersNo0L1.png' class='respPic'></div></div>","null","10","Odds are Orange","Fruit/orange.png","Lost","0.2,0.8","11","0.2","133","28","",""
"html-keyboard-response","93","133623","0.0-11.0-3.27","5fb7c9fa2be0a83d8f8913b8","bdp_rwlrn","Sun Mar 12 2023 21:08:23 GMT-0700 (PDT)","368783","Untrustworthy,Trustworthy","","null","","","","feedback","","<div class='respPicDiv'><img src='img/responseButtonOffersNo0_wht.png' class='respPic'></div><div class='trialDiv'><img src='Fruit/orange.png'><br><font class='baseline'><strong>Odds are Orange</strong><p><strong><font class='negOutcome'>You LOST</font><p>You bet: 1</strong></font> &nbsp; &nbsp; &nbsp; &nbsp; &nbsp; &nbsp;<font class='negOutcome'>You receive: <strong>0</strong></font></div>","null","10","Odds are Orange","Fruit/orange.png","Lost","0.2,0.8","11","0.2","133","28","",""
"html-keyboard-response","94","134382","0.0-11.0-1.28","5fb7c9fa2be0a83d8f8913b8","bdp_rwlrn","Sun Mar 12 2023 21:08:23 GMT-0700 (PDT)","368783","Untrustworthy,Trustworthy","","758","","","","decision","","<div class='trialDiv'><img src='Fruit/melon.png'><br><font class='baseline'><strong>Melon Millions</strong><p>Choose number of points to bet.</font><div class='respPicDiv'><img src='img/responseButtonOffersNo0L.png' class='respPic'></div></div>","4","10","Melon Millions","Fruit/melon.png","Won","0.35,0.8","12","0.35","138","29","",""
"html-keyboard-response","95","134633","0.0-11.0-2.28","5fb7c9fa2be0a83d8f8913b8","bdp_rwlrn","Sun Mar 12 2023 21:08:23 GMT-0700 (PDT)","368783","Untrustworthy,Trustworthy","","null","","","","decisionFB","","<div class='trialDiv'><img src='Fruit/melon.png'><br><font class='baseline'><strong>Melon Millions</strong><p>Choose number of points to bet.</font><div class='respPicDiv'><img src='img/responseButtonOffersNo0L4.png' class='respPic'></div></div>","null","10","Melon Millions","Fruit/melon.png","Won","0.35,0.8","12","0.35","134","29","",""
"html-keyboard-response","96","135637","0.0-11.0-3.28","5fb7c9fa2be0a83d8f8913b8","bdp_rwlrn","Sun Mar 12 2023 21:08:23 GMT-0700 (PDT)","368783","Untrustworthy,Trustworthy","","null","","","","feedback","","<div class='respPicDiv'><img src='img/responseButtonOffersNo0_wht.png' class='respPic'></div><div class='trialDiv'><img src='Fruit/melon.png'><br><font class='baseline'><strong>Melon Millions</strong><p><strong><font class='posOutcome'>You WON</font><p>You bet: 4</strong></font> &nbsp; &nbsp; &nbsp; &nbsp; &nbsp; &nbsp;<font class='posOutcome'>you receive: <strong>8</strong></font></div>","null","10","Melon Millions","Fruit/melon.png","Won","0.35,0.8","12","0.35","142","29","",""
"html-keyboard-response","97","136509","0.0-11.0-1.29","5fb7c9fa2be0a83d8f8913b8","bdp_rwlrn","Sun Mar 12 2023 21:08:23 GMT-0700 (PDT)","368783","Untrustworthy,Trustworthy","","869","","","","decision","","<div class='trialDiv'><img src='Fruit/pears.png'><br><font class='baseline'><strong>Pears Aplenty</strong><p>Choose number of points to bet.</font><div class='respPicDiv'><img src='img/responseButtonOffersNo0L.png' class='respPic'></div></div>","5","10","Pears Aplenty","Fruit/pears.png","Won","0.8,0.35","12","0.8","147","30","",""
"html-keyboard-response","98","136761","0.0-11.0-2.29","5fb7c9fa2be0a83d8f8913b8","bdp_rwlrn","Sun Mar 12 2023 21:08:23 GMT-0700 (PDT)","368783","Untrustworthy,Trustworthy","","null","","","","decisionFB","","<div class='trialDiv'><img src='Fruit/pears.png'><br><font class='baseline'><strong>Pears Aplenty</strong><p>Choose number of points to bet.</font><div class='respPicDiv'><img src='img/responseButtonOffersNo0L5.png' class='respPic'></div></div>","null","10","Pears Aplenty","Fruit/pears.png","Won","0.8,0.35","12","0.8","142","30","",""
"html-keyboard-response","99","137764","0.0-11.0-3.29","5fb7c9fa2be0a83d8f8913b8","bdp_rwlrn","Sun Mar 12 2023 21:08:23 GMT-0700 (PDT)","368783","Untrustworthy,Trustworthy","","null","","","","feedback","","<div class='respPicDiv'><img src='img/responseButtonOffersNo0_wht.png' class='respPic'></div><div class='trialDiv'><img src='Fruit/pears.png'><br><font class='baseline'><strong>Pears Aplenty</strong><p><strong><font class='posOutcome'>You WON</font><p>You bet: 5</strong></font> &nbsp; &nbsp; &nbsp; &nbsp; &nbsp; &nbsp;<font class='posOutcome'>you receive: <strong>10</strong></font></div>","null","10","Pears Aplenty","Fruit/pears.png","Won","0.8,0.35","12","0.8","152","30","",""
"html-keyboard-response","100","138641","0.0-11.0-1.30","5fb7c9fa2be0a83d8f8913b8","bdp_rwlrn","Sun Mar 12 2023 21:08:23 GMT-0700 (PDT)","368783","Untrustworthy,Trustworthy","","875","","","","decision","","<div class='trialDiv'><img src='Fruit/orange.png'><br><font class='baseline'><strong>Odds are Orange</strong><p>Choose number of points to bet.</font><div class='respPicDiv'><img src='img/responseButtonOffersNo0L.png' class='respPic'></div></div>","3","11","Odds are Orange","Fruit/orange.png","Won","0.2,0.8","11","0.2","157","31","",""
"html-keyboard-response","101","138893","0.0-11.0-2.30","5fb7c9fa2be0a83d8f8913b8","bdp_rwlrn","Sun Mar 12 2023 21:08:23 GMT-0700 (PDT)","368783","Untrustworthy,Trustworthy","","null","","","","decisionFB","","<div class='trialDiv'><img src='Fruit/orange.png'><br><font class='baseline'><strong>Odds are Orange</strong><p>Choose number of points to bet.</font><div class='respPicDiv'><img src='img/responseButtonOffersNo0L3.png' class='respPic'></div></div>","null","11","Odds are Orange","Fruit/orange.png","Won","0.2,0.8","11","0.2","154","31","",""
"html-keyboard-response","102","139894","0.0-11.0-3.30","5fb7c9fa2be0a83d8f8913b8","bdp_rwlrn","Sun Mar 12 2023 21:08:23 GMT-0700 (PDT)","368783","Untrustworthy,Trustworthy","","null","","","","feedback","","<div class='respPicDiv'><img src='img/responseButtonOffersNo0_wht.png' class='respPic'></div><div class='trialDiv'><img src='Fruit/orange.png'><br><font class='baseline'><strong>Odds are Orange</strong><p><strong><font class='posOutcome'>You WON</font><p>You bet: 3</strong></font> &nbsp; &nbsp; &nbsp; &nbsp; &nbsp; &nbsp;<font class='posOutcome'>you receive: <strong>6</strong></font></div>","null","11","Odds are Orange","Fruit/orange.png","Won","0.2,0.8","11","0.2","160","31","",""
"html-keyboard-response","103","140459","0.0-11.0-1.31","5fb7c9fa2be0a83d8f8913b8","bdp_rwlrn","Sun Mar 12 2023 21:08:23 GMT-0700 (PDT)","368783","Untrustworthy,Trustworthy","","563","","","","decision","","<div class='trialDiv'><img src='Fruit/melon.png'><br><font class='baseline'><strong>Melon Millions</strong><p>Choose number of points to bet.</font><div class='respPicDiv'><img src='img/responseButtonOffersNo0L.png' class='respPic'></div></div>","1","11","Melon Millions","Fruit/melon.png","Lost","0.35,0.8","12","0.35","165","32","",""
"html-keyboard-response","104","140710","0.0-11.0-2.31","5fb7c9fa2be0a83d8f8913b8","bdp_rwlrn","Sun Mar 12 2023 21:08:23 GMT-0700 (PDT)","368783","Untrustworthy,Trustworthy","","null","","","","decisionFB","","<div class='trialDiv'><img src='Fruit/melon.png'><br><font class='baseline'><strong>Melon Millions</strong><p>Choose number of points to bet.</font><div class='respPicDiv'><img src='img/responseButtonOffersNo0L1.png' class='respPic'></div></div>","null","11","Melon Millions","Fruit/melon.png","Lost","0.35,0.8","12","0.35","164","32","",""
"html-keyboard-response","105","141712","0.0-11.0-3.31","5fb7c9fa2be0a83d8f8913b8","bdp_rwlrn","Sun Mar 12 2023 21:08:23 GMT-0700 (PDT)","368783","Untrustworthy,Trustworthy","","null","","","","feedback","","<div class='respPicDiv'><img src='img/responseButtonOffersNo0_wht.png' class='respPic'></div><div class='trialDiv'><img src='Fruit/melon.png'><br><font class='baseline'><strong>Melon Millions</strong><p><strong><font class='negOutcome'>You LOST</font><p>You bet: 1</strong></font> &nbsp; &nbsp; &nbsp; &nbsp; &nbsp; &nbsp;<font class='negOutcome'>You receive: <strong>0</strong></font></div>","null","11","Melon Millions","Fruit/melon.png","Lost","0.35,0.8","12","0.35","164","32","",""
"html-keyboard-response","106","142404","0.0-11.0-1.32","5fb7c9fa2be0a83d8f8913b8","bdp_rwlrn","Sun Mar 12 2023 21:08:23 GMT-0700 (PDT)","368783","Untrustworthy,Trustworthy","","690","","","","decision","","<div class='trialDiv'><img src='Fruit/pears.png'><br><font class='baseline'><strong>Pears Aplenty</strong><p>Choose number of points to bet.</font><div class='respPicDiv'><img src='img/responseButtonOffersNo0L.png' class='respPic'></div></div>","1","11","Pears Aplenty","Fruit/pears.png","Won","0.8,0.35","12","0.8","169","33","",""
"html-keyboard-response","107","142655","0.0-11.0-2.32","5fb7c9fa2be0a83d8f8913b8","bdp_rwlrn","Sun Mar 12 2023 21:08:23 GMT-0700 (PDT)","368783","Untrustworthy,Trustworthy","","null","","","","decisionFB","","<div class='trialDiv'><img src='Fruit/pears.png'><br><font class='baseline'><strong>Pears Aplenty</strong><p>Choose number of points to bet.</font><div class='respPicDiv'><img src='img/responseButtonOffersNo0L1.png' class='respPic'></div></div>","null","11","Pears Aplenty","Fruit/pears.png","Won","0.8,0.35","12","0.8","168","33","",""
"html-keyboard-response","108","143657","0.0-11.0-3.32","5fb7c9fa2be0a83d8f8913b8","bdp_rwlrn","Sun Mar 12 2023 21:08:23 GMT-0700 (PDT)","368783","Untrustworthy,Trustworthy","","null","","","","feedback","","<div class='respPicDiv'><img src='img/responseButtonOffersNo0_wht.png' class='respPic'></div><div class='trialDiv'><img src='Fruit/pears.png'><br><font class='baseline'><strong>Pears Aplenty</strong><p><strong><font class='posOutcome'>You WON</font><p>You bet: 1</strong></font> &nbsp; &nbsp; &nbsp; &nbsp; &nbsp; &nbsp;<font class='posOutcome'>you receive: <strong>2</strong></font></div>","null","11","Pears Aplenty","Fruit/pears.png","Won","0.8,0.35","12","0.8","170","33","",""
"html-keyboard-response","109","144443","0.0-11.0-1.33","5fb7c9fa2be0a83d8f8913b8","bdp_rwlrn","Sun Mar 12 2023 21:08:23 GMT-0700 (PDT)","368783","Untrustworthy,Trustworthy","","785","","","","decision","","<div class='trialDiv'><img src='Fruit/orange.png'><br><font class='baseline'><strong>Odds are Orange</strong><p>Choose number of points to bet.</font><div class='respPicDiv'><img src='img/responseButtonOffersNo0L.png' class='respPic'></div></div>","1","12","Odds are Orange","Fruit/orange.png","Lost","0.2,0.8","11","0.2","175","34","",""
"html-keyboard-response","110","144696","0.0-11.0-2.33","5fb7c9fa2be0a83d8f8913b8","bdp_rwlrn","Sun Mar 12 2023 21:08:23 GMT-0700 (PDT)","368783","Untrustworthy,Trustworthy","","null","","","","decisionFB","","<div class='trialDiv'><img src='Fruit/orange.png'><br><font class='baseline'><strong>Odds are Orange</strong><p>Choose number of points to bet.</font><div class='respPicDiv'><img src='img/responseButtonOffersNo0L1.png' class='respPic'></div></div>","null","12","Odds are Orange","Fruit/orange.png","Lost","0.2,0.8","11","0.2","174","34","",""
"html-keyboard-response","111","145699","0.0-11.0-3.33","5fb7c9fa2be0a83d8f8913b8","bdp_rwlrn","Sun Mar 12 2023 21:08:23 GMT-0700 (PDT)","368783","Untrustworthy,Trustworthy","","null","","","","feedback","","<div class='respPicDiv'><img src='img/responseButtonOffersNo0_wht.png' class='respPic'></div><div class='trialDiv'><img src='Fruit/orange.png'><br><font class='baseline'><strong>Odds are Orange</strong><p><strong><font class='negOutcome'>You LOST</font><p>You bet: 1</strong></font> &nbsp; &nbsp; &nbsp; &nbsp; &nbsp; &nbsp;<font class='negOutcome'>You receive: <strong>0</strong></font></div>","null","12","Odds are Orange","Fruit/orange.png","Lost","0.2,0.8","11","0.2","174","34","",""
"html-keyboard-response","112","146890","0.0-11.0-1.34","5fb7c9fa2be0a83d8f8913b8","bdp_rwlrn","Sun Mar 12 2023 21:08:23 GMT-0700 (PDT)","368783","Untrustworthy,Trustworthy","","1190","","","","decision","","<div class='trialDiv'><img src='Fruit/pears.png'><br><font class='baseline'><strong>Pears Aplenty</strong><p>Choose number of points to bet.</font><div class='respPicDiv'><img src='img/responseButtonOffersNo0L.png' class='respPic'></div></div>","2","12","Pears Aplenty","Fruit/pears.png","Won","0.8,0.35","12","0.8","179","35","",""
"html-keyboard-response","113","147144","0.0-11.0-2.34","5fb7c9fa2be0a83d8f8913b8","bdp_rwlrn","Sun Mar 12 2023 21:08:23 GMT-0700 (PDT)","368783","Untrustworthy,Trustworthy","","null","","","","decisionFB","","<div class='trialDiv'><img src='Fruit/pears.png'><br><font class='baseline'><strong>Pears Aplenty</strong><p>Choose number of points to bet.</font><div class='respPicDiv'><img src='img/responseButtonOffersNo0L2.png' class='respPic'></div></div>","null","12","Pears Aplenty","Fruit/pears.png","Won","0.8,0.35","12","0.8","177","35","",""
"html-keyboard-response","114","148147","0.0-11.0-3.34","5fb7c9fa2be0a83d8f8913b8","bdp_rwlrn","Sun Mar 12 2023 21:08:23 GMT-0700 (PDT)","368783","Untrustworthy,Trustworthy","","null","","","","feedback","","<div class='respPicDiv'><img src='img/responseButtonOffersNo0_wht.png' class='respPic'></div><div class='trialDiv'><img src='Fruit/pears.png'><br><font class='baseline'><strong>Pears Aplenty</strong><p><strong><font class='posOutcome'>You WON</font><p>You bet: 2</strong></font> &nbsp; &nbsp; &nbsp; &nbsp; &nbsp; &nbsp;<font class='posOutcome'>you receive: <strong>4</strong></font></div>","null","12","Pears Aplenty","Fruit/pears.png","Won","0.8,0.35","12","0.8","181","35","",""
"html-keyboard-response","115","149082","0.0-11.0-1.35","5fb7c9fa2be0a83d8f8913b8","bdp_rwlrn","Sun Mar 12 2023 21:08:23 GMT-0700 (PDT)","368783","Untrustworthy,Trustworthy","","934","","","","decision","","<div class='trialDiv'><img src='Fruit/melon.png'><br><font class='baseline'><strong>Melon Millions</strong><p>Choose number of points to bet.</font><div class='respPicDiv'><img src='img/responseButtonOffersNo0L.png' class='respPic'></div></div>","1","12","Melon Millions","Fruit/melon.png","Won","0.35,0.8","12","0.35","186","36","",""
"html-keyboard-response","116","149335","0.0-11.0-2.35","5fb7c9fa2be0a83d8f8913b8","bdp_rwlrn","Sun Mar 12 2023 21:08:23 GMT-0700 (PDT)","368783","Untrustworthy,Trustworthy","","null","","","","decisionFB","","<div class='trialDiv'><img src='Fruit/melon.png'><br><font class='baseline'><strong>Melon Millions</strong><p>Choose number of points to bet.</font><div class='respPicDiv'><img src='img/responseButtonOffersNo0L1.png' class='respPic'></div></div>","null","12","Melon Millions","Fruit/melon.png","Won","0.35,0.8","12","0.35","185","36","",""
"html-keyboard-response","117","150338","0.0-11.0-3.35","5fb7c9fa2be0a83d8f8913b8","bdp_rwlrn","Sun Mar 12 2023 21:08:23 GMT-0700 (PDT)","368783","Untrustworthy,Trustworthy","","null","","","","feedback","","<div class='respPicDiv'><img src='img/responseButtonOffersNo0_wht.png' class='respPic'></div><div class='trialDiv'><img src='Fruit/melon.png'><br><font class='baseline'><strong>Melon Millions</strong><p><strong><font class='posOutcome'>You WON</font><p>You bet: 1</strong></font> &nbsp; &nbsp; &nbsp; &nbsp; &nbsp; &nbsp;<font class='posOutcome'>you receive: <strong>2</strong></font></div>","null","12","Melon Millions","Fruit/melon.png","Won","0.35,0.8","12","0.35","187","36","",""
"html-keyboard-response","118","150794","0.0-11.0-1.36","5fb7c9fa2be0a83d8f8913b8","bdp_rwlrn","Sun Mar 12 2023 21:08:23 GMT-0700 (PDT)","368783","Untrustworthy,Trustworthy","","456","","","","decision","","<div class='trialDiv'><img src='Fruit/orange.png'><br><font class='baseline'><strong>Odds are Orange</strong><p>Choose number of points to bet.</font><div class='respPicDiv'><img src='img/responseButtonOffersNo0L.png' class='respPic'></div></div>","5","13","Odds are Orange","Fruit/orange.png","Won","0.2,0.8","11","0.2","192","37","",""
"html-keyboard-response","119","151047","0.0-11.0-2.36","5fb7c9fa2be0a83d8f8913b8","bdp_rwlrn","Sun Mar 12 2023 21:08:23 GMT-0700 (PDT)","368783","Untrustworthy,Trustworthy","","null","","","","decisionFB","","<div class='trialDiv'><img src='Fruit/orange.png'><br><font class='baseline'><strong>Odds are Orange</strong><p>Choose number of points to bet.</font><div class='respPicDiv'><img src='img/responseButtonOffersNo0L5.png' class='respPic'></div></div>","null","13","Odds are Orange","Fruit/orange.png","Won","0.2,0.8","11","0.2","187","37","",""
"html-keyboard-response","120","152049","0.0-11.0-3.36","5fb7c9fa2be0a83d8f8913b8","bdp_rwlrn","Sun Mar 12 2023 21:08:23 GMT-0700 (PDT)","368783","Untrustworthy,Trustworthy","","null","","","","feedback","","<div class='respPicDiv'><img src='img/responseButtonOffersNo0_wht.png' class='respPic'></div><div class='trialDiv'><img src='Fruit/orange.png'><br><font class='baseline'><strong>Odds are Orange</strong><p><strong><font class='posOutcome'>You WON</font><p>You bet: 5</strong></font> &nbsp; &nbsp; &nbsp; &nbsp; &nbsp; &nbsp;<font class='posOutcome'>you receive: <strong>10</strong></font></div>","null","13","Odds are Orange","Fruit/orange.png","Won","0.2,0.8","11","0.2","197","37","",""
"html-keyboard-response","121","153012","0.0-11.0-1.37","5fb7c9fa2be0a83d8f8913b8","bdp_rwlrn","Sun Mar 12 2023 21:08:23 GMT-0700 (PDT)","368783","Untrustworthy,Trustworthy","","961","","","","decision","","<div class='trialDiv'><img src='Fruit/pears.png'><br><font class='baseline'><strong>Pears Aplenty</strong><p>Choose number of points to bet.</font><div class='respPicDiv'><img src='img/responseButtonOffersNo0L.png' class='respPic'></div></div>","1","13","Pears Aplenty","Fruit/pears.png","Lost","0.8,0.35","12","0.8","202","38","",""
"html-keyboard-response","122","153266","0.0-11.0-2.37","5fb7c9fa2be0a83d8f8913b8","bdp_rwlrn","Sun Mar 12 2023 21:08:23 GMT-0700 (PDT)","368783","Untrustworthy,Trustworthy","","null","","","","decisionFB","","<div class='trialDiv'><img src='Fruit/pears.png'><br><font class='baseline'><strong>Pears Aplenty</strong><p>Choose number of points to bet.</font><div class='respPicDiv'><img src='img/responseButtonOffersNo0L1.png' class='respPic'></div></div>","null","13","Pears Aplenty","Fruit/pears.png","Lost","0.8,0.35","12","0.8","201","38","",""
"html-keyboard-response","123","154269","0.0-11.0-3.37","5fb7c9fa2be0a83d8f8913b8","bdp_rwlrn","Sun Mar 12 2023 21:08:23 GMT-0700 (PDT)","368783","Untrustworthy,Trustworthy","","null","","","","feedback","","<div class='respPicDiv'><img src='img/responseButtonOffersNo0_wht.png' class='respPic'></div><div class='trialDiv'><img src='Fruit/pears.png'><br><font class='baseline'><strong>Pears Aplenty</strong><p><strong><font class='negOutcome'>You LOST</font><p>You bet: 1</strong></font> &nbsp; &nbsp; &nbsp; &nbsp; &nbsp; &nbsp;<font class='negOutcome'>You receive: <strong>0</strong></font></div>","null","13","Pears Aplenty","Fruit/pears.png","Lost","0.8,0.35","12","0.8","201","38","",""
"html-keyboard-response","124","155212","0.0-11.0-1.38","5fb7c9fa2be0a83d8f8913b8","bdp_rwlrn","Sun Mar 12 2023 21:08:23 GMT-0700 (PDT)","368783","Untrustworthy,Trustworthy","","941","","","","decision","","<div class='trialDiv'><img src='Fruit/melon.png'><br><font class='baseline'><strong>Melon Millions</strong><p>Choose number of points to bet.</font><div class='respPicDiv'><img src='img/responseButtonOffersNo0L.png' class='respPic'></div></div>","1","13","Melon Millions","Fruit/melon.png","Won","0.35,0.8","12","0.35","206","39","",""
"html-keyboard-response","125","155464","0.0-11.0-2.38","5fb7c9fa2be0a83d8f8913b8","bdp_rwlrn","Sun Mar 12 2023 21:08:23 GMT-0700 (PDT)","368783","Untrustworthy,Trustworthy","","null","","","","decisionFB","","<div class='trialDiv'><img src='Fruit/melon.png'><br><font class='baseline'><strong>Melon Millions</strong><p>Choose number of points to bet.</font><div class='respPicDiv'><img src='img/responseButtonOffersNo0L1.png' class='respPic'></div></div>","null","13","Melon Millions","Fruit/melon.png","Won","0.35,0.8","12","0.35","205","39","",""
"html-keyboard-response","126","156467","0.0-11.0-3.38","5fb7c9fa2be0a83d8f8913b8","bdp_rwlrn","Sun Mar 12 2023 21:08:23 GMT-0700 (PDT)","368783","Untrustworthy,Trustworthy","","null","","","","feedback","","<div class='respPicDiv'><img src='img/responseButtonOffersNo0_wht.png' class='respPic'></div><div class='trialDiv'><img src='Fruit/melon.png'><br><font class='baseline'><strong>Melon Millions</strong><p><strong><font class='posOutcome'>You WON</font><p>You bet: 1</strong></font> &nbsp; &nbsp; &nbsp; &nbsp; &nbsp; &nbsp;<font class='posOutcome'>you receive: <strong>2</strong></font></div>","null","13","Melon Millions","Fruit/melon.png","Won","0.35,0.8","12","0.35","207","39","",""
"html-keyboard-response","127","157444","0.0-11.0-1.39","5fb7c9fa2be0a83d8f8913b8","bdp_rwlrn","Sun Mar 12 2023 21:08:23 GMT-0700 (PDT)","368783","Untrustworthy,Trustworthy","","975","","","","decision","","<div class='trialDiv'><img src='Fruit/pears.png'><br><font class='baseline'><strong>Pears Aplenty</strong><p>Choose number of points to bet.</font><div class='respPicDiv'><img src='img/responseButtonOffersNo0L.png' class='respPic'></div></div>","1","14","Pears Aplenty","Fruit/pears.png","Won","0.8,0.35","12","0.8","212","40","",""
"html-keyboard-response","128","157696","0.0-11.0-2.39","5fb7c9fa2be0a83d8f8913b8","bdp_rwlrn","Sun Mar 12 2023 21:08:23 GMT-0700 (PDT)","368783","Untrustworthy,Trustworthy","","null","","","","decisionFB","","<div class='trialDiv'><img src='Fruit/pears.png'><br><font class='baseline'><strong>Pears Aplenty</strong><p>Choose number of points to bet.</font><div class='respPicDiv'><img src='img/responseButtonOffersNo0L1.png' class='respPic'></div></div>","null","14","Pears Aplenty","Fruit/pears.png","Won","0.8,0.35","12","0.8","211","40","",""
"html-keyboard-response","129","158699","0.0-11.0-3.39","5fb7c9fa2be0a83d8f8913b8","bdp_rwlrn","Sun Mar 12 2023 21:08:23 GMT-0700 (PDT)","368783","Untrustworthy,Trustworthy","","null","","","","feedback","","<div class='respPicDiv'><img src='img/responseButtonOffersNo0_wht.png' class='respPic'></div><div class='trialDiv'><img src='Fruit/pears.png'><br><font class='baseline'><strong>Pears Aplenty</strong><p><strong><font class='posOutcome'>You WON</font><p>You bet: 1</strong></font> &nbsp; &nbsp; &nbsp; &nbsp; &nbsp; &nbsp;<font class='posOutcome'>you receive: <strong>2</strong></font></div>","null","14","Pears Aplenty","Fruit/pears.png","Won","0.8,0.35","12","0.8","213","40","",""
"html-keyboard-response","130","159300","0.0-11.0-1.40","5fb7c9fa2be0a83d8f8913b8","bdp_rwlrn","Sun Mar 12 2023 21:08:23 GMT-0700 (PDT)","368783","Untrustworthy,Trustworthy","","600","","","","decision","","<div class='trialDiv'><img src='Fruit/melon.png'><br><font class='baseline'><strong>Melon Millions</strong><p>Choose number of points to bet.</font><div class='respPicDiv'><img src='img/responseButtonOffersNo0L.png' class='respPic'></div></div>","4","14","Melon Millions","Fruit/melon.png","Won","0.35,0.8","12","0.35","218","41","",""
"html-keyboard-response","131","159552","0.0-11.0-2.40","5fb7c9fa2be0a83d8f8913b8","bdp_rwlrn","Sun Mar 12 2023 21:08:23 GMT-0700 (PDT)","368783","Untrustworthy,Trustworthy","","null","","","","decisionFB","","<div class='trialDiv'><img src='Fruit/melon.png'><br><font class='baseline'><strong>Melon Millions</strong><p>Choose number of points to bet.</font><div class='respPicDiv'><img src='img/responseButtonOffersNo0L4.png' class='respPic'></div></div>","null","14","Melon Millions","Fruit/melon.png","Won","0.35,0.8","12","0.35","214","41","",""
"html-keyboard-response","132","160555","0.0-11.0-3.40","5fb7c9fa2be0a83d8f8913b8","bdp_rwlrn","Sun Mar 12 2023 21:08:23 GMT-0700 (PDT)","368783","Untrustworthy,Trustworthy","","null","","","","feedback","","<div class='respPicDiv'><img src='img/responseButtonOffersNo0_wht.png' class='respPic'></div><div class='trialDiv'><img src='Fruit/melon.png'><br><font class='baseline'><strong>Melon Millions</strong><p><strong><font class='posOutcome'>You WON</font><p>You bet: 4</strong></font> &nbsp; &nbsp; &nbsp; &nbsp; &nbsp; &nbsp;<font class='posOutcome'>you receive: <strong>8</strong></font></div>","null","14","Melon Millions","Fruit/melon.png","Won","0.35,0.8","12","0.35","222","41","",""
"html-keyboard-response","133","160998","0.0-11.0-1.41","5fb7c9fa2be0a83d8f8913b8","bdp_rwlrn","Sun Mar 12 2023 21:08:23 GMT-0700 (PDT)","368783","Untrustworthy,Trustworthy","","442","","","","decision","","<div class='trialDiv'><img src='Fruit/orange.png'><br><font class='baseline'><strong>Odds are Orange</strong><p>Choose number of points to bet.</font><div class='respPicDiv'><img src='img/responseButtonOffersNo0L.png' class='respPic'></div></div>","5","14","Odds are Orange","Fruit/orange.png","Won","0.2,0.8","11","0.2","227","42","",""
"html-keyboard-response","134","161251","0.0-11.0-2.41","5fb7c9fa2be0a83d8f8913b8","bdp_rwlrn","Sun Mar 12 2023 21:08:23 GMT-0700 (PDT)","368783","Untrustworthy,Trustworthy","","null","","","","decisionFB","","<div class='trialDiv'><img src='Fruit/orange.png'><br><font class='baseline'><strong>Odds are Orange</strong><p>Choose number of points to bet.</font><div class='respPicDiv'><img src='img/responseButtonOffersNo0L5.png' class='respPic'></div></div>","null","14","Odds are Orange","Fruit/orange.png","Won","0.2,0.8","11","0.2","222","42","",""
"html-keyboard-response","135","162253","0.0-11.0-3.41","5fb7c9fa2be0a83d8f8913b8","bdp_rwlrn","Sun Mar 12 2023 21:08:23 GMT-0700 (PDT)","368783","Untrustworthy,Trustworthy","","null","","","","feedback","","<div class='respPicDiv'><img src='img/responseButtonOffersNo0_wht.png' class='respPic'></div><div class='trialDiv'><img src='Fruit/orange.png'><br><font class='baseline'><strong>Odds are Orange</strong><p><strong><font class='posOutcome'>You WON</font><p>You bet: 5</strong></font> &nbsp; &nbsp; &nbsp; &nbsp; &nbsp; &nbsp;<font class='posOutcome'>you receive: <strong>10</strong></font></div>","null","14","Odds are Orange","Fruit/orange.png","Won","0.2,0.8","11","0.2","232","42","",""
"html-keyboard-response","136","163399","0.0-11.0-1.42","5fb7c9fa2be0a83d8f8913b8","bdp_rwlrn","Sun Mar 12 2023 21:08:23 GMT-0700 (PDT)","368783","Untrustworthy,Trustworthy","","1142","","","","decision","","<div class='trialDiv'><img src='Fruit/melon.png'><br><font class='baseline'><strong>Melon Millions</strong><p>Choose number of points to bet.</font><div class='respPicDiv'><img src='img/responseButtonOffersNo0L.png' class='respPic'></div></div>","3","15","Melon Millions","Fruit/melon.png","Won","0.35,0.8","12","0.35","237","43","",""
"html-keyboard-response","137","163651","0.0-11.0-2.42","5fb7c9fa2be0a83d8f8913b8","bdp_rwlrn","Sun Mar 12 2023 21:08:23 GMT-0700 (PDT)","368783","Untrustworthy,Trustworthy","","null","","","","decisionFB","","<div class='trialDiv'><img src='Fruit/melon.png'><br><font class='baseline'><strong>Melon Millions</strong><p>Choose number of points to bet.</font><div class='respPicDiv'><img src='img/responseButtonOffersNo0L3.png' class='respPic'></div></div>","null","15","Melon Millions","Fruit/melon.png","Won","0.35,0.8","12","0.35","234","43","",""
"html-keyboard-response","138","164653","0.0-11.0-3.42","5fb7c9fa2be0a83d8f8913b8","bdp_rwlrn","Sun Mar 12 2023 21:08:23 GMT-0700 (PDT)","368783","Untrustworthy,Trustworthy","","null","","","","feedback","","<div class='respPicDiv'><img src='img/responseButtonOffersNo0_wht.png' class='respPic'></div><div class='trialDiv'><img src='Fruit/melon.png'><br><font class='baseline'><strong>Melon Millions</strong><p><strong><font class='posOutcome'>You WON</font><p>You bet: 3</strong></font> &nbsp; &nbsp; &nbsp; &nbsp; &nbsp; &nbsp;<font class='posOutcome'>you receive: <strong>6</strong></font></div>","null","15","Melon Millions","Fruit/melon.png","Won","0.35,0.8","12","0.35","240","43","",""
"html-keyboard-response","139","165138","0.0-11.0-1.43","5fb7c9fa2be0a83d8f8913b8","bdp_rwlrn","Sun Mar 12 2023 21:08:23 GMT-0700 (PDT)","368783","Untrustworthy,Trustworthy","","483","","","","decision","","<div class='trialDiv'><img src='Fruit/orange.png'><br><font class='baseline'><strong>Odds are Orange</strong><p>Choose number of points to bet.</font><div class='respPicDiv'><img src='img/responseButtonOffersNo0L.png' class='respPic'></div></div>","2","15","Odds are Orange","Fruit/orange.png","Won","0.2,0.8","11","0.2","245","44","",""
"html-keyboard-response","140","165390","0.0-11.0-2.43","5fb7c9fa2be0a83d8f8913b8","bdp_rwlrn","Sun Mar 12 2023 21:08:23 GMT-0700 (PDT)","368783","Untrustworthy,Trustworthy","","null","","","","decisionFB","","<div class='trialDiv'><img src='Fruit/orange.png'><br><font class='baseline'><strong>Odds are Orange</strong><p>Choose number of points to bet.</font><div class='respPicDiv'><img src='img/responseButtonOffersNo0L2.png' class='respPic'></div></div>","null","15","Odds are Orange","Fruit/orange.png","Won","0.2,0.8","11","0.2","243","44","",""
"html-keyboard-response","141","166393","0.0-11.0-3.43","5fb7c9fa2be0a83d8f8913b8","bdp_rwlrn","Sun Mar 12 2023 21:08:23 GMT-0700 (PDT)","368783","Untrustworthy,Trustworthy","","null","","","","feedback","","<div class='respPicDiv'><img src='img/responseButtonOffersNo0_wht.png' class='respPic'></div><div class='trialDiv'><img src='Fruit/orange.png'><br><font class='baseline'><strong>Odds are Orange</strong><p><strong><font class='posOutcome'>You WON</font><p>You bet: 2</strong></font> &nbsp; &nbsp; &nbsp; &nbsp; &nbsp; &nbsp;<font class='posOutcome'>you receive: <strong>4</strong></font></div>","null","15","Odds are Orange","Fruit/orange.png","Won","0.2,0.8","11","0.2","247","44","",""
"html-keyboard-response","142","166830","0.0-11.0-1.44","5fb7c9fa2be0a83d8f8913b8","bdp_rwlrn","Sun Mar 12 2023 21:08:23 GMT-0700 (PDT)","368783","Untrustworthy,Trustworthy","","436","","","","decision","","<div class='trialDiv'><img src='Fruit/pears.png'><br><font class='baseline'><strong>Pears Aplenty</strong><p>Choose number of points to bet.</font><div class='respPicDiv'><img src='img/responseButtonOffersNo0L.png' class='respPic'></div></div>","1","15","Pears Aplenty","Fruit/pears.png","Lost","0.8,0.35","12","0.8","252","45","",""
"html-keyboard-response","143","167083","0.0-11.0-2.44","5fb7c9fa2be0a83d8f8913b8","bdp_rwlrn","Sun Mar 12 2023 21:08:23 GMT-0700 (PDT)","368783","Untrustworthy,Trustworthy","","null","","","","decisionFB","","<div class='trialDiv'><img src='Fruit/pears.png'><br><font class='baseline'><strong>Pears Aplenty</strong><p>Choose number of points to bet.</font><div class='respPicDiv'><img src='img/responseButtonOffersNo0L1.png' class='respPic'></div></div>","null","15","Pears Aplenty","Fruit/pears.png","Lost","0.8,0.35","12","0.8","251","45","",""
"html-keyboard-response","144","168085","0.0-11.0-3.44","5fb7c9fa2be0a83d8f8913b8","bdp_rwlrn","Sun Mar 12 2023 21:08:23 GMT-0700 (PDT)","368783","Untrustworthy,Trustworthy","","null","","","","feedback","","<div class='respPicDiv'><img src='img/responseButtonOffersNo0_wht.png' class='respPic'></div><div class='trialDiv'><img src='Fruit/pears.png'><br><font class='baseline'><strong>Pears Aplenty</strong><p><strong><font class='negOutcome'>You LOST</font><p>You bet: 1</strong></font> &nbsp; &nbsp; &nbsp; &nbsp; &nbsp; &nbsp;<font class='negOutcome'>You receive: <strong>0</strong></font></div>","null","15","Pears Aplenty","Fruit/pears.png","Lost","0.8,0.35","12","0.8","251","45","",""
"html-keyboard-response","145","168645","0.0-11.0-1.45","5fb7c9fa2be0a83d8f8913b8","bdp_rwlrn","Sun Mar 12 2023 21:08:23 GMT-0700 (PDT)","368783","Untrustworthy,Trustworthy","","559","","","","decision","","<div class='trialDiv'><img src='Fruit/melon.png'><br><font class='baseline'><strong>Melon Millions</strong><p>Choose number of points to bet.</font><div class='respPicDiv'><img src='img/responseButtonOffersNo0L.png' class='respPic'></div></div>","1","16","Melon Millions","Fruit/melon.png","Lost","0.35,0.8","12","0.35","256","46","",""
"html-keyboard-response","146","168897","0.0-11.0-2.45","5fb7c9fa2be0a83d8f8913b8","bdp_rwlrn","Sun Mar 12 2023 21:08:23 GMT-0700 (PDT)","368783","Untrustworthy,Trustworthy","","null","","","","decisionFB","","<div class='trialDiv'><img src='Fruit/melon.png'><br><font class='baseline'><strong>Melon Millions</strong><p>Choose number of points to bet.</font><div class='respPicDiv'><img src='img/responseButtonOffersNo0L1.png' class='respPic'></div></div>","null","16","Melon Millions","Fruit/melon.png","Lost","0.35,0.8","12","0.35","255","46","",""
"html-keyboard-response","147","169901","0.0-11.0-3.45","5fb7c9fa2be0a83d8f8913b8","bdp_rwlrn","Sun Mar 12 2023 21:08:23 GMT-0700 (PDT)","368783","Untrustworthy,Trustworthy","","null","","","","feedback","","<div class='respPicDiv'><img src='img/responseButtonOffersNo0_wht.png' class='respPic'></div><div class='trialDiv'><img src='Fruit/melon.png'><br><font class='baseline'><strong>Melon Millions</strong><p><strong><font class='negOutcome'>You LOST</font><p>You bet: 1</strong></font> &nbsp; &nbsp; &nbsp; &nbsp; &nbsp; &nbsp;<font class='negOutcome'>You receive: <strong>0</strong></font></div>","null","16","Melon Millions","Fruit/melon.png","Lost","0.35,0.8","12","0.35","255","46","",""
"html-keyboard-response","148","170533","0.0-11.0-1.46","5fb7c9fa2be0a83d8f8913b8","bdp_rwlrn","Sun Mar 12 2023 21:08:23 GMT-0700 (PDT)","368783","Untrustworthy,Trustworthy","","631","","","","decision","","<div class='trialDiv'><img src='Fruit/pears.png'><br><font class='baseline'><strong>Pears Aplenty</strong><p>Choose number of points to bet.</font><div class='respPicDiv'><img src='img/responseButtonOffersNo0L.png' class='respPic'></div></div>","1","16","Pears Aplenty","Fruit/pears.png","Lost","0.8,0.35","12","0.8","260","47","",""
"html-keyboard-response","149","170786","0.0-11.0-2.46","5fb7c9fa2be0a83d8f8913b8","bdp_rwlrn","Sun Mar 12 2023 21:08:23 GMT-0700 (PDT)","368783","Untrustworthy,Trustworthy","","null","","","","decisionFB","","<div class='trialDiv'><img src='Fruit/pears.png'><br><font class='baseline'><strong>Pears Aplenty</strong><p>Choose number of points to bet.</font><div class='respPicDiv'><img src='img/responseButtonOffersNo0L1.png' class='respPic'></div></div>","null","16","Pears Aplenty","Fruit/pears.png","Lost","0.8,0.35","12","0.8","259","47","",""
"html-keyboard-response","150","171788","0.0-11.0-3.46","5fb7c9fa2be0a83d8f8913b8","bdp_rwlrn","Sun Mar 12 2023 21:08:23 GMT-0700 (PDT)","368783","Untrustworthy,Trustworthy","","null","","","","feedback","","<div class='respPicDiv'><img src='img/responseButtonOffersNo0_wht.png' class='respPic'></div><div class='trialDiv'><img src='Fruit/pears.png'><br><font class='baseline'><strong>Pears Aplenty</strong><p><strong><font class='negOutcome'>You LOST</font><p>You bet: 1</strong></font> &nbsp; &nbsp; &nbsp; &nbsp; &nbsp; &nbsp;<font class='negOutcome'>You receive: <strong>0</strong></font></div>","null","16","Pears Aplenty","Fruit/pears.png","Lost","0.8,0.35","12","0.8","259","47","",""
"html-keyboard-response","151","172333","0.0-11.0-1.47","5fb7c9fa2be0a83d8f8913b8","bdp_rwlrn","Sun Mar 12 2023 21:08:23 GMT-0700 (PDT)","368783","Untrustworthy,Trustworthy","","545","","","","decision","","<div class='trialDiv'><img src='Fruit/orange.png'><br><font class='baseline'><strong>Odds are Orange</strong><p>Choose number of points to bet.</font><div class='respPicDiv'><img src='img/responseButtonOffersNo0L.png' class='respPic'></div></div>","2","16","Odds are Orange","Fruit/orange.png","Won","0.2,0.8","11","0.2","264","48","",""
"html-keyboard-response","152","172585","0.0-11.0-2.47","5fb7c9fa2be0a83d8f8913b8","bdp_rwlrn","Sun Mar 12 2023 21:08:23 GMT-0700 (PDT)","368783","Untrustworthy,Trustworthy","","null","","","","decisionFB","","<div class='trialDiv'><img src='Fruit/orange.png'><br><font class='baseline'><strong>Odds are Orange</strong><p>Choose number of points to bet.</font><div class='respPicDiv'><img src='img/responseButtonOffersNo0L2.png' class='respPic'></div></div>","null","16","Odds are Orange","Fruit/orange.png","Won","0.2,0.8","11","0.2","262","48","",""
"html-keyboard-response","153","173588","0.0-11.0-3.47","5fb7c9fa2be0a83d8f8913b8","bdp_rwlrn","Sun Mar 12 2023 21:08:23 GMT-0700 (PDT)","368783","Untrustworthy,Trustworthy","","null","","","","feedback","","<div class='respPicDiv'><img src='img/responseButtonOffersNo0_wht.png' class='respPic'></div><div class='trialDiv'><img src='Fruit/orange.png'><br><font class='baseline'><strong>Odds are Orange</strong><p><strong><font class='posOutcome'>You WON</font><p>You bet: 2</strong></font> &nbsp; &nbsp; &nbsp; &nbsp; &nbsp; &nbsp;<font class='posOutcome'>you receive: <strong>4</strong></font></div>","null","16","Odds are Orange","Fruit/orange.png","Won","0.2,0.8","11","0.2","266","48","",""
"html-keyboard-response","154","173985","0.0-11.0-1.48","5fb7c9fa2be0a83d8f8913b8","bdp_rwlrn","Sun Mar 12 2023 21:08:23 GMT-0700 (PDT)","368783","Untrustworthy,Trustworthy","","396","","","","decision","","<div class='trialDiv'><img src='Fruit/melon.png'><br><font class='baseline'><strong>Melon Millions</strong><p>Choose number of points to bet.</font><div class='respPicDiv'><img src='img/responseButtonOffersNo0L.png' class='respPic'></div></div>","5","17","Melon Millions","Fruit/melon.png","Won","0.35,0.8","12","0.35","271","49","",""
"html-keyboard-response","155","174237","0.0-11.0-2.48","5fb7c9fa2be0a83d8f8913b8","bdp_rwlrn","Sun Mar 12 2023 21:08:23 GMT-0700 (PDT)","368783","Untrustworthy,Trustworthy","","null","","","","decisionFB","","<div class='trialDiv'><img src='Fruit/melon.png'><br><font class='baseline'><strong>Melon Millions</strong><p>Choose number of points to bet.</font><div class='respPicDiv'><img src='img/responseButtonOffersNo0L5.png' class='respPic'></div></div>","null","17","Melon Millions","Fruit/melon.png","Won","0.35,0.8","12","0.35","266","49","",""
"html-keyboard-response","156","175239","0.0-11.0-3.48","5fb7c9fa2be0a83d8f8913b8","bdp_rwlrn","Sun Mar 12 2023 21:08:23 GMT-0700 (PDT)","368783","Untrustworthy,Trustworthy","","null","","","","feedback","","<div class='respPicDiv'><img src='img/responseButtonOffersNo0_wht.png' class='respPic'></div><div class='trialDiv'><img src='Fruit/melon.png'><br><font class='baseline'><strong>Melon Millions</strong><p><strong><font class='posOutcome'>You WON</font><p>You bet: 5</strong></font> &nbsp; &nbsp; &nbsp; &nbsp; &nbsp; &nbsp;<font class='posOutcome'>you receive: <strong>10</strong></font></div>","null","17","Melon Millions","Fruit/melon.png","Won","0.35,0.8","12","0.35","276","49","",""
"html-keyboard-response","157","175869","0.0-11.0-1.49","5fb7c9fa2be0a83d8f8913b8","bdp_rwlrn","Sun Mar 12 2023 21:08:23 GMT-0700 (PDT)","368783","Untrustworthy,Trustworthy","","628","","","","decision","","<div class='trialDiv'><img src='Fruit/pears.png'><br><font class='baseline'><strong>Pears Aplenty</strong><p>Choose number of points to bet.</font><div class='respPicDiv'><img src='img/responseButtonOffersNo0L.png' class='respPic'></div></div>","5","17","Pears Aplenty","Fruit/pears.png","Won","0.8,0.35","12","0.8","281","50","",""
"html-keyboard-response","158","176121","0.0-11.0-2.49","5fb7c9fa2be0a83d8f8913b8","bdp_rwlrn","Sun Mar 12 2023 21:08:23 GMT-0700 (PDT)","368783","Untrustworthy,Trustworthy","","null","","","","decisionFB","","<div class='trialDiv'><img src='Fruit/pears.png'><br><font class='baseline'><strong>Pears Aplenty</strong><p>Choose number of points to bet.</font><div class='respPicDiv'><img src='img/responseButtonOffersNo0L5.png' class='respPic'></div></div>","null","17","Pears Aplenty","Fruit/pears.png","Won","0.8,0.35","12","0.8","276","50","",""
"html-keyboard-response","159","177124","0.0-11.0-3.49","5fb7c9fa2be0a83d8f8913b8","bdp_rwlrn","Sun Mar 12 2023 21:08:23 GMT-0700 (PDT)","368783","Untrustworthy,Trustworthy","","null","","","","feedback","","<div class='respPicDiv'><img src='img/responseButtonOffersNo0_wht.png' class='respPic'></div><div class='trialDiv'><img src='Fruit/pears.png'><br><font class='baseline'><strong>Pears Aplenty</strong><p><strong><font class='posOutcome'>You WON</font><p>You bet: 5</strong></font> &nbsp; &nbsp; &nbsp; &nbsp; &nbsp; &nbsp;<font class='posOutcome'>you receive: <strong>10</strong></font></div>","null","17","Pears Aplenty","Fruit/pears.png","Won","0.8,0.35","12","0.8","286","50","",""
"html-keyboard-response","160","177803","0.0-11.0-1.50","5fb7c9fa2be0a83d8f8913b8","bdp_rwlrn","Sun Mar 12 2023 21:08:23 GMT-0700 (PDT)","368783","Untrustworthy,Trustworthy","","677","","","","decision","","<div class='trialDiv'><img src='Fruit/orange.png'><br><font class='baseline'><strong>Odds are Orange</strong><p>Choose number of points to bet.</font><div class='respPicDiv'><img src='img/responseButtonOffersNo0L.png' class='respPic'></div></div>","5","17","Odds are Orange","Fruit/orange.png","Won","0.2,0.8","11","0.2","291","51","",""
"html-keyboard-response","161","178055","0.0-11.0-2.50","5fb7c9fa2be0a83d8f8913b8","bdp_rwlrn","Sun Mar 12 2023 21:08:23 GMT-0700 (PDT)","368783","Untrustworthy,Trustworthy","","null","","","","decisionFB","","<div class='trialDiv'><img src='Fruit/orange.png'><br><font class='baseline'><strong>Odds are Orange</strong><p>Choose number of points to bet.</font><div class='respPicDiv'><img src='img/responseButtonOffersNo0L5.png' class='respPic'></div></div>","null","17","Odds are Orange","Fruit/orange.png","Won","0.2,0.8","11","0.2","286","51","",""
"html-keyboard-response","162","179057","0.0-11.0-3.50","5fb7c9fa2be0a83d8f8913b8","bdp_rwlrn","Sun Mar 12 2023 21:08:23 GMT-0700 (PDT)","368783","Untrustworthy,Trustworthy","","null","","","","feedback","","<div class='respPicDiv'><img src='img/responseButtonOffersNo0_wht.png' class='respPic'></div><div class='trialDiv'><img src='Fruit/orange.png'><br><font class='baseline'><strong>Odds are Orange</strong><p><strong><font class='posOutcome'>You WON</font><p>You bet: 5</strong></font> &nbsp; &nbsp; &nbsp; &nbsp; &nbsp; &nbsp;<font class='posOutcome'>you receive: <strong>10</strong></font></div>","null","17","Odds are Orange","Fruit/orange.png","Won","0.2,0.8","11","0.2","296","51","",""
"html-keyboard-response","163","179609","0.0-11.0-1.51","5fb7c9fa2be0a83d8f8913b8","bdp_rwlrn","Sun Mar 12 2023 21:08:23 GMT-0700 (PDT)","368783","Untrustworthy,Trustworthy","","547","","","","decision","","<div class='trialDiv'><img src='Fruit/melon.png'><br><font class='baseline'><strong>Melon Millions</strong><p>Choose number of points to bet.</font><div class='respPicDiv'><img src='img/responseButtonOffersNo0L.png' class='respPic'></div></div>","1","18","Melon Millions","Fruit/melon.png","Won","0.35,0.8","12","0.35","301","52","",""
"html-keyboard-response","164","179861","0.0-11.0-2.51","5fb7c9fa2be0a83d8f8913b8","bdp_rwlrn","Sun Mar 12 2023 21:08:23 GMT-0700 (PDT)","368783","Untrustworthy,Trustworthy","","null","","","","decisionFB","","<div class='trialDiv'><img src='Fruit/melon.png'><br><font class='baseline'><strong>Melon Millions</strong><p>Choose number of points to bet.</font><div class='respPicDiv'><img src='img/responseButtonOffersNo0L1.png' class='respPic'></div></div>","null","18","Melon Millions","Fruit/melon.png","Won","0.35,0.8","12","0.35","300","52","",""
"html-keyboard-response","165","180863","0.0-11.0-3.51","5fb7c9fa2be0a83d8f8913b8","bdp_rwlrn","Sun Mar 12 2023 21:08:23 GMT-0700 (PDT)","368783","Untrustworthy,Trustworthy","","null","","","","feedback","","<div class='respPicDiv'><img src='img/responseButtonOffersNo0_wht.png' class='respPic'></div><div class='trialDiv'><img src='Fruit/melon.png'><br><font class='baseline'><strong>Melon Millions</strong><p><strong><font class='posOutcome'>You WON</font><p>You bet: 1</strong></font> &nbsp; &nbsp; &nbsp; &nbsp; &nbsp; &nbsp;<font class='posOutcome'>you receive: <strong>2</strong></font></div>","null","18","Melon Millions","Fruit/melon.png","Won","0.35,0.8","12","0.35","302","52","",""
"html-keyboard-response","166","181441","0.0-11.0-1.52","5fb7c9fa2be0a83d8f8913b8","bdp_rwlrn","Sun Mar 12 2023 21:08:23 GMT-0700 (PDT)","368783","Untrustworthy,Trustworthy","","576","","","","decision","","<div class='trialDiv'><img src='Fruit/orange.png'><br><font class='baseline'><strong>Odds are Orange</strong><p>Choose number of points to bet.</font><div class='respPicDiv'><img src='img/responseButtonOffersNo0L.png' class='respPic'></div></div>","1","18","Odds are Orange","Fruit/orange.png","Won","0.2,0.8","11","0.2","307","53","",""
"html-keyboard-response","167","181693","0.0-11.0-2.52","5fb7c9fa2be0a83d8f8913b8","bdp_rwlrn","Sun Mar 12 2023 21:08:23 GMT-0700 (PDT)","368783","Untrustworthy,Trustworthy","","null","","","","decisionFB","","<div class='trialDiv'><img src='Fruit/orange.png'><br><font class='baseline'><strong>Odds are Orange</strong><p>Choose number of points to bet.</font><div class='respPicDiv'><img src='img/responseButtonOffersNo0L1.png' class='respPic'></div></div>","null","18","Odds are Orange","Fruit/orange.png","Won","0.2,0.8","11","0.2","306","53","",""
"html-keyboard-response","168","182695","0.0-11.0-3.52","5fb7c9fa2be0a83d8f8913b8","bdp_rwlrn","Sun Mar 12 2023 21:08:23 GMT-0700 (PDT)","368783","Untrustworthy,Trustworthy","","null","","","","feedback","","<div class='respPicDiv'><img src='img/responseButtonOffersNo0_wht.png' class='respPic'></div><div class='trialDiv'><img src='Fruit/orange.png'><br><font class='baseline'><strong>Odds are Orange</strong><p><strong><font class='posOutcome'>You WON</font><p>You bet: 1</strong></font> &nbsp; &nbsp; &nbsp; &nbsp; &nbsp; &nbsp;<font class='posOutcome'>you receive: <strong>2</strong></font></div>","null","18","Odds are Orange","Fruit/orange.png","Won","0.2,0.8","11","0.2","308","53","",""
