"trial_type","trial_index","time_elapsed","internal_node_id","subject_id","task","startTime","totalTime","labels","event","trial","time","trialtype","numBlurs","view_history","rt","success","stimulus","key_press","ltround","name","fileID","outcome","lottotype","lottoswpt","lottocurrpshare","point_total","round","faceID","face"
"pavlovia","0","2","0.0-0.0","ds_test","bdp_rwlrn","Sat Feb 18 2023 16:29:35 GMT-0500 (Eastern Standard Time)","697449","Untrustworthy,Trustworthy","","","","","","","","","","","","","","","","","","","","",""
"","","","","ds_test","bdp_rwlrn","Sat Feb 18 2023 16:29:35 GMT-0500 (Eastern Standard Time)","697449","Untrustworthy,Trustworthy","blur","1","17478","blurevent","1","","","","","","","","","","","","","","","",""
"","","","","ds_test","bdp_rwlrn","Sat Feb 18 2023 16:29:35 GMT-0500 (Eastern Standard Time)","697449","Untrustworthy,Trustworthy","focus","1","89458","focusevent","","","","","","","","","","","","","","","","",""
"","","","","ds_test","bdp_rwlrn","Sat Feb 18 2023 16:29:35 GMT-0500 (Eastern Standard Time)","697449","Untrustworthy,Trustworthy","blur","1","428182","blurevent","","","","","","","","","","","","","","","","",""
"","","","","ds_test","bdp_rwlrn","Sat Feb 18 2023 16:29:35 GMT-0500 (Eastern Standard Time)","697449","Untrustworthy,Trustworthy","focus","1","431616","focusevent","","","","","","","","","","","","","","","","",""
"instructions","1","431997","0.0-1.0","ds_test","bdp_rwlrn","Sat Feb 18 2023 16:29:35 GMT-0500 (Eastern Standard Time)","697449","Untrustworthy,Trustworthy","","","","","","[{""page_index"":0,""viewing_time"":431995}]","431995","","","","","","","","","","","","","",""
"","","","","ds_test","bdp_rwlrn","Sat Feb 18 2023 16:29:35 GMT-0500 (Eastern Standard Time)","697449","Untrustworthy,Trustworthy","fullscreenenter","2","433295","fullscreenenter","","","","","","","","","","","","","","","","",""
"fullscreen","2","434299","0.0-2.0","ds_test","bdp_rwlrn","Sat Feb 18 2023 16:29:35 GMT-0500 (Eastern Standard Time)","697449","Untrustworthy,Trustworthy","","","","","","","","true","","","","","","","","","","","","",""
"instructions","3","451048","0.0-4.0","ds_test","bdp_rwlrn","Sat Feb 18 2023 16:29:35 GMT-0500 (Eastern Standard Time)","697449","Untrustworthy,Trustworthy","","","","","","[{""page_index"":0,""viewing_time"":8703},{""page_index"":1,""viewing_time"":2339},{""page_index"":2,""viewing_time"":1895},{""page_index"":3,""viewing_time"":1463},{""page_index"":4,""viewing_time"":1192},{""page_index"":5,""viewing_time"":1156}]","16748","","","","","","","","","","","","","",""
"html-keyboard-response","4","452619","0.0-5.0","ds_test","bdp_rwlrn","Sat Feb 18 2023 16:29:35 GMT-0500 (Eastern Standard Time)","697449","Untrustworthy,Trustworthy","","","","","","","1569","","<div class='header' style='text-align:left; position: absolute; top: 5%; left: 5%;'><small>Task 2 of 5</small></div><div class='instruxDiv'><p><strong>1) What is the maximum number of points you can choose to bet on a lottery?</strong></p><p>a) 0</p><p>b) 1</p><p>c) 5</p>","C","","","","","","","","","","",""
"html-keyboard-response","5","453478","0.0-6.0","ds_test","bdp_rwlrn","Sat Feb 18 2023 16:29:35 GMT-0500 (Eastern Standard Time)","697449","Untrustworthy,Trustworthy","","","","","","","750","","<div class='header' style='text-align:left; position: absolute; top: 5%; left: 5%;'><small>Task 2 of 5</small></div><div class='instruxDiv'><p><strong>1) What is the maximum number of points you can choose to bet on a lottery?</strong></p><p>a) 1</p><p>b) 1</p><p style='color:#00FF00'>c) 5</p><h3 style='color:#00FF00'>Correct!</h3><h3 class='center-content'>The correct response is c).</h3><h3 class='center-content'>The maximum number of points you can choose to bet on a lottery is 5 points.</h3><p><em>Press SPACEBAR to continue</em></p></div>"," ","","","","","","","","","","",""
"html-keyboard-response","6","454823","0.0-7.0","ds_test","bdp_rwlrn","Sat Feb 18 2023 16:29:35 GMT-0500 (Eastern Standard Time)","697449","Untrustworthy,Trustworthy","","","","","","","1239","","<div class='header' style='text-align:left; position: absolute; top: 5%; left: 5%;'><small>Task 2 of 5</small></div><div class='instruxDiv'><p><strong>2) How many points can you win each round?</strong></p><p>a) 10 points</p><p>b) Double what you bet</p><p>c) Quadruple what you bet</p>","C","","","","","","","","","","",""
"html-keyboard-response","7","456858","0.0-8.0","ds_test","bdp_rwlrn","Sat Feb 18 2023 16:29:35 GMT-0500 (Eastern Standard Time)","697449","Untrustworthy,Trustworthy","","","","","","","1930","","<div class='header' style='text-align:left; position: absolute; top: 5%; left: 5%;'><small>Task 2 of 5</small></div><div class='instruxDiv'><p><strong>2) How many points can you win each round?</strong></p><p>a) 10 points</p><p>b) Double what you bet</p><p style='color:#FF0000'>c) Quadruple what you bet</p><h3 style='color:#FF0000'>Incorrect!</h3><h3 class='center-content'>The correct response is b).</h3><h3 class='center-content'>You can win double the amount of points you bet.</h3><p><em>Press SPACEBAR to continue</em></p></div>"," ","","","","","","","","","","",""
"html-keyboard-response","8","461978","0.0-9.0","ds_test","bdp_rwlrn","Sat Feb 18 2023 16:29:35 GMT-0500 (Eastern Standard Time)","697449","Untrustworthy,Trustworthy","","","","","","","null","","<div class='header' style='text-align:left; position: absolute; top: 5%; left: 5%;'><small>Task 2 of 5</small></div><div class='instruxDiv'><p>Thank you for completing the quiz<p>These are the actual lotteries you will be playing in the next block:<p><div class='tc' align='center'><img class='introPic' src='Fruit/plums1.png'><br><strong>Plum Powerball</strong></div><div class='bl' align='center'><img class='introPic' src='Fruit/orange.png'><br><strong>Odds are Orange</strong></div><div class='br' align='center'><img class='introPic' src='Fruit/papayas.png'><br><strong>Papaya Payday</strong></div></div><p>Across <strong>66 rounds</strong> you will play each lottery <strong>22 times</strong> (in random order).<p style='align:center; color:white'><font <em>Press SPACEBAR to continue</em></p>","null","","","","","","","","","","",""
"instructions","9","466961","0.0-10.0","ds_test","bdp_rwlrn","Sat Feb 18 2023 16:29:35 GMT-0500 (Eastern Standard Time)","697449","Untrustworthy,Trustworthy","","","","","","[{""page_index"":0,""viewing_time"":132},{""page_index"":1,""viewing_time"":4850}]","4982","","","","","","","","","","","","","",""
"html-keyboard-response","10","468255","0.0-11.0-1.0","ds_test","bdp_rwlrn","Sat Feb 18 2023 16:29:35 GMT-0500 (Eastern Standard Time)","697449","Untrustworthy,Trustworthy","","","","decision","","","1186","","<div class='trialDiv'><img src='Fruit/papayas.png'><br><font class='baseline'><strong>Papaya Payday</strong><p>Choose number of points to bet.</font><div class='respPicDiv'><img src='img/responseButtonOffersNo0L.png' class='respPic'></div></div>","5","1","Papaya Payday","Fruit/papayas.png","Won","0.2,0.65","8","0.2","5","1","",""
"html-keyboard-response","11","468513","0.0-11.0-2.0","ds_test","bdp_rwlrn","Sat Feb 18 2023 16:29:35 GMT-0500 (Eastern Standard Time)","697449","Untrustworthy,Trustworthy","","","","decisionFB","","","null","","<div class='trialDiv'><img src='Fruit/papayas.png'><br><font class='baseline'><strong>Papaya Payday</strong><p>Choose number of points to bet.</font><div class='respPicDiv'><img src='img/responseButtonOffersNo0L5.png' class='respPic'></div></div>","null","1","Papaya Payday","Fruit/papayas.png","Won","0.2,0.65","8","0.2","0","1","",""
"html-keyboard-response","12","469522","0.0-11.0-3.0","ds_test","bdp_rwlrn","Sat Feb 18 2023 16:29:35 GMT-0500 (Eastern Standard Time)","697449","Untrustworthy,Trustworthy","","","","feedback","","","null","","<div class='respPicDiv'><img src='img/responseButtonOffersNo0_wht.png' class='respPic'></div><div class='trialDiv'><img src='Fruit/papayas.png'><br><font class='baseline'><strong>Papaya Payday</strong><p><strong><font class='posOutcome'>You WON</font><p>You bet: 5</strong></font> &nbsp; &nbsp; &nbsp; &nbsp; &nbsp; &nbsp;<font class='posOutcome'>you receive: <strong>10</strong></font></div>","null","1","Papaya Payday","Fruit/papayas.png","Won","0.2,0.65","8","0.2","10","1","",""
"html-keyboard-response","13","469758","0.0-11.0-1.1","ds_test","bdp_rwlrn","Sat Feb 18 2023 16:29:35 GMT-0500 (Eastern Standard Time)","697449","Untrustworthy,Trustworthy","","","","decision","","","235","","<div class='trialDiv'><img src='Fruit/orange.png'><br><font class='baseline'><strong>Odds are Orange</strong><p>Choose number of points to bet.</font><div class='respPicDiv'><img src='img/responseButtonOffersNo0L.png' class='respPic'></div></div>","4","1","Odds are Orange","Fruit/orange.png","Lost","0.65,0.2","9","0.65","15","2","",""
"html-keyboard-response","14","470017","0.0-11.0-2.1","ds_test","bdp_rwlrn","Sat Feb 18 2023 16:29:35 GMT-0500 (Eastern Standard Time)","697449","Untrustworthy,Trustworthy","","","","decisionFB","","","null","","<div class='trialDiv'><img src='Fruit/orange.png'><br><font class='baseline'><strong>Odds are Orange</strong><p>Choose number of points to bet.</font><div class='respPicDiv'><img src='img/responseButtonOffersNo0L4.png' class='respPic'></div></div>","null","1","Odds are Orange","Fruit/orange.png","Lost","0.65,0.2","9","0.65","11","2","",""
"html-keyboard-response","15","471023","0.0-11.0-3.1","ds_test","bdp_rwlrn","Sat Feb 18 2023 16:29:35 GMT-0500 (Eastern Standard Time)","697449","Untrustworthy,Trustworthy","","","","feedback","","","null","","<div class='respPicDiv'><img src='img/responseButtonOffersNo0_wht.png' class='respPic'></div><div class='trialDiv'><img src='Fruit/orange.png'><br><font class='baseline'><strong>Odds are Orange</strong><p><strong><font class='negOutcome'>You LOST</font><p>You bet: 4</strong></font> &nbsp; &nbsp; &nbsp; &nbsp; &nbsp; &nbsp;<font class='negOutcome'>You receive: <strong>0</strong></font></div>","null","1","Odds are Orange","Fruit/orange.png","Lost","0.65,0.2","9","0.65","11","2","",""
"html-keyboard-response","16","471341","0.0-11.0-1.2","ds_test","bdp_rwlrn","Sat Feb 18 2023 16:29:35 GMT-0500 (Eastern Standard Time)","697449","Untrustworthy,Trustworthy","","","","decision","","","315","","<div class='trialDiv'><img src='Fruit/plums1.png'><br><font class='baseline'><strong>Plum Powerball</strong><p>Choose number of points to bet.</font><div class='respPicDiv'><img src='img/responseButtonOffersNo0L.png' class='respPic'></div></div>","3","1","Plum Powerball","Fruit/plums1.png","Lost","0.8,0.2","9","0.8","16","3","",""
"html-keyboard-response","17","471599","0.0-11.0-2.2","ds_test","bdp_rwlrn","Sat Feb 18 2023 16:29:35 GMT-0500 (Eastern Standard Time)","697449","Untrustworthy,Trustworthy","","","","decisionFB","","","null","","<div class='trialDiv'><img src='Fruit/plums1.png'><br><font class='baseline'><strong>Plum Powerball</strong><p>Choose number of points to bet.</font><div class='respPicDiv'><img src='img/responseButtonOffersNo0L3.png' class='respPic'></div></div>","null","1","Plum Powerball","Fruit/plums1.png","Lost","0.8,0.2","9","0.8","13","3","",""
"html-keyboard-response","18","472607","0.0-11.0-3.2","ds_test","bdp_rwlrn","Sat Feb 18 2023 16:29:35 GMT-0500 (Eastern Standard Time)","697449","Untrustworthy,Trustworthy","","","","feedback","","","null","","<div class='respPicDiv'><img src='img/responseButtonOffersNo0_wht.png' class='respPic'></div><div class='trialDiv'><img src='Fruit/plums1.png'><br><font class='baseline'><strong>Plum Powerball</strong><p><strong><font class='negOutcome'>You LOST</font><p>You bet: 3</strong></font> &nbsp; &nbsp; &nbsp; &nbsp; &nbsp; &nbsp;<font class='negOutcome'>You receive: <strong>0</strong></font></div>","null","1","Plum Powerball","Fruit/plums1.png","Lost","0.8,0.2","9","0.8","13","3","",""
"html-keyboard-response","19","472877","0.0-11.0-1.3","ds_test","bdp_rwlrn","Sat Feb 18 2023 16:29:35 GMT-0500 (Eastern Standard Time)","697449","Untrustworthy,Trustworthy","","","","decision","","","268","","<div class='trialDiv'><img src='Fruit/papayas.png'><br><font class='baseline'><strong>Papaya Payday</strong><p>Choose number of points to bet.</font><div class='respPicDiv'><img src='img/responseButtonOffersNo0L.png' class='respPic'></div></div>","2","2","Papaya Payday","Fruit/papayas.png","Lost","0.2,0.65","8","0.2","18","4","",""
"html-keyboard-response","20","473135","0.0-11.0-2.3","ds_test","bdp_rwlrn","Sat Feb 18 2023 16:29:35 GMT-0500 (Eastern Standard Time)","697449","Untrustworthy,Trustworthy","","","","decisionFB","","","null","","<div class='trialDiv'><img src='Fruit/papayas.png'><br><font class='baseline'><strong>Papaya Payday</strong><p>Choose number of points to bet.</font><div class='respPicDiv'><img src='img/responseButtonOffersNo0L2.png' class='respPic'></div></div>","null","2","Papaya Payday","Fruit/papayas.png","Lost","0.2,0.65","8","0.2","16","4","",""
"html-keyboard-response","21","474142","0.0-11.0-3.3","ds_test","bdp_rwlrn","Sat Feb 18 2023 16:29:35 GMT-0500 (Eastern Standard Time)","697449","Untrustworthy,Trustworthy","","","","feedback","","","null","","<div class='respPicDiv'><img src='img/responseButtonOffersNo0_wht.png' class='respPic'></div><div class='trialDiv'><img src='Fruit/papayas.png'><br><font class='baseline'><strong>Papaya Payday</strong><p><strong><font class='negOutcome'>You LOST</font><p>You bet: 2</strong></font> &nbsp; &nbsp; &nbsp; &nbsp; &nbsp; &nbsp;<font class='negOutcome'>You receive: <strong>0</strong></font></div>","null","2","Papaya Payday","Fruit/papayas.png","Lost","0.2,0.65","8","0.2","16","4","",""
"html-keyboard-response","22","474519","0.0-11.0-1.4","ds_test","bdp_rwlrn","Sat Feb 18 2023 16:29:35 GMT-0500 (Eastern Standard Time)","697449","Untrustworthy,Trustworthy","","","","decision","","","375","","<div class='trialDiv'><img src='Fruit/plums1.png'><br><font class='baseline'><strong>Plum Powerball</strong><p>Choose number of points to bet.</font><div class='respPicDiv'><img src='img/responseButtonOffersNo0L.png' class='respPic'></div></div>","1","2","Plum Powerball","Fruit/plums1.png","Won","0.8,0.2","9","0.8","21","5","",""
"html-keyboard-response","23","474778","0.0-11.0-2.4","ds_test","bdp_rwlrn","Sat Feb 18 2023 16:29:35 GMT-0500 (Eastern Standard Time)","697449","Untrustworthy,Trustworthy","","","","decisionFB","","","null","","<div class='trialDiv'><img src='Fruit/plums1.png'><br><font class='baseline'><strong>Plum Powerball</strong><p>Choose number of points to bet.</font><div class='respPicDiv'><img src='img/responseButtonOffersNo0L1.png' class='respPic'></div></div>","null","2","Plum Powerball","Fruit/plums1.png","Won","0.8,0.2","9","0.8","20","5","",""
"html-keyboard-response","24","475786","0.0-11.0-3.4","ds_test","bdp_rwlrn","Sat Feb 18 2023 16:29:35 GMT-0500 (Eastern Standard Time)","697449","Untrustworthy,Trustworthy","","","","feedback","","","null","","<div class='respPicDiv'><img src='img/responseButtonOffersNo0_wht.png' class='respPic'></div><div class='trialDiv'><img src='Fruit/plums1.png'><br><font class='baseline'><strong>Plum Powerball</strong><p><strong><font class='posOutcome'>You WON</font><p>You bet: 1</strong></font> &nbsp; &nbsp; &nbsp; &nbsp; &nbsp; &nbsp;<font class='posOutcome'>you receive: <strong>2</strong></font></div>","null","2","Plum Powerball","Fruit/plums1.png","Won","0.8,0.2","9","0.8","22","5","",""
"html-keyboard-response","25","476110","0.0-11.0-1.5","ds_test","bdp_rwlrn","Sat Feb 18 2023 16:29:35 GMT-0500 (Eastern Standard Time)","697449","Untrustworthy,Trustworthy","","","","decision","","","322","","<div class='trialDiv'><img src='Fruit/orange.png'><br><font class='baseline'><strong>Odds are Orange</strong><p>Choose number of points to bet.</font><div class='respPicDiv'><img src='img/responseButtonOffersNo0L.png' class='respPic'></div></div>","2","2","Odds are Orange","Fruit/orange.png","Won","0.65,0.2","9","0.65","27","6","",""
"html-keyboard-response","26","476367","0.0-11.0-2.5","ds_test","bdp_rwlrn","Sat Feb 18 2023 16:29:35 GMT-0500 (Eastern Standard Time)","697449","Untrustworthy,Trustworthy","","","","decisionFB","","","null","","<div class='trialDiv'><img src='Fruit/orange.png'><br><font class='baseline'><strong>Odds are Orange</strong><p>Choose number of points to bet.</font><div class='respPicDiv'><img src='img/responseButtonOffersNo0L2.png' class='respPic'></div></div>","null","2","Odds are Orange","Fruit/orange.png","Won","0.65,0.2","9","0.65","25","6","",""
"html-keyboard-response","27","477374","0.0-11.0-3.5","ds_test","bdp_rwlrn","Sat Feb 18 2023 16:29:35 GMT-0500 (Eastern Standard Time)","697449","Untrustworthy,Trustworthy","","","","feedback","","","null","","<div class='respPicDiv'><img src='img/responseButtonOffersNo0_wht.png' class='respPic'></div><div class='trialDiv'><img src='Fruit/orange.png'><br><font class='baseline'><strong>Odds are Orange</strong><p><strong><font class='posOutcome'>You WON</font><p>You bet: 2</strong></font> &nbsp; &nbsp; &nbsp; &nbsp; &nbsp; &nbsp;<font class='posOutcome'>you receive: <strong>4</strong></font></div>","null","2","Odds are Orange","Fruit/orange.png","Won","0.65,0.2","9","0.65","29","6","",""
"html-keyboard-response","28","477631","0.0-11.0-1.6","ds_test","bdp_rwlrn","Sat Feb 18 2023 16:29:35 GMT-0500 (Eastern Standard Time)","697449","Untrustworthy,Trustworthy","","","","decision","","","256","","<div class='trialDiv'><img src='Fruit/papayas.png'><br><font class='baseline'><strong>Papaya Payday</strong><p>Choose number of points to bet.</font><div class='respPicDiv'><img src='img/responseButtonOffersNo0L.png' class='respPic'></div></div>","3","3","Papaya Payday","Fruit/papayas.png","Lost","0.2,0.65","8","0.2","34","7","",""
"html-keyboard-response","29","477889","0.0-11.0-2.6","ds_test","bdp_rwlrn","Sat Feb 18 2023 16:29:35 GMT-0500 (Eastern Standard Time)","697449","Untrustworthy,Trustworthy","","","","decisionFB","","","null","","<div class='trialDiv'><img src='Fruit/papayas.png'><br><font class='baseline'><strong>Papaya Payday</strong><p>Choose number of points to bet.</font><div class='respPicDiv'><img src='img/responseButtonOffersNo0L3.png' class='respPic'></div></div>","null","3","Papaya Payday","Fruit/papayas.png","Lost","0.2,0.65","8","0.2","31","7","",""
"html-keyboard-response","30","478895","0.0-11.0-3.6","ds_test","bdp_rwlrn","Sat Feb 18 2023 16:29:35 GMT-0500 (Eastern Standard Time)","697449","Untrustworthy,Trustworthy","","","","feedback","","","null","","<div class='respPicDiv'><img src='img/responseButtonOffersNo0_wht.png' class='respPic'></div><div class='trialDiv'><img src='Fruit/papayas.png'><br><font class='baseline'><strong>Papaya Payday</strong><p><strong><font class='negOutcome'>You LOST</font><p>You bet: 3</strong></font> &nbsp; &nbsp; &nbsp; &nbsp; &nbsp; &nbsp;<font class='negOutcome'>You receive: <strong>0</strong></font></div>","null","3","Papaya Payday","Fruit/papayas.png","Lost","0.2,0.65","8","0.2","31","7","",""
"html-keyboard-response","31","479148","0.0-11.0-1.7","ds_test","bdp_rwlrn","Sat Feb 18 2023 16:29:35 GMT-0500 (Eastern Standard Time)","697449","Untrustworthy,Trustworthy","","","","decision","","","250","","<div class='trialDiv'><img src='Fruit/plums1.png'><br><font class='baseline'><strong>Plum Powerball</strong><p>Choose number of points to bet.</font><div class='respPicDiv'><img src='img/responseButtonOffersNo0L.png' class='respPic'></div></div>","4","3","Plum Powerball","Fruit/plums1.png","Won","0.8,0.2","9","0.8","36","8","",""
"html-keyboard-response","32","479407","0.0-11.0-2.7","ds_test","bdp_rwlrn","Sat Feb 18 2023 16:29:35 GMT-0500 (Eastern Standard Time)","697449","Untrustworthy,Trustworthy","","","","decisionFB","","","null","","<div class='trialDiv'><img src='Fruit/plums1.png'><br><font class='baseline'><strong>Plum Powerball</strong><p>Choose number of points to bet.</font><div class='respPicDiv'><img src='img/responseButtonOffersNo0L4.png' class='respPic'></div></div>","null","3","Plum Powerball","Fruit/plums1.png","Won","0.8,0.2","9","0.8","32","8","",""
"html-keyboard-response","33","480416","0.0-11.0-3.7","ds_test","bdp_rwlrn","Sat Feb 18 2023 16:29:35 GMT-0500 (Eastern Standard Time)","697449","Untrustworthy,Trustworthy","","","","feedback","","","null","","<div class='respPicDiv'><img src='img/responseButtonOffersNo0_wht.png' class='respPic'></div><div class='trialDiv'><img src='Fruit/plums1.png'><br><font class='baseline'><strong>Plum Powerball</strong><p><strong><font class='posOutcome'>You WON</font><p>You bet: 4</strong></font> &nbsp; &nbsp; &nbsp; &nbsp; &nbsp; &nbsp;<font class='posOutcome'>you receive: <strong>8</strong></font></div>","null","3","Plum Powerball","Fruit/plums1.png","Won","0.8,0.2","9","0.8","40","8","",""
"html-keyboard-response","34","480688","0.0-11.0-1.8","ds_test","bdp_rwlrn","Sat Feb 18 2023 16:29:35 GMT-0500 (Eastern Standard Time)","697449","Untrustworthy,Trustworthy","","","","decision","","","271","","<div class='trialDiv'><img src='Fruit/orange.png'><br><font class='baseline'><strong>Odds are Orange</strong><p>Choose number of points to bet.</font><div class='respPicDiv'><img src='img/responseButtonOffersNo0L.png' class='respPic'></div></div>","5","3","Odds are Orange","Fruit/orange.png","Won","0.65,0.2","9","0.65","45","9","",""
"html-keyboard-response","35","480944","0.0-11.0-2.8","ds_test","bdp_rwlrn","Sat Feb 18 2023 16:29:35 GMT-0500 (Eastern Standard Time)","697449","Untrustworthy,Trustworthy","","","","decisionFB","","","null","","<div class='trialDiv'><img src='Fruit/orange.png'><br><font class='baseline'><strong>Odds are Orange</strong><p>Choose number of points to bet.</font><div class='respPicDiv'><img src='img/responseButtonOffersNo0L5.png' class='respPic'></div></div>","null","3","Odds are Orange","Fruit/orange.png","Won","0.65,0.2","9","0.65","40","9","",""
"html-keyboard-response","36","481951","0.0-11.0-3.8","ds_test","bdp_rwlrn","Sat Feb 18 2023 16:29:35 GMT-0500 (Eastern Standard Time)","697449","Untrustworthy,Trustworthy","","","","feedback","","","null","","<div class='respPicDiv'><img src='img/responseButtonOffersNo0_wht.png' class='respPic'></div><div class='trialDiv'><img src='Fruit/orange.png'><br><font class='baseline'><strong>Odds are Orange</strong><p><strong><font class='posOutcome'>You WON</font><p>You bet: 5</strong></font> &nbsp; &nbsp; &nbsp; &nbsp; &nbsp; &nbsp;<font class='posOutcome'>you receive: <strong>10</strong></font></div>","null","3","Odds are Orange","Fruit/orange.png","Won","0.65,0.2","9","0.65","50","9","",""
"html-keyboard-response","37","482263","0.0-11.0-1.9","ds_test","bdp_rwlrn","Sat Feb 18 2023 16:29:35 GMT-0500 (Eastern Standard Time)","697449","Untrustworthy,Trustworthy","","","","decision","","","310","","<div class='trialDiv'><img src='Fruit/plums1.png'><br><font class='baseline'><strong>Plum Powerball</strong><p>Choose number of points to bet.</font><div class='respPicDiv'><img src='img/responseButtonOffersNo0L.png' class='respPic'></div></div>","4","4","Plum Powerball","Fruit/plums1.png","Won","0.8,0.2","9","0.8","55","10","",""
"html-keyboard-response","38","482522","0.0-11.0-2.9","ds_test","bdp_rwlrn","Sat Feb 18 2023 16:29:35 GMT-0500 (Eastern Standard Time)","697449","Untrustworthy,Trustworthy","","","","decisionFB","","","null","","<div class='trialDiv'><img src='Fruit/plums1.png'><br><font class='baseline'><strong>Plum Powerball</strong><p>Choose number of points to bet.</font><div class='respPicDiv'><img src='img/responseButtonOffersNo0L4.png' class='respPic'></div></div>","null","4","Plum Powerball","Fruit/plums1.png","Won","0.8,0.2","9","0.8","51","10","",""
"html-keyboard-response","39","483529","0.0-11.0-3.9","ds_test","bdp_rwlrn","Sat Feb 18 2023 16:29:35 GMT-0500 (Eastern Standard Time)","697449","Untrustworthy,Trustworthy","","","","feedback","","","null","","<div class='respPicDiv'><img src='img/responseButtonOffersNo0_wht.png' class='respPic'></div><div class='trialDiv'><img src='Fruit/plums1.png'><br><font class='baseline'><strong>Plum Powerball</strong><p><strong><font class='posOutcome'>You WON</font><p>You bet: 4</strong></font> &nbsp; &nbsp; &nbsp; &nbsp; &nbsp; &nbsp;<font class='posOutcome'>you receive: <strong>8</strong></font></div>","null","4","Plum Powerball","Fruit/plums1.png","Won","0.8,0.2","9","0.8","59","10","",""
"html-keyboard-response","40","483782","0.0-11.0-1.10","ds_test","bdp_rwlrn","Sat Feb 18 2023 16:29:35 GMT-0500 (Eastern Standard Time)","697449","Untrustworthy,Trustworthy","","","","decision","","","252","","<div class='trialDiv'><img src='Fruit/papayas.png'><br><font class='baseline'><strong>Papaya Payday</strong><p>Choose number of points to bet.</font><div class='respPicDiv'><img src='img/responseButtonOffersNo0L.png' class='respPic'></div></div>","3","4","Papaya Payday","Fruit/papayas.png","Lost","0.2,0.65","8","0.2","64","11","",""
"html-keyboard-response","41","484041","0.0-11.0-2.10","ds_test","bdp_rwlrn","Sat Feb 18 2023 16:29:35 GMT-0500 (Eastern Standard Time)","697449","Untrustworthy,Trustworthy","","","","decisionFB","","","null","","<div class='trialDiv'><img src='Fruit/papayas.png'><br><font class='baseline'><strong>Papaya Payday</strong><p>Choose number of points to bet.</font><div class='respPicDiv'><img src='img/responseButtonOffersNo0L3.png' class='respPic'></div></div>","null","4","Papaya Payday","Fruit/papayas.png","Lost","0.2,0.65","8","0.2","61","11","",""
"html-keyboard-response","42","485050","0.0-11.0-3.10","ds_test","bdp_rwlrn","Sat Feb 18 2023 16:29:35 GMT-0500 (Eastern Standard Time)","697449","Untrustworthy,Trustworthy","","","","feedback","","","null","","<div class='respPicDiv'><img src='img/responseButtonOffersNo0_wht.png' class='respPic'></div><div class='trialDiv'><img src='Fruit/papayas.png'><br><font class='baseline'><strong>Papaya Payday</strong><p><strong><font class='negOutcome'>You LOST</font><p>You bet: 3</strong></font> &nbsp; &nbsp; &nbsp; &nbsp; &nbsp; &nbsp;<font class='negOutcome'>You receive: <strong>0</strong></font></div>","null","4","Papaya Payday","Fruit/papayas.png","Lost","0.2,0.65","8","0.2","61","11","",""
"html-keyboard-response","43","485332","0.0-11.0-1.11","ds_test","bdp_rwlrn","Sat Feb 18 2023 16:29:35 GMT-0500 (Eastern Standard Time)","697449","Untrustworthy,Trustworthy","","","","decision","","","281","","<div class='trialDiv'><img src='Fruit/orange.png'><br><font class='baseline'><strong>Odds are Orange</strong><p>Choose number of points to bet.</font><div class='respPicDiv'><img src='img/responseButtonOffersNo0L.png' class='respPic'></div></div>","2","4","Odds are Orange","Fruit/orange.png","Won","0.65,0.2","9","0.65","66","12","",""
"html-keyboard-response","44","485593","0.0-11.0-2.11","ds_test","bdp_rwlrn","Sat Feb 18 2023 16:29:35 GMT-0500 (Eastern Standard Time)","697449","Untrustworthy,Trustworthy","","","","decisionFB","","","null","","<div class='trialDiv'><img src='Fruit/orange.png'><br><font class='baseline'><strong>Odds are Orange</strong><p>Choose number of points to bet.</font><div class='respPicDiv'><img src='img/responseButtonOffersNo0L2.png' class='respPic'></div></div>","null","4","Odds are Orange","Fruit/orange.png","Won","0.65,0.2","9","0.65","64","12","",""
"html-keyboard-response","45","486601","0.0-11.0-3.11","ds_test","bdp_rwlrn","Sat Feb 18 2023 16:29:35 GMT-0500 (Eastern Standard Time)","697449","Untrustworthy,Trustworthy","","","","feedback","","","null","","<div class='respPicDiv'><img src='img/responseButtonOffersNo0_wht.png' class='respPic'></div><div class='trialDiv'><img src='Fruit/orange.png'><br><font class='baseline'><strong>Odds are Orange</strong><p><strong><font class='posOutcome'>You WON</font><p>You bet: 2</strong></font> &nbsp; &nbsp; &nbsp; &nbsp; &nbsp; &nbsp;<font class='posOutcome'>you receive: <strong>4</strong></font></div>","null","4","Odds are Orange","Fruit/orange.png","Won","0.65,0.2","9","0.65","68","12","",""
"html-keyboard-response","46","486879","0.0-11.0-1.12","ds_test","bdp_rwlrn","Sat Feb 18 2023 16:29:35 GMT-0500 (Eastern Standard Time)","697449","Untrustworthy,Trustworthy","","","","decision","","","277","","<div class='trialDiv'><img src='Fruit/plums1.png'><br><font class='baseline'><strong>Plum Powerball</strong><p>Choose number of points to bet.</font><div class='respPicDiv'><img src='img/responseButtonOffersNo0L.png' class='respPic'></div></div>","1","5","Plum Powerball","Fruit/plums1.png","Won","0.8,0.2","9","0.8","73","13","",""
"html-keyboard-response","47","487135","0.0-11.0-2.12","ds_test","bdp_rwlrn","Sat Feb 18 2023 16:29:35 GMT-0500 (Eastern Standard Time)","697449","Untrustworthy,Trustworthy","","","","decisionFB","","","null","","<div class='trialDiv'><img src='Fruit/plums1.png'><br><font class='baseline'><strong>Plum Powerball</strong><p>Choose number of points to bet.</font><div class='respPicDiv'><img src='img/responseButtonOffersNo0L1.png' class='respPic'></div></div>","null","5","Plum Powerball","Fruit/plums1.png","Won","0.8,0.2","9","0.8","72","13","",""
"html-keyboard-response","48","488143","0.0-11.0-3.12","ds_test","bdp_rwlrn","Sat Feb 18 2023 16:29:35 GMT-0500 (Eastern Standard Time)","697449","Untrustworthy,Trustworthy","","","","feedback","","","null","","<div class='respPicDiv'><img src='img/responseButtonOffersNo0_wht.png' class='respPic'></div><div class='trialDiv'><img src='Fruit/plums1.png'><br><font class='baseline'><strong>Plum Powerball</strong><p><strong><font class='posOutcome'>You WON</font><p>You bet: 1</strong></font> &nbsp; &nbsp; &nbsp; &nbsp; &nbsp; &nbsp;<font class='posOutcome'>you receive: <strong>2</strong></font></div>","null","5","Plum Powerball","Fruit/plums1.png","Won","0.8,0.2","9","0.8","74","13","",""
"html-keyboard-response","49","488434","0.0-11.0-1.13","ds_test","bdp_rwlrn","Sat Feb 18 2023 16:29:35 GMT-0500 (Eastern Standard Time)","697449","Untrustworthy,Trustworthy","","","","decision","","","289","","<div class='trialDiv'><img src='Fruit/orange.png'><br><font class='baseline'><strong>Odds are Orange</strong><p>Choose number of points to bet.</font><div class='respPicDiv'><img src='img/responseButtonOffersNo0L.png' class='respPic'></div></div>","2","5","Odds are Orange","Fruit/orange.png","Won","0.65,0.2","9","0.65","79","14","",""
"html-keyboard-response","50","488687","0.0-11.0-2.13","ds_test","bdp_rwlrn","Sat Feb 18 2023 16:29:35 GMT-0500 (Eastern Standard Time)","697449","Untrustworthy,Trustworthy","","","","decisionFB","","","null","","<div class='trialDiv'><img src='Fruit/orange.png'><br><font class='baseline'><strong>Odds are Orange</strong><p>Choose number of points to bet.</font><div class='respPicDiv'><img src='img/responseButtonOffersNo0L2.png' class='respPic'></div></div>","null","5","Odds are Orange","Fruit/orange.png","Won","0.65,0.2","9","0.65","77","14","",""
"html-keyboard-response","51","489695","0.0-11.0-3.13","ds_test","bdp_rwlrn","Sat Feb 18 2023 16:29:35 GMT-0500 (Eastern Standard Time)","697449","Untrustworthy,Trustworthy","","","","feedback","","","null","","<div class='respPicDiv'><img src='img/responseButtonOffersNo0_wht.png' class='respPic'></div><div class='trialDiv'><img src='Fruit/orange.png'><br><font class='baseline'><strong>Odds are Orange</strong><p><strong><font class='posOutcome'>You WON</font><p>You bet: 2</strong></font> &nbsp; &nbsp; &nbsp; &nbsp; &nbsp; &nbsp;<font class='posOutcome'>you receive: <strong>4</strong></font></div>","null","5","Odds are Orange","Fruit/orange.png","Won","0.65,0.2","9","0.65","81","14","",""
"html-keyboard-response","52","489998","0.0-11.0-1.14","ds_test","bdp_rwlrn","Sat Feb 18 2023 16:29:35 GMT-0500 (Eastern Standard Time)","697449","Untrustworthy,Trustworthy","","","","decision","","","301","","<div class='trialDiv'><img src='Fruit/papayas.png'><br><font class='baseline'><strong>Papaya Payday</strong><p>Choose number of points to bet.</font><div class='respPicDiv'><img src='img/responseButtonOffersNo0L.png' class='respPic'></div></div>","3","5","Papaya Payday","Fruit/papayas.png","Lost","0.2,0.65","8","0.2","86","15","",""
"html-keyboard-response","53","490250","0.0-11.0-2.14","ds_test","bdp_rwlrn","Sat Feb 18 2023 16:29:35 GMT-0500 (Eastern Standard Time)","697449","Untrustworthy,Trustworthy","","","","decisionFB","","","null","","<div class='trialDiv'><img src='Fruit/papayas.png'><br><font class='baseline'><strong>Papaya Payday</strong><p>Choose number of points to bet.</font><div class='respPicDiv'><img src='img/responseButtonOffersNo0L3.png' class='respPic'></div></div>","null","5","Papaya Payday","Fruit/papayas.png","Lost","0.2,0.65","8","0.2","83","15","",""
"html-keyboard-response","54","491258","0.0-11.0-3.14","ds_test","bdp_rwlrn","Sat Feb 18 2023 16:29:35 GMT-0500 (Eastern Standard Time)","697449","Untrustworthy,Trustworthy","","","","feedback","","","null","","<div class='respPicDiv'><img src='img/responseButtonOffersNo0_wht.png' class='respPic'></div><div class='trialDiv'><img src='Fruit/papayas.png'><br><font class='baseline'><strong>Papaya Payday</strong><p><strong><font class='negOutcome'>You LOST</font><p>You bet: 3</strong></font> &nbsp; &nbsp; &nbsp; &nbsp; &nbsp; &nbsp;<font class='negOutcome'>You receive: <strong>0</strong></font></div>","null","5","Papaya Payday","Fruit/papayas.png","Lost","0.2,0.65","8","0.2","83","15","",""
"html-keyboard-response","55","491564","0.0-11.0-1.15","ds_test","bdp_rwlrn","Sat Feb 18 2023 16:29:35 GMT-0500 (Eastern Standard Time)","697449","Untrustworthy,Trustworthy","","","","decision","","","304","","<div class='trialDiv'><img src='Fruit/orange.png'><br><font class='baseline'><strong>Odds are Orange</strong><p>Choose number of points to bet.</font><div class='respPicDiv'><img src='img/responseButtonOffersNo0L.png' class='respPic'></div></div>","4","6","Odds are Orange","Fruit/orange.png","Won","0.65,0.2","9","0.65","88","16","",""
"html-keyboard-response","56","491823","0.0-11.0-2.15","ds_test","bdp_rwlrn","Sat Feb 18 2023 16:29:35 GMT-0500 (Eastern Standard Time)","697449","Untrustworthy,Trustworthy","","","","decisionFB","","","null","","<div class='trialDiv'><img src='Fruit/orange.png'><br><font class='baseline'><strong>Odds are Orange</strong><p>Choose number of points to bet.</font><div class='respPicDiv'><img src='img/responseButtonOffersNo0L4.png' class='respPic'></div></div>","null","6","Odds are Orange","Fruit/orange.png","Won","0.65,0.2","9","0.65","84","16","",""
"html-keyboard-response","57","492831","0.0-11.0-3.15","ds_test","bdp_rwlrn","Sat Feb 18 2023 16:29:35 GMT-0500 (Eastern Standard Time)","697449","Untrustworthy,Trustworthy","","","","feedback","","","null","","<div class='respPicDiv'><img src='img/responseButtonOffersNo0_wht.png' class='respPic'></div><div class='trialDiv'><img src='Fruit/orange.png'><br><font class='baseline'><strong>Odds are Orange</strong><p><strong><font class='posOutcome'>You WON</font><p>You bet: 4</strong></font> &nbsp; &nbsp; &nbsp; &nbsp; &nbsp; &nbsp;<font class='posOutcome'>you receive: <strong>8</strong></font></div>","null","6","Odds are Orange","Fruit/orange.png","Won","0.65,0.2","9","0.65","92","16","",""
"html-keyboard-response","58","493164","0.0-11.0-1.16","ds_test","bdp_rwlrn","Sat Feb 18 2023 16:29:35 GMT-0500 (Eastern Standard Time)","697449","Untrustworthy,Trustworthy","","","","decision","","","331","","<div class='trialDiv'><img src='Fruit/plums1.png'><br><font class='baseline'><strong>Plum Powerball</strong><p>Choose number of points to bet.</font><div class='respPicDiv'><img src='img/responseButtonOffersNo0L.png' class='respPic'></div></div>","5","6","Plum Powerball","Fruit/plums1.png","Won","0.8,0.2","9","0.8","97","17","",""
"html-keyboard-response","59","493422","0.0-11.0-2.16","ds_test","bdp_rwlrn","Sat Feb 18 2023 16:29:35 GMT-0500 (Eastern Standard Time)","697449","Untrustworthy,Trustworthy","","","","decisionFB","","","null","","<div class='trialDiv'><img src='Fruit/plums1.png'><br><font class='baseline'><strong>Plum Powerball</strong><p>Choose number of points to bet.</font><div class='respPicDiv'><img src='img/responseButtonOffersNo0L5.png' class='respPic'></div></div>","null","6","Plum Powerball","Fruit/plums1.png","Won","0.8,0.2","9","0.8","92","17","",""
"html-keyboard-response","60","494431","0.0-11.0-3.16","ds_test","bdp_rwlrn","Sat Feb 18 2023 16:29:35 GMT-0500 (Eastern Standard Time)","697449","Untrustworthy,Trustworthy","","","","feedback","","","null","","<div class='respPicDiv'><img src='img/responseButtonOffersNo0_wht.png' class='respPic'></div><div class='trialDiv'><img src='Fruit/plums1.png'><br><font class='baseline'><strong>Plum Powerball</strong><p><strong><font class='posOutcome'>You WON</font><p>You bet: 5</strong></font> &nbsp; &nbsp; &nbsp; &nbsp; &nbsp; &nbsp;<font class='posOutcome'>you receive: <strong>10</strong></font></div>","null","6","Plum Powerball","Fruit/plums1.png","Won","0.8,0.2","9","0.8","102","17","",""
"html-keyboard-response","61","494812","0.0-11.0-1.17","ds_test","bdp_rwlrn","Sat Feb 18 2023 16:29:35 GMT-0500 (Eastern Standard Time)","697449","Untrustworthy,Trustworthy","","","","decision","","","381","","<div class='trialDiv'><img src='Fruit/papayas.png'><br><font class='baseline'><strong>Papaya Payday</strong><p>Choose number of points to bet.</font><div class='respPicDiv'><img src='img/responseButtonOffersNo0L.png' class='respPic'></div></div>","4","6","Papaya Payday","Fruit/papayas.png","Lost","0.2,0.65","8","0.2","107","18","",""
"html-keyboard-response","62","495066","0.0-11.0-2.17","ds_test","bdp_rwlrn","Sat Feb 18 2023 16:29:35 GMT-0500 (Eastern Standard Time)","697449","Untrustworthy,Trustworthy","","","","decisionFB","","","null","","<div class='trialDiv'><img src='Fruit/papayas.png'><br><font class='baseline'><strong>Papaya Payday</strong><p>Choose number of points to bet.</font><div class='respPicDiv'><img src='img/responseButtonOffersNo0L4.png' class='respPic'></div></div>","null","6","Papaya Payday","Fruit/papayas.png","Lost","0.2,0.65","8","0.2","103","18","",""
"html-keyboard-response","63","496073","0.0-11.0-3.17","ds_test","bdp_rwlrn","Sat Feb 18 2023 16:29:35 GMT-0500 (Eastern Standard Time)","697449","Untrustworthy,Trustworthy","","","","feedback","","","null","","<div class='respPicDiv'><img src='img/responseButtonOffersNo0_wht.png' class='respPic'></div><div class='trialDiv'><img src='Fruit/papayas.png'><br><font class='baseline'><strong>Papaya Payday</strong><p><strong><font class='negOutcome'>You LOST</font><p>You bet: 4</strong></font> &nbsp; &nbsp; &nbsp; &nbsp; &nbsp; &nbsp;<font class='negOutcome'>You receive: <strong>0</strong></font></div>","null","6","Papaya Payday","Fruit/papayas.png","Lost","0.2,0.65","8","0.2","103","18","",""
"html-keyboard-response","64","496348","0.0-11.0-1.18","ds_test","bdp_rwlrn","Sat Feb 18 2023 16:29:35 GMT-0500 (Eastern Standard Time)","697449","Untrustworthy,Trustworthy","","","","decision","","","274","","<div class='trialDiv'><img src='Fruit/orange.png'><br><font class='baseline'><strong>Odds are Orange</strong><p>Choose number of points to bet.</font><div class='respPicDiv'><img src='img/responseButtonOffersNo0L.png' class='respPic'></div></div>","3","7","Odds are Orange","Fruit/orange.png","Won","0.65,0.2","9","0.65","108","19","",""
"html-keyboard-response","65","496607","0.0-11.0-2.18","ds_test","bdp_rwlrn","Sat Feb 18 2023 16:29:35 GMT-0500 (Eastern Standard Time)","697449","Untrustworthy,Trustworthy","","","","decisionFB","","","null","","<div class='trialDiv'><img src='Fruit/orange.png'><br><font class='baseline'><strong>Odds are Orange</strong><p>Choose number of points to bet.</font><div class='respPicDiv'><img src='img/responseButtonOffersNo0L3.png' class='respPic'></div></div>","null","7","Odds are Orange","Fruit/orange.png","Won","0.65,0.2","9","0.65","105","19","",""
"html-keyboard-response","66","497617","0.0-11.0-3.18","ds_test","bdp_rwlrn","Sat Feb 18 2023 16:29:35 GMT-0500 (Eastern Standard Time)","697449","Untrustworthy,Trustworthy","","","","feedback","","","null","","<div class='respPicDiv'><img src='img/responseButtonOffersNo0_wht.png' class='respPic'></div><div class='trialDiv'><img src='Fruit/orange.png'><br><font class='baseline'><strong>Odds are Orange</strong><p><strong><font class='posOutcome'>You WON</font><p>You bet: 3</strong></font> &nbsp; &nbsp; &nbsp; &nbsp; &nbsp; &nbsp;<font class='posOutcome'>you receive: <strong>6</strong></font></div>","null","7","Odds are Orange","Fruit/orange.png","Won","0.65,0.2","9","0.65","111","19","",""
"html-keyboard-response","67","497718","0.0-11.0-1.19","ds_test","bdp_rwlrn","Sat Feb 18 2023 16:29:35 GMT-0500 (Eastern Standard Time)","697449","Untrustworthy,Trustworthy","","","","decision","","","98","","<div class='trialDiv'><img src='Fruit/papayas.png'><br><font class='baseline'><strong>Papaya Payday</strong><p>Choose number of points to bet.</font><div class='respPicDiv'><img src='img/responseButtonOffersNo0L.png' class='respPic'></div></div>","2","7","Papaya Payday","Fruit/papayas.png","Lost","0.2,0.65","8","0.2","116","20","",""
"html-keyboard-response","68","497977","0.0-11.0-2.19","ds_test","bdp_rwlrn","Sat Feb 18 2023 16:29:35 GMT-0500 (Eastern Standard Time)","697449","Untrustworthy,Trustworthy","","","","decisionFB","","","null","","<div class='trialDiv'><img src='Fruit/papayas.png'><br><font class='baseline'><strong>Papaya Payday</strong><p>Choose number of points to bet.</font><div class='respPicDiv'><img src='img/responseButtonOffersNo0L2.png' class='respPic'></div></div>","null","7","Papaya Payday","Fruit/papayas.png","Lost","0.2,0.65","8","0.2","114","20","",""
"html-keyboard-response","69","498986","0.0-11.0-3.19","ds_test","bdp_rwlrn","Sat Feb 18 2023 16:29:35 GMT-0500 (Eastern Standard Time)","697449","Untrustworthy,Trustworthy","","","","feedback","","","null","","<div class='respPicDiv'><img src='img/responseButtonOffersNo0_wht.png' class='respPic'></div><div class='trialDiv'><img src='Fruit/papayas.png'><br><font class='baseline'><strong>Papaya Payday</strong><p><strong><font class='negOutcome'>You LOST</font><p>You bet: 2</strong></font> &nbsp; &nbsp; &nbsp; &nbsp; &nbsp; &nbsp;<font class='negOutcome'>You receive: <strong>0</strong></font></div>","null","7","Papaya Payday","Fruit/papayas.png","Lost","0.2,0.65","8","0.2","114","20","",""
"html-keyboard-response","70","499298","0.0-11.0-1.20","ds_test","bdp_rwlrn","Sat Feb 18 2023 16:29:35 GMT-0500 (Eastern Standard Time)","697449","Untrustworthy,Trustworthy","","","","decision","","","310","","<div class='trialDiv'><img src='Fruit/plums1.png'><br><font class='baseline'><strong>Plum Powerball</strong><p>Choose number of points to bet.</font><div class='respPicDiv'><img src='img/responseButtonOffersNo0L.png' class='respPic'></div></div>","1","7","Plum Powerball","Fruit/plums1.png","Won","0.8,0.2","9","0.8","119","21","",""
"html-keyboard-response","71","499551","0.0-11.0-2.20","ds_test","bdp_rwlrn","Sat Feb 18 2023 16:29:35 GMT-0500 (Eastern Standard Time)","697449","Untrustworthy,Trustworthy","","","","decisionFB","","","null","","<div class='trialDiv'><img src='Fruit/plums1.png'><br><font class='baseline'><strong>Plum Powerball</strong><p>Choose number of points to bet.</font><div class='respPicDiv'><img src='img/responseButtonOffersNo0L1.png' class='respPic'></div></div>","null","7","Plum Powerball","Fruit/plums1.png","Won","0.8,0.2","9","0.8","118","21","",""
"html-keyboard-response","72","500559","0.0-11.0-3.20","ds_test","bdp_rwlrn","Sat Feb 18 2023 16:29:35 GMT-0500 (Eastern Standard Time)","697449","Untrustworthy,Trustworthy","","","","feedback","","","null","","<div class='respPicDiv'><img src='img/responseButtonOffersNo0_wht.png' class='respPic'></div><div class='trialDiv'><img src='Fruit/plums1.png'><br><font class='baseline'><strong>Plum Powerball</strong><p><strong><font class='posOutcome'>You WON</font><p>You bet: 1</strong></font> &nbsp; &nbsp; &nbsp; &nbsp; &nbsp; &nbsp;<font class='posOutcome'>you receive: <strong>2</strong></font></div>","null","7","Plum Powerball","Fruit/plums1.png","Won","0.8,0.2","9","0.8","120","21","",""
"html-keyboard-response","73","500811","0.0-11.0-1.21","ds_test","bdp_rwlrn","Sat Feb 18 2023 16:29:35 GMT-0500 (Eastern Standard Time)","697449","Untrustworthy,Trustworthy","","","","decision","","","250","","<div class='trialDiv'><img src='Fruit/papayas.png'><br><font class='baseline'><strong>Papaya Payday</strong><p>Choose number of points to bet.</font><div class='respPicDiv'><img src='img/responseButtonOffersNo0L.png' class='respPic'></div></div>","2","8","Papaya Payday","Fruit/papayas.png","Won","0.2,0.65","8","0.2","125","22","",""
"html-keyboard-response","74","501071","0.0-11.0-2.21","ds_test","bdp_rwlrn","Sat Feb 18 2023 16:29:35 GMT-0500 (Eastern Standard Time)","697449","Untrustworthy,Trustworthy","","","","decisionFB","","","null","","<div class='trialDiv'><img src='Fruit/papayas.png'><br><font class='baseline'><strong>Papaya Payday</strong><p>Choose number of points to bet.</font><div class='respPicDiv'><img src='img/responseButtonOffersNo0L2.png' class='respPic'></div></div>","null","8","Papaya Payday","Fruit/papayas.png","Won","0.2,0.65","8","0.2","123","22","",""
"html-keyboard-response","75","502079","0.0-11.0-3.21","ds_test","bdp_rwlrn","Sat Feb 18 2023 16:29:35 GMT-0500 (Eastern Standard Time)","697449","Untrustworthy,Trustworthy","","","","feedback","","","null","","<div class='respPicDiv'><img src='img/responseButtonOffersNo0_wht.png' class='respPic'></div><div class='trialDiv'><img src='Fruit/papayas.png'><br><font class='baseline'><strong>Papaya Payday</strong><p><strong><font class='posOutcome'>You WON</font><p>You bet: 2</strong></font> &nbsp; &nbsp; &nbsp; &nbsp; &nbsp; &nbsp;<font class='posOutcome'>you receive: <strong>4</strong></font></div>","null","8","Papaya Payday","Fruit/papayas.png","Won","0.2,0.65","8","0.2","127","22","",""
"html-keyboard-response","76","502322","0.0-11.0-1.22","ds_test","bdp_rwlrn","Sat Feb 18 2023 16:29:35 GMT-0500 (Eastern Standard Time)","697449","Untrustworthy,Trustworthy","","","","decision","","","241","","<div class='trialDiv'><img src='Fruit/plums1.png'><br><font class='baseline'><strong>Plum Powerball</strong><p>Choose number of points to bet.</font><div class='respPicDiv'><img src='img/responseButtonOffersNo0L.png' class='respPic'></div></div>","3","8","Plum Powerball","Fruit/plums1.png","Won","0.8,0.2","9","0.8","132","23","",""
"html-keyboard-response","77","502574","0.0-11.0-2.22","ds_test","bdp_rwlrn","Sat Feb 18 2023 16:29:35 GMT-0500 (Eastern Standard Time)","697449","Untrustworthy,Trustworthy","","","","decisionFB","","","null","","<div class='trialDiv'><img src='Fruit/plums1.png'><br><font class='baseline'><strong>Plum Powerball</strong><p>Choose number of points to bet.</font><div class='respPicDiv'><img src='img/responseButtonOffersNo0L3.png' class='respPic'></div></div>","null","8","Plum Powerball","Fruit/plums1.png","Won","0.8,0.2","9","0.8","129","23","",""
"html-keyboard-response","78","503586","0.0-11.0-3.22","ds_test","bdp_rwlrn","Sat Feb 18 2023 16:29:35 GMT-0500 (Eastern Standard Time)","697449","Untrustworthy,Trustworthy","","","","feedback","","","null","","<div class='respPicDiv'><img src='img/responseButtonOffersNo0_wht.png' class='respPic'></div><div class='trialDiv'><img src='Fruit/plums1.png'><br><font class='baseline'><strong>Plum Powerball</strong><p><strong><font class='posOutcome'>You WON</font><p>You bet: 3</strong></font> &nbsp; &nbsp; &nbsp; &nbsp; &nbsp; &nbsp;<font class='posOutcome'>you receive: <strong>6</strong></font></div>","null","8","Plum Powerball","Fruit/plums1.png","Won","0.8,0.2","9","0.8","135","23","",""
"html-keyboard-response","79","503965","0.0-11.0-1.23","ds_test","bdp_rwlrn","Sat Feb 18 2023 16:29:35 GMT-0500 (Eastern Standard Time)","697449","Untrustworthy,Trustworthy","","","","decision","","","377","","<div class='trialDiv'><img src='Fruit/orange.png'><br><font class='baseline'><strong>Odds are Orange</strong><p>Choose number of points to bet.</font><div class='respPicDiv'><img src='img/responseButtonOffersNo0L.png' class='respPic'></div></div>","4","8","Odds are Orange","Fruit/orange.png","Lost","0.65,0.2","9","0.65","140","24","",""
"html-keyboard-response","80","504222","0.0-11.0-2.23","ds_test","bdp_rwlrn","Sat Feb 18 2023 16:29:35 GMT-0500 (Eastern Standard Time)","697449","Untrustworthy,Trustworthy","","","","decisionFB","","","null","","<div class='trialDiv'><img src='Fruit/orange.png'><br><font class='baseline'><strong>Odds are Orange</strong><p>Choose number of points to bet.</font><div class='respPicDiv'><img src='img/responseButtonOffersNo0L4.png' class='respPic'></div></div>","null","8","Odds are Orange","Fruit/orange.png","Lost","0.65,0.2","9","0.65","136","24","",""
"html-keyboard-response","81","505232","0.0-11.0-3.23","ds_test","bdp_rwlrn","Sat Feb 18 2023 16:29:35 GMT-0500 (Eastern Standard Time)","697449","Untrustworthy,Trustworthy","","","","feedback","","","null","","<div class='respPicDiv'><img src='img/responseButtonOffersNo0_wht.png' class='respPic'></div><div class='trialDiv'><img src='Fruit/orange.png'><br><font class='baseline'><strong>Odds are Orange</strong><p><strong><font class='negOutcome'>You LOST</font><p>You bet: 4</strong></font> &nbsp; &nbsp; &nbsp; &nbsp; &nbsp; &nbsp;<font class='negOutcome'>You receive: <strong>0</strong></font></div>","null","8","Odds are Orange","Fruit/orange.png","Lost","0.65,0.2","9","0.65","136","24","",""
"html-keyboard-response","82","505476","0.0-11.0-1.24","ds_test","bdp_rwlrn","Sat Feb 18 2023 16:29:35 GMT-0500 (Eastern Standard Time)","697449","Untrustworthy,Trustworthy","","","","decision","","","242","","<div class='trialDiv'><img src='Fruit/papayas.png'><br><font class='baseline'><strong>Papaya Payday</strong><p>Choose number of points to bet.</font><div class='respPicDiv'><img src='img/responseButtonOffersNo0L.png' class='respPic'></div></div>","5","9","Papaya Payday","Fruit/papayas.png","Won","0.2,0.65","8","0.2","141","25","",""
"html-keyboard-response","83","505737","0.0-11.0-2.24","ds_test","bdp_rwlrn","Sat Feb 18 2023 16:29:35 GMT-0500 (Eastern Standard Time)","697449","Untrustworthy,Trustworthy","","","","decisionFB","","","null","","<div class='trialDiv'><img src='Fruit/papayas.png'><br><font class='baseline'><strong>Papaya Payday</strong><p>Choose number of points to bet.</font><div class='respPicDiv'><img src='img/responseButtonOffersNo0L5.png' class='respPic'></div></div>","null","9","Papaya Payday","Fruit/papayas.png","Won","0.2,0.65","8","0.2","136","25","",""
"html-keyboard-response","84","506746","0.0-11.0-3.24","ds_test","bdp_rwlrn","Sat Feb 18 2023 16:29:35 GMT-0500 (Eastern Standard Time)","697449","Untrustworthy,Trustworthy","","","","feedback","","","null","","<div class='respPicDiv'><img src='img/responseButtonOffersNo0_wht.png' class='respPic'></div><div class='trialDiv'><img src='Fruit/papayas.png'><br><font class='baseline'><strong>Papaya Payday</strong><p><strong><font class='posOutcome'>You WON</font><p>You bet: 5</strong></font> &nbsp; &nbsp; &nbsp; &nbsp; &nbsp; &nbsp;<font class='posOutcome'>you receive: <strong>10</strong></font></div>","null","9","Papaya Payday","Fruit/papayas.png","Won","0.2,0.65","8","0.2","146","25","",""
"html-keyboard-response","85","507224","0.0-11.0-1.25","ds_test","bdp_rwlrn","Sat Feb 18 2023 16:29:35 GMT-0500 (Eastern Standard Time)","697449","Untrustworthy,Trustworthy","","","","decision","","","475","","<div class='trialDiv'><img src='Fruit/plums1.png'><br><font class='baseline'><strong>Plum Powerball</strong><p>Choose number of points to bet.</font><div class='respPicDiv'><img src='img/responseButtonOffersNo0L.png' class='respPic'></div></div>","4","9","Plum Powerball","Fruit/plums1.png","Lost","0.8,0.2","9","0.8","151","26","",""
"html-keyboard-response","86","507481","0.0-11.0-2.25","ds_test","bdp_rwlrn","Sat Feb 18 2023 16:29:35 GMT-0500 (Eastern Standard Time)","697449","Untrustworthy,Trustworthy","","","","decisionFB","","","null","","<div class='trialDiv'><img src='Fruit/plums1.png'><br><font class='baseline'><strong>Plum Powerball</strong><p>Choose number of points to bet.</font><div class='respPicDiv'><img src='img/responseButtonOffersNo0L4.png' class='respPic'></div></div>","null","9","Plum Powerball","Fruit/plums1.png","Lost","0.8,0.2","9","0.8","147","26","",""
"html-keyboard-response","87","508489","0.0-11.0-3.25","ds_test","bdp_rwlrn","Sat Feb 18 2023 16:29:35 GMT-0500 (Eastern Standard Time)","697449","Untrustworthy,Trustworthy","","","","feedback","","","null","","<div class='respPicDiv'><img src='img/responseButtonOffersNo0_wht.png' class='respPic'></div><div class='trialDiv'><img src='Fruit/plums1.png'><br><font class='baseline'><strong>Plum Powerball</strong><p><strong><font class='negOutcome'>You LOST</font><p>You bet: 4</strong></font> &nbsp; &nbsp; &nbsp; &nbsp; &nbsp; &nbsp;<font class='negOutcome'>You receive: <strong>0</strong></font></div>","null","9","Plum Powerball","Fruit/plums1.png","Lost","0.8,0.2","9","0.8","147","26","",""
"html-keyboard-response","88","508818","0.0-11.0-1.26","ds_test","bdp_rwlrn","Sat Feb 18 2023 16:29:35 GMT-0500 (Eastern Standard Time)","697449","Untrustworthy,Trustworthy","","","","decision","","","327","","<div class='trialDiv'><img src='Fruit/orange.png'><br><font class='baseline'><strong>Odds are Orange</strong><p>Choose number of points to bet.</font><div class='respPicDiv'><img src='img/responseButtonOffersNo0L.png' class='respPic'></div></div>","3","9","Odds are Orange","Fruit/orange.png","Lost","0.65,0.2","9","0.65","152","27","",""
"html-keyboard-response","89","509071","0.0-11.0-2.26","ds_test","bdp_rwlrn","Sat Feb 18 2023 16:29:35 GMT-0500 (Eastern Standard Time)","697449","Untrustworthy,Trustworthy","","","","decisionFB","","","null","","<div class='trialDiv'><img src='Fruit/orange.png'><br><font class='baseline'><strong>Odds are Orange</strong><p>Choose number of points to bet.</font><div class='respPicDiv'><img src='img/responseButtonOffersNo0L3.png' class='respPic'></div></div>","null","9","Odds are Orange","Fruit/orange.png","Lost","0.65,0.2","9","0.65","149","27","",""
"html-keyboard-response","90","510080","0.0-11.0-3.26","ds_test","bdp_rwlrn","Sat Feb 18 2023 16:29:35 GMT-0500 (Eastern Standard Time)","697449","Untrustworthy,Trustworthy","","","","feedback","","","null","","<div class='respPicDiv'><img src='img/responseButtonOffersNo0_wht.png' class='respPic'></div><div class='trialDiv'><img src='Fruit/orange.png'><br><font class='baseline'><strong>Odds are Orange</strong><p><strong><font class='negOutcome'>You LOST</font><p>You bet: 3</strong></font> &nbsp; &nbsp; &nbsp; &nbsp; &nbsp; &nbsp;<font class='negOutcome'>You receive: <strong>0</strong></font></div>","null","9","Odds are Orange","Fruit/orange.png","Lost","0.65,0.2","9","0.65","149","27","",""
"html-keyboard-response","91","510324","0.0-11.0-1.27","ds_test","bdp_rwlrn","Sat Feb 18 2023 16:29:35 GMT-0500 (Eastern Standard Time)","697449","Untrustworthy,Trustworthy","","","","decision","","","242","","<div class='trialDiv'><img src='Fruit/plums1.png'><br><font class='baseline'><strong>Plum Powerball</strong><p>Choose number of points to bet.</font><div class='respPicDiv'><img src='img/responseButtonOffersNo0L.png' class='respPic'></div></div>","2","10","Plum Powerball","Fruit/plums1.png","Lost","0.8,0.2","9","0.8","154","28","",""
"html-keyboard-response","92","510585","0.0-11.0-2.27","ds_test","bdp_rwlrn","Sat Feb 18 2023 16:29:35 GMT-0500 (Eastern Standard Time)","697449","Untrustworthy,Trustworthy","","","","decisionFB","","","null","","<div class='trialDiv'><img src='Fruit/plums1.png'><br><font class='baseline'><strong>Plum Powerball</strong><p>Choose number of points to bet.</font><div class='respPicDiv'><img src='img/responseButtonOffersNo0L2.png' class='respPic'></div></div>","null","10","Plum Powerball","Fruit/plums1.png","Lost","0.8,0.2","9","0.8","152","28","",""
"html-keyboard-response","93","511595","0.0-11.0-3.27","ds_test","bdp_rwlrn","Sat Feb 18 2023 16:29:35 GMT-0500 (Eastern Standard Time)","697449","Untrustworthy,Trustworthy","","","","feedback","","","null","","<div class='respPicDiv'><img src='img/responseButtonOffersNo0_wht.png' class='respPic'></div><div class='trialDiv'><img src='Fruit/plums1.png'><br><font class='baseline'><strong>Plum Powerball</strong><p><strong><font class='negOutcome'>You LOST</font><p>You bet: 2</strong></font> &nbsp; &nbsp; &nbsp; &nbsp; &nbsp; &nbsp;<font class='negOutcome'>You receive: <strong>0</strong></font></div>","null","10","Plum Powerball","Fruit/plums1.png","Lost","0.8,0.2","9","0.8","152","28","",""
"html-keyboard-response","94","511922","0.0-11.0-1.28","ds_test","bdp_rwlrn","Sat Feb 18 2023 16:29:35 GMT-0500 (Eastern Standard Time)","697449","Untrustworthy,Trustworthy","","","","decision","","","325","","<div class='trialDiv'><img src='Fruit/papayas.png'><br><font class='baseline'><strong>Papaya Payday</strong><p>Choose number of points to bet.</font><div class='respPicDiv'><img src='img/responseButtonOffersNo0L.png' class='respPic'></div></div>","1","10","Papaya Payday","Fruit/papayas.png","Won","0.2,0.65","8","0.2","157","29","",""
"html-keyboard-response","95","512174","0.0-11.0-2.28","ds_test","bdp_rwlrn","Sat Feb 18 2023 16:29:35 GMT-0500 (Eastern Standard Time)","697449","Untrustworthy,Trustworthy","","","","decisionFB","","","null","","<div class='trialDiv'><img src='Fruit/papayas.png'><br><font class='baseline'><strong>Papaya Payday</strong><p>Choose number of points to bet.</font><div class='respPicDiv'><img src='img/responseButtonOffersNo0L1.png' class='respPic'></div></div>","null","10","Papaya Payday","Fruit/papayas.png","Won","0.2,0.65","8","0.2","156","29","",""
"html-keyboard-response","96","513183","0.0-11.0-3.28","ds_test","bdp_rwlrn","Sat Feb 18 2023 16:29:35 GMT-0500 (Eastern Standard Time)","697449","Untrustworthy,Trustworthy","","","","feedback","","","null","","<div class='respPicDiv'><img src='img/responseButtonOffersNo0_wht.png' class='respPic'></div><div class='trialDiv'><img src='Fruit/papayas.png'><br><font class='baseline'><strong>Papaya Payday</strong><p><strong><font class='posOutcome'>You WON</font><p>You bet: 1</strong></font> &nbsp; &nbsp; &nbsp; &nbsp; &nbsp; &nbsp;<font class='posOutcome'>you receive: <strong>2</strong></font></div>","null","10","Papaya Payday","Fruit/papayas.png","Won","0.2,0.65","8","0.2","158","29","",""
"html-keyboard-response","97","513483","0.0-11.0-1.29","ds_test","bdp_rwlrn","Sat Feb 18 2023 16:29:35 GMT-0500 (Eastern Standard Time)","697449","Untrustworthy,Trustworthy","","","","decision","","","298","","<div class='trialDiv'><img src='Fruit/orange.png'><br><font class='baseline'><strong>Odds are Orange</strong><p>Choose number of points to bet.</font><div class='respPicDiv'><img src='img/responseButtonOffersNo0L.png' class='respPic'></div></div>","2","10","Odds are Orange","Fruit/orange.png","Lost","0.65,0.2","9","0.65","163","30","",""
"html-keyboard-response","98","513738","0.0-11.0-2.29","ds_test","bdp_rwlrn","Sat Feb 18 2023 16:29:35 GMT-0500 (Eastern Standard Time)","697449","Untrustworthy,Trustworthy","","","","decisionFB","","","null","","<div class='trialDiv'><img src='Fruit/orange.png'><br><font class='baseline'><strong>Odds are Orange</strong><p>Choose number of points to bet.</font><div class='respPicDiv'><img src='img/responseButtonOffersNo0L2.png' class='respPic'></div></div>","null","10","Odds are Orange","Fruit/orange.png","Lost","0.65,0.2","9","0.65","161","30","",""
"html-keyboard-response","99","514747","0.0-11.0-3.29","ds_test","bdp_rwlrn","Sat Feb 18 2023 16:29:35 GMT-0500 (Eastern Standard Time)","697449","Untrustworthy,Trustworthy","","","","feedback","","","null","","<div class='respPicDiv'><img src='img/responseButtonOffersNo0_wht.png' class='respPic'></div><div class='trialDiv'><img src='Fruit/orange.png'><br><font class='baseline'><strong>Odds are Orange</strong><p><strong><font class='negOutcome'>You LOST</font><p>You bet: 2</strong></font> &nbsp; &nbsp; &nbsp; &nbsp; &nbsp; &nbsp;<font class='negOutcome'>You receive: <strong>0</strong></font></div>","null","10","Odds are Orange","Fruit/orange.png","Lost","0.65,0.2","9","0.65","161","30","",""
"html-keyboard-response","100","514989","0.0-11.0-1.30","ds_test","bdp_rwlrn","Sat Feb 18 2023 16:29:35 GMT-0500 (Eastern Standard Time)","697449","Untrustworthy,Trustworthy","","","","decision","","","241","","<div class='trialDiv'><img src='Fruit/plums1.png'><br><font class='baseline'><strong>Plum Powerball</strong><p>Choose number of points to bet.</font><div class='respPicDiv'><img src='img/responseButtonOffersNo0L.png' class='respPic'></div></div>","3","11","Plum Powerball","Fruit/plums1.png","Lost","0.8,0.2","9","0.8","166","31","",""
"html-keyboard-response","101","515250","0.0-11.0-2.30","ds_test","bdp_rwlrn","Sat Feb 18 2023 16:29:35 GMT-0500 (Eastern Standard Time)","697449","Untrustworthy,Trustworthy","","","","decisionFB","","","null","","<div class='trialDiv'><img src='Fruit/plums1.png'><br><font class='baseline'><strong>Plum Powerball</strong><p>Choose number of points to bet.</font><div class='respPicDiv'><img src='img/responseButtonOffersNo0L3.png' class='respPic'></div></div>","null","11","Plum Powerball","Fruit/plums1.png","Lost","0.8,0.2","9","0.8","163","31","",""
"html-keyboard-response","102","516255","0.0-11.0-3.30","ds_test","bdp_rwlrn","Sat Feb 18 2023 16:29:35 GMT-0500 (Eastern Standard Time)","697449","Untrustworthy,Trustworthy","","","","feedback","","","null","","<div class='respPicDiv'><img src='img/responseButtonOffersNo0_wht.png' class='respPic'></div><div class='trialDiv'><img src='Fruit/plums1.png'><br><font class='baseline'><strong>Plum Powerball</strong><p><strong><font class='negOutcome'>You LOST</font><p>You bet: 3</strong></font> &nbsp; &nbsp; &nbsp; &nbsp; &nbsp; &nbsp;<font class='negOutcome'>You receive: <strong>0</strong></font></div>","null","11","Plum Powerball","Fruit/plums1.png","Lost","0.8,0.2","9","0.8","163","31","",""
"html-keyboard-response","103","516502","0.0-11.0-1.31","ds_test","bdp_rwlrn","Sat Feb 18 2023 16:29:35 GMT-0500 (Eastern Standard Time)","697449","Untrustworthy,Trustworthy","","","","decision","","","247","","<div class='trialDiv'><img src='Fruit/papayas.png'><br><font class='baseline'><strong>Papaya Payday</strong><p>Choose number of points to bet.</font><div class='respPicDiv'><img src='img/responseButtonOffersNo0L.png' class='respPic'></div></div>","4","11","Papaya Payday","Fruit/papayas.png","Lost","0.2,0.65","8","0.2","168","32","",""
"html-keyboard-response","104","516762","0.0-11.0-2.31","ds_test","bdp_rwlrn","Sat Feb 18 2023 16:29:35 GMT-0500 (Eastern Standard Time)","697449","Untrustworthy,Trustworthy","","","","decisionFB","","","null","","<div class='trialDiv'><img src='Fruit/papayas.png'><br><font class='baseline'><strong>Papaya Payday</strong><p>Choose number of points to bet.</font><div class='respPicDiv'><img src='img/responseButtonOffersNo0L4.png' class='respPic'></div></div>","null","11","Papaya Payday","Fruit/papayas.png","Lost","0.2,0.65","8","0.2","164","32","",""
"html-keyboard-response","105","517770","0.0-11.0-3.31","ds_test","bdp_rwlrn","Sat Feb 18 2023 16:29:35 GMT-0500 (Eastern Standard Time)","697449","Untrustworthy,Trustworthy","","","","feedback","","","null","","<div class='respPicDiv'><img src='img/responseButtonOffersNo0_wht.png' class='respPic'></div><div class='trialDiv'><img src='Fruit/papayas.png'><br><font class='baseline'><strong>Papaya Payday</strong><p><strong><font class='negOutcome'>You LOST</font><p>You bet: 4</strong></font> &nbsp; &nbsp; &nbsp; &nbsp; &nbsp; &nbsp;<font class='negOutcome'>You receive: <strong>0</strong></font></div>","null","11","Papaya Payday","Fruit/papayas.png","Lost","0.2,0.65","8","0.2","164","32","",""
"html-keyboard-response","106","518027","0.0-11.0-1.32","ds_test","bdp_rwlrn","Sat Feb 18 2023 16:29:35 GMT-0500 (Eastern Standard Time)","697449","Untrustworthy,Trustworthy","","","","decision","","","255","","<div class='trialDiv'><img src='Fruit/orange.png'><br><font class='baseline'><strong>Odds are Orange</strong><p>Choose number of points to bet.</font><div class='respPicDiv'><img src='img/responseButtonOffersNo0L.png' class='respPic'></div></div>","5","11","Odds are Orange","Fruit/orange.png","Lost","0.65,0.2","9","0.65","169","33","",""
"html-keyboard-response","107","518281","0.0-11.0-2.32","ds_test","bdp_rwlrn","Sat Feb 18 2023 16:29:35 GMT-0500 (Eastern Standard Time)","697449","Untrustworthy,Trustworthy","","","","decisionFB","","","null","","<div class='trialDiv'><img src='Fruit/orange.png'><br><font class='baseline'><strong>Odds are Orange</strong><p>Choose number of points to bet.</font><div class='respPicDiv'><img src='img/responseButtonOffersNo0L5.png' class='respPic'></div></div>","null","11","Odds are Orange","Fruit/orange.png","Lost","0.65,0.2","9","0.65","164","33","",""
"html-keyboard-response","108","519290","0.0-11.0-3.32","ds_test","bdp_rwlrn","Sat Feb 18 2023 16:29:35 GMT-0500 (Eastern Standard Time)","697449","Untrustworthy,Trustworthy","","","","feedback","","","null","","<div class='respPicDiv'><img src='img/responseButtonOffersNo0_wht.png' class='respPic'></div><div class='trialDiv'><img src='Fruit/orange.png'><br><font class='baseline'><strong>Odds are Orange</strong><p><strong><font class='negOutcome'>You LOST</font><p>You bet: 5</strong></font> &nbsp; &nbsp; &nbsp; &nbsp; &nbsp; &nbsp;<font class='negOutcome'>You receive: <strong>0</strong></font></div>","null","11","Odds are Orange","Fruit/orange.png","Lost","0.65,0.2","9","0.65","164","33","",""
"html-keyboard-response","109","519557","0.0-11.0-1.33","ds_test","bdp_rwlrn","Sat Feb 18 2023 16:29:35 GMT-0500 (Eastern Standard Time)","697449","Untrustworthy,Trustworthy","","","","decision","","","266","","<div class='trialDiv'><img src='Fruit/papayas.png'><br><font class='baseline'><strong>Papaya Payday</strong><p>Choose number of points to bet.</font><div class='respPicDiv'><img src='img/responseButtonOffersNo0L.png' class='respPic'></div></div>","4","12","Papaya Payday","Fruit/papayas.png","Lost","0.2,0.65","8","0.2","169","34","",""
"html-keyboard-response","110","519817","0.0-11.0-2.33","ds_test","bdp_rwlrn","Sat Feb 18 2023 16:29:35 GMT-0500 (Eastern Standard Time)","697449","Untrustworthy,Trustworthy","","","","decisionFB","","","null","","<div class='trialDiv'><img src='Fruit/papayas.png'><br><font class='baseline'><strong>Papaya Payday</strong><p>Choose number of points to bet.</font><div class='respPicDiv'><img src='img/responseButtonOffersNo0L4.png' class='respPic'></div></div>","null","12","Papaya Payday","Fruit/papayas.png","Lost","0.2,0.65","8","0.2","165","34","",""
"html-keyboard-response","111","520826","0.0-11.0-3.33","ds_test","bdp_rwlrn","Sat Feb 18 2023 16:29:35 GMT-0500 (Eastern Standard Time)","697449","Untrustworthy,Trustworthy","","","","feedback","","","null","","<div class='respPicDiv'><img src='img/responseButtonOffersNo0_wht.png' class='respPic'></div><div class='trialDiv'><img src='Fruit/papayas.png'><br><font class='baseline'><strong>Papaya Payday</strong><p><strong><font class='negOutcome'>You LOST</font><p>You bet: 4</strong></font> &nbsp; &nbsp; &nbsp; &nbsp; &nbsp; &nbsp;<font class='negOutcome'>You receive: <strong>0</strong></font></div>","null","12","Papaya Payday","Fruit/papayas.png","Lost","0.2,0.65","8","0.2","165","34","",""
"html-keyboard-response","112","521087","0.0-11.0-1.34","ds_test","bdp_rwlrn","Sat Feb 18 2023 16:29:35 GMT-0500 (Eastern Standard Time)","697449","Untrustworthy,Trustworthy","","","","decision","","","259","","<div class='trialDiv'><img src='Fruit/orange.png'><br><font class='baseline'><strong>Odds are Orange</strong><p>Choose number of points to bet.</font><div class='respPicDiv'><img src='img/responseButtonOffersNo0L.png' class='respPic'></div></div>","3","12","Odds are Orange","Fruit/orange.png","Lost","0.65,0.2","9","0.65","170","35","",""
"html-keyboard-response","113","521342","0.0-11.0-2.34","ds_test","bdp_rwlrn","Sat Feb 18 2023 16:29:35 GMT-0500 (Eastern Standard Time)","697449","Untrustworthy,Trustworthy","","","","decisionFB","","","null","","<div class='trialDiv'><img src='Fruit/orange.png'><br><font class='baseline'><strong>Odds are Orange</strong><p>Choose number of points to bet.</font><div class='respPicDiv'><img src='img/responseButtonOffersNo0L3.png' class='respPic'></div></div>","null","12","Odds are Orange","Fruit/orange.png","Lost","0.65,0.2","9","0.65","167","35","",""
"html-keyboard-response","114","522351","0.0-11.0-3.34","ds_test","bdp_rwlrn","Sat Feb 18 2023 16:29:35 GMT-0500 (Eastern Standard Time)","697449","Untrustworthy,Trustworthy","","","","feedback","","","null","","<div class='respPicDiv'><img src='img/responseButtonOffersNo0_wht.png' class='respPic'></div><div class='trialDiv'><img src='Fruit/orange.png'><br><font class='baseline'><strong>Odds are Orange</strong><p><strong><font class='negOutcome'>You LOST</font><p>You bet: 3</strong></font> &nbsp; &nbsp; &nbsp; &nbsp; &nbsp; &nbsp;<font class='negOutcome'>You receive: <strong>0</strong></font></div>","null","12","Odds are Orange","Fruit/orange.png","Lost","0.65,0.2","9","0.65","167","35","",""
"html-keyboard-response","115","522624","0.0-11.0-1.35","ds_test","bdp_rwlrn","Sat Feb 18 2023 16:29:35 GMT-0500 (Eastern Standard Time)","697449","Untrustworthy,Trustworthy","","","","decision","","","271","","<div class='trialDiv'><img src='Fruit/plums1.png'><br><font class='baseline'><strong>Plum Powerball</strong><p>Choose number of points to bet.</font><div class='respPicDiv'><img src='img/responseButtonOffersNo0L.png' class='respPic'></div></div>","2","12","Plum Powerball","Fruit/plums1.png","Lost","0.8,0.2","9","0.8","172","36","",""
"html-keyboard-response","116","522880","0.0-11.0-2.35","ds_test","bdp_rwlrn","Sat Feb 18 2023 16:29:35 GMT-0500 (Eastern Standard Time)","697449","Untrustworthy,Trustworthy","","","","decisionFB","","","null","","<div class='trialDiv'><img src='Fruit/plums1.png'><br><font class='baseline'><strong>Plum Powerball</strong><p>Choose number of points to bet.</font><div class='respPicDiv'><img src='img/responseButtonOffersNo0L2.png' class='respPic'></div></div>","null","12","Plum Powerball","Fruit/plums1.png","Lost","0.8,0.2","9","0.8","170","36","",""
"html-keyboard-response","117","523887","0.0-11.0-3.35","ds_test","bdp_rwlrn","Sat Feb 18 2023 16:29:35 GMT-0500 (Eastern Standard Time)","697449","Untrustworthy,Trustworthy","","","","feedback","","","null","","<div class='respPicDiv'><img src='img/responseButtonOffersNo0_wht.png' class='respPic'></div><div class='trialDiv'><img src='Fruit/plums1.png'><br><font class='baseline'><strong>Plum Powerball</strong><p><strong><font class='negOutcome'>You LOST</font><p>You bet: 2</strong></font> &nbsp; &nbsp; &nbsp; &nbsp; &nbsp; &nbsp;<font class='negOutcome'>You receive: <strong>0</strong></font></div>","null","12","Plum Powerball","Fruit/plums1.png","Lost","0.8,0.2","9","0.8","170","36","",""
"html-keyboard-response","118","524229","0.0-11.0-1.36","ds_test","bdp_rwlrn","Sat Feb 18 2023 16:29:35 GMT-0500 (Eastern Standard Time)","697449","Untrustworthy,Trustworthy","","","","decision","","","340","","<div class='trialDiv'><img src='Fruit/papayas.png'><br><font class='baseline'><strong>Papaya Payday</strong><p>Choose number of points to bet.</font><div class='respPicDiv'><img src='img/responseButtonOffersNo0L.png' class='respPic'></div></div>","1","13","Papaya Payday","Fruit/papayas.png","Lost","0.2,0.65","8","0.2","175","37","",""
"html-keyboard-response","119","524490","0.0-11.0-2.36","ds_test","bdp_rwlrn","Sat Feb 18 2023 16:29:35 GMT-0500 (Eastern Standard Time)","697449","Untrustworthy,Trustworthy","","","","decisionFB","","","null","","<div class='trialDiv'><img src='Fruit/papayas.png'><br><font class='baseline'><strong>Papaya Payday</strong><p>Choose number of points to bet.</font><div class='respPicDiv'><img src='img/responseButtonOffersNo0L1.png' class='respPic'></div></div>","null","13","Papaya Payday","Fruit/papayas.png","Lost","0.2,0.65","8","0.2","174","37","",""
"html-keyboard-response","120","525497","0.0-11.0-3.36","ds_test","bdp_rwlrn","Sat Feb 18 2023 16:29:35 GMT-0500 (Eastern Standard Time)","697449","Untrustworthy,Trustworthy","","","","feedback","","","null","","<div class='respPicDiv'><img src='img/responseButtonOffersNo0_wht.png' class='respPic'></div><div class='trialDiv'><img src='Fruit/papayas.png'><br><font class='baseline'><strong>Papaya Payday</strong><p><strong><font class='negOutcome'>You LOST</font><p>You bet: 1</strong></font> &nbsp; &nbsp; &nbsp; &nbsp; &nbsp; &nbsp;<font class='negOutcome'>You receive: <strong>0</strong></font></div>","null","13","Papaya Payday","Fruit/papayas.png","Lost","0.2,0.65","8","0.2","174","37","",""
"html-keyboard-response","121","525766","0.0-11.0-1.37","ds_test","bdp_rwlrn","Sat Feb 18 2023 16:29:35 GMT-0500 (Eastern Standard Time)","697449","Untrustworthy,Trustworthy","","","","decision","","","268","","<div class='trialDiv'><img src='Fruit/orange.png'><br><font class='baseline'><strong>Odds are Orange</strong><p>Choose number of points to bet.</font><div class='respPicDiv'><img src='img/responseButtonOffersNo0L.png' class='respPic'></div></div>","2","13","Odds are Orange","Fruit/orange.png","Lost","0.65,0.2","9","0.65","179","38","",""
"html-keyboard-response","122","526027","0.0-11.0-2.37","ds_test","bdp_rwlrn","Sat Feb 18 2023 16:29:35 GMT-0500 (Eastern Standard Time)","697449","Untrustworthy,Trustworthy","","","","decisionFB","","","null","","<div class='trialDiv'><img src='Fruit/orange.png'><br><font class='baseline'><strong>Odds are Orange</strong><p>Choose number of points to bet.</font><div class='respPicDiv'><img src='img/responseButtonOffersNo0L2.png' class='respPic'></div></div>","null","13","Odds are Orange","Fruit/orange.png","Lost","0.65,0.2","9","0.65","177","38","",""
"html-keyboard-response","123","527034","0.0-11.0-3.37","ds_test","bdp_rwlrn","Sat Feb 18 2023 16:29:35 GMT-0500 (Eastern Standard Time)","697449","Untrustworthy,Trustworthy","","","","feedback","","","null","","<div class='respPicDiv'><img src='img/responseButtonOffersNo0_wht.png' class='respPic'></div><div class='trialDiv'><img src='Fruit/orange.png'><br><font class='baseline'><strong>Odds are Orange</strong><p><strong><font class='negOutcome'>You LOST</font><p>You bet: 2</strong></font> &nbsp; &nbsp; &nbsp; &nbsp; &nbsp; &nbsp;<font class='negOutcome'>You receive: <strong>0</strong></font></div>","null","13","Odds are Orange","Fruit/orange.png","Lost","0.65,0.2","9","0.65","177","38","",""
"html-keyboard-response","124","527213","0.0-11.0-1.38","ds_test","bdp_rwlrn","Sat Feb 18 2023 16:29:35 GMT-0500 (Eastern Standard Time)","697449","Untrustworthy,Trustworthy","","","","decision","","","177","","<div class='trialDiv'><img src='Fruit/plums1.png'><br><font class='baseline'><strong>Plum Powerball</strong><p>Choose number of points to bet.</font><div class='respPicDiv'><img src='img/responseButtonOffersNo0L.png' class='respPic'></div></div>","3","13","Plum Powerball","Fruit/plums1.png","Lost","0.8,0.2","9","0.8","182","39","",""
"html-keyboard-response","125","527471","0.0-11.0-2.38","ds_test","bdp_rwlrn","Sat Feb 18 2023 16:29:35 GMT-0500 (Eastern Standard Time)","697449","Untrustworthy,Trustworthy","","","","decisionFB","","","null","","<div class='trialDiv'><img src='Fruit/plums1.png'><br><font class='baseline'><strong>Plum Powerball</strong><p>Choose number of points to bet.</font><div class='respPicDiv'><img src='img/responseButtonOffersNo0L3.png' class='respPic'></div></div>","null","13","Plum Powerball","Fruit/plums1.png","Lost","0.8,0.2","9","0.8","179","39","",""
"html-keyboard-response","126","528481","0.0-11.0-3.38","ds_test","bdp_rwlrn","Sat Feb 18 2023 16:29:35 GMT-0500 (Eastern Standard Time)","697449","Untrustworthy,Trustworthy","","","","feedback","","","null","","<div class='respPicDiv'><img src='img/responseButtonOffersNo0_wht.png' class='respPic'></div><div class='trialDiv'><img src='Fruit/plums1.png'><br><font class='baseline'><strong>Plum Powerball</strong><p><strong><font class='negOutcome'>You LOST</font><p>You bet: 3</strong></font> &nbsp; &nbsp; &nbsp; &nbsp; &nbsp; &nbsp;<font class='negOutcome'>You receive: <strong>0</strong></font></div>","null","13","Plum Powerball","Fruit/plums1.png","Lost","0.8,0.2","9","0.8","179","39","",""
"html-keyboard-response","127","528718","0.0-11.0-1.39","ds_test","bdp_rwlrn","Sat Feb 18 2023 16:29:35 GMT-0500 (Eastern Standard Time)","697449","Untrustworthy,Trustworthy","","","","decision","","","236","","<div class='trialDiv'><img src='Fruit/orange.png'><br><font class='baseline'><strong>Odds are Orange</strong><p>Choose number of points to bet.</font><div class='respPicDiv'><img src='img/responseButtonOffersNo0L.png' class='respPic'></div></div>","4","14","Odds are Orange","Fruit/orange.png","Lost","0.65,0.2","9","0.65","184","40","",""
"html-keyboard-response","128","528979","0.0-11.0-2.39","ds_test","bdp_rwlrn","Sat Feb 18 2023 16:29:35 GMT-0500 (Eastern Standard Time)","697449","Untrustworthy,Trustworthy","","","","decisionFB","","","null","","<div class='trialDiv'><img src='Fruit/orange.png'><br><font class='baseline'><strong>Odds are Orange</strong><p>Choose number of points to bet.</font><div class='respPicDiv'><img src='img/responseButtonOffersNo0L4.png' class='respPic'></div></div>","null","14","Odds are Orange","Fruit/orange.png","Lost","0.65,0.2","9","0.65","180","40","",""
"html-keyboard-response","129","529983","0.0-11.0-3.39","ds_test","bdp_rwlrn","Sat Feb 18 2023 16:29:35 GMT-0500 (Eastern Standard Time)","697449","Untrustworthy,Trustworthy","","","","feedback","","","null","","<div class='respPicDiv'><img src='img/responseButtonOffersNo0_wht.png' class='respPic'></div><div class='trialDiv'><img src='Fruit/orange.png'><br><font class='baseline'><strong>Odds are Orange</strong><p><strong><font class='negOutcome'>You LOST</font><p>You bet: 4</strong></font> &nbsp; &nbsp; &nbsp; &nbsp; &nbsp; &nbsp;<font class='negOutcome'>You receive: <strong>0</strong></font></div>","null","14","Odds are Orange","Fruit/orange.png","Lost","0.65,0.2","9","0.65","180","40","",""
"html-keyboard-response","130","530294","0.0-11.0-1.40","ds_test","bdp_rwlrn","Sat Feb 18 2023 16:29:35 GMT-0500 (Eastern Standard Time)","697449","Untrustworthy,Trustworthy","","","","decision","","","309","","<div class='trialDiv'><img src='Fruit/plums1.png'><br><font class='baseline'><strong>Plum Powerball</strong><p>Choose number of points to bet.</font><div class='respPicDiv'><img src='img/responseButtonOffersNo0L.png' class='respPic'></div></div>","5","14","Plum Powerball","Fruit/plums1.png","Lost","0.8,0.2","9","0.8","185","41","",""
"html-keyboard-response","131","530546","0.0-11.0-2.40","ds_test","bdp_rwlrn","Sat Feb 18 2023 16:29:35 GMT-0500 (Eastern Standard Time)","697449","Untrustworthy,Trustworthy","","","","decisionFB","","","null","","<div class='trialDiv'><img src='Fruit/plums1.png'><br><font class='baseline'><strong>Plum Powerball</strong><p>Choose number of points to bet.</font><div class='respPicDiv'><img src='img/responseButtonOffersNo0L5.png' class='respPic'></div></div>","null","14","Plum Powerball","Fruit/plums1.png","Lost","0.8,0.2","9","0.8","180","41","",""
"html-keyboard-response","132","531553","0.0-11.0-3.40","ds_test","bdp_rwlrn","Sat Feb 18 2023 16:29:35 GMT-0500 (Eastern Standard Time)","697449","Untrustworthy,Trustworthy","","","","feedback","","","null","","<div class='respPicDiv'><img src='img/responseButtonOffersNo0_wht.png' class='respPic'></div><div class='trialDiv'><img src='Fruit/plums1.png'><br><font class='baseline'><strong>Plum Powerball</strong><p><strong><font class='negOutcome'>You LOST</font><p>You bet: 5</strong></font> &nbsp; &nbsp; &nbsp; &nbsp; &nbsp; &nbsp;<font class='negOutcome'>You receive: <strong>0</strong></font></div>","null","14","Plum Powerball","Fruit/plums1.png","Lost","0.8,0.2","9","0.8","180","41","",""
"html-keyboard-response","133","531885","0.0-11.0-1.41","ds_test","bdp_rwlrn","Sat Feb 18 2023 16:29:35 GMT-0500 (Eastern Standard Time)","697449","Untrustworthy,Trustworthy","","","","decision","","","329","","<div class='trialDiv'><img src='Fruit/papayas.png'><br><font class='baseline'><strong>Papaya Payday</strong><p>Choose number of points to bet.</font><div class='respPicDiv'><img src='img/responseButtonOffersNo0L.png' class='respPic'></div></div>","4","14","Papaya Payday","Fruit/papayas.png","Won","0.2,0.65","8","0.2","185","42","",""
"html-keyboard-response","134","532143","0.0-11.0-2.41","ds_test","bdp_rwlrn","Sat Feb 18 2023 16:29:35 GMT-0500 (Eastern Standard Time)","697449","Untrustworthy,Trustworthy","","","","decisionFB","","","null","","<div class='trialDiv'><img src='Fruit/papayas.png'><br><font class='baseline'><strong>Papaya Payday</strong><p>Choose number of points to bet.</font><div class='respPicDiv'><img src='img/responseButtonOffersNo0L4.png' class='respPic'></div></div>","null","14","Papaya Payday","Fruit/papayas.png","Won","0.2,0.65","8","0.2","181","42","",""
"html-keyboard-response","135","533151","0.0-11.0-3.41","ds_test","bdp_rwlrn","Sat Feb 18 2023 16:29:35 GMT-0500 (Eastern Standard Time)","697449","Untrustworthy,Trustworthy","","","","feedback","","","null","","<div class='respPicDiv'><img src='img/responseButtonOffersNo0_wht.png' class='respPic'></div><div class='trialDiv'><img src='Fruit/papayas.png'><br><font class='baseline'><strong>Papaya Payday</strong><p><strong><font class='posOutcome'>You WON</font><p>You bet: 4</strong></font> &nbsp; &nbsp; &nbsp; &nbsp; &nbsp; &nbsp;<font class='posOutcome'>you receive: <strong>8</strong></font></div>","null","14","Papaya Payday","Fruit/papayas.png","Won","0.2,0.65","8","0.2","189","42","",""
"html-keyboard-response","136","533452","0.0-11.0-1.42","ds_test","bdp_rwlrn","Sat Feb 18 2023 16:29:35 GMT-0500 (Eastern Standard Time)","697449","Untrustworthy,Trustworthy","","","","decision","","","299","","<div class='trialDiv'><img src='Fruit/plums1.png'><br><font class='baseline'><strong>Plum Powerball</strong><p>Choose number of points to bet.</font><div class='respPicDiv'><img src='img/responseButtonOffersNo0L.png' class='respPic'></div></div>","3","15","Plum Powerball","Fruit/plums1.png","Won","0.8,0.2","9","0.8","194","43","",""
"html-keyboard-response","137","533711","0.0-11.0-2.42","ds_test","bdp_rwlrn","Sat Feb 18 2023 16:29:35 GMT-0500 (Eastern Standard Time)","697449","Untrustworthy,Trustworthy","","","","decisionFB","","","null","","<div class='trialDiv'><img src='Fruit/plums1.png'><br><font class='baseline'><strong>Plum Powerball</strong><p>Choose number of points to bet.</font><div class='respPicDiv'><img src='img/responseButtonOffersNo0L3.png' class='respPic'></div></div>","null","15","Plum Powerball","Fruit/plums1.png","Won","0.8,0.2","9","0.8","191","43","",""
"html-keyboard-response","138","534719","0.0-11.0-3.42","ds_test","bdp_rwlrn","Sat Feb 18 2023 16:29:35 GMT-0500 (Eastern Standard Time)","697449","Untrustworthy,Trustworthy","","","","feedback","","","null","","<div class='respPicDiv'><img src='img/responseButtonOffersNo0_wht.png' class='respPic'></div><div class='trialDiv'><img src='Fruit/plums1.png'><br><font class='baseline'><strong>Plum Powerball</strong><p><strong><font class='posOutcome'>You WON</font><p>You bet: 3</strong></font> &nbsp; &nbsp; &nbsp; &nbsp; &nbsp; &nbsp;<font class='posOutcome'>you receive: <strong>6</strong></font></div>","null","15","Plum Powerball","Fruit/plums1.png","Won","0.8,0.2","9","0.8","197","43","",""
"html-keyboard-response","139","535001","0.0-11.0-1.43","ds_test","bdp_rwlrn","Sat Feb 18 2023 16:29:35 GMT-0500 (Eastern Standard Time)","697449","Untrustworthy,Trustworthy","","","","decision","","","279","","<div class='trialDiv'><img src='Fruit/orange.png'><br><font class='baseline'><strong>Odds are Orange</strong><p>Choose number of points to bet.</font><div class='respPicDiv'><img src='img/responseButtonOffersNo0L.png' class='respPic'></div></div>","2","15","Odds are Orange","Fruit/orange.png","Lost","0.65,0.2","9","0.65","202","44","",""
"html-keyboard-response","140","535255","0.0-11.0-2.43","ds_test","bdp_rwlrn","Sat Feb 18 2023 16:29:35 GMT-0500 (Eastern Standard Time)","697449","Untrustworthy,Trustworthy","","","","decisionFB","","","null","","<div class='trialDiv'><img src='Fruit/orange.png'><br><font class='baseline'><strong>Odds are Orange</strong><p>Choose number of points to bet.</font><div class='respPicDiv'><img src='img/responseButtonOffersNo0L2.png' class='respPic'></div></div>","null","15","Odds are Orange","Fruit/orange.png","Lost","0.65,0.2","9","0.65","200","44","",""
"html-keyboard-response","141","536266","0.0-11.0-3.43","ds_test","bdp_rwlrn","Sat Feb 18 2023 16:29:35 GMT-0500 (Eastern Standard Time)","697449","Untrustworthy,Trustworthy","","","","feedback","","","null","","<div class='respPicDiv'><img src='img/responseButtonOffersNo0_wht.png' class='respPic'></div><div class='trialDiv'><img src='Fruit/orange.png'><br><font class='baseline'><strong>Odds are Orange</strong><p><strong><font class='negOutcome'>You LOST</font><p>You bet: 2</strong></font> &nbsp; &nbsp; &nbsp; &nbsp; &nbsp; &nbsp;<font class='negOutcome'>You receive: <strong>0</strong></font></div>","null","15","Odds are Orange","Fruit/orange.png","Lost","0.65,0.2","9","0.65","200","44","",""
"html-keyboard-response","142","536543","0.0-11.0-1.44","ds_test","bdp_rwlrn","Sat Feb 18 2023 16:29:35 GMT-0500 (Eastern Standard Time)","697449","Untrustworthy,Trustworthy","","","","decision","","","276","","<div class='trialDiv'><img src='Fruit/papayas.png'><br><font class='baseline'><strong>Papaya Payday</strong><p>Choose number of points to bet.</font><div class='respPicDiv'><img src='img/responseButtonOffersNo0L.png' class='respPic'></div></div>","1","15","Papaya Payday","Fruit/papayas.png","Won","0.2,0.65","8","0.2","205","45","",""
"html-keyboard-response","143","536799","0.0-11.0-2.44","ds_test","bdp_rwlrn","Sat Feb 18 2023 16:29:35 GMT-0500 (Eastern Standard Time)","697449","Untrustworthy,Trustworthy","","","","decisionFB","","","null","","<div class='trialDiv'><img src='Fruit/papayas.png'><br><font class='baseline'><strong>Papaya Payday</strong><p>Choose number of points to bet.</font><div class='respPicDiv'><img src='img/responseButtonOffersNo0L1.png' class='respPic'></div></div>","null","15","Papaya Payday","Fruit/papayas.png","Won","0.2,0.65","8","0.2","204","45","",""
"html-keyboard-response","144","537807","0.0-11.0-3.44","ds_test","bdp_rwlrn","Sat Feb 18 2023 16:29:35 GMT-0500 (Eastern Standard Time)","697449","Untrustworthy,Trustworthy","","","","feedback","","","null","","<div class='respPicDiv'><img src='img/responseButtonOffersNo0_wht.png' class='respPic'></div><div class='trialDiv'><img src='Fruit/papayas.png'><br><font class='baseline'><strong>Papaya Payday</strong><p><strong><font class='posOutcome'>You WON</font><p>You bet: 1</strong></font> &nbsp; &nbsp; &nbsp; &nbsp; &nbsp; &nbsp;<font class='posOutcome'>you receive: <strong>2</strong></font></div>","null","15","Papaya Payday","Fruit/papayas.png","Won","0.2,0.65","8","0.2","206","45","",""
"html-keyboard-response","145","538080","0.0-11.0-1.45","ds_test","bdp_rwlrn","Sat Feb 18 2023 16:29:35 GMT-0500 (Eastern Standard Time)","697449","Untrustworthy,Trustworthy","","","","decision","","","271","","<div class='trialDiv'><img src='Fruit/orange.png'><br><font class='baseline'><strong>Odds are Orange</strong><p>Choose number of points to bet.</font><div class='respPicDiv'><img src='img/responseButtonOffersNo0L.png' class='respPic'></div></div>","2","16","Odds are Orange","Fruit/orange.png","Lost","0.65,0.2","9","0.65","211","46","",""
"html-keyboard-response","146","538334","0.0-11.0-2.45","ds_test","bdp_rwlrn","Sat Feb 18 2023 16:29:35 GMT-0500 (Eastern Standard Time)","697449","Untrustworthy,Trustworthy","","","","decisionFB","","","null","","<div class='trialDiv'><img src='Fruit/orange.png'><br><font class='baseline'><strong>Odds are Orange</strong><p>Choose number of points to bet.</font><div class='respPicDiv'><img src='img/responseButtonOffersNo0L2.png' class='respPic'></div></div>","null","16","Odds are Orange","Fruit/orange.png","Lost","0.65,0.2","9","0.65","209","46","",""
"html-keyboard-response","147","539343","0.0-11.0-3.45","ds_test","bdp_rwlrn","Sat Feb 18 2023 16:29:35 GMT-0500 (Eastern Standard Time)","697449","Untrustworthy,Trustworthy","","","","feedback","","","null","","<div class='respPicDiv'><img src='img/responseButtonOffersNo0_wht.png' class='respPic'></div><div class='trialDiv'><img src='Fruit/orange.png'><br><font class='baseline'><strong>Odds are Orange</strong><p><strong><font class='negOutcome'>You LOST</font><p>You bet: 2</strong></font> &nbsp; &nbsp; &nbsp; &nbsp; &nbsp; &nbsp;<font class='negOutcome'>You receive: <strong>0</strong></font></div>","null","16","Odds are Orange","Fruit/orange.png","Lost","0.65,0.2","9","0.65","209","46","",""
"html-keyboard-response","148","539598","0.0-11.0-1.46","ds_test","bdp_rwlrn","Sat Feb 18 2023 16:29:35 GMT-0500 (Eastern Standard Time)","697449","Untrustworthy,Trustworthy","","","","decision","","","252","","<div class='trialDiv'><img src='Fruit/papayas.png'><br><font class='baseline'><strong>Papaya Payday</strong><p>Choose number of points to bet.</font><div class='respPicDiv'><img src='img/responseButtonOffersNo0L.png' class='respPic'></div></div>","3","16","Papaya Payday","Fruit/papayas.png","Lost","0.2,0.65","8","0.2","214","47","",""
"html-keyboard-response","149","539855","0.0-11.0-2.46","ds_test","bdp_rwlrn","Sat Feb 18 2023 16:29:35 GMT-0500 (Eastern Standard Time)","697449","Untrustworthy,Trustworthy","","","","decisionFB","","","null","","<div class='trialDiv'><img src='Fruit/papayas.png'><br><font class='baseline'><strong>Papaya Payday</strong><p>Choose number of points to bet.</font><div class='respPicDiv'><img src='img/responseButtonOffersNo0L3.png' class='respPic'></div></div>","null","16","Papaya Payday","Fruit/papayas.png","Lost","0.2,0.65","8","0.2","211","47","",""
"html-keyboard-response","150","540863","0.0-11.0-3.46","ds_test","bdp_rwlrn","Sat Feb 18 2023 16:29:35 GMT-0500 (Eastern Standard Time)","697449","Untrustworthy,Trustworthy","","","","feedback","","","null","","<div class='respPicDiv'><img src='img/responseButtonOffersNo0_wht.png' class='respPic'></div><div class='trialDiv'><img src='Fruit/papayas.png'><br><font class='baseline'><strong>Papaya Payday</strong><p><strong><font class='negOutcome'>You LOST</font><p>You bet: 3</strong></font> &nbsp; &nbsp; &nbsp; &nbsp; &nbsp; &nbsp;<font class='negOutcome'>You receive: <strong>0</strong></font></div>","null","16","Papaya Payday","Fruit/papayas.png","Lost","0.2,0.65","8","0.2","211","47","",""
"html-keyboard-response","151","541111","0.0-11.0-1.47","ds_test","bdp_rwlrn","Sat Feb 18 2023 16:29:35 GMT-0500 (Eastern Standard Time)","697449","Untrustworthy,Trustworthy","","","","decision","","","246","","<div class='trialDiv'><img src='Fruit/plums1.png'><br><font class='baseline'><strong>Plum Powerball</strong><p>Choose number of points to bet.</font><div class='respPicDiv'><img src='img/responseButtonOffersNo0L.png' class='respPic'></div></div>","4","16","Plum Powerball","Fruit/plums1.png","Lost","0.8,0.2","9","0.8","216","48","",""
"html-keyboard-response","152","541369","0.0-11.0-2.47","ds_test","bdp_rwlrn","Sat Feb 18 2023 16:29:35 GMT-0500 (Eastern Standard Time)","697449","Untrustworthy,Trustworthy","","","","decisionFB","","","null","","<div class='trialDiv'><img src='Fruit/plums1.png'><br><font class='baseline'><strong>Plum Powerball</strong><p>Choose number of points to bet.</font><div class='respPicDiv'><img src='img/responseButtonOffersNo0L4.png' class='respPic'></div></div>","null","16","Plum Powerball","Fruit/plums1.png","Lost","0.8,0.2","9","0.8","212","48","",""
"html-keyboard-response","153","542377","0.0-11.0-3.47","ds_test","bdp_rwlrn","Sat Feb 18 2023 16:29:35 GMT-0500 (Eastern Standard Time)","697449","Untrustworthy,Trustworthy","","","","feedback","","","null","","<div class='respPicDiv'><img src='img/responseButtonOffersNo0_wht.png' class='respPic'></div><div class='trialDiv'><img src='Fruit/plums1.png'><br><font class='baseline'><strong>Plum Powerball</strong><p><strong><font class='negOutcome'>You LOST</font><p>You bet: 4</strong></font> &nbsp; &nbsp; &nbsp; &nbsp; &nbsp; &nbsp;<font class='negOutcome'>You receive: <strong>0</strong></font></div>","null","16","Plum Powerball","Fruit/plums1.png","Lost","0.8,0.2","9","0.8","212","48","",""
"html-keyboard-response","154","542632","0.0-11.0-1.48","ds_test","bdp_rwlrn","Sat Feb 18 2023 16:29:35 GMT-0500 (Eastern Standard Time)","697449","Untrustworthy,Trustworthy","","","","decision","","","254","","<div class='trialDiv'><img src='Fruit/orange.png'><br><font class='baseline'><strong>Odds are Orange</strong><p>Choose number of points to bet.</font><div class='respPicDiv'><img src='img/responseButtonOffersNo0L.png' class='respPic'></div></div>","5","17","Odds are Orange","Fruit/orange.png","Lost","0.65,0.2","9","0.65","217","49","",""
"html-keyboard-response","155","542889","0.0-11.0-2.48","ds_test","bdp_rwlrn","Sat Feb 18 2023 16:29:35 GMT-0500 (Eastern Standard Time)","697449","Untrustworthy,Trustworthy","","","","decisionFB","","","null","","<div class='trialDiv'><img src='Fruit/orange.png'><br><font class='baseline'><strong>Odds are Orange</strong><p>Choose number of points to bet.</font><div class='respPicDiv'><img src='img/responseButtonOffersNo0L5.png' class='respPic'></div></div>","null","17","Odds are Orange","Fruit/orange.png","Lost","0.65,0.2","9","0.65","212","49","",""
"html-keyboard-response","156","543898","0.0-11.0-3.48","ds_test","bdp_rwlrn","Sat Feb 18 2023 16:29:35 GMT-0500 (Eastern Standard Time)","697449","Untrustworthy,Trustworthy","","","","feedback","","","null","","<div class='respPicDiv'><img src='img/responseButtonOffersNo0_wht.png' class='respPic'></div><div class='trialDiv'><img src='Fruit/orange.png'><br><font class='baseline'><strong>Odds are Orange</strong><p><strong><font class='negOutcome'>You LOST</font><p>You bet: 5</strong></font> &nbsp; &nbsp; &nbsp; &nbsp; &nbsp; &nbsp;<font class='negOutcome'>You receive: <strong>0</strong></font></div>","null","17","Odds are Orange","Fruit/orange.png","Lost","0.65,0.2","9","0.65","212","49","",""
"html-keyboard-response","157","544159","0.0-11.0-1.49","ds_test","bdp_rwlrn","Sat Feb 18 2023 16:29:35 GMT-0500 (Eastern Standard Time)","697449","Untrustworthy,Trustworthy","","","","decision","","","260","","<div class='trialDiv'><img src='Fruit/papayas.png'><br><font class='baseline'><strong>Papaya Payday</strong><p>Choose number of points to bet.</font><div class='respPicDiv'><img src='img/responseButtonOffersNo0L.png' class='respPic'></div></div>","4","17","Papaya Payday","Fruit/papayas.png","Won","0.2,0.65","8","0.2","217","50","",""
"html-keyboard-response","158","544416","0.0-11.0-2.49","ds_test","bdp_rwlrn","Sat Feb 18 2023 16:29:35 GMT-0500 (Eastern Standard Time)","697449","Untrustworthy,Trustworthy","","","","decisionFB","","","null","","<div class='trialDiv'><img src='Fruit/papayas.png'><br><font class='baseline'><strong>Papaya Payday</strong><p>Choose number of points to bet.</font><div class='respPicDiv'><img src='img/responseButtonOffersNo0L4.png' class='respPic'></div></div>","null","17","Papaya Payday","Fruit/papayas.png","Won","0.2,0.65","8","0.2","213","50","",""
"html-keyboard-response","159","545422","0.0-11.0-3.49","ds_test","bdp_rwlrn","Sat Feb 18 2023 16:29:35 GMT-0500 (Eastern Standard Time)","697449","Untrustworthy,Trustworthy","","","","feedback","","","null","","<div class='respPicDiv'><img src='img/responseButtonOffersNo0_wht.png' class='respPic'></div><div class='trialDiv'><img src='Fruit/papayas.png'><br><font class='baseline'><strong>Papaya Payday</strong><p><strong><font class='posOutcome'>You WON</font><p>You bet: 4</strong></font> &nbsp; &nbsp; &nbsp; &nbsp; &nbsp; &nbsp;<font class='posOutcome'>you receive: <strong>8</strong></font></div>","null","17","Papaya Payday","Fruit/papayas.png","Won","0.2,0.65","8","0.2","221","50","",""
"html-keyboard-response","160","545629","0.0-11.0-1.50","ds_test","bdp_rwlrn","Sat Feb 18 2023 16:29:35 GMT-0500 (Eastern Standard Time)","697449","Untrustworthy,Trustworthy","","","","decision","","","206","","<div class='trialDiv'><img src='Fruit/plums1.png'><br><font class='baseline'><strong>Plum Powerball</strong><p>Choose number of points to bet.</font><div class='respPicDiv'><img src='img/responseButtonOffersNo0L.png' class='respPic'></div></div>","3","17","Plum Powerball","Fruit/plums1.png","Won","0.8,0.2","9","0.8","226","51","",""
"html-keyboard-response","161","545890","0.0-11.0-2.50","ds_test","bdp_rwlrn","Sat Feb 18 2023 16:29:35 GMT-0500 (Eastern Standard Time)","697449","Untrustworthy,Trustworthy","","","","decisionFB","","","null","","<div class='trialDiv'><img src='Fruit/plums1.png'><br><font class='baseline'><strong>Plum Powerball</strong><p>Choose number of points to bet.</font><div class='respPicDiv'><img src='img/responseButtonOffersNo0L3.png' class='respPic'></div></div>","null","17","Plum Powerball","Fruit/plums1.png","Won","0.8,0.2","9","0.8","223","51","",""
"html-keyboard-response","162","546896","0.0-11.0-3.50","ds_test","bdp_rwlrn","Sat Feb 18 2023 16:29:35 GMT-0500 (Eastern Standard Time)","697449","Untrustworthy,Trustworthy","","","","feedback","","","null","","<div class='respPicDiv'><img src='img/responseButtonOffersNo0_wht.png' class='respPic'></div><div class='trialDiv'><img src='Fruit/plums1.png'><br><font class='baseline'><strong>Plum Powerball</strong><p><strong><font class='posOutcome'>You WON</font><p>You bet: 3</strong></font> &nbsp; &nbsp; &nbsp; &nbsp; &nbsp; &nbsp;<font class='posOutcome'>you receive: <strong>6</strong></font></div>","null","17","Plum Powerball","Fruit/plums1.png","Won","0.8,0.2","9","0.8","229","51","",""
"html-keyboard-response","163","547112","0.0-11.0-1.51","ds_test","bdp_rwlrn","Sat Feb 18 2023 16:29:35 GMT-0500 (Eastern Standard Time)","697449","Untrustworthy,Trustworthy","","","","decision","","","213","","<div class='trialDiv'><img src='Fruit/papayas.png'><br><font class='baseline'><strong>Papaya Payday</strong><p>Choose number of points to bet.</font><div class='respPicDiv'><img src='img/responseButtonOffersNo0L.png' class='respPic'></div></div>","2","18","Papaya Payday","Fruit/papayas.png","Lost","0.2,0.65","8","0.2","234","52","",""
"html-keyboard-response","164","547369","0.0-11.0-2.51","ds_test","bdp_rwlrn","Sat Feb 18 2023 16:29:35 GMT-0500 (Eastern Standard Time)","697449","Untrustworthy,Trustworthy","","","","decisionFB","","","null","","<div class='trialDiv'><img src='Fruit/papayas.png'><br><font class='baseline'><strong>Papaya Payday</strong><p>Choose number of points to bet.</font><div class='respPicDiv'><img src='img/responseButtonOffersNo0L2.png' class='respPic'></div></div>","null","18","Papaya Payday","Fruit/papayas.png","Lost","0.2,0.65","8","0.2","232","52","",""
"html-keyboard-response","165","548379","0.0-11.0-3.51","ds_test","bdp_rwlrn","Sat Feb 18 2023 16:29:35 GMT-0500 (Eastern Standard Time)","697449","Untrustworthy,Trustworthy","","","","feedback","","","null","","<div class='respPicDiv'><img src='img/responseButtonOffersNo0_wht.png' class='respPic'></div><div class='trialDiv'><img src='Fruit/papayas.png'><br><font class='baseline'><strong>Papaya Payday</strong><p><strong><font class='negOutcome'>You LOST</font><p>You bet: 2</strong></font> &nbsp; &nbsp; &nbsp; &nbsp; &nbsp; &nbsp;<font class='negOutcome'>You receive: <strong>0</strong></font></div>","null","18","Papaya Payday","Fruit/papayas.png","Lost","0.2,0.65","8","0.2","232","52","",""
