"trial_type","trial_index","time_elapsed","internal_node_id","subject_id","task","startTime","totalTime","labels","view_history","rt","event","trial","time","trialtype","success","stimulus","key_press","ltround","name","fileID","outcome","lottotype","lottoswpt","lottocurrpshare","point_total","round","faceID","face"
"pavlovia","0","3","0.0-0.0","5a2846ceb4a5de00011af418","bdp_rwlrn","Mon Mar 13 2023 23:56:34 GMT-0400 (Eastern Daylight Time)","450729","Trustworthy,Untrustworthy","","","","","","","","","","","","","","","","","","","",""
"instructions","1","2619","0.0-1.0","5a2846ceb4a5de00011af418","bdp_rwlrn","Mon Mar 13 2023 23:56:34 GMT-0400 (Eastern Daylight Time)","450729","Trustworthy,Untrustworthy","[{""page_index"":0,""viewing_time"":2615}]","2615","","","","","","","","","","","","","","","","","",""
"","","","","5a2846ceb4a5de00011af418","bdp_rwlrn","Mon Mar 13 2023 23:56:34 GMT-0400 (Eastern Daylight Time)","450729","Trustworthy,Untrustworthy","","","fullscreenenter","2","5846","fullscreenenter","","","","","","","","","","","","","",""
"fullscreen","2","6834","0.0-2.0","5a2846ceb4a5de00011af418","bdp_rwlrn","Mon Mar 13 2023 23:56:34 GMT-0400 (Eastern Daylight Time)","450729","Trustworthy,Untrustworthy","","","","","","","true","","","","","","","","","","","","",""
"instructions","3","61982","0.0-4.0","5a2846ceb4a5de00011af418","bdp_rwlrn","Mon Mar 13 2023 23:56:34 GMT-0400 (Eastern Daylight Time)","450729","Trustworthy,Untrustworthy","[{""page_index"":0,""viewing_time"":11111},{""page_index"":1,""viewing_time"":12621},{""page_index"":2,""viewing_time"":12784},{""page_index"":3,""viewing_time"":4152},{""page_index"":4,""viewing_time"":8846},{""page_index"":5,""viewing_time"":5632}]","55146","","","","","","","","","","","","","","","","","",""
"html-keyboard-response","4","64971","0.0-5.0","5a2846ceb4a5de00011af418","bdp_rwlrn","Mon Mar 13 2023 23:56:34 GMT-0400 (Eastern Daylight Time)","450729","Trustworthy,Untrustworthy","","2986","","","","","","<div class='header' style='text-align:left; position: absolute; top: 5%; left: 5%;'><small>Task 1 of 5</small></div><div class='instruxDiv'><p><strong>1) What is the maximum number of points you can choose to bet on a lottery?</strong></p><p>a) 0</p><p>b) 1</p><p>c) 5</p>","C","","","","","","","","","","",""
"html-keyboard-response","5","67751","0.0-6.0","5a2846ceb4a5de00011af418","bdp_rwlrn","Mon Mar 13 2023 23:56:34 GMT-0400 (Eastern Daylight Time)","450729","Trustworthy,Untrustworthy","","2672","","","","","","<div class='header' style='text-align:left; position: absolute; top: 5%; left: 5%;'><small>Task 1 of 5</small></div><div class='instruxDiv'><p><strong>1) What is the maximum number of points you can choose to bet on a lottery?</strong></p><p>a) 1</p><p>b) 1</p><p style='color:#00FF00'>c) 5</p><h3 style='color:#00FF00'>Correct!</h3><h3 class='center-content'>The correct response is c).</h3><h3 class='center-content'>The maximum number of points you can choose to bet on a lottery is 5 points.</h3><p><em>Press SPACEBAR to continue</em></p></div>"," ","","","","","","","","","","",""
"html-keyboard-response","6","72295","0.0-7.0","5a2846ceb4a5de00011af418","bdp_rwlrn","Mon Mar 13 2023 23:56:34 GMT-0400 (Eastern Daylight Time)","450729","Trustworthy,Untrustworthy","","4438","","","","","","<div class='header' style='text-align:left; position: absolute; top: 5%; left: 5%;'><small>Task 1 of 5</small></div><div class='instruxDiv'><p><strong>2) How many points can you win each round?</strong></p><p>a) 10 points</p><p>b) Double what you bet</p><p>c) Quadruple what you bet</p>","B","","","","","","","","","","",""
"html-keyboard-response","7","73469","0.0-8.0","5a2846ceb4a5de00011af418","bdp_rwlrn","Mon Mar 13 2023 23:56:34 GMT-0400 (Eastern Daylight Time)","450729","Trustworthy,Untrustworthy","","1066","","","","","","<div class='header' style='text-align:left; position: absolute; top: 5%; left: 5%;'><small>Task 1 of 5</small></div><div class='instruxDiv'><p><strong>2) How many points can you win each round?</strong></p><p>a) 10 points</p><p style='color:#00FF00'>b) Double what you bet</p><p>c) Quadruple what you bet</p><h3 style='color:#00FF00'>Correct!</h3><h3 class='center-content'>The correct response is b).</h3><h3 class='center-content'>You can win double the amount of points you bet.</h3><p><em>Press SPACEBAR to continue</em></p></div>"," ","","","","","","","","","","",""
"html-keyboard-response","8","78588","0.0-9.0","5a2846ceb4a5de00011af418","bdp_rwlrn","Mon Mar 13 2023 23:56:34 GMT-0400 (Eastern Daylight Time)","450729","Trustworthy,Untrustworthy","","null","","","","","","<div class='header' style='text-align:left; position: absolute; top: 5%; left: 5%;'><small>Task 1 of 5</small></div><div class='instruxDiv'><p>Thank you for completing the quiz<p>These are the actual lotteries you will be playing in the next block:<p><div class='tc' align='center'><img class='introPic' src='Fruit/plums1.png'><br><strong>Plum Powerball</strong></div><div class='bl' align='center'><img class='introPic' src='Fruit/cherrie.png'><br><strong>Cherry Chances</strong></div><div class='br' align='center'><img class='introPic' src='Fruit/melon.png'><br><strong>Melon Millions</strong></div></div><p>Across <strong>66 rounds</strong> you will play each lottery <strong>22 times</strong> (in random order).<p style='align:center; color:white'><font <em>Press SPACEBAR to continue</em></p>","null","","","","","","","","","","",""
"instructions","9","92783","0.0-10.0","5a2846ceb4a5de00011af418","bdp_rwlrn","Mon Mar 13 2023 23:56:34 GMT-0400 (Eastern Daylight Time)","450729","Trustworthy,Untrustworthy","[{""page_index"":0,""viewing_time"":6433},{""page_index"":1,""viewing_time"":7759}]","14193","","","","","","","","","","","","","","","","","",""
"html-keyboard-response","10","96998","0.0-11.0-1.0","5a2846ceb4a5de00011af418","bdp_rwlrn","Mon Mar 13 2023 23:56:34 GMT-0400 (Eastern Daylight Time)","450729","Trustworthy,Untrustworthy","","4106","","","","decision","","<div class='trialDiv'><img src='Fruit/melon.png'><br><font class='baseline'><strong>Melon Millions</strong><p>Choose number of points to bet.</font><div class='respPicDiv'><img src='img/responseButtonOffersNo0L.png' class='respPic'></div></div>","3","1","Melon Millions","Fruit/melon.png","Lost","0.35,0.65","13","0.35","5","1","",""
"html-keyboard-response","11","97261","0.0-11.0-2.0","5a2846ceb4a5de00011af418","bdp_rwlrn","Mon Mar 13 2023 23:56:34 GMT-0400 (Eastern Daylight Time)","450729","Trustworthy,Untrustworthy","","null","","","","decisionFB","","<div class='trialDiv'><img src='Fruit/melon.png'><br><font class='baseline'><strong>Melon Millions</strong><p>Choose number of points to bet.</font><div class='respPicDiv'><img src='img/responseButtonOffersNo0L3.png' class='respPic'></div></div>","null","1","Melon Millions","Fruit/melon.png","Lost","0.35,0.65","13","0.35","2","1","",""
"html-keyboard-response","12","98263","0.0-11.0-3.0","5a2846ceb4a5de00011af418","bdp_rwlrn","Mon Mar 13 2023 23:56:34 GMT-0400 (Eastern Daylight Time)","450729","Trustworthy,Untrustworthy","","null","","","","feedback","","<div class='respPicDiv'><img src='img/responseButtonOffersNo0_wht.png' class='respPic'></div><div class='trialDiv'><img src='Fruit/melon.png'><br><font class='baseline'><strong>Melon Millions</strong><p><strong><font class='negOutcome'>You LOST</font><p>You bet: 3</strong></font> &nbsp; &nbsp; &nbsp; &nbsp; &nbsp; &nbsp;<font class='negOutcome'>You receive: <strong>0</strong></font></div>","null","1","Melon Millions","Fruit/melon.png","Lost","0.35,0.65","13","0.35","2","1","",""
"html-keyboard-response","13","100100","0.0-11.0-1.1","5a2846ceb4a5de00011af418","bdp_rwlrn","Mon Mar 13 2023 23:56:34 GMT-0400 (Eastern Daylight Time)","450729","Trustworthy,Untrustworthy","","1834","","","","decision","","<div class='trialDiv'><img src='Fruit/cherrie.png'><br><font class='baseline'><strong>Cherry Chances</strong><p>Choose number of points to bet.</font><div class='respPicDiv'><img src='img/responseButtonOffersNo0L.png' class='respPic'></div></div>","3","1","Cherry Chances","Fruit/cherrie.png","Won","0.8,0.35","9","0.8","7","2","",""
"html-keyboard-response","14","100361","0.0-11.0-2.1","5a2846ceb4a5de00011af418","bdp_rwlrn","Mon Mar 13 2023 23:56:34 GMT-0400 (Eastern Daylight Time)","450729","Trustworthy,Untrustworthy","","null","","","","decisionFB","","<div class='trialDiv'><img src='Fruit/cherrie.png'><br><font class='baseline'><strong>Cherry Chances</strong><p>Choose number of points to bet.</font><div class='respPicDiv'><img src='img/responseButtonOffersNo0L3.png' class='respPic'></div></div>","null","1","Cherry Chances","Fruit/cherrie.png","Won","0.8,0.35","9","0.8","4","2","",""
"html-keyboard-response","15","101378","0.0-11.0-3.1","5a2846ceb4a5de00011af418","bdp_rwlrn","Mon Mar 13 2023 23:56:34 GMT-0400 (Eastern Daylight Time)","450729","Trustworthy,Untrustworthy","","null","","","","feedback","","<div class='respPicDiv'><img src='img/responseButtonOffersNo0_wht.png' class='respPic'></div><div class='trialDiv'><img src='Fruit/cherrie.png'><br><font class='baseline'><strong>Cherry Chances</strong><p><strong><font class='posOutcome'>You WON</font><p>You bet: 3</strong></font> &nbsp; &nbsp; &nbsp; &nbsp; &nbsp; &nbsp;<font class='posOutcome'>you receive: <strong>6</strong></font></div>","null","1","Cherry Chances","Fruit/cherrie.png","Won","0.8,0.35","9","0.8","10","2","",""
"html-keyboard-response","16","102315","0.0-11.0-1.2","5a2846ceb4a5de00011af418","bdp_rwlrn","Mon Mar 13 2023 23:56:34 GMT-0400 (Eastern Daylight Time)","450729","Trustworthy,Untrustworthy","","935","","","","decision","","<div class='trialDiv'><img src='Fruit/plums1.png'><br><font class='baseline'><strong>Plum Powerball</strong><p>Choose number of points to bet.</font><div class='respPicDiv'><img src='img/responseButtonOffersNo0L.png' class='respPic'></div></div>","3","1","Plum Powerball","Fruit/plums1.png","Lost","0.2,0.65","13","0.2","15","3","",""
"html-keyboard-response","17","102581","0.0-11.0-2.2","5a2846ceb4a5de00011af418","bdp_rwlrn","Mon Mar 13 2023 23:56:34 GMT-0400 (Eastern Daylight Time)","450729","Trustworthy,Untrustworthy","","null","","","","decisionFB","","<div class='trialDiv'><img src='Fruit/plums1.png'><br><font class='baseline'><strong>Plum Powerball</strong><p>Choose number of points to bet.</font><div class='respPicDiv'><img src='img/responseButtonOffersNo0L3.png' class='respPic'></div></div>","null","1","Plum Powerball","Fruit/plums1.png","Lost","0.2,0.65","13","0.2","12","3","",""
"html-keyboard-response","18","103599","0.0-11.0-3.2","5a2846ceb4a5de00011af418","bdp_rwlrn","Mon Mar 13 2023 23:56:34 GMT-0400 (Eastern Daylight Time)","450729","Trustworthy,Untrustworthy","","null","","","","feedback","","<div class='respPicDiv'><img src='img/responseButtonOffersNo0_wht.png' class='respPic'></div><div class='trialDiv'><img src='Fruit/plums1.png'><br><font class='baseline'><strong>Plum Powerball</strong><p><strong><font class='negOutcome'>You LOST</font><p>You bet: 3</strong></font> &nbsp; &nbsp; &nbsp; &nbsp; &nbsp; &nbsp;<font class='negOutcome'>You receive: <strong>0</strong></font></div>","null","1","Plum Powerball","Fruit/plums1.png","Lost","0.2,0.65","13","0.2","12","3","",""
"html-keyboard-response","19","104934","0.0-11.0-1.3","5a2846ceb4a5de00011af418","bdp_rwlrn","Mon Mar 13 2023 23:56:34 GMT-0400 (Eastern Daylight Time)","450729","Trustworthy,Untrustworthy","","1332","","","","decision","","<div class='trialDiv'><img src='Fruit/melon.png'><br><font class='baseline'><strong>Melon Millions</strong><p>Choose number of points to bet.</font><div class='respPicDiv'><img src='img/responseButtonOffersNo0L.png' class='respPic'></div></div>","1","2","Melon Millions","Fruit/melon.png","Lost","0.35,0.65","13","0.35","17","4","",""
"html-keyboard-response","20","105187","0.0-11.0-2.3","5a2846ceb4a5de00011af418","bdp_rwlrn","Mon Mar 13 2023 23:56:34 GMT-0400 (Eastern Daylight Time)","450729","Trustworthy,Untrustworthy","","null","","","","decisionFB","","<div class='trialDiv'><img src='Fruit/melon.png'><br><font class='baseline'><strong>Melon Millions</strong><p>Choose number of points to bet.</font><div class='respPicDiv'><img src='img/responseButtonOffersNo0L1.png' class='respPic'></div></div>","null","2","Melon Millions","Fruit/melon.png","Lost","0.35,0.65","13","0.35","16","4","",""
"html-keyboard-response","21","106203","0.0-11.0-3.3","5a2846ceb4a5de00011af418","bdp_rwlrn","Mon Mar 13 2023 23:56:34 GMT-0400 (Eastern Daylight Time)","450729","Trustworthy,Untrustworthy","","null","","","","feedback","","<div class='respPicDiv'><img src='img/responseButtonOffersNo0_wht.png' class='respPic'></div><div class='trialDiv'><img src='Fruit/melon.png'><br><font class='baseline'><strong>Melon Millions</strong><p><strong><font class='negOutcome'>You LOST</font><p>You bet: 1</strong></font> &nbsp; &nbsp; &nbsp; &nbsp; &nbsp; &nbsp;<font class='negOutcome'>You receive: <strong>0</strong></font></div>","null","2","Melon Millions","Fruit/melon.png","Lost","0.35,0.65","13","0.35","16","4","",""
"html-keyboard-response","22","106938","0.0-11.0-1.4","5a2846ceb4a5de00011af418","bdp_rwlrn","Mon Mar 13 2023 23:56:34 GMT-0400 (Eastern Daylight Time)","450729","Trustworthy,Untrustworthy","","733","","","","decision","","<div class='trialDiv'><img src='Fruit/cherrie.png'><br><font class='baseline'><strong>Cherry Chances</strong><p>Choose number of points to bet.</font><div class='respPicDiv'><img src='img/responseButtonOffersNo0L.png' class='respPic'></div></div>","4","2","Cherry Chances","Fruit/cherrie.png","Won","0.8,0.35","9","0.8","21","5","",""
"html-keyboard-response","23","107205","0.0-11.0-2.4","5a2846ceb4a5de00011af418","bdp_rwlrn","Mon Mar 13 2023 23:56:34 GMT-0400 (Eastern Daylight Time)","450729","Trustworthy,Untrustworthy","","null","","","","decisionFB","","<div class='trialDiv'><img src='Fruit/cherrie.png'><br><font class='baseline'><strong>Cherry Chances</strong><p>Choose number of points to bet.</font><div class='respPicDiv'><img src='img/responseButtonOffersNo0L4.png' class='respPic'></div></div>","null","2","Cherry Chances","Fruit/cherrie.png","Won","0.8,0.35","9","0.8","17","5","",""
"html-keyboard-response","24","108222","0.0-11.0-3.4","5a2846ceb4a5de00011af418","bdp_rwlrn","Mon Mar 13 2023 23:56:34 GMT-0400 (Eastern Daylight Time)","450729","Trustworthy,Untrustworthy","","null","","","","feedback","","<div class='respPicDiv'><img src='img/responseButtonOffersNo0_wht.png' class='respPic'></div><div class='trialDiv'><img src='Fruit/cherrie.png'><br><font class='baseline'><strong>Cherry Chances</strong><p><strong><font class='posOutcome'>You WON</font><p>You bet: 4</strong></font> &nbsp; &nbsp; &nbsp; &nbsp; &nbsp; &nbsp;<font class='posOutcome'>you receive: <strong>8</strong></font></div>","null","2","Cherry Chances","Fruit/cherrie.png","Won","0.8,0.35","9","0.8","25","5","",""
"html-keyboard-response","25","109238","0.0-11.0-1.5","5a2846ceb4a5de00011af418","bdp_rwlrn","Mon Mar 13 2023 23:56:34 GMT-0400 (Eastern Daylight Time)","450729","Trustworthy,Untrustworthy","","1015","","","","decision","","<div class='trialDiv'><img src='Fruit/plums1.png'><br><font class='baseline'><strong>Plum Powerball</strong><p>Choose number of points to bet.</font><div class='respPicDiv'><img src='img/responseButtonOffersNo0L.png' class='respPic'></div></div>","1","2","Plum Powerball","Fruit/plums1.png","Lost","0.2,0.65","13","0.2","30","6","",""
"html-keyboard-response","26","109494","0.0-11.0-2.5","5a2846ceb4a5de00011af418","bdp_rwlrn","Mon Mar 13 2023 23:56:34 GMT-0400 (Eastern Daylight Time)","450729","Trustworthy,Untrustworthy","","null","","","","decisionFB","","<div class='trialDiv'><img src='Fruit/plums1.png'><br><font class='baseline'><strong>Plum Powerball</strong><p>Choose number of points to bet.</font><div class='respPicDiv'><img src='img/responseButtonOffersNo0L1.png' class='respPic'></div></div>","null","2","Plum Powerball","Fruit/plums1.png","Lost","0.2,0.65","13","0.2","29","6","",""
"html-keyboard-response","27","110495","0.0-11.0-3.5","5a2846ceb4a5de00011af418","bdp_rwlrn","Mon Mar 13 2023 23:56:34 GMT-0400 (Eastern Daylight Time)","450729","Trustworthy,Untrustworthy","","null","","","","feedback","","<div class='respPicDiv'><img src='img/responseButtonOffersNo0_wht.png' class='respPic'></div><div class='trialDiv'><img src='Fruit/plums1.png'><br><font class='baseline'><strong>Plum Powerball</strong><p><strong><font class='negOutcome'>You LOST</font><p>You bet: 1</strong></font> &nbsp; &nbsp; &nbsp; &nbsp; &nbsp; &nbsp;<font class='negOutcome'>You receive: <strong>0</strong></font></div>","null","2","Plum Powerball","Fruit/plums1.png","Lost","0.2,0.65","13","0.2","29","6","",""
"html-keyboard-response","28","112728","0.0-11.0-1.6","5a2846ceb4a5de00011af418","bdp_rwlrn","Mon Mar 13 2023 23:56:34 GMT-0400 (Eastern Daylight Time)","450729","Trustworthy,Untrustworthy","","2230","","","","decision","","<div class='trialDiv'><img src='Fruit/cherrie.png'><br><font class='baseline'><strong>Cherry Chances</strong><p>Choose number of points to bet.</font><div class='respPicDiv'><img src='img/responseButtonOffersNo0L.png' class='respPic'></div></div>","5","3","Cherry Chances","Fruit/cherrie.png","Won","0.8,0.35","9","0.8","34","7","",""
"html-keyboard-response","29","112984","0.0-11.0-2.6","5a2846ceb4a5de00011af418","bdp_rwlrn","Mon Mar 13 2023 23:56:34 GMT-0400 (Eastern Daylight Time)","450729","Trustworthy,Untrustworthy","","null","","","","decisionFB","","<div class='trialDiv'><img src='Fruit/cherrie.png'><br><font class='baseline'><strong>Cherry Chances</strong><p>Choose number of points to bet.</font><div class='respPicDiv'><img src='img/responseButtonOffersNo0L5.png' class='respPic'></div></div>","null","3","Cherry Chances","Fruit/cherrie.png","Won","0.8,0.35","9","0.8","29","7","",""
"html-keyboard-response","30","114001","0.0-11.0-3.6","5a2846ceb4a5de00011af418","bdp_rwlrn","Mon Mar 13 2023 23:56:34 GMT-0400 (Eastern Daylight Time)","450729","Trustworthy,Untrustworthy","","null","","","","feedback","","<div class='respPicDiv'><img src='img/responseButtonOffersNo0_wht.png' class='respPic'></div><div class='trialDiv'><img src='Fruit/cherrie.png'><br><font class='baseline'><strong>Cherry Chances</strong><p><strong><font class='posOutcome'>You WON</font><p>You bet: 5</strong></font> &nbsp; &nbsp; &nbsp; &nbsp; &nbsp; &nbsp;<font class='posOutcome'>you receive: <strong>10</strong></font></div>","null","3","Cherry Chances","Fruit/cherrie.png","Won","0.8,0.35","9","0.8","39","7","",""
"html-keyboard-response","31","114796","0.0-11.0-1.7","5a2846ceb4a5de00011af418","bdp_rwlrn","Mon Mar 13 2023 23:56:34 GMT-0400 (Eastern Daylight Time)","450729","Trustworthy,Untrustworthy","","792","","","","decision","","<div class='trialDiv'><img src='Fruit/melon.png'><br><font class='baseline'><strong>Melon Millions</strong><p>Choose number of points to bet.</font><div class='respPicDiv'><img src='img/responseButtonOffersNo0L.png' class='respPic'></div></div>","1","3","Melon Millions","Fruit/melon.png","Lost","0.35,0.65","13","0.35","44","8","",""
"html-keyboard-response","32","115050","0.0-11.0-2.7","5a2846ceb4a5de00011af418","bdp_rwlrn","Mon Mar 13 2023 23:56:34 GMT-0400 (Eastern Daylight Time)","450729","Trustworthy,Untrustworthy","","null","","","","decisionFB","","<div class='trialDiv'><img src='Fruit/melon.png'><br><font class='baseline'><strong>Melon Millions</strong><p>Choose number of points to bet.</font><div class='respPicDiv'><img src='img/responseButtonOffersNo0L1.png' class='respPic'></div></div>","null","3","Melon Millions","Fruit/melon.png","Lost","0.35,0.65","13","0.35","43","8","",""
"html-keyboard-response","33","116064","0.0-11.0-3.7","5a2846ceb4a5de00011af418","bdp_rwlrn","Mon Mar 13 2023 23:56:34 GMT-0400 (Eastern Daylight Time)","450729","Trustworthy,Untrustworthy","","null","","","","feedback","","<div class='respPicDiv'><img src='img/responseButtonOffersNo0_wht.png' class='respPic'></div><div class='trialDiv'><img src='Fruit/melon.png'><br><font class='baseline'><strong>Melon Millions</strong><p><strong><font class='negOutcome'>You LOST</font><p>You bet: 1</strong></font> &nbsp; &nbsp; &nbsp; &nbsp; &nbsp; &nbsp;<font class='negOutcome'>You receive: <strong>0</strong></font></div>","null","3","Melon Millions","Fruit/melon.png","Lost","0.35,0.65","13","0.35","43","8","",""
"html-keyboard-response","34","117387","0.0-11.0-1.8","5a2846ceb4a5de00011af418","bdp_rwlrn","Mon Mar 13 2023 23:56:34 GMT-0400 (Eastern Daylight Time)","450729","Trustworthy,Untrustworthy","","1320","","","","decision","","<div class='trialDiv'><img src='Fruit/plums1.png'><br><font class='baseline'><strong>Plum Powerball</strong><p>Choose number of points to bet.</font><div class='respPicDiv'><img src='img/responseButtonOffersNo0L.png' class='respPic'></div></div>","1","3","Plum Powerball","Fruit/plums1.png","Lost","0.2,0.65","13","0.2","48","9","",""
"html-keyboard-response","35","117654","0.0-11.0-2.8","5a2846ceb4a5de00011af418","bdp_rwlrn","Mon Mar 13 2023 23:56:34 GMT-0400 (Eastern Daylight Time)","450729","Trustworthy,Untrustworthy","","null","","","","decisionFB","","<div class='trialDiv'><img src='Fruit/plums1.png'><br><font class='baseline'><strong>Plum Powerball</strong><p>Choose number of points to bet.</font><div class='respPicDiv'><img src='img/responseButtonOffersNo0L1.png' class='respPic'></div></div>","null","3","Plum Powerball","Fruit/plums1.png","Lost","0.2,0.65","13","0.2","47","9","",""
"html-keyboard-response","36","118672","0.0-11.0-3.8","5a2846ceb4a5de00011af418","bdp_rwlrn","Mon Mar 13 2023 23:56:34 GMT-0400 (Eastern Daylight Time)","450729","Trustworthy,Untrustworthy","","null","","","","feedback","","<div class='respPicDiv'><img src='img/responseButtonOffersNo0_wht.png' class='respPic'></div><div class='trialDiv'><img src='Fruit/plums1.png'><br><font class='baseline'><strong>Plum Powerball</strong><p><strong><font class='negOutcome'>You LOST</font><p>You bet: 1</strong></font> &nbsp; &nbsp; &nbsp; &nbsp; &nbsp; &nbsp;<font class='negOutcome'>You receive: <strong>0</strong></font></div>","null","3","Plum Powerball","Fruit/plums1.png","Lost","0.2,0.65","13","0.2","47","9","",""
"html-keyboard-response","37","119257","0.0-11.0-1.9","5a2846ceb4a5de00011af418","bdp_rwlrn","Mon Mar 13 2023 23:56:34 GMT-0400 (Eastern Daylight Time)","450729","Trustworthy,Untrustworthy","","584","","","","decision","","<div class='trialDiv'><img src='Fruit/cherrie.png'><br><font class='baseline'><strong>Cherry Chances</strong><p>Choose number of points to bet.</font><div class='respPicDiv'><img src='img/responseButtonOffersNo0L.png' class='respPic'></div></div>","5","4","Cherry Chances","Fruit/cherrie.png","Won","0.8,0.35","9","0.8","52","10","",""
"html-keyboard-response","38","119511","0.0-11.0-2.9","5a2846ceb4a5de00011af418","bdp_rwlrn","Mon Mar 13 2023 23:56:34 GMT-0400 (Eastern Daylight Time)","450729","Trustworthy,Untrustworthy","","null","","","","decisionFB","","<div class='trialDiv'><img src='Fruit/cherrie.png'><br><font class='baseline'><strong>Cherry Chances</strong><p>Choose number of points to bet.</font><div class='respPicDiv'><img src='img/responseButtonOffersNo0L5.png' class='respPic'></div></div>","null","4","Cherry Chances","Fruit/cherrie.png","Won","0.8,0.35","9","0.8","47","10","",""
"html-keyboard-response","39","120513","0.0-11.0-3.9","5a2846ceb4a5de00011af418","bdp_rwlrn","Mon Mar 13 2023 23:56:34 GMT-0400 (Eastern Daylight Time)","450729","Trustworthy,Untrustworthy","","null","","","","feedback","","<div class='respPicDiv'><img src='img/responseButtonOffersNo0_wht.png' class='respPic'></div><div class='trialDiv'><img src='Fruit/cherrie.png'><br><font class='baseline'><strong>Cherry Chances</strong><p><strong><font class='posOutcome'>You WON</font><p>You bet: 5</strong></font> &nbsp; &nbsp; &nbsp; &nbsp; &nbsp; &nbsp;<font class='posOutcome'>you receive: <strong>10</strong></font></div>","null","4","Cherry Chances","Fruit/cherrie.png","Won","0.8,0.35","9","0.8","57","10","",""
"html-keyboard-response","40","121012","0.0-11.0-1.10","5a2846ceb4a5de00011af418","bdp_rwlrn","Mon Mar 13 2023 23:56:34 GMT-0400 (Eastern Daylight Time)","450729","Trustworthy,Untrustworthy","","496","","","","decision","","<div class='trialDiv'><img src='Fruit/plums1.png'><br><font class='baseline'><strong>Plum Powerball</strong><p>Choose number of points to bet.</font><div class='respPicDiv'><img src='img/responseButtonOffersNo0L.png' class='respPic'></div></div>","1","4","Plum Powerball","Fruit/plums1.png","Lost","0.2,0.65","13","0.2","62","11","",""
"html-keyboard-response","41","121277","0.0-11.0-2.10","5a2846ceb4a5de00011af418","bdp_rwlrn","Mon Mar 13 2023 23:56:34 GMT-0400 (Eastern Daylight Time)","450729","Trustworthy,Untrustworthy","","null","","","","decisionFB","","<div class='trialDiv'><img src='Fruit/plums1.png'><br><font class='baseline'><strong>Plum Powerball</strong><p>Choose number of points to bet.</font><div class='respPicDiv'><img src='img/responseButtonOffersNo0L1.png' class='respPic'></div></div>","null","4","Plum Powerball","Fruit/plums1.png","Lost","0.2,0.65","13","0.2","61","11","",""
"html-keyboard-response","42","122294","0.0-11.0-3.10","5a2846ceb4a5de00011af418","bdp_rwlrn","Mon Mar 13 2023 23:56:34 GMT-0400 (Eastern Daylight Time)","450729","Trustworthy,Untrustworthy","","null","","","","feedback","","<div class='respPicDiv'><img src='img/responseButtonOffersNo0_wht.png' class='respPic'></div><div class='trialDiv'><img src='Fruit/plums1.png'><br><font class='baseline'><strong>Plum Powerball</strong><p><strong><font class='negOutcome'>You LOST</font><p>You bet: 1</strong></font> &nbsp; &nbsp; &nbsp; &nbsp; &nbsp; &nbsp;<font class='negOutcome'>You receive: <strong>0</strong></font></div>","null","4","Plum Powerball","Fruit/plums1.png","Lost","0.2,0.65","13","0.2","61","11","",""
"html-keyboard-response","43","122791","0.0-11.0-1.11","5a2846ceb4a5de00011af418","bdp_rwlrn","Mon Mar 13 2023 23:56:34 GMT-0400 (Eastern Daylight Time)","450729","Trustworthy,Untrustworthy","","495","","","","decision","","<div class='trialDiv'><img src='Fruit/melon.png'><br><font class='baseline'><strong>Melon Millions</strong><p>Choose number of points to bet.</font><div class='respPicDiv'><img src='img/responseButtonOffersNo0L.png' class='respPic'></div></div>","1","4","Melon Millions","Fruit/melon.png","Won","0.35,0.65","13","0.35","66","12","",""
"html-keyboard-response","44","123044","0.0-11.0-2.11","5a2846ceb4a5de00011af418","bdp_rwlrn","Mon Mar 13 2023 23:56:34 GMT-0400 (Eastern Daylight Time)","450729","Trustworthy,Untrustworthy","","null","","","","decisionFB","","<div class='trialDiv'><img src='Fruit/melon.png'><br><font class='baseline'><strong>Melon Millions</strong><p>Choose number of points to bet.</font><div class='respPicDiv'><img src='img/responseButtonOffersNo0L1.png' class='respPic'></div></div>","null","4","Melon Millions","Fruit/melon.png","Won","0.35,0.65","13","0.35","65","12","",""
"html-keyboard-response","45","124060","0.0-11.0-3.11","5a2846ceb4a5de00011af418","bdp_rwlrn","Mon Mar 13 2023 23:56:34 GMT-0400 (Eastern Daylight Time)","450729","Trustworthy,Untrustworthy","","null","","","","feedback","","<div class='respPicDiv'><img src='img/responseButtonOffersNo0_wht.png' class='respPic'></div><div class='trialDiv'><img src='Fruit/melon.png'><br><font class='baseline'><strong>Melon Millions</strong><p><strong><font class='posOutcome'>You WON</font><p>You bet: 1</strong></font> &nbsp; &nbsp; &nbsp; &nbsp; &nbsp; &nbsp;<font class='posOutcome'>you receive: <strong>2</strong></font></div>","null","4","Melon Millions","Fruit/melon.png","Won","0.35,0.65","13","0.35","67","12","",""
"html-keyboard-response","46","126198","0.0-11.0-1.12","5a2846ceb4a5de00011af418","bdp_rwlrn","Mon Mar 13 2023 23:56:34 GMT-0400 (Eastern Daylight Time)","450729","Trustworthy,Untrustworthy","","2136","","","","decision","","<div class='trialDiv'><img src='Fruit/plums1.png'><br><font class='baseline'><strong>Plum Powerball</strong><p>Choose number of points to bet.</font><div class='respPicDiv'><img src='img/responseButtonOffersNo0L.png' class='respPic'></div></div>","1","5","Plum Powerball","Fruit/plums1.png","Lost","0.2,0.65","13","0.2","72","13","",""
"html-keyboard-response","47","126451","0.0-11.0-2.12","5a2846ceb4a5de00011af418","bdp_rwlrn","Mon Mar 13 2023 23:56:34 GMT-0400 (Eastern Daylight Time)","450729","Trustworthy,Untrustworthy","","null","","","","decisionFB","","<div class='trialDiv'><img src='Fruit/plums1.png'><br><font class='baseline'><strong>Plum Powerball</strong><p>Choose number of points to bet.</font><div class='respPicDiv'><img src='img/responseButtonOffersNo0L1.png' class='respPic'></div></div>","null","5","Plum Powerball","Fruit/plums1.png","Lost","0.2,0.65","13","0.2","71","13","",""
"html-keyboard-response","48","127468","0.0-11.0-3.12","5a2846ceb4a5de00011af418","bdp_rwlrn","Mon Mar 13 2023 23:56:34 GMT-0400 (Eastern Daylight Time)","450729","Trustworthy,Untrustworthy","","null","","","","feedback","","<div class='respPicDiv'><img src='img/responseButtonOffersNo0_wht.png' class='respPic'></div><div class='trialDiv'><img src='Fruit/plums1.png'><br><font class='baseline'><strong>Plum Powerball</strong><p><strong><font class='negOutcome'>You LOST</font><p>You bet: 1</strong></font> &nbsp; &nbsp; &nbsp; &nbsp; &nbsp; &nbsp;<font class='negOutcome'>You receive: <strong>0</strong></font></div>","null","5","Plum Powerball","Fruit/plums1.png","Lost","0.2,0.65","13","0.2","71","13","",""
"html-keyboard-response","49","128627","0.0-11.0-1.13","5a2846ceb4a5de00011af418","bdp_rwlrn","Mon Mar 13 2023 23:56:34 GMT-0400 (Eastern Daylight Time)","450729","Trustworthy,Untrustworthy","","1158","","","","decision","","<div class='trialDiv'><img src='Fruit/melon.png'><br><font class='baseline'><strong>Melon Millions</strong><p>Choose number of points to bet.</font><div class='respPicDiv'><img src='img/responseButtonOffersNo0L.png' class='respPic'></div></div>","2","5","Melon Millions","Fruit/melon.png","Lost","0.35,0.65","13","0.35","76","14","",""
"html-keyboard-response","50","128887","0.0-11.0-2.13","5a2846ceb4a5de00011af418","bdp_rwlrn","Mon Mar 13 2023 23:56:34 GMT-0400 (Eastern Daylight Time)","450729","Trustworthy,Untrustworthy","","null","","","","decisionFB","","<div class='trialDiv'><img src='Fruit/melon.png'><br><font class='baseline'><strong>Melon Millions</strong><p>Choose number of points to bet.</font><div class='respPicDiv'><img src='img/responseButtonOffersNo0L2.png' class='respPic'></div></div>","null","5","Melon Millions","Fruit/melon.png","Lost","0.35,0.65","13","0.35","74","14","",""
"html-keyboard-response","51","129905","0.0-11.0-3.13","5a2846ceb4a5de00011af418","bdp_rwlrn","Mon Mar 13 2023 23:56:34 GMT-0400 (Eastern Daylight Time)","450729","Trustworthy,Untrustworthy","","null","","","","feedback","","<div class='respPicDiv'><img src='img/responseButtonOffersNo0_wht.png' class='respPic'></div><div class='trialDiv'><img src='Fruit/melon.png'><br><font class='baseline'><strong>Melon Millions</strong><p><strong><font class='negOutcome'>You LOST</font><p>You bet: 2</strong></font> &nbsp; &nbsp; &nbsp; &nbsp; &nbsp; &nbsp;<font class='negOutcome'>You receive: <strong>0</strong></font></div>","null","5","Melon Millions","Fruit/melon.png","Lost","0.35,0.65","13","0.35","74","14","",""
"html-keyboard-response","52","130824","0.0-11.0-1.14","5a2846ceb4a5de00011af418","bdp_rwlrn","Mon Mar 13 2023 23:56:34 GMT-0400 (Eastern Daylight Time)","450729","Trustworthy,Untrustworthy","","918","","","","decision","","<div class='trialDiv'><img src='Fruit/cherrie.png'><br><font class='baseline'><strong>Cherry Chances</strong><p>Choose number of points to bet.</font><div class='respPicDiv'><img src='img/responseButtonOffersNo0L.png' class='respPic'></div></div>","5","5","Cherry Chances","Fruit/cherrie.png","Won","0.8,0.35","9","0.8","79","15","",""
"html-keyboard-response","53","131076","0.0-11.0-2.14","5a2846ceb4a5de00011af418","bdp_rwlrn","Mon Mar 13 2023 23:56:34 GMT-0400 (Eastern Daylight Time)","450729","Trustworthy,Untrustworthy","","null","","","","decisionFB","","<div class='trialDiv'><img src='Fruit/cherrie.png'><br><font class='baseline'><strong>Cherry Chances</strong><p>Choose number of points to bet.</font><div class='respPicDiv'><img src='img/responseButtonOffersNo0L5.png' class='respPic'></div></div>","null","5","Cherry Chances","Fruit/cherrie.png","Won","0.8,0.35","9","0.8","74","15","",""
"html-keyboard-response","54","132077","0.0-11.0-3.14","5a2846ceb4a5de00011af418","bdp_rwlrn","Mon Mar 13 2023 23:56:34 GMT-0400 (Eastern Daylight Time)","450729","Trustworthy,Untrustworthy","","null","","","","feedback","","<div class='respPicDiv'><img src='img/responseButtonOffersNo0_wht.png' class='respPic'></div><div class='trialDiv'><img src='Fruit/cherrie.png'><br><font class='baseline'><strong>Cherry Chances</strong><p><strong><font class='posOutcome'>You WON</font><p>You bet: 5</strong></font> &nbsp; &nbsp; &nbsp; &nbsp; &nbsp; &nbsp;<font class='posOutcome'>you receive: <strong>10</strong></font></div>","null","5","Cherry Chances","Fruit/cherrie.png","Won","0.8,0.35","9","0.8","84","15","",""
"html-keyboard-response","55","133673","0.0-11.0-1.15","5a2846ceb4a5de00011af418","bdp_rwlrn","Mon Mar 13 2023 23:56:34 GMT-0400 (Eastern Daylight Time)","450729","Trustworthy,Untrustworthy","","1594","","","","decision","","<div class='trialDiv'><img src='Fruit/melon.png'><br><font class='baseline'><strong>Melon Millions</strong><p>Choose number of points to bet.</font><div class='respPicDiv'><img src='img/responseButtonOffersNo0L.png' class='respPic'></div></div>","2","6","Melon Millions","Fruit/melon.png","Won","0.35,0.65","13","0.35","89","16","",""
"html-keyboard-response","56","133935","0.0-11.0-2.15","5a2846ceb4a5de00011af418","bdp_rwlrn","Mon Mar 13 2023 23:56:34 GMT-0400 (Eastern Daylight Time)","450729","Trustworthy,Untrustworthy","","null","","","","decisionFB","","<div class='trialDiv'><img src='Fruit/melon.png'><br><font class='baseline'><strong>Melon Millions</strong><p>Choose number of points to bet.</font><div class='respPicDiv'><img src='img/responseButtonOffersNo0L2.png' class='respPic'></div></div>","null","6","Melon Millions","Fruit/melon.png","Won","0.35,0.65","13","0.35","87","16","",""
"html-keyboard-response","57","134937","0.0-11.0-3.15","5a2846ceb4a5de00011af418","bdp_rwlrn","Mon Mar 13 2023 23:56:34 GMT-0400 (Eastern Daylight Time)","450729","Trustworthy,Untrustworthy","","null","","","","feedback","","<div class='respPicDiv'><img src='img/responseButtonOffersNo0_wht.png' class='respPic'></div><div class='trialDiv'><img src='Fruit/melon.png'><br><font class='baseline'><strong>Melon Millions</strong><p><strong><font class='posOutcome'>You WON</font><p>You bet: 2</strong></font> &nbsp; &nbsp; &nbsp; &nbsp; &nbsp; &nbsp;<font class='posOutcome'>you receive: <strong>4</strong></font></div>","null","6","Melon Millions","Fruit/melon.png","Won","0.35,0.65","13","0.35","91","16","",""
"html-keyboard-response","58","135831","0.0-11.0-1.16","5a2846ceb4a5de00011af418","bdp_rwlrn","Mon Mar 13 2023 23:56:34 GMT-0400 (Eastern Daylight Time)","450729","Trustworthy,Untrustworthy","","892","","","","decision","","<div class='trialDiv'><img src='Fruit/plums1.png'><br><font class='baseline'><strong>Plum Powerball</strong><p>Choose number of points to bet.</font><div class='respPicDiv'><img src='img/responseButtonOffersNo0L.png' class='respPic'></div></div>","1","6","Plum Powerball","Fruit/plums1.png","Lost","0.2,0.65","13","0.2","96","17","",""
"html-keyboard-response","59","136086","0.0-11.0-2.16","5a2846ceb4a5de00011af418","bdp_rwlrn","Mon Mar 13 2023 23:56:34 GMT-0400 (Eastern Daylight Time)","450729","Trustworthy,Untrustworthy","","null","","","","decisionFB","","<div class='trialDiv'><img src='Fruit/plums1.png'><br><font class='baseline'><strong>Plum Powerball</strong><p>Choose number of points to bet.</font><div class='respPicDiv'><img src='img/responseButtonOffersNo0L1.png' class='respPic'></div></div>","null","6","Plum Powerball","Fruit/plums1.png","Lost","0.2,0.65","13","0.2","95","17","",""
"html-keyboard-response","60","137103","0.0-11.0-3.16","5a2846ceb4a5de00011af418","bdp_rwlrn","Mon Mar 13 2023 23:56:34 GMT-0400 (Eastern Daylight Time)","450729","Trustworthy,Untrustworthy","","null","","","","feedback","","<div class='respPicDiv'><img src='img/responseButtonOffersNo0_wht.png' class='respPic'></div><div class='trialDiv'><img src='Fruit/plums1.png'><br><font class='baseline'><strong>Plum Powerball</strong><p><strong><font class='negOutcome'>You LOST</font><p>You bet: 1</strong></font> &nbsp; &nbsp; &nbsp; &nbsp; &nbsp; &nbsp;<font class='negOutcome'>You receive: <strong>0</strong></font></div>","null","6","Plum Powerball","Fruit/plums1.png","Lost","0.2,0.65","13","0.2","95","17","",""
"html-keyboard-response","61","137796","0.0-11.0-1.17","5a2846ceb4a5de00011af418","bdp_rwlrn","Mon Mar 13 2023 23:56:34 GMT-0400 (Eastern Daylight Time)","450729","Trustworthy,Untrustworthy","","691","","","","decision","","<div class='trialDiv'><img src='Fruit/cherrie.png'><br><font class='baseline'><strong>Cherry Chances</strong><p>Choose number of points to bet.</font><div class='respPicDiv'><img src='img/responseButtonOffersNo0L.png' class='respPic'></div></div>","5","6","Cherry Chances","Fruit/cherrie.png","Won","0.8,0.35","9","0.8","100","18","",""
"html-keyboard-response","62","138058","0.0-11.0-2.17","5a2846ceb4a5de00011af418","bdp_rwlrn","Mon Mar 13 2023 23:56:34 GMT-0400 (Eastern Daylight Time)","450729","Trustworthy,Untrustworthy","","null","","","","decisionFB","","<div class='trialDiv'><img src='Fruit/cherrie.png'><br><font class='baseline'><strong>Cherry Chances</strong><p>Choose number of points to bet.</font><div class='respPicDiv'><img src='img/responseButtonOffersNo0L5.png' class='respPic'></div></div>","null","6","Cherry Chances","Fruit/cherrie.png","Won","0.8,0.35","9","0.8","95","18","",""
"html-keyboard-response","63","139075","0.0-11.0-3.17","5a2846ceb4a5de00011af418","bdp_rwlrn","Mon Mar 13 2023 23:56:34 GMT-0400 (Eastern Daylight Time)","450729","Trustworthy,Untrustworthy","","null","","","","feedback","","<div class='respPicDiv'><img src='img/responseButtonOffersNo0_wht.png' class='respPic'></div><div class='trialDiv'><img src='Fruit/cherrie.png'><br><font class='baseline'><strong>Cherry Chances</strong><p><strong><font class='posOutcome'>You WON</font><p>You bet: 5</strong></font> &nbsp; &nbsp; &nbsp; &nbsp; &nbsp; &nbsp;<font class='posOutcome'>you receive: <strong>10</strong></font></div>","null","6","Cherry Chances","Fruit/cherrie.png","Won","0.8,0.35","9","0.8","105","18","",""
"html-keyboard-response","64","140041","0.0-11.0-1.18","5a2846ceb4a5de00011af418","bdp_rwlrn","Mon Mar 13 2023 23:56:34 GMT-0400 (Eastern Daylight Time)","450729","Trustworthy,Untrustworthy","","963","","","","decision","","<div class='trialDiv'><img src='Fruit/melon.png'><br><font class='baseline'><strong>Melon Millions</strong><p>Choose number of points to bet.</font><div class='respPicDiv'><img src='img/responseButtonOffersNo0L.png' class='respPic'></div></div>","2","7","Melon Millions","Fruit/melon.png","Won","0.35,0.65","13","0.35","110","19","",""
"html-keyboard-response","65","140293","0.0-11.0-2.18","5a2846ceb4a5de00011af418","bdp_rwlrn","Mon Mar 13 2023 23:56:34 GMT-0400 (Eastern Daylight Time)","450729","Trustworthy,Untrustworthy","","null","","","","decisionFB","","<div class='trialDiv'><img src='Fruit/melon.png'><br><font class='baseline'><strong>Melon Millions</strong><p>Choose number of points to bet.</font><div class='respPicDiv'><img src='img/responseButtonOffersNo0L2.png' class='respPic'></div></div>","null","7","Melon Millions","Fruit/melon.png","Won","0.35,0.65","13","0.35","108","19","",""
"html-keyboard-response","66","141310","0.0-11.0-3.18","5a2846ceb4a5de00011af418","bdp_rwlrn","Mon Mar 13 2023 23:56:34 GMT-0400 (Eastern Daylight Time)","450729","Trustworthy,Untrustworthy","","null","","","","feedback","","<div class='respPicDiv'><img src='img/responseButtonOffersNo0_wht.png' class='respPic'></div><div class='trialDiv'><img src='Fruit/melon.png'><br><font class='baseline'><strong>Melon Millions</strong><p><strong><font class='posOutcome'>You WON</font><p>You bet: 2</strong></font> &nbsp; &nbsp; &nbsp; &nbsp; &nbsp; &nbsp;<font class='posOutcome'>you receive: <strong>4</strong></font></div>","null","7","Melon Millions","Fruit/melon.png","Won","0.35,0.65","13","0.35","112","19","",""
"html-keyboard-response","67","141779","0.0-11.0-1.19","5a2846ceb4a5de00011af418","bdp_rwlrn","Mon Mar 13 2023 23:56:34 GMT-0400 (Eastern Daylight Time)","450729","Trustworthy,Untrustworthy","","467","","","","decision","","<div class='trialDiv'><img src='Fruit/cherrie.png'><br><font class='baseline'><strong>Cherry Chances</strong><p>Choose number of points to bet.</font><div class='respPicDiv'><img src='img/responseButtonOffersNo0L.png' class='respPic'></div></div>","5","7","Cherry Chances","Fruit/cherrie.png","Won","0.8,0.35","9","0.8","117","20","",""
"html-keyboard-response","68","142050","0.0-11.0-2.19","5a2846ceb4a5de00011af418","bdp_rwlrn","Mon Mar 13 2023 23:56:34 GMT-0400 (Eastern Daylight Time)","450729","Trustworthy,Untrustworthy","","null","","","","decisionFB","","<div class='trialDiv'><img src='Fruit/cherrie.png'><br><font class='baseline'><strong>Cherry Chances</strong><p>Choose number of points to bet.</font><div class='respPicDiv'><img src='img/responseButtonOffersNo0L5.png' class='respPic'></div></div>","null","7","Cherry Chances","Fruit/cherrie.png","Won","0.8,0.35","9","0.8","112","20","",""
"html-keyboard-response","69","143067","0.0-11.0-3.19","5a2846ceb4a5de00011af418","bdp_rwlrn","Mon Mar 13 2023 23:56:34 GMT-0400 (Eastern Daylight Time)","450729","Trustworthy,Untrustworthy","","null","","","","feedback","","<div class='respPicDiv'><img src='img/responseButtonOffersNo0_wht.png' class='respPic'></div><div class='trialDiv'><img src='Fruit/cherrie.png'><br><font class='baseline'><strong>Cherry Chances</strong><p><strong><font class='posOutcome'>You WON</font><p>You bet: 5</strong></font> &nbsp; &nbsp; &nbsp; &nbsp; &nbsp; &nbsp;<font class='posOutcome'>you receive: <strong>10</strong></font></div>","null","7","Cherry Chances","Fruit/cherrie.png","Won","0.8,0.35","9","0.8","122","20","",""
"html-keyboard-response","70","143997","0.0-11.0-1.20","5a2846ceb4a5de00011af418","bdp_rwlrn","Mon Mar 13 2023 23:56:34 GMT-0400 (Eastern Daylight Time)","450729","Trustworthy,Untrustworthy","","929","","","","decision","","<div class='trialDiv'><img src='Fruit/plums1.png'><br><font class='baseline'><strong>Plum Powerball</strong><p>Choose number of points to bet.</font><div class='respPicDiv'><img src='img/responseButtonOffersNo0L.png' class='respPic'></div></div>","1","7","Plum Powerball","Fruit/plums1.png","Lost","0.2,0.65","13","0.2","127","21","",""
"html-keyboard-response","71","144264","0.0-11.0-2.20","5a2846ceb4a5de00011af418","bdp_rwlrn","Mon Mar 13 2023 23:56:34 GMT-0400 (Eastern Daylight Time)","450729","Trustworthy,Untrustworthy","","null","","","","decisionFB","","<div class='trialDiv'><img src='Fruit/plums1.png'><br><font class='baseline'><strong>Plum Powerball</strong><p>Choose number of points to bet.</font><div class='respPicDiv'><img src='img/responseButtonOffersNo0L1.png' class='respPic'></div></div>","null","7","Plum Powerball","Fruit/plums1.png","Lost","0.2,0.65","13","0.2","126","21","",""
"html-keyboard-response","72","145282","0.0-11.0-3.20","5a2846ceb4a5de00011af418","bdp_rwlrn","Mon Mar 13 2023 23:56:34 GMT-0400 (Eastern Daylight Time)","450729","Trustworthy,Untrustworthy","","null","","","","feedback","","<div class='respPicDiv'><img src='img/responseButtonOffersNo0_wht.png' class='respPic'></div><div class='trialDiv'><img src='Fruit/plums1.png'><br><font class='baseline'><strong>Plum Powerball</strong><p><strong><font class='negOutcome'>You LOST</font><p>You bet: 1</strong></font> &nbsp; &nbsp; &nbsp; &nbsp; &nbsp; &nbsp;<font class='negOutcome'>You receive: <strong>0</strong></font></div>","null","7","Plum Powerball","Fruit/plums1.png","Lost","0.2,0.65","13","0.2","126","21","",""
"html-keyboard-response","73","146222","0.0-11.0-1.21","5a2846ceb4a5de00011af418","bdp_rwlrn","Mon Mar 13 2023 23:56:34 GMT-0400 (Eastern Daylight Time)","450729","Trustworthy,Untrustworthy","","940","","","","decision","","<div class='trialDiv'><img src='Fruit/melon.png'><br><font class='baseline'><strong>Melon Millions</strong><p>Choose number of points to bet.</font><div class='respPicDiv'><img src='img/responseButtonOffersNo0L.png' class='respPic'></div></div>","2","8","Melon Millions","Fruit/melon.png","Lost","0.35,0.65","13","0.35","131","22","",""
"html-keyboard-response","74","146484","0.0-11.0-2.21","5a2846ceb4a5de00011af418","bdp_rwlrn","Mon Mar 13 2023 23:56:34 GMT-0400 (Eastern Daylight Time)","450729","Trustworthy,Untrustworthy","","null","","","","decisionFB","","<div class='trialDiv'><img src='Fruit/melon.png'><br><font class='baseline'><strong>Melon Millions</strong><p>Choose number of points to bet.</font><div class='respPicDiv'><img src='img/responseButtonOffersNo0L2.png' class='respPic'></div></div>","null","8","Melon Millions","Fruit/melon.png","Lost","0.35,0.65","13","0.35","129","22","",""
"html-keyboard-response","75","147492","0.0-11.0-3.21","5a2846ceb4a5de00011af418","bdp_rwlrn","Mon Mar 13 2023 23:56:34 GMT-0400 (Eastern Daylight Time)","450729","Trustworthy,Untrustworthy","","null","","","","feedback","","<div class='respPicDiv'><img src='img/responseButtonOffersNo0_wht.png' class='respPic'></div><div class='trialDiv'><img src='Fruit/melon.png'><br><font class='baseline'><strong>Melon Millions</strong><p><strong><font class='negOutcome'>You LOST</font><p>You bet: 2</strong></font> &nbsp; &nbsp; &nbsp; &nbsp; &nbsp; &nbsp;<font class='negOutcome'>You receive: <strong>0</strong></font></div>","null","8","Melon Millions","Fruit/melon.png","Lost","0.35,0.65","13","0.35","129","22","",""
"html-keyboard-response","76","148302","0.0-11.0-1.22","5a2846ceb4a5de00011af418","bdp_rwlrn","Mon Mar 13 2023 23:56:34 GMT-0400 (Eastern Daylight Time)","450729","Trustworthy,Untrustworthy","","808","","","","decision","","<div class='trialDiv'><img src='Fruit/plums1.png'><br><font class='baseline'><strong>Plum Powerball</strong><p>Choose number of points to bet.</font><div class='respPicDiv'><img src='img/responseButtonOffersNo0L.png' class='respPic'></div></div>","1","8","Plum Powerball","Fruit/plums1.png","Lost","0.2,0.65","13","0.2","134","23","",""
"html-keyboard-response","77","148556","0.0-11.0-2.22","5a2846ceb4a5de00011af418","bdp_rwlrn","Mon Mar 13 2023 23:56:34 GMT-0400 (Eastern Daylight Time)","450729","Trustworthy,Untrustworthy","","null","","","","decisionFB","","<div class='trialDiv'><img src='Fruit/plums1.png'><br><font class='baseline'><strong>Plum Powerball</strong><p>Choose number of points to bet.</font><div class='respPicDiv'><img src='img/responseButtonOffersNo0L1.png' class='respPic'></div></div>","null","8","Plum Powerball","Fruit/plums1.png","Lost","0.2,0.65","13","0.2","133","23","",""
"html-keyboard-response","78","149559","0.0-11.0-3.22","5a2846ceb4a5de00011af418","bdp_rwlrn","Mon Mar 13 2023 23:56:34 GMT-0400 (Eastern Daylight Time)","450729","Trustworthy,Untrustworthy","","null","","","","feedback","","<div class='respPicDiv'><img src='img/responseButtonOffersNo0_wht.png' class='respPic'></div><div class='trialDiv'><img src='Fruit/plums1.png'><br><font class='baseline'><strong>Plum Powerball</strong><p><strong><font class='negOutcome'>You LOST</font><p>You bet: 1</strong></font> &nbsp; &nbsp; &nbsp; &nbsp; &nbsp; &nbsp;<font class='negOutcome'>You receive: <strong>0</strong></font></div>","null","8","Plum Powerball","Fruit/plums1.png","Lost","0.2,0.65","13","0.2","133","23","",""
"html-keyboard-response","79","150291","0.0-11.0-1.23","5a2846ceb4a5de00011af418","bdp_rwlrn","Mon Mar 13 2023 23:56:34 GMT-0400 (Eastern Daylight Time)","450729","Trustworthy,Untrustworthy","","730","","","","decision","","<div class='trialDiv'><img src='Fruit/cherrie.png'><br><font class='baseline'><strong>Cherry Chances</strong><p>Choose number of points to bet.</font><div class='respPicDiv'><img src='img/responseButtonOffersNo0L.png' class='respPic'></div></div>","5","8","Cherry Chances","Fruit/cherrie.png","Won","0.8,0.35","9","0.8","138","24","",""
"html-keyboard-response","80","150549","0.0-11.0-2.23","5a2846ceb4a5de00011af418","bdp_rwlrn","Mon Mar 13 2023 23:56:34 GMT-0400 (Eastern Daylight Time)","450729","Trustworthy,Untrustworthy","","null","","","","decisionFB","","<div class='trialDiv'><img src='Fruit/cherrie.png'><br><font class='baseline'><strong>Cherry Chances</strong><p>Choose number of points to bet.</font><div class='respPicDiv'><img src='img/responseButtonOffersNo0L5.png' class='respPic'></div></div>","null","8","Cherry Chances","Fruit/cherrie.png","Won","0.8,0.35","9","0.8","133","24","",""
"html-keyboard-response","81","151566","0.0-11.0-3.23","5a2846ceb4a5de00011af418","bdp_rwlrn","Mon Mar 13 2023 23:56:34 GMT-0400 (Eastern Daylight Time)","450729","Trustworthy,Untrustworthy","","null","","","","feedback","","<div class='respPicDiv'><img src='img/responseButtonOffersNo0_wht.png' class='respPic'></div><div class='trialDiv'><img src='Fruit/cherrie.png'><br><font class='baseline'><strong>Cherry Chances</strong><p><strong><font class='posOutcome'>You WON</font><p>You bet: 5</strong></font> &nbsp; &nbsp; &nbsp; &nbsp; &nbsp; &nbsp;<font class='posOutcome'>you receive: <strong>10</strong></font></div>","null","8","Cherry Chances","Fruit/cherrie.png","Won","0.8,0.35","9","0.8","143","24","",""
"html-keyboard-response","82","152819","0.0-11.0-1.24","5a2846ceb4a5de00011af418","bdp_rwlrn","Mon Mar 13 2023 23:56:34 GMT-0400 (Eastern Daylight Time)","450729","Trustworthy,Untrustworthy","","1251","","","","decision","","<div class='trialDiv'><img src='Fruit/plums1.png'><br><font class='baseline'><strong>Plum Powerball</strong><p>Choose number of points to bet.</font><div class='respPicDiv'><img src='img/responseButtonOffersNo0L.png' class='respPic'></div></div>","1","9","Plum Powerball","Fruit/plums1.png","Lost","0.2,0.65","13","0.2","148","25","",""
"html-keyboard-response","83","153084","0.0-11.0-2.24","5a2846ceb4a5de00011af418","bdp_rwlrn","Mon Mar 13 2023 23:56:34 GMT-0400 (Eastern Daylight Time)","450729","Trustworthy,Untrustworthy","","null","","","","decisionFB","","<div class='trialDiv'><img src='Fruit/plums1.png'><br><font class='baseline'><strong>Plum Powerball</strong><p>Choose number of points to bet.</font><div class='respPicDiv'><img src='img/responseButtonOffersNo0L1.png' class='respPic'></div></div>","null","9","Plum Powerball","Fruit/plums1.png","Lost","0.2,0.65","13","0.2","147","25","",""
"html-keyboard-response","84","154087","0.0-11.0-3.24","5a2846ceb4a5de00011af418","bdp_rwlrn","Mon Mar 13 2023 23:56:34 GMT-0400 (Eastern Daylight Time)","450729","Trustworthy,Untrustworthy","","null","","","","feedback","","<div class='respPicDiv'><img src='img/responseButtonOffersNo0_wht.png' class='respPic'></div><div class='trialDiv'><img src='Fruit/plums1.png'><br><font class='baseline'><strong>Plum Powerball</strong><p><strong><font class='negOutcome'>You LOST</font><p>You bet: 1</strong></font> &nbsp; &nbsp; &nbsp; &nbsp; &nbsp; &nbsp;<font class='negOutcome'>You receive: <strong>0</strong></font></div>","null","9","Plum Powerball","Fruit/plums1.png","Lost","0.2,0.65","13","0.2","147","25","",""
"html-keyboard-response","85","154722","0.0-11.0-1.25","5a2846ceb4a5de00011af418","bdp_rwlrn","Mon Mar 13 2023 23:56:34 GMT-0400 (Eastern Daylight Time)","450729","Trustworthy,Untrustworthy","","632","","","","decision","","<div class='trialDiv'><img src='Fruit/cherrie.png'><br><font class='baseline'><strong>Cherry Chances</strong><p>Choose number of points to bet.</font><div class='respPicDiv'><img src='img/responseButtonOffersNo0L.png' class='respPic'></div></div>","5","9","Cherry Chances","Fruit/cherrie.png","Lost","0.8,0.35","9","0.8","152","26","",""
"html-keyboard-response","86","154983","0.0-11.0-2.25","5a2846ceb4a5de00011af418","bdp_rwlrn","Mon Mar 13 2023 23:56:34 GMT-0400 (Eastern Daylight Time)","450729","Trustworthy,Untrustworthy","","null","","","","decisionFB","","<div class='trialDiv'><img src='Fruit/cherrie.png'><br><font class='baseline'><strong>Cherry Chances</strong><p>Choose number of points to bet.</font><div class='respPicDiv'><img src='img/responseButtonOffersNo0L5.png' class='respPic'></div></div>","null","9","Cherry Chances","Fruit/cherrie.png","Lost","0.8,0.35","9","0.8","147","26","",""
"html-keyboard-response","87","156004","0.0-11.0-3.25","5a2846ceb4a5de00011af418","bdp_rwlrn","Mon Mar 13 2023 23:56:34 GMT-0400 (Eastern Daylight Time)","450729","Trustworthy,Untrustworthy","","null","","","","feedback","","<div class='respPicDiv'><img src='img/responseButtonOffersNo0_wht.png' class='respPic'></div><div class='trialDiv'><img src='Fruit/cherrie.png'><br><font class='baseline'><strong>Cherry Chances</strong><p><strong><font class='negOutcome'>You LOST</font><p>You bet: 5</strong></font> &nbsp; &nbsp; &nbsp; &nbsp; &nbsp; &nbsp;<font class='negOutcome'>You receive: <strong>0</strong></font></div>","null","9","Cherry Chances","Fruit/cherrie.png","Lost","0.8,0.35","9","0.8","147","26","",""
"html-keyboard-response","88","157421","0.0-11.0-1.26","5a2846ceb4a5de00011af418","bdp_rwlrn","Mon Mar 13 2023 23:56:34 GMT-0400 (Eastern Daylight Time)","450729","Trustworthy,Untrustworthy","","1416","","","","decision","","<div class='trialDiv'><img src='Fruit/melon.png'><br><font class='baseline'><strong>Melon Millions</strong><p>Choose number of points to bet.</font><div class='respPicDiv'><img src='img/responseButtonOffersNo0L.png' class='respPic'></div></div>","2","9","Melon Millions","Fruit/melon.png","Won","0.35,0.65","13","0.35","152","27","",""
"html-keyboard-response","89","157674","0.0-11.0-2.26","5a2846ceb4a5de00011af418","bdp_rwlrn","Mon Mar 13 2023 23:56:34 GMT-0400 (Eastern Daylight Time)","450729","Trustworthy,Untrustworthy","","null","","","","decisionFB","","<div class='trialDiv'><img src='Fruit/melon.png'><br><font class='baseline'><strong>Melon Millions</strong><p>Choose number of points to bet.</font><div class='respPicDiv'><img src='img/responseButtonOffersNo0L2.png' class='respPic'></div></div>","null","9","Melon Millions","Fruit/melon.png","Won","0.35,0.65","13","0.35","150","27","",""
"html-keyboard-response","90","158683","0.0-11.0-3.26","5a2846ceb4a5de00011af418","bdp_rwlrn","Mon Mar 13 2023 23:56:34 GMT-0400 (Eastern Daylight Time)","450729","Trustworthy,Untrustworthy","","null","","","","feedback","","<div class='respPicDiv'><img src='img/responseButtonOffersNo0_wht.png' class='respPic'></div><div class='trialDiv'><img src='Fruit/melon.png'><br><font class='baseline'><strong>Melon Millions</strong><p><strong><font class='posOutcome'>You WON</font><p>You bet: 2</strong></font> &nbsp; &nbsp; &nbsp; &nbsp; &nbsp; &nbsp;<font class='posOutcome'>you receive: <strong>4</strong></font></div>","null","9","Melon Millions","Fruit/melon.png","Won","0.35,0.65","13","0.35","154","27","",""
"html-keyboard-response","91","159133","0.0-11.0-1.27","5a2846ceb4a5de00011af418","bdp_rwlrn","Mon Mar 13 2023 23:56:34 GMT-0400 (Eastern Daylight Time)","450729","Trustworthy,Untrustworthy","","448","","","","decision","","<div class='trialDiv'><img src='Fruit/cherrie.png'><br><font class='baseline'><strong>Cherry Chances</strong><p>Choose number of points to bet.</font><div class='respPicDiv'><img src='img/responseButtonOffersNo0L.png' class='respPic'></div></div>","5","10","Cherry Chances","Fruit/cherrie.png","Lost","0.8,0.35","9","0.8","159","28","",""
"html-keyboard-response","92","159404","0.0-11.0-2.27","5a2846ceb4a5de00011af418","bdp_rwlrn","Mon Mar 13 2023 23:56:34 GMT-0400 (Eastern Daylight Time)","450729","Trustworthy,Untrustworthy","","null","","","","decisionFB","","<div class='trialDiv'><img src='Fruit/cherrie.png'><br><font class='baseline'><strong>Cherry Chances</strong><p>Choose number of points to bet.</font><div class='respPicDiv'><img src='img/responseButtonOffersNo0L5.png' class='respPic'></div></div>","null","10","Cherry Chances","Fruit/cherrie.png","Lost","0.8,0.35","9","0.8","154","28","",""
"html-keyboard-response","93","160424","0.0-11.0-3.27","5a2846ceb4a5de00011af418","bdp_rwlrn","Mon Mar 13 2023 23:56:34 GMT-0400 (Eastern Daylight Time)","450729","Trustworthy,Untrustworthy","","null","","","","feedback","","<div class='respPicDiv'><img src='img/responseButtonOffersNo0_wht.png' class='respPic'></div><div class='trialDiv'><img src='Fruit/cherrie.png'><br><font class='baseline'><strong>Cherry Chances</strong><p><strong><font class='negOutcome'>You LOST</font><p>You bet: 5</strong></font> &nbsp; &nbsp; &nbsp; &nbsp; &nbsp; &nbsp;<font class='negOutcome'>You receive: <strong>0</strong></font></div>","null","10","Cherry Chances","Fruit/cherrie.png","Lost","0.8,0.35","9","0.8","154","28","",""
"html-keyboard-response","94","162021","0.0-11.0-1.28","5a2846ceb4a5de00011af418","bdp_rwlrn","Mon Mar 13 2023 23:56:34 GMT-0400 (Eastern Daylight Time)","450729","Trustworthy,Untrustworthy","","1594","","","","decision","","<div class='trialDiv'><img src='Fruit/melon.png'><br><font class='baseline'><strong>Melon Millions</strong><p>Choose number of points to bet.</font><div class='respPicDiv'><img src='img/responseButtonOffersNo0L.png' class='respPic'></div></div>","5","10","Melon Millions","Fruit/melon.png","Lost","0.35,0.65","13","0.35","159","29","",""
"html-keyboard-response","95","162284","0.0-11.0-2.28","5a2846ceb4a5de00011af418","bdp_rwlrn","Mon Mar 13 2023 23:56:34 GMT-0400 (Eastern Daylight Time)","450729","Trustworthy,Untrustworthy","","null","","","","decisionFB","","<div class='trialDiv'><img src='Fruit/melon.png'><br><font class='baseline'><strong>Melon Millions</strong><p>Choose number of points to bet.</font><div class='respPicDiv'><img src='img/responseButtonOffersNo0L5.png' class='respPic'></div></div>","null","10","Melon Millions","Fruit/melon.png","Lost","0.35,0.65","13","0.35","154","29","",""
"html-keyboard-response","96","163304","0.0-11.0-3.28","5a2846ceb4a5de00011af418","bdp_rwlrn","Mon Mar 13 2023 23:56:34 GMT-0400 (Eastern Daylight Time)","450729","Trustworthy,Untrustworthy","","null","","","","feedback","","<div class='respPicDiv'><img src='img/responseButtonOffersNo0_wht.png' class='respPic'></div><div class='trialDiv'><img src='Fruit/melon.png'><br><font class='baseline'><strong>Melon Millions</strong><p><strong><font class='negOutcome'>You LOST</font><p>You bet: 5</strong></font> &nbsp; &nbsp; &nbsp; &nbsp; &nbsp; &nbsp;<font class='negOutcome'>You receive: <strong>0</strong></font></div>","null","10","Melon Millions","Fruit/melon.png","Lost","0.35,0.65","13","0.35","154","29","",""
"html-keyboard-response","97","164058","0.0-11.0-1.29","5a2846ceb4a5de00011af418","bdp_rwlrn","Mon Mar 13 2023 23:56:34 GMT-0400 (Eastern Daylight Time)","450729","Trustworthy,Untrustworthy","","753","","","","decision","","<div class='trialDiv'><img src='Fruit/plums1.png'><br><font class='baseline'><strong>Plum Powerball</strong><p>Choose number of points to bet.</font><div class='respPicDiv'><img src='img/responseButtonOffersNo0L.png' class='respPic'></div></div>","5","10","Plum Powerball","Fruit/plums1.png","Lost","0.2,0.65","13","0.2","159","30","",""
"html-keyboard-response","98","164314","0.0-11.0-2.29","5a2846ceb4a5de00011af418","bdp_rwlrn","Mon Mar 13 2023 23:56:34 GMT-0400 (Eastern Daylight Time)","450729","Trustworthy,Untrustworthy","","null","","","","decisionFB","","<div class='trialDiv'><img src='Fruit/plums1.png'><br><font class='baseline'><strong>Plum Powerball</strong><p>Choose number of points to bet.</font><div class='respPicDiv'><img src='img/responseButtonOffersNo0L5.png' class='respPic'></div></div>","null","10","Plum Powerball","Fruit/plums1.png","Lost","0.2,0.65","13","0.2","154","30","",""
"html-keyboard-response","99","165324","0.0-11.0-3.29","5a2846ceb4a5de00011af418","bdp_rwlrn","Mon Mar 13 2023 23:56:34 GMT-0400 (Eastern Daylight Time)","450729","Trustworthy,Untrustworthy","","null","","","","feedback","","<div class='respPicDiv'><img src='img/responseButtonOffersNo0_wht.png' class='respPic'></div><div class='trialDiv'><img src='Fruit/plums1.png'><br><font class='baseline'><strong>Plum Powerball</strong><p><strong><font class='negOutcome'>You LOST</font><p>You bet: 5</strong></font> &nbsp; &nbsp; &nbsp; &nbsp; &nbsp; &nbsp;<font class='negOutcome'>You receive: <strong>0</strong></font></div>","null","10","Plum Powerball","Fruit/plums1.png","Lost","0.2,0.65","13","0.2","154","30","",""
"html-keyboard-response","100","166348","0.0-11.0-1.30","5a2846ceb4a5de00011af418","bdp_rwlrn","Mon Mar 13 2023 23:56:34 GMT-0400 (Eastern Daylight Time)","450729","Trustworthy,Untrustworthy","","1022","","","","decision","","<div class='trialDiv'><img src='Fruit/melon.png'><br><font class='baseline'><strong>Melon Millions</strong><p>Choose number of points to bet.</font><div class='respPicDiv'><img src='img/responseButtonOffersNo0L.png' class='respPic'></div></div>","2","11","Melon Millions","Fruit/melon.png","Won","0.35,0.65","13","0.35","159","31","",""
"html-keyboard-response","101","166610","0.0-11.0-2.30","5a2846ceb4a5de00011af418","bdp_rwlrn","Mon Mar 13 2023 23:56:34 GMT-0400 (Eastern Daylight Time)","450729","Trustworthy,Untrustworthy","","null","","","","decisionFB","","<div class='trialDiv'><img src='Fruit/melon.png'><br><font class='baseline'><strong>Melon Millions</strong><p>Choose number of points to bet.</font><div class='respPicDiv'><img src='img/responseButtonOffersNo0L2.png' class='respPic'></div></div>","null","11","Melon Millions","Fruit/melon.png","Won","0.35,0.65","13","0.35","157","31","",""
"html-keyboard-response","102","167619","0.0-11.0-3.30","5a2846ceb4a5de00011af418","bdp_rwlrn","Mon Mar 13 2023 23:56:34 GMT-0400 (Eastern Daylight Time)","450729","Trustworthy,Untrustworthy","","null","","","","feedback","","<div class='respPicDiv'><img src='img/responseButtonOffersNo0_wht.png' class='respPic'></div><div class='trialDiv'><img src='Fruit/melon.png'><br><font class='baseline'><strong>Melon Millions</strong><p><strong><font class='posOutcome'>You WON</font><p>You bet: 2</strong></font> &nbsp; &nbsp; &nbsp; &nbsp; &nbsp; &nbsp;<font class='posOutcome'>you receive: <strong>4</strong></font></div>","null","11","Melon Millions","Fruit/melon.png","Won","0.35,0.65","13","0.35","161","31","",""
"html-keyboard-response","103","168431","0.0-11.0-1.31","5a2846ceb4a5de00011af418","bdp_rwlrn","Mon Mar 13 2023 23:56:34 GMT-0400 (Eastern Daylight Time)","450729","Trustworthy,Untrustworthy","","810","","","","decision","","<div class='trialDiv'><img src='Fruit/plums1.png'><br><font class='baseline'><strong>Plum Powerball</strong><p>Choose number of points to bet.</font><div class='respPicDiv'><img src='img/responseButtonOffersNo0L.png' class='respPic'></div></div>","1","11","Plum Powerball","Fruit/plums1.png","Lost","0.2,0.65","13","0.2","166","32","",""
"html-keyboard-response","104","168690","0.0-11.0-2.31","5a2846ceb4a5de00011af418","bdp_rwlrn","Mon Mar 13 2023 23:56:34 GMT-0400 (Eastern Daylight Time)","450729","Trustworthy,Untrustworthy","","null","","","","decisionFB","","<div class='trialDiv'><img src='Fruit/plums1.png'><br><font class='baseline'><strong>Plum Powerball</strong><p>Choose number of points to bet.</font><div class='respPicDiv'><img src='img/responseButtonOffersNo0L1.png' class='respPic'></div></div>","null","11","Plum Powerball","Fruit/plums1.png","Lost","0.2,0.65","13","0.2","165","32","",""
"html-keyboard-response","105","169707","0.0-11.0-3.31","5a2846ceb4a5de00011af418","bdp_rwlrn","Mon Mar 13 2023 23:56:34 GMT-0400 (Eastern Daylight Time)","450729","Trustworthy,Untrustworthy","","null","","","","feedback","","<div class='respPicDiv'><img src='img/responseButtonOffersNo0_wht.png' class='respPic'></div><div class='trialDiv'><img src='Fruit/plums1.png'><br><font class='baseline'><strong>Plum Powerball</strong><p><strong><font class='negOutcome'>You LOST</font><p>You bet: 1</strong></font> &nbsp; &nbsp; &nbsp; &nbsp; &nbsp; &nbsp;<font class='negOutcome'>You receive: <strong>0</strong></font></div>","null","11","Plum Powerball","Fruit/plums1.png","Lost","0.2,0.65","13","0.2","165","32","",""
"html-keyboard-response","106","170527","0.0-11.0-1.32","5a2846ceb4a5de00011af418","bdp_rwlrn","Mon Mar 13 2023 23:56:34 GMT-0400 (Eastern Daylight Time)","450729","Trustworthy,Untrustworthy","","817","","","","decision","","<div class='trialDiv'><img src='Fruit/cherrie.png'><br><font class='baseline'><strong>Cherry Chances</strong><p>Choose number of points to bet.</font><div class='respPicDiv'><img src='img/responseButtonOffersNo0L.png' class='respPic'></div></div>","5","11","Cherry Chances","Fruit/cherrie.png","Lost","0.8,0.35","9","0.8","170","33","",""
"html-keyboard-response","107","170794","0.0-11.0-2.32","5a2846ceb4a5de00011af418","bdp_rwlrn","Mon Mar 13 2023 23:56:34 GMT-0400 (Eastern Daylight Time)","450729","Trustworthy,Untrustworthy","","null","","","","decisionFB","","<div class='trialDiv'><img src='Fruit/cherrie.png'><br><font class='baseline'><strong>Cherry Chances</strong><p>Choose number of points to bet.</font><div class='respPicDiv'><img src='img/responseButtonOffersNo0L5.png' class='respPic'></div></div>","null","11","Cherry Chances","Fruit/cherrie.png","Lost","0.8,0.35","9","0.8","165","33","",""
"html-keyboard-response","108","171811","0.0-11.0-3.32","5a2846ceb4a5de00011af418","bdp_rwlrn","Mon Mar 13 2023 23:56:34 GMT-0400 (Eastern Daylight Time)","450729","Trustworthy,Untrustworthy","","null","","","","feedback","","<div class='respPicDiv'><img src='img/responseButtonOffersNo0_wht.png' class='respPic'></div><div class='trialDiv'><img src='Fruit/cherrie.png'><br><font class='baseline'><strong>Cherry Chances</strong><p><strong><font class='negOutcome'>You LOST</font><p>You bet: 5</strong></font> &nbsp; &nbsp; &nbsp; &nbsp; &nbsp; &nbsp;<font class='negOutcome'>You receive: <strong>0</strong></font></div>","null","11","Cherry Chances","Fruit/cherrie.png","Lost","0.8,0.35","9","0.8","165","33","",""
"html-keyboard-response","109","172988","0.0-11.0-1.33","5a2846ceb4a5de00011af418","bdp_rwlrn","Mon Mar 13 2023 23:56:34 GMT-0400 (Eastern Daylight Time)","450729","Trustworthy,Untrustworthy","","1175","","","","decision","","<div class='trialDiv'><img src='Fruit/plums1.png'><br><font class='baseline'><strong>Plum Powerball</strong><p>Choose number of points to bet.</font><div class='respPicDiv'><img src='img/responseButtonOffersNo0L.png' class='respPic'></div></div>","1","12","Plum Powerball","Fruit/plums1.png","Lost","0.2,0.65","13","0.2","170","34","",""
"html-keyboard-response","110","173246","0.0-11.0-2.33","5a2846ceb4a5de00011af418","bdp_rwlrn","Mon Mar 13 2023 23:56:34 GMT-0400 (Eastern Daylight Time)","450729","Trustworthy,Untrustworthy","","null","","","","decisionFB","","<div class='trialDiv'><img src='Fruit/plums1.png'><br><font class='baseline'><strong>Plum Powerball</strong><p>Choose number of points to bet.</font><div class='respPicDiv'><img src='img/responseButtonOffersNo0L1.png' class='respPic'></div></div>","null","12","Plum Powerball","Fruit/plums1.png","Lost","0.2,0.65","13","0.2","169","34","",""
"html-keyboard-response","111","174263","0.0-11.0-3.33","5a2846ceb4a5de00011af418","bdp_rwlrn","Mon Mar 13 2023 23:56:34 GMT-0400 (Eastern Daylight Time)","450729","Trustworthy,Untrustworthy","","null","","","","feedback","","<div class='respPicDiv'><img src='img/responseButtonOffersNo0_wht.png' class='respPic'></div><div class='trialDiv'><img src='Fruit/plums1.png'><br><font class='baseline'><strong>Plum Powerball</strong><p><strong><font class='negOutcome'>You LOST</font><p>You bet: 1</strong></font> &nbsp; &nbsp; &nbsp; &nbsp; &nbsp; &nbsp;<font class='negOutcome'>You receive: <strong>0</strong></font></div>","null","12","Plum Powerball","Fruit/plums1.png","Lost","0.2,0.65","13","0.2","169","34","",""
"html-keyboard-response","112","175645","0.0-11.0-1.34","5a2846ceb4a5de00011af418","bdp_rwlrn","Mon Mar 13 2023 23:56:34 GMT-0400 (Eastern Daylight Time)","450729","Trustworthy,Untrustworthy","","1381","","","","decision","","<div class='trialDiv'><img src='Fruit/cherrie.png'><br><font class='baseline'><strong>Cherry Chances</strong><p>Choose number of points to bet.</font><div class='respPicDiv'><img src='img/responseButtonOffersNo0L.png' class='respPic'></div></div>","2","12","Cherry Chances","Fruit/cherrie.png","Won","0.8,0.35","9","0.8","174","35","",""
"html-keyboard-response","113","175903","0.0-11.0-2.34","5a2846ceb4a5de00011af418","bdp_rwlrn","Mon Mar 13 2023 23:56:34 GMT-0400 (Eastern Daylight Time)","450729","Trustworthy,Untrustworthy","","null","","","","decisionFB","","<div class='trialDiv'><img src='Fruit/cherrie.png'><br><font class='baseline'><strong>Cherry Chances</strong><p>Choose number of points to bet.</font><div class='respPicDiv'><img src='img/responseButtonOffersNo0L2.png' class='respPic'></div></div>","null","12","Cherry Chances","Fruit/cherrie.png","Won","0.8,0.35","9","0.8","172","35","",""
"html-keyboard-response","114","176921","0.0-11.0-3.34","5a2846ceb4a5de00011af418","bdp_rwlrn","Mon Mar 13 2023 23:56:34 GMT-0400 (Eastern Daylight Time)","450729","Trustworthy,Untrustworthy","","null","","","","feedback","","<div class='respPicDiv'><img src='img/responseButtonOffersNo0_wht.png' class='respPic'></div><div class='trialDiv'><img src='Fruit/cherrie.png'><br><font class='baseline'><strong>Cherry Chances</strong><p><strong><font class='posOutcome'>You WON</font><p>You bet: 2</strong></font> &nbsp; &nbsp; &nbsp; &nbsp; &nbsp; &nbsp;<font class='posOutcome'>you receive: <strong>4</strong></font></div>","null","12","Cherry Chances","Fruit/cherrie.png","Won","0.8,0.35","9","0.8","176","35","",""
"html-keyboard-response","115","177797","0.0-11.0-1.35","5a2846ceb4a5de00011af418","bdp_rwlrn","Mon Mar 13 2023 23:56:34 GMT-0400 (Eastern Daylight Time)","450729","Trustworthy,Untrustworthy","","873","","","","decision","","<div class='trialDiv'><img src='Fruit/melon.png'><br><font class='baseline'><strong>Melon Millions</strong><p>Choose number of points to bet.</font><div class='respPicDiv'><img src='img/responseButtonOffersNo0L.png' class='respPic'></div></div>","2","12","Melon Millions","Fruit/melon.png","Lost","0.35,0.65","13","0.35","181","36","",""
"html-keyboard-response","116","178054","0.0-11.0-2.35","5a2846ceb4a5de00011af418","bdp_rwlrn","Mon Mar 13 2023 23:56:34 GMT-0400 (Eastern Daylight Time)","450729","Trustworthy,Untrustworthy","","null","","","","decisionFB","","<div class='trialDiv'><img src='Fruit/melon.png'><br><font class='baseline'><strong>Melon Millions</strong><p>Choose number of points to bet.</font><div class='respPicDiv'><img src='img/responseButtonOffersNo0L2.png' class='respPic'></div></div>","null","12","Melon Millions","Fruit/melon.png","Lost","0.35,0.65","13","0.35","179","36","",""
"html-keyboard-response","117","179071","0.0-11.0-3.35","5a2846ceb4a5de00011af418","bdp_rwlrn","Mon Mar 13 2023 23:56:34 GMT-0400 (Eastern Daylight Time)","450729","Trustworthy,Untrustworthy","","null","","","","feedback","","<div class='respPicDiv'><img src='img/responseButtonOffersNo0_wht.png' class='respPic'></div><div class='trialDiv'><img src='Fruit/melon.png'><br><font class='baseline'><strong>Melon Millions</strong><p><strong><font class='negOutcome'>You LOST</font><p>You bet: 2</strong></font> &nbsp; &nbsp; &nbsp; &nbsp; &nbsp; &nbsp;<font class='negOutcome'>You receive: <strong>0</strong></font></div>","null","12","Melon Millions","Fruit/melon.png","Lost","0.35,0.65","13","0.35","179","36","",""
"html-keyboard-response","118","179850","0.0-11.0-1.36","5a2846ceb4a5de00011af418","bdp_rwlrn","Mon Mar 13 2023 23:56:34 GMT-0400 (Eastern Daylight Time)","450729","Trustworthy,Untrustworthy","","777","","","","decision","","<div class='trialDiv'><img src='Fruit/plums1.png'><br><font class='baseline'><strong>Plum Powerball</strong><p>Choose number of points to bet.</font><div class='respPicDiv'><img src='img/responseButtonOffersNo0L.png' class='respPic'></div></div>","1","13","Plum Powerball","Fruit/plums1.png","Won","0.2,0.65","13","0.2","184","37","",""
"html-keyboard-response","119","180111","0.0-11.0-2.36","5a2846ceb4a5de00011af418","bdp_rwlrn","Mon Mar 13 2023 23:56:34 GMT-0400 (Eastern Daylight Time)","450729","Trustworthy,Untrustworthy","","null","","","","decisionFB","","<div class='trialDiv'><img src='Fruit/plums1.png'><br><font class='baseline'><strong>Plum Powerball</strong><p>Choose number of points to bet.</font><div class='respPicDiv'><img src='img/responseButtonOffersNo0L1.png' class='respPic'></div></div>","null","13","Plum Powerball","Fruit/plums1.png","Won","0.2,0.65","13","0.2","183","37","",""
"html-keyboard-response","120","181128","0.0-11.0-3.36","5a2846ceb4a5de00011af418","bdp_rwlrn","Mon Mar 13 2023 23:56:34 GMT-0400 (Eastern Daylight Time)","450729","Trustworthy,Untrustworthy","","null","","","","feedback","","<div class='respPicDiv'><img src='img/responseButtonOffersNo0_wht.png' class='respPic'></div><div class='trialDiv'><img src='Fruit/plums1.png'><br><font class='baseline'><strong>Plum Powerball</strong><p><strong><font class='posOutcome'>You WON</font><p>You bet: 1</strong></font> &nbsp; &nbsp; &nbsp; &nbsp; &nbsp; &nbsp;<font class='posOutcome'>you receive: <strong>2</strong></font></div>","null","13","Plum Powerball","Fruit/plums1.png","Won","0.2,0.65","13","0.2","185","37","",""
"html-keyboard-response","121","183080","0.0-11.0-1.37","5a2846ceb4a5de00011af418","bdp_rwlrn","Mon Mar 13 2023 23:56:34 GMT-0400 (Eastern Daylight Time)","450729","Trustworthy,Untrustworthy","","1950","","","","decision","","<div class='trialDiv'><img src='Fruit/melon.png'><br><font class='baseline'><strong>Melon Millions</strong><p>Choose number of points to bet.</font><div class='respPicDiv'><img src='img/responseButtonOffersNo0L.png' class='respPic'></div></div>","1","13","Melon Millions","Fruit/melon.png","Lost","0.35,0.65","13","0.35","190","38","",""
"html-keyboard-response","122","183344","0.0-11.0-2.37","5a2846ceb4a5de00011af418","bdp_rwlrn","Mon Mar 13 2023 23:56:34 GMT-0400 (Eastern Daylight Time)","450729","Trustworthy,Untrustworthy","","null","","","","decisionFB","","<div class='trialDiv'><img src='Fruit/melon.png'><br><font class='baseline'><strong>Melon Millions</strong><p>Choose number of points to bet.</font><div class='respPicDiv'><img src='img/responseButtonOffersNo0L1.png' class='respPic'></div></div>","null","13","Melon Millions","Fruit/melon.png","Lost","0.35,0.65","13","0.35","189","38","",""
"html-keyboard-response","123","184352","0.0-11.0-3.37","5a2846ceb4a5de00011af418","bdp_rwlrn","Mon Mar 13 2023 23:56:34 GMT-0400 (Eastern Daylight Time)","450729","Trustworthy,Untrustworthy","","null","","","","feedback","","<div class='respPicDiv'><img src='img/responseButtonOffersNo0_wht.png' class='respPic'></div><div class='trialDiv'><img src='Fruit/melon.png'><br><font class='baseline'><strong>Melon Millions</strong><p><strong><font class='negOutcome'>You LOST</font><p>You bet: 1</strong></font> &nbsp; &nbsp; &nbsp; &nbsp; &nbsp; &nbsp;<font class='negOutcome'>You receive: <strong>0</strong></font></div>","null","13","Melon Millions","Fruit/melon.png","Lost","0.35,0.65","13","0.35","189","38","",""
"html-keyboard-response","124","184951","0.0-11.0-1.38","5a2846ceb4a5de00011af418","bdp_rwlrn","Mon Mar 13 2023 23:56:34 GMT-0400 (Eastern Daylight Time)","450729","Trustworthy,Untrustworthy","","598","","","","decision","","<div class='trialDiv'><img src='Fruit/cherrie.png'><br><font class='baseline'><strong>Cherry Chances</strong><p>Choose number of points to bet.</font><div class='respPicDiv'><img src='img/responseButtonOffersNo0L.png' class='respPic'></div></div>","4","13","Cherry Chances","Fruit/cherrie.png","Lost","0.8,0.35","9","0.8","194","39","",""
"html-keyboard-response","125","185221","0.0-11.0-2.38","5a2846ceb4a5de00011af418","bdp_rwlrn","Mon Mar 13 2023 23:56:34 GMT-0400 (Eastern Daylight Time)","450729","Trustworthy,Untrustworthy","","null","","","","decisionFB","","<div class='trialDiv'><img src='Fruit/cherrie.png'><br><font class='baseline'><strong>Cherry Chances</strong><p>Choose number of points to bet.</font><div class='respPicDiv'><img src='img/responseButtonOffersNo0L4.png' class='respPic'></div></div>","null","13","Cherry Chances","Fruit/cherrie.png","Lost","0.8,0.35","9","0.8","190","39","",""
"html-keyboard-response","126","186239","0.0-11.0-3.38","5a2846ceb4a5de00011af418","bdp_rwlrn","Mon Mar 13 2023 23:56:34 GMT-0400 (Eastern Daylight Time)","450729","Trustworthy,Untrustworthy","","null","","","","feedback","","<div class='respPicDiv'><img src='img/responseButtonOffersNo0_wht.png' class='respPic'></div><div class='trialDiv'><img src='Fruit/cherrie.png'><br><font class='baseline'><strong>Cherry Chances</strong><p><strong><font class='negOutcome'>You LOST</font><p>You bet: 4</strong></font> &nbsp; &nbsp; &nbsp; &nbsp; &nbsp; &nbsp;<font class='negOutcome'>You receive: <strong>0</strong></font></div>","null","13","Cherry Chances","Fruit/cherrie.png","Lost","0.8,0.35","9","0.8","190","39","",""
"html-keyboard-response","127","187688","0.0-11.0-1.39","5a2846ceb4a5de00011af418","bdp_rwlrn","Mon Mar 13 2023 23:56:34 GMT-0400 (Eastern Daylight Time)","450729","Trustworthy,Untrustworthy","","1447","","","","decision","","<div class='trialDiv'><img src='Fruit/melon.png'><br><font class='baseline'><strong>Melon Millions</strong><p>Choose number of points to bet.</font><div class='respPicDiv'><img src='img/responseButtonOffersNo0L.png' class='respPic'></div></div>","2","14","Melon Millions","Fruit/melon.png","Won","0.35,0.65","13","0.35","195","40","",""
"html-keyboard-response","128","187942","0.0-11.0-2.39","5a2846ceb4a5de00011af418","bdp_rwlrn","Mon Mar 13 2023 23:56:34 GMT-0400 (Eastern Daylight Time)","450729","Trustworthy,Untrustworthy","","null","","","","decisionFB","","<div class='trialDiv'><img src='Fruit/melon.png'><br><font class='baseline'><strong>Melon Millions</strong><p>Choose number of points to bet.</font><div class='respPicDiv'><img src='img/responseButtonOffersNo0L2.png' class='respPic'></div></div>","null","14","Melon Millions","Fruit/melon.png","Won","0.35,0.65","13","0.35","193","40","",""
"html-keyboard-response","129","188960","0.0-11.0-3.39","5a2846ceb4a5de00011af418","bdp_rwlrn","Mon Mar 13 2023 23:56:34 GMT-0400 (Eastern Daylight Time)","450729","Trustworthy,Untrustworthy","","null","","","","feedback","","<div class='respPicDiv'><img src='img/responseButtonOffersNo0_wht.png' class='respPic'></div><div class='trialDiv'><img src='Fruit/melon.png'><br><font class='baseline'><strong>Melon Millions</strong><p><strong><font class='posOutcome'>You WON</font><p>You bet: 2</strong></font> &nbsp; &nbsp; &nbsp; &nbsp; &nbsp; &nbsp;<font class='posOutcome'>you receive: <strong>4</strong></font></div>","null","14","Melon Millions","Fruit/melon.png","Won","0.35,0.65","13","0.35","197","40","",""
"html-keyboard-response","130","189565","0.0-11.0-1.40","5a2846ceb4a5de00011af418","bdp_rwlrn","Mon Mar 13 2023 23:56:34 GMT-0400 (Eastern Daylight Time)","450729","Trustworthy,Untrustworthy","","603","","","","decision","","<div class='trialDiv'><img src='Fruit/cherrie.png'><br><font class='baseline'><strong>Cherry Chances</strong><p>Choose number of points to bet.</font><div class='respPicDiv'><img src='img/responseButtonOffersNo0L.png' class='respPic'></div></div>","5","14","Cherry Chances","Fruit/cherrie.png","Won","0.8,0.35","9","0.8","202","41","",""
"html-keyboard-response","131","189831","0.0-11.0-2.40","5a2846ceb4a5de00011af418","bdp_rwlrn","Mon Mar 13 2023 23:56:34 GMT-0400 (Eastern Daylight Time)","450729","Trustworthy,Untrustworthy","","null","","","","decisionFB","","<div class='trialDiv'><img src='Fruit/cherrie.png'><br><font class='baseline'><strong>Cherry Chances</strong><p>Choose number of points to bet.</font><div class='respPicDiv'><img src='img/responseButtonOffersNo0L5.png' class='respPic'></div></div>","null","14","Cherry Chances","Fruit/cherrie.png","Won","0.8,0.35","9","0.8","197","41","",""
"html-keyboard-response","132","190848","0.0-11.0-3.40","5a2846ceb4a5de00011af418","bdp_rwlrn","Mon Mar 13 2023 23:56:34 GMT-0400 (Eastern Daylight Time)","450729","Trustworthy,Untrustworthy","","null","","","","feedback","","<div class='respPicDiv'><img src='img/responseButtonOffersNo0_wht.png' class='respPic'></div><div class='trialDiv'><img src='Fruit/cherrie.png'><br><font class='baseline'><strong>Cherry Chances</strong><p><strong><font class='posOutcome'>You WON</font><p>You bet: 5</strong></font> &nbsp; &nbsp; &nbsp; &nbsp; &nbsp; &nbsp;<font class='posOutcome'>you receive: <strong>10</strong></font></div>","null","14","Cherry Chances","Fruit/cherrie.png","Won","0.8,0.35","9","0.8","207","41","",""
"html-keyboard-response","133","191857","0.0-11.0-1.41","5a2846ceb4a5de00011af418","bdp_rwlrn","Mon Mar 13 2023 23:56:34 GMT-0400 (Eastern Daylight Time)","450729","Trustworthy,Untrustworthy","","1006","","","","decision","","<div class='trialDiv'><img src='Fruit/plums1.png'><br><font class='baseline'><strong>Plum Powerball</strong><p>Choose number of points to bet.</font><div class='respPicDiv'><img src='img/responseButtonOffersNo0L.png' class='respPic'></div></div>","1","14","Plum Powerball","Fruit/plums1.png","Lost","0.2,0.65","13","0.2","212","42","",""
"html-keyboard-response","134","192112","0.0-11.0-2.41","5a2846ceb4a5de00011af418","bdp_rwlrn","Mon Mar 13 2023 23:56:34 GMT-0400 (Eastern Daylight Time)","450729","Trustworthy,Untrustworthy","","null","","","","decisionFB","","<div class='trialDiv'><img src='Fruit/plums1.png'><br><font class='baseline'><strong>Plum Powerball</strong><p>Choose number of points to bet.</font><div class='respPicDiv'><img src='img/responseButtonOffersNo0L1.png' class='respPic'></div></div>","null","14","Plum Powerball","Fruit/plums1.png","Lost","0.2,0.65","13","0.2","211","42","",""
"html-keyboard-response","135","193136","0.0-11.0-3.41","5a2846ceb4a5de00011af418","bdp_rwlrn","Mon Mar 13 2023 23:56:34 GMT-0400 (Eastern Daylight Time)","450729","Trustworthy,Untrustworthy","","null","","","","feedback","","<div class='respPicDiv'><img src='img/responseButtonOffersNo0_wht.png' class='respPic'></div><div class='trialDiv'><img src='Fruit/plums1.png'><br><font class='baseline'><strong>Plum Powerball</strong><p><strong><font class='negOutcome'>You LOST</font><p>You bet: 1</strong></font> &nbsp; &nbsp; &nbsp; &nbsp; &nbsp; &nbsp;<font class='negOutcome'>You receive: <strong>0</strong></font></div>","null","14","Plum Powerball","Fruit/plums1.png","Lost","0.2,0.65","13","0.2","211","42","",""
"html-keyboard-response","136","193838","0.0-11.0-1.42","5a2846ceb4a5de00011af418","bdp_rwlrn","Mon Mar 13 2023 23:56:34 GMT-0400 (Eastern Daylight Time)","450729","Trustworthy,Untrustworthy","","700","","","","decision","","<div class='trialDiv'><img src='Fruit/melon.png'><br><font class='baseline'><strong>Melon Millions</strong><p>Choose number of points to bet.</font><div class='respPicDiv'><img src='img/responseButtonOffersNo0L.png' class='respPic'></div></div>","2","15","Melon Millions","Fruit/melon.png","Won","0.35,0.65","13","0.35","216","43","",""
"html-keyboard-response","137","194101","0.0-11.0-2.42","5a2846ceb4a5de00011af418","bdp_rwlrn","Mon Mar 13 2023 23:56:34 GMT-0400 (Eastern Daylight Time)","450729","Trustworthy,Untrustworthy","","null","","","","decisionFB","","<div class='trialDiv'><img src='Fruit/melon.png'><br><font class='baseline'><strong>Melon Millions</strong><p>Choose number of points to bet.</font><div class='respPicDiv'><img src='img/responseButtonOffersNo0L2.png' class='respPic'></div></div>","null","15","Melon Millions","Fruit/melon.png","Won","0.35,0.65","13","0.35","214","43","",""
"html-keyboard-response","138","195118","0.0-11.0-3.42","5a2846ceb4a5de00011af418","bdp_rwlrn","Mon Mar 13 2023 23:56:34 GMT-0400 (Eastern Daylight Time)","450729","Trustworthy,Untrustworthy","","null","","","","feedback","","<div class='respPicDiv'><img src='img/responseButtonOffersNo0_wht.png' class='respPic'></div><div class='trialDiv'><img src='Fruit/melon.png'><br><font class='baseline'><strong>Melon Millions</strong><p><strong><font class='posOutcome'>You WON</font><p>You bet: 2</strong></font> &nbsp; &nbsp; &nbsp; &nbsp; &nbsp; &nbsp;<font class='posOutcome'>you receive: <strong>4</strong></font></div>","null","15","Melon Millions","Fruit/melon.png","Won","0.35,0.65","13","0.35","218","43","",""
"html-keyboard-response","139","195527","0.0-11.0-1.43","5a2846ceb4a5de00011af418","bdp_rwlrn","Mon Mar 13 2023 23:56:34 GMT-0400 (Eastern Daylight Time)","450729","Trustworthy,Untrustworthy","","408","","","","decision","","<div class='trialDiv'><img src='Fruit/cherrie.png'><br><font class='baseline'><strong>Cherry Chances</strong><p>Choose number of points to bet.</font><div class='respPicDiv'><img src='img/responseButtonOffersNo0L.png' class='respPic'></div></div>","5","15","Cherry Chances","Fruit/cherrie.png","Lost","0.8,0.35","9","0.8","223","44","",""
"html-keyboard-response","140","195788","0.0-11.0-2.43","5a2846ceb4a5de00011af418","bdp_rwlrn","Mon Mar 13 2023 23:56:34 GMT-0400 (Eastern Daylight Time)","450729","Trustworthy,Untrustworthy","","null","","","","decisionFB","","<div class='trialDiv'><img src='Fruit/cherrie.png'><br><font class='baseline'><strong>Cherry Chances</strong><p>Choose number of points to bet.</font><div class='respPicDiv'><img src='img/responseButtonOffersNo0L5.png' class='respPic'></div></div>","null","15","Cherry Chances","Fruit/cherrie.png","Lost","0.8,0.35","9","0.8","218","44","",""
"html-keyboard-response","141","196791","0.0-11.0-3.43","5a2846ceb4a5de00011af418","bdp_rwlrn","Mon Mar 13 2023 23:56:34 GMT-0400 (Eastern Daylight Time)","450729","Trustworthy,Untrustworthy","","null","","","","feedback","","<div class='respPicDiv'><img src='img/responseButtonOffersNo0_wht.png' class='respPic'></div><div class='trialDiv'><img src='Fruit/cherrie.png'><br><font class='baseline'><strong>Cherry Chances</strong><p><strong><font class='negOutcome'>You LOST</font><p>You bet: 5</strong></font> &nbsp; &nbsp; &nbsp; &nbsp; &nbsp; &nbsp;<font class='negOutcome'>You receive: <strong>0</strong></font></div>","null","15","Cherry Chances","Fruit/cherrie.png","Lost","0.8,0.35","9","0.8","218","44","",""
"html-keyboard-response","142","197372","0.0-11.0-1.44","5a2846ceb4a5de00011af418","bdp_rwlrn","Mon Mar 13 2023 23:56:34 GMT-0400 (Eastern Daylight Time)","450729","Trustworthy,Untrustworthy","","578","","","","decision","","<div class='trialDiv'><img src='Fruit/plums1.png'><br><font class='baseline'><strong>Plum Powerball</strong><p>Choose number of points to bet.</font><div class='respPicDiv'><img src='img/responseButtonOffersNo0L.png' class='respPic'></div></div>","2","15","Plum Powerball","Fruit/plums1.png","Won","0.2,0.65","13","0.2","223","45","",""
"html-keyboard-response","143","197626","0.0-11.0-2.44","5a2846ceb4a5de00011af418","bdp_rwlrn","Mon Mar 13 2023 23:56:34 GMT-0400 (Eastern Daylight Time)","450729","Trustworthy,Untrustworthy","","null","","","","decisionFB","","<div class='trialDiv'><img src='Fruit/plums1.png'><br><font class='baseline'><strong>Plum Powerball</strong><p>Choose number of points to bet.</font><div class='respPicDiv'><img src='img/responseButtonOffersNo0L2.png' class='respPic'></div></div>","null","15","Plum Powerball","Fruit/plums1.png","Won","0.2,0.65","13","0.2","221","45","",""
"html-keyboard-response","144","198650","0.0-11.0-3.44","5a2846ceb4a5de00011af418","bdp_rwlrn","Mon Mar 13 2023 23:56:34 GMT-0400 (Eastern Daylight Time)","450729","Trustworthy,Untrustworthy","","null","","","","feedback","","<div class='respPicDiv'><img src='img/responseButtonOffersNo0_wht.png' class='respPic'></div><div class='trialDiv'><img src='Fruit/plums1.png'><br><font class='baseline'><strong>Plum Powerball</strong><p><strong><font class='posOutcome'>You WON</font><p>You bet: 2</strong></font> &nbsp; &nbsp; &nbsp; &nbsp; &nbsp; &nbsp;<font class='posOutcome'>you receive: <strong>4</strong></font></div>","null","15","Plum Powerball","Fruit/plums1.png","Won","0.2,0.65","13","0.2","225","45","",""
"html-keyboard-response","145","199654","0.0-11.0-1.45","5a2846ceb4a5de00011af418","bdp_rwlrn","Mon Mar 13 2023 23:56:34 GMT-0400 (Eastern Daylight Time)","450729","Trustworthy,Untrustworthy","","1003","","","","decision","","<div class='trialDiv'><img src='Fruit/melon.png'><br><font class='baseline'><strong>Melon Millions</strong><p>Choose number of points to bet.</font><div class='respPicDiv'><img src='img/responseButtonOffersNo0L.png' class='respPic'></div></div>","2","16","Melon Millions","Fruit/melon.png","Won","0.35,0.65","13","0.35","230","46","",""
"html-keyboard-response","146","199915","0.0-11.0-2.45","5a2846ceb4a5de00011af418","bdp_rwlrn","Mon Mar 13 2023 23:56:34 GMT-0400 (Eastern Daylight Time)","450729","Trustworthy,Untrustworthy","","null","","","","decisionFB","","<div class='trialDiv'><img src='Fruit/melon.png'><br><font class='baseline'><strong>Melon Millions</strong><p>Choose number of points to bet.</font><div class='respPicDiv'><img src='img/responseButtonOffersNo0L2.png' class='respPic'></div></div>","null","16","Melon Millions","Fruit/melon.png","Won","0.35,0.65","13","0.35","228","46","",""
"html-keyboard-response","147","200931","0.0-11.0-3.45","5a2846ceb4a5de00011af418","bdp_rwlrn","Mon Mar 13 2023 23:56:34 GMT-0400 (Eastern Daylight Time)","450729","Trustworthy,Untrustworthy","","null","","","","feedback","","<div class='respPicDiv'><img src='img/responseButtonOffersNo0_wht.png' class='respPic'></div><div class='trialDiv'><img src='Fruit/melon.png'><br><font class='baseline'><strong>Melon Millions</strong><p><strong><font class='posOutcome'>You WON</font><p>You bet: 2</strong></font> &nbsp; &nbsp; &nbsp; &nbsp; &nbsp; &nbsp;<font class='posOutcome'>you receive: <strong>4</strong></font></div>","null","16","Melon Millions","Fruit/melon.png","Won","0.35,0.65","13","0.35","232","46","",""
"html-keyboard-response","148","201865","0.0-11.0-1.46","5a2846ceb4a5de00011af418","bdp_rwlrn","Mon Mar 13 2023 23:56:34 GMT-0400 (Eastern Daylight Time)","450729","Trustworthy,Untrustworthy","","933","","","","decision","","<div class='trialDiv'><img src='Fruit/plums1.png'><br><font class='baseline'><strong>Plum Powerball</strong><p>Choose number of points to bet.</font><div class='respPicDiv'><img src='img/responseButtonOffersNo0L.png' class='respPic'></div></div>","2","16","Plum Powerball","Fruit/plums1.png","Lost","0.2,0.65","13","0.2","237","47","",""
"html-keyboard-response","149","202118","0.0-11.0-2.46","5a2846ceb4a5de00011af418","bdp_rwlrn","Mon Mar 13 2023 23:56:34 GMT-0400 (Eastern Daylight Time)","450729","Trustworthy,Untrustworthy","","null","","","","decisionFB","","<div class='trialDiv'><img src='Fruit/plums1.png'><br><font class='baseline'><strong>Plum Powerball</strong><p>Choose number of points to bet.</font><div class='respPicDiv'><img src='img/responseButtonOffersNo0L2.png' class='respPic'></div></div>","null","16","Plum Powerball","Fruit/plums1.png","Lost","0.2,0.65","13","0.2","235","47","",""
"html-keyboard-response","150","203121","0.0-11.0-3.46","5a2846ceb4a5de00011af418","bdp_rwlrn","Mon Mar 13 2023 23:56:34 GMT-0400 (Eastern Daylight Time)","450729","Trustworthy,Untrustworthy","","null","","","","feedback","","<div class='respPicDiv'><img src='img/responseButtonOffersNo0_wht.png' class='respPic'></div><div class='trialDiv'><img src='Fruit/plums1.png'><br><font class='baseline'><strong>Plum Powerball</strong><p><strong><font class='negOutcome'>You LOST</font><p>You bet: 2</strong></font> &nbsp; &nbsp; &nbsp; &nbsp; &nbsp; &nbsp;<font class='negOutcome'>You receive: <strong>0</strong></font></div>","null","16","Plum Powerball","Fruit/plums1.png","Lost","0.2,0.65","13","0.2","235","47","",""
"html-keyboard-response","151","204571","0.0-11.0-1.47","5a2846ceb4a5de00011af418","bdp_rwlrn","Mon Mar 13 2023 23:56:34 GMT-0400 (Eastern Daylight Time)","450729","Trustworthy,Untrustworthy","","1448","","","","decision","","<div class='trialDiv'><img src='Fruit/cherrie.png'><br><font class='baseline'><strong>Cherry Chances</strong><p>Choose number of points to bet.</font><div class='respPicDiv'><img src='img/responseButtonOffersNo0L.png' class='respPic'></div></div>","3","16","Cherry Chances","Fruit/cherrie.png","Lost","0.8,0.35","9","0.8","240","48","",""
"html-keyboard-response","152","204824","0.0-11.0-2.47","5a2846ceb4a5de00011af418","bdp_rwlrn","Mon Mar 13 2023 23:56:34 GMT-0400 (Eastern Daylight Time)","450729","Trustworthy,Untrustworthy","","null","","","","decisionFB","","<div class='trialDiv'><img src='Fruit/cherrie.png'><br><font class='baseline'><strong>Cherry Chances</strong><p>Choose number of points to bet.</font><div class='respPicDiv'><img src='img/responseButtonOffersNo0L3.png' class='respPic'></div></div>","null","16","Cherry Chances","Fruit/cherrie.png","Lost","0.8,0.35","9","0.8","237","48","",""
"html-keyboard-response","153","205842","0.0-11.0-3.47","5a2846ceb4a5de00011af418","bdp_rwlrn","Mon Mar 13 2023 23:56:34 GMT-0400 (Eastern Daylight Time)","450729","Trustworthy,Untrustworthy","","null","","","","feedback","","<div class='respPicDiv'><img src='img/responseButtonOffersNo0_wht.png' class='respPic'></div><div class='trialDiv'><img src='Fruit/cherrie.png'><br><font class='baseline'><strong>Cherry Chances</strong><p><strong><font class='negOutcome'>You LOST</font><p>You bet: 3</strong></font> &nbsp; &nbsp; &nbsp; &nbsp; &nbsp; &nbsp;<font class='negOutcome'>You receive: <strong>0</strong></font></div>","null","16","Cherry Chances","Fruit/cherrie.png","Lost","0.8,0.35","9","0.8","237","48","",""
"html-keyboard-response","154","207287","0.0-11.0-1.48","5a2846ceb4a5de00011af418","bdp_rwlrn","Mon Mar 13 2023 23:56:34 GMT-0400 (Eastern Daylight Time)","450729","Trustworthy,Untrustworthy","","1444","","","","decision","","<div class='trialDiv'><img src='Fruit/plums1.png'><br><font class='baseline'><strong>Plum Powerball</strong><p>Choose number of points to bet.</font><div class='respPicDiv'><img src='img/responseButtonOffersNo0L.png' class='respPic'></div></div>","2","17","Plum Powerball","Fruit/plums1.png","Won","0.2,0.65","13","0.2","242","49","",""
"html-keyboard-response","155","207545","0.0-11.0-2.48","5a2846ceb4a5de00011af418","bdp_rwlrn","Mon Mar 13 2023 23:56:34 GMT-0400 (Eastern Daylight Time)","450729","Trustworthy,Untrustworthy","","null","","","","decisionFB","","<div class='trialDiv'><img src='Fruit/plums1.png'><br><font class='baseline'><strong>Plum Powerball</strong><p>Choose number of points to bet.</font><div class='respPicDiv'><img src='img/responseButtonOffersNo0L2.png' class='respPic'></div></div>","null","17","Plum Powerball","Fruit/plums1.png","Won","0.2,0.65","13","0.2","240","49","",""
"html-keyboard-response","156","208568","0.0-11.0-3.48","5a2846ceb4a5de00011af418","bdp_rwlrn","Mon Mar 13 2023 23:56:34 GMT-0400 (Eastern Daylight Time)","450729","Trustworthy,Untrustworthy","","null","","","","feedback","","<div class='respPicDiv'><img src='img/responseButtonOffersNo0_wht.png' class='respPic'></div><div class='trialDiv'><img src='Fruit/plums1.png'><br><font class='baseline'><strong>Plum Powerball</strong><p><strong><font class='posOutcome'>You WON</font><p>You bet: 2</strong></font> &nbsp; &nbsp; &nbsp; &nbsp; &nbsp; &nbsp;<font class='posOutcome'>you receive: <strong>4</strong></font></div>","null","17","Plum Powerball","Fruit/plums1.png","Won","0.2,0.65","13","0.2","244","49","",""
"html-keyboard-response","157","209792","0.0-11.0-1.49","5a2846ceb4a5de00011af418","bdp_rwlrn","Mon Mar 13 2023 23:56:34 GMT-0400 (Eastern Daylight Time)","450729","Trustworthy,Untrustworthy","","1221","","","","decision","","<div class='trialDiv'><img src='Fruit/cherrie.png'><br><font class='baseline'><strong>Cherry Chances</strong><p>Choose number of points to bet.</font><div class='respPicDiv'><img src='img/responseButtonOffersNo0L.png' class='respPic'></div></div>","1","17","Cherry Chances","Fruit/cherrie.png","Lost","0.8,0.35","9","0.8","249","50","",""
"html-keyboard-response","158","210050","0.0-11.0-2.49","5a2846ceb4a5de00011af418","bdp_rwlrn","Mon Mar 13 2023 23:56:34 GMT-0400 (Eastern Daylight Time)","450729","Trustworthy,Untrustworthy","","null","","","","decisionFB","","<div class='trialDiv'><img src='Fruit/cherrie.png'><br><font class='baseline'><strong>Cherry Chances</strong><p>Choose number of points to bet.</font><div class='respPicDiv'><img src='img/responseButtonOffersNo0L1.png' class='respPic'></div></div>","null","17","Cherry Chances","Fruit/cherrie.png","Lost","0.8,0.35","9","0.8","248","50","",""
"html-keyboard-response","159","211053","0.0-11.0-3.49","5a2846ceb4a5de00011af418","bdp_rwlrn","Mon Mar 13 2023 23:56:34 GMT-0400 (Eastern Daylight Time)","450729","Trustworthy,Untrustworthy","","null","","","","feedback","","<div class='respPicDiv'><img src='img/responseButtonOffersNo0_wht.png' class='respPic'></div><div class='trialDiv'><img src='Fruit/cherrie.png'><br><font class='baseline'><strong>Cherry Chances</strong><p><strong><font class='negOutcome'>You LOST</font><p>You bet: 1</strong></font> &nbsp; &nbsp; &nbsp; &nbsp; &nbsp; &nbsp;<font class='negOutcome'>You receive: <strong>0</strong></font></div>","null","17","Cherry Chances","Fruit/cherrie.png","Lost","0.8,0.35","9","0.8","248","50","",""
"html-keyboard-response","160","212057","0.0-11.0-1.50","5a2846ceb4a5de00011af418","bdp_rwlrn","Mon Mar 13 2023 23:56:34 GMT-0400 (Eastern Daylight Time)","450729","Trustworthy,Untrustworthy","","1003","","","","decision","","<div class='trialDiv'><img src='Fruit/melon.png'><br><font class='baseline'><strong>Melon Millions</strong><p>Choose number of points to bet.</font><div class='respPicDiv'><img src='img/responseButtonOffersNo0L.png' class='respPic'></div></div>","2","17","Melon Millions","Fruit/melon.png","Won","0.35,0.65","13","0.35","253","51","",""
"html-keyboard-response","161","212309","0.0-11.0-2.50","5a2846ceb4a5de00011af418","bdp_rwlrn","Mon Mar 13 2023 23:56:34 GMT-0400 (Eastern Daylight Time)","450729","Trustworthy,Untrustworthy","","null","","","","decisionFB","","<div class='trialDiv'><img src='Fruit/melon.png'><br><font class='baseline'><strong>Melon Millions</strong><p>Choose number of points to bet.</font><div class='respPicDiv'><img src='img/responseButtonOffersNo0L2.png' class='respPic'></div></div>","null","17","Melon Millions","Fruit/melon.png","Won","0.35,0.65","13","0.35","251","51","",""
"html-keyboard-response","162","213326","0.0-11.0-3.50","5a2846ceb4a5de00011af418","bdp_rwlrn","Mon Mar 13 2023 23:56:34 GMT-0400 (Eastern Daylight Time)","450729","Trustworthy,Untrustworthy","","null","","","","feedback","","<div class='respPicDiv'><img src='img/responseButtonOffersNo0_wht.png' class='respPic'></div><div class='trialDiv'><img src='Fruit/melon.png'><br><font class='baseline'><strong>Melon Millions</strong><p><strong><font class='posOutcome'>You WON</font><p>You bet: 2</strong></font> &nbsp; &nbsp; &nbsp; &nbsp; &nbsp; &nbsp;<font class='posOutcome'>you receive: <strong>4</strong></font></div>","null","17","Melon Millions","Fruit/melon.png","Won","0.35,0.65","13","0.35","255","51","",""
