"event","trial","time","trialtype","subject_id","task","startTime","totalTime","labels","trial_type","trial_index","time_elapsed","internal_node_id","view_history","rt","success","stimulus","key_press","ltround","name","fileID","outcome","lottotype","lottoswpt","lottocurrpshare","point_total","round","faceID","face"
"focus","0","0","focusevent","632aaef27780d596dc7e0a9f","bdp_rwlrn","Fri Mar 10 2023 20:38:54 GMT-0600 (Central Standard Time)","667598","Untrustworthy,Trustworthy","","","","","","","","","","","","","","","","","","","",""
"","","","","632aaef27780d596dc7e0a9f","bdp_rwlrn","Fri Mar 10 2023 20:38:54 GMT-0600 (Central Standard Time)","667598","Untrustworthy,Trustworthy","pavlovia","0","8","0.0-0.0","","","","","","","","","","","","","","","",""
"","","","","632aaef27780d596dc7e0a9f","bdp_rwlrn","Fri Mar 10 2023 20:38:54 GMT-0600 (Central Standard Time)","667598","Untrustworthy,Trustworthy","instructions","1","19705","0.0-1.0","[{""page_index"":0,""viewing_time"":19695}]","19695","","","","","","","","","","","","","",""
"fullscreenexit","2","28761","fullscreenexit","632aaef27780d596dc7e0a9f","bdp_rwlrn","Fri Mar 10 2023 20:38:54 GMT-0600 (Central Standard Time)","667598","Untrustworthy,Trustworthy","","","","","","","","","","","","","","","","","","","",""
"","","","","632aaef27780d596dc7e0a9f","bdp_rwlrn","Fri Mar 10 2023 20:38:54 GMT-0600 (Central Standard Time)","667598","Untrustworthy,Trustworthy","fullscreen","2","29514","0.0-2.0","","","true","","","","","","","","","","","","",""
"","","","fullscreenfail","632aaef27780d596dc7e0a9f","bdp_rwlrn","Fri Mar 10 2023 20:38:54 GMT-0600 (Central Standard Time)","667598","Untrustworthy,Trustworthy","image-keyboard-response","3","43991","0.0-3.0-0.0","","14474","","","32","","","","","","","","","","",""
"fullscreenexit","4","62301","fullscreenexit","632aaef27780d596dc7e0a9f","bdp_rwlrn","Fri Mar 10 2023 20:38:54 GMT-0600 (Central Standard Time)","667598","Untrustworthy,Trustworthy","","","","","","","","","","","","","","","","","","","",""
"","","","","632aaef27780d596dc7e0a9f","bdp_rwlrn","Fri Mar 10 2023 20:38:54 GMT-0600 (Central Standard Time)","667598","Untrustworthy,Trustworthy","instructions","4","205245","0.0-4.0","[{""page_index"":0,""viewing_time"":64144},{""page_index"":1,""viewing_time"":20848},{""page_index"":2,""viewing_time"":13320},{""page_index"":3,""viewing_time"":15672},{""page_index"":4,""viewing_time"":43735},{""page_index"":5,""viewing_time"":3279}]","160998","","","","","","","","","","","","","",""
"","","","","632aaef27780d596dc7e0a9f","bdp_rwlrn","Fri Mar 10 2023 20:38:54 GMT-0600 (Central Standard Time)","667598","Untrustworthy,Trustworthy","html-keyboard-response","5","212741","0.0-5.0","","7492","","<div class='header' style='text-align:left; position: absolute; top: 5%; left: 5%;'><small>Task 3 of 5</small></div><div class='instruxDiv'><p><strong>1) What is the maximum number of points you can choose to bet on a lottery?</strong></p><p>a) 0</p><p>b) 1</p><p>c) 5</p>","B","","","","","","","","","","",""
"","","","","632aaef27780d596dc7e0a9f","bdp_rwlrn","Fri Mar 10 2023 20:38:54 GMT-0600 (Central Standard Time)","667598","Untrustworthy,Trustworthy","html-keyboard-response","6","223075","0.0-6.0","","10225","","<div class='header' style='text-align:left; position: absolute; top: 5%; left: 5%;'><small>Task 3 of 5</small></div><div class='instruxDiv'><p><strong>1) What is the maximum number of points you can choose to bet on a lottery?</strong></p><p>a) 0</p><p style='color:#FF0000'>b) 1</p><p>c) 5</p><h3 style='color:#FF0000'>Incorrect!</h3><h3 class='center-content'>The correct response is c).</h3><h3 class='center-content'>The maximum number of points you can choose to bet on a lottery is 5 points.</h3><p><em>Press SPACEBAR to continue</em></p></div>"," ","","","","","","","","","","",""
"","","","","632aaef27780d596dc7e0a9f","bdp_rwlrn","Fri Mar 10 2023 20:38:54 GMT-0600 (Central Standard Time)","667598","Untrustworthy,Trustworthy","html-keyboard-response","7","231901","0.0-7.0","","8712","","<div class='header' style='text-align:left; position: absolute; top: 5%; left: 5%;'><small>Task 3 of 5</small></div><div class='instruxDiv'><p><strong>2) How many points can you win each round?</strong></p><p>a) 10 points</p><p>b) Double what you bet</p><p>c) Quadruple what you bet</p>","B","","","","","","","","","","",""
"","","","","632aaef27780d596dc7e0a9f","bdp_rwlrn","Fri Mar 10 2023 20:38:54 GMT-0600 (Central Standard Time)","667598","Untrustworthy,Trustworthy","html-keyboard-response","8","237164","0.0-8.0","","5156","","<div class='header' style='text-align:left; position: absolute; top: 5%; left: 5%;'><small>Task 3 of 5</small></div><div class='instruxDiv'><p><strong>2) How many points can you win each round?</strong></p><p>a) 10 points</p><p style='color:#00FF00'>b) Double what you bet</p><p>c) Quadruple what you bet</p><h3 style='color:#00FF00'>Correct!</h3><h3 class='center-content'>The correct response is b).</h3><h3 class='center-content'>You can win double the amount of points you bet.</h3><p><em>Press SPACEBAR to continue</em></p></div>"," ","","","","","","","","","","",""
"","","","","632aaef27780d596dc7e0a9f","bdp_rwlrn","Fri Mar 10 2023 20:38:54 GMT-0600 (Central Standard Time)","667598","Untrustworthy,Trustworthy","html-keyboard-response","9","242287","0.0-9.0","","null","","<div class='header' style='text-align:left; position: absolute; top: 5%; left: 5%;'><small>Task 3 of 5</small></div><div class='instruxDiv'><p>Thank you for completing the quiz<p>These are the actual lotteries you will be playing in the next block:<p><div class='tc' align='center'><img class='introPic' src='Fruit/plums1.png'><br><strong>Plum Powerball</strong></div><div class='bl' align='center'><img class='introPic' src='Fruit/papayas.png'><br><strong>Papaya Payday</strong></div><div class='br' align='center'><img class='introPic' src='Fruit/bananas.png'><br><strong>Banana Bonanza</strong></div></div><p>Across <strong>66 rounds</strong> you will play each lottery <strong>22 times</strong> (in random order).<p style='align:center; color:white'><font <em>Press SPACEBAR to continue</em></p>","null","","","","","","","","","","",""
"","","","","632aaef27780d596dc7e0a9f","bdp_rwlrn","Fri Mar 10 2023 20:38:54 GMT-0600 (Central Standard Time)","667598","Untrustworthy,Trustworthy","instructions","10","260564","0.0-10.0","[{""page_index"":0,""viewing_time"":13467},{""page_index"":1,""viewing_time"":4808}]","18275","","","","","","","","","","","","","",""
"","","","decision","632aaef27780d596dc7e0a9f","bdp_rwlrn","Fri Mar 10 2023 20:38:54 GMT-0600 (Central Standard Time)","667598","Untrustworthy,Trustworthy","html-keyboard-response","11","266348","0.0-11.0-1.0","","5670","","<div class='trialDiv'><img src='Fruit/bananas.png'><br><font class='baseline'><strong>Banana Bonanza</strong><p>Choose number of points to bet.</font><div class='respPicDiv'><img src='img/responseButtonOffersNo0L.png' class='respPic'></div></div>","3","1","Banana Bonanza","Fruit/bananas.png","Lost","0.65,0.2","8","0.65","5","1","",""
"","","","decisionFB","632aaef27780d596dc7e0a9f","bdp_rwlrn","Fri Mar 10 2023 20:38:54 GMT-0600 (Central Standard Time)","667598","Untrustworthy,Trustworthy","html-keyboard-response","12","266610","0.0-11.0-2.0","","null","","<div class='trialDiv'><img src='Fruit/bananas.png'><br><font class='baseline'><strong>Banana Bonanza</strong><p>Choose number of points to bet.</font><div class='respPicDiv'><img src='img/responseButtonOffersNo0L3.png' class='respPic'></div></div>","null","1","Banana Bonanza","Fruit/bananas.png","Lost","0.65,0.2","8","0.65","2","1","",""
"","","","feedback","632aaef27780d596dc7e0a9f","bdp_rwlrn","Fri Mar 10 2023 20:38:54 GMT-0600 (Central Standard Time)","667598","Untrustworthy,Trustworthy","html-keyboard-response","13","270513","0.0-11.0-3.0","","null","","<div class='respPicDiv'><img src='img/responseButtonOffersNo0_wht.png' class='respPic'></div><div class='trialDiv'><img src='Fruit/bananas.png'><br><font class='baseline'><strong>Banana Bonanza</strong><p><strong><font class='negOutcome'>You LOST</font><p>You bet: 3</strong></font> &nbsp; &nbsp; &nbsp; &nbsp; &nbsp; &nbsp;<font class='negOutcome'>You receive: <strong>0</strong></font></div>","null","1","Banana Bonanza","Fruit/bananas.png","Lost","0.65,0.2","8","0.65","2","1","",""
"","","","decision","632aaef27780d596dc7e0a9f","bdp_rwlrn","Fri Mar 10 2023 20:38:54 GMT-0600 (Central Standard Time)","667598","Untrustworthy,Trustworthy","html-keyboard-response","14","272083","0.0-11.0-1.1","","1569","","<div class='trialDiv'><img src='Fruit/papayas.png'><br><font class='baseline'><strong>Papaya Payday</strong><p>Choose number of points to bet.</font><div class='respPicDiv'><img src='img/responseButtonOffersNo0L.png' class='respPic'></div></div>","3","1","Papaya Payday","Fruit/papayas.png","Lost","0.2,0.65","13","0.2","7","2","",""
"","","","decisionFB","632aaef27780d596dc7e0a9f","bdp_rwlrn","Fri Mar 10 2023 20:38:54 GMT-0600 (Central Standard Time)","667598","Untrustworthy,Trustworthy","html-keyboard-response","15","272351","0.0-11.0-2.1","","null","","<div class='trialDiv'><img src='Fruit/papayas.png'><br><font class='baseline'><strong>Papaya Payday</strong><p>Choose number of points to bet.</font><div class='respPicDiv'><img src='img/responseButtonOffersNo0L3.png' class='respPic'></div></div>","null","1","Papaya Payday","Fruit/papayas.png","Lost","0.2,0.65","13","0.2","4","2","",""
"","","","feedback","632aaef27780d596dc7e0a9f","bdp_rwlrn","Fri Mar 10 2023 20:38:54 GMT-0600 (Central Standard Time)","667598","Untrustworthy,Trustworthy","html-keyboard-response","16","273357","0.0-11.0-3.1","","null","","<div class='respPicDiv'><img src='img/responseButtonOffersNo0_wht.png' class='respPic'></div><div class='trialDiv'><img src='Fruit/papayas.png'><br><font class='baseline'><strong>Papaya Payday</strong><p><strong><font class='negOutcome'>You LOST</font><p>You bet: 3</strong></font> &nbsp; &nbsp; &nbsp; &nbsp; &nbsp; &nbsp;<font class='negOutcome'>You receive: <strong>0</strong></font></div>","null","1","Papaya Payday","Fruit/papayas.png","Lost","0.2,0.65","13","0.2","4","2","",""
"","","","decision","632aaef27780d596dc7e0a9f","bdp_rwlrn","Fri Mar 10 2023 20:38:54 GMT-0600 (Central Standard Time)","667598","Untrustworthy,Trustworthy","html-keyboard-response","17","274492","0.0-11.0-1.2","","1133","","<div class='trialDiv'><img src='Fruit/plums1.png'><br><font class='baseline'><strong>Plum Powerball</strong><p>Choose number of points to bet.</font><div class='respPicDiv'><img src='img/responseButtonOffersNo0L.png' class='respPic'></div></div>","3","1","Plum Powerball","Fruit/plums1.png","Won","0.8,0.2","9","0.8","9","3","",""
"","","","decisionFB","632aaef27780d596dc7e0a9f","bdp_rwlrn","Fri Mar 10 2023 20:38:54 GMT-0600 (Central Standard Time)","667598","Untrustworthy,Trustworthy","html-keyboard-response","18","274745","0.0-11.0-2.2","","null","","<div class='trialDiv'><img src='Fruit/plums1.png'><br><font class='baseline'><strong>Plum Powerball</strong><p>Choose number of points to bet.</font><div class='respPicDiv'><img src='img/responseButtonOffersNo0L3.png' class='respPic'></div></div>","null","1","Plum Powerball","Fruit/plums1.png","Won","0.8,0.2","9","0.8","6","3","",""
"","","","feedback","632aaef27780d596dc7e0a9f","bdp_rwlrn","Fri Mar 10 2023 20:38:54 GMT-0600 (Central Standard Time)","667598","Untrustworthy,Trustworthy","html-keyboard-response","19","275755","0.0-11.0-3.2","","null","","<div class='respPicDiv'><img src='img/responseButtonOffersNo0_wht.png' class='respPic'></div><div class='trialDiv'><img src='Fruit/plums1.png'><br><font class='baseline'><strong>Plum Powerball</strong><p><strong><font class='posOutcome'>You WON</font><p>You bet: 3</strong></font> &nbsp; &nbsp; &nbsp; &nbsp; &nbsp; &nbsp;<font class='posOutcome'>you receive: <strong>6</strong></font></div>","null","1","Plum Powerball","Fruit/plums1.png","Won","0.8,0.2","9","0.8","12","3","",""
"","","","decision","632aaef27780d596dc7e0a9f","bdp_rwlrn","Fri Mar 10 2023 20:38:54 GMT-0600 (Central Standard Time)","667598","Untrustworthy,Trustworthy","html-keyboard-response","20","280851","0.0-11.0-1.3","","5096","","<div class='trialDiv'><img src='Fruit/papayas.png'><br><font class='baseline'><strong>Papaya Payday</strong><p>Choose number of points to bet.</font><div class='respPicDiv'><img src='img/responseButtonOffersNo0L.png' class='respPic'></div></div>","3","2","Papaya Payday","Fruit/papayas.png","Lost","0.2,0.65","13","0.2","17","4","",""
"","","","decisionFB","632aaef27780d596dc7e0a9f","bdp_rwlrn","Fri Mar 10 2023 20:38:54 GMT-0600 (Central Standard Time)","667598","Untrustworthy,Trustworthy","html-keyboard-response","21","281118","0.0-11.0-2.3","","null","","<div class='trialDiv'><img src='Fruit/papayas.png'><br><font class='baseline'><strong>Papaya Payday</strong><p>Choose number of points to bet.</font><div class='respPicDiv'><img src='img/responseButtonOffersNo0L3.png' class='respPic'></div></div>","null","2","Papaya Payday","Fruit/papayas.png","Lost","0.2,0.65","13","0.2","14","4","",""
"","","","feedback","632aaef27780d596dc7e0a9f","bdp_rwlrn","Fri Mar 10 2023 20:38:54 GMT-0600 (Central Standard Time)","667598","Untrustworthy,Trustworthy","html-keyboard-response","22","282126","0.0-11.0-3.3","","null","","<div class='respPicDiv'><img src='img/responseButtonOffersNo0_wht.png' class='respPic'></div><div class='trialDiv'><img src='Fruit/papayas.png'><br><font class='baseline'><strong>Papaya Payday</strong><p><strong><font class='negOutcome'>You LOST</font><p>You bet: 3</strong></font> &nbsp; &nbsp; &nbsp; &nbsp; &nbsp; &nbsp;<font class='negOutcome'>You receive: <strong>0</strong></font></div>","null","2","Papaya Payday","Fruit/papayas.png","Lost","0.2,0.65","13","0.2","14","4","",""
"","","","decision","632aaef27780d596dc7e0a9f","bdp_rwlrn","Fri Mar 10 2023 20:38:54 GMT-0600 (Central Standard Time)","667598","Untrustworthy,Trustworthy","html-keyboard-response","23","283220","0.0-11.0-1.4","","1091","","<div class='trialDiv'><img src='Fruit/bananas.png'><br><font class='baseline'><strong>Banana Bonanza</strong><p>Choose number of points to bet.</font><div class='respPicDiv'><img src='img/responseButtonOffersNo0L.png' class='respPic'></div></div>","3","2","Banana Bonanza","Fruit/bananas.png","Won","0.65,0.2","8","0.65","19","5","",""
"","","","decisionFB","632aaef27780d596dc7e0a9f","bdp_rwlrn","Fri Mar 10 2023 20:38:54 GMT-0600 (Central Standard Time)","667598","Untrustworthy,Trustworthy","html-keyboard-response","24","283487","0.0-11.0-2.4","","null","","<div class='trialDiv'><img src='Fruit/bananas.png'><br><font class='baseline'><strong>Banana Bonanza</strong><p>Choose number of points to bet.</font><div class='respPicDiv'><img src='img/responseButtonOffersNo0L3.png' class='respPic'></div></div>","null","2","Banana Bonanza","Fruit/bananas.png","Won","0.65,0.2","8","0.65","16","5","",""
"","","","feedback","632aaef27780d596dc7e0a9f","bdp_rwlrn","Fri Mar 10 2023 20:38:54 GMT-0600 (Central Standard Time)","667598","Untrustworthy,Trustworthy","html-keyboard-response","25","284493","0.0-11.0-3.4","","null","","<div class='respPicDiv'><img src='img/responseButtonOffersNo0_wht.png' class='respPic'></div><div class='trialDiv'><img src='Fruit/bananas.png'><br><font class='baseline'><strong>Banana Bonanza</strong><p><strong><font class='posOutcome'>You WON</font><p>You bet: 3</strong></font> &nbsp; &nbsp; &nbsp; &nbsp; &nbsp; &nbsp;<font class='posOutcome'>you receive: <strong>6</strong></font></div>","null","2","Banana Bonanza","Fruit/bananas.png","Won","0.65,0.2","8","0.65","22","5","",""
"","","","decision","632aaef27780d596dc7e0a9f","bdp_rwlrn","Fri Mar 10 2023 20:38:54 GMT-0600 (Central Standard Time)","667598","Untrustworthy,Trustworthy","html-keyboard-response","26","286372","0.0-11.0-1.5","","1877","","<div class='trialDiv'><img src='Fruit/plums1.png'><br><font class='baseline'><strong>Plum Powerball</strong><p>Choose number of points to bet.</font><div class='respPicDiv'><img src='img/responseButtonOffersNo0L.png' class='respPic'></div></div>","2","2","Plum Powerball","Fruit/plums1.png","Lost","0.8,0.2","9","0.8","27","6","",""
"","","","decisionFB","632aaef27780d596dc7e0a9f","bdp_rwlrn","Fri Mar 10 2023 20:38:54 GMT-0600 (Central Standard Time)","667598","Untrustworthy,Trustworthy","html-keyboard-response","27","286628","0.0-11.0-2.5","","null","","<div class='trialDiv'><img src='Fruit/plums1.png'><br><font class='baseline'><strong>Plum Powerball</strong><p>Choose number of points to bet.</font><div class='respPicDiv'><img src='img/responseButtonOffersNo0L2.png' class='respPic'></div></div>","null","2","Plum Powerball","Fruit/plums1.png","Lost","0.8,0.2","9","0.8","25","6","",""
"","","","feedback","632aaef27780d596dc7e0a9f","bdp_rwlrn","Fri Mar 10 2023 20:38:54 GMT-0600 (Central Standard Time)","667598","Untrustworthy,Trustworthy","html-keyboard-response","28","287634","0.0-11.0-3.5","","null","","<div class='respPicDiv'><img src='img/responseButtonOffersNo0_wht.png' class='respPic'></div><div class='trialDiv'><img src='Fruit/plums1.png'><br><font class='baseline'><strong>Plum Powerball</strong><p><strong><font class='negOutcome'>You LOST</font><p>You bet: 2</strong></font> &nbsp; &nbsp; &nbsp; &nbsp; &nbsp; &nbsp;<font class='negOutcome'>You receive: <strong>0</strong></font></div>","null","2","Plum Powerball","Fruit/plums1.png","Lost","0.8,0.2","9","0.8","25","6","",""
"","","","decision","632aaef27780d596dc7e0a9f","bdp_rwlrn","Fri Mar 10 2023 20:38:54 GMT-0600 (Central Standard Time)","667598","Untrustworthy,Trustworthy","html-keyboard-response","29","289715","0.0-11.0-1.6","","2079","","<div class='trialDiv'><img src='Fruit/papayas.png'><br><font class='baseline'><strong>Papaya Payday</strong><p>Choose number of points to bet.</font><div class='respPicDiv'><img src='img/responseButtonOffersNo0L.png' class='respPic'></div></div>","3","3","Papaya Payday","Fruit/papayas.png","Lost","0.2,0.65","13","0.2","30","7","",""
"","","","decisionFB","632aaef27780d596dc7e0a9f","bdp_rwlrn","Fri Mar 10 2023 20:38:54 GMT-0600 (Central Standard Time)","667598","Untrustworthy,Trustworthy","html-keyboard-response","30","289970","0.0-11.0-2.6","","null","","<div class='trialDiv'><img src='Fruit/papayas.png'><br><font class='baseline'><strong>Papaya Payday</strong><p>Choose number of points to bet.</font><div class='respPicDiv'><img src='img/responseButtonOffersNo0L3.png' class='respPic'></div></div>","null","3","Papaya Payday","Fruit/papayas.png","Lost","0.2,0.65","13","0.2","27","7","",""
"","","","feedback","632aaef27780d596dc7e0a9f","bdp_rwlrn","Fri Mar 10 2023 20:38:54 GMT-0600 (Central Standard Time)","667598","Untrustworthy,Trustworthy","html-keyboard-response","31","290978","0.0-11.0-3.6","","null","","<div class='respPicDiv'><img src='img/responseButtonOffersNo0_wht.png' class='respPic'></div><div class='trialDiv'><img src='Fruit/papayas.png'><br><font class='baseline'><strong>Papaya Payday</strong><p><strong><font class='negOutcome'>You LOST</font><p>You bet: 3</strong></font> &nbsp; &nbsp; &nbsp; &nbsp; &nbsp; &nbsp;<font class='negOutcome'>You receive: <strong>0</strong></font></div>","null","3","Papaya Payday","Fruit/papayas.png","Lost","0.2,0.65","13","0.2","27","7","",""
"","","","decision","632aaef27780d596dc7e0a9f","bdp_rwlrn","Fri Mar 10 2023 20:38:54 GMT-0600 (Central Standard Time)","667598","Untrustworthy,Trustworthy","html-keyboard-response","32","293379","0.0-11.0-1.7","","2399","","<div class='trialDiv'><img src='Fruit/bananas.png'><br><font class='baseline'><strong>Banana Bonanza</strong><p>Choose number of points to bet.</font><div class='respPicDiv'><img src='img/responseButtonOffersNo0L.png' class='respPic'></div></div>","3","3","Banana Bonanza","Fruit/bananas.png","Won","0.65,0.2","8","0.65","32","8","",""
"","","","decisionFB","632aaef27780d596dc7e0a9f","bdp_rwlrn","Fri Mar 10 2023 20:38:54 GMT-0600 (Central Standard Time)","667598","Untrustworthy,Trustworthy","html-keyboard-response","33","293642","0.0-11.0-2.7","","null","","<div class='trialDiv'><img src='Fruit/bananas.png'><br><font class='baseline'><strong>Banana Bonanza</strong><p>Choose number of points to bet.</font><div class='respPicDiv'><img src='img/responseButtonOffersNo0L3.png' class='respPic'></div></div>","null","3","Banana Bonanza","Fruit/bananas.png","Won","0.65,0.2","8","0.65","29","8","",""
"","","","feedback","632aaef27780d596dc7e0a9f","bdp_rwlrn","Fri Mar 10 2023 20:38:54 GMT-0600 (Central Standard Time)","667598","Untrustworthy,Trustworthy","html-keyboard-response","34","294648","0.0-11.0-3.7","","null","","<div class='respPicDiv'><img src='img/responseButtonOffersNo0_wht.png' class='respPic'></div><div class='trialDiv'><img src='Fruit/bananas.png'><br><font class='baseline'><strong>Banana Bonanza</strong><p><strong><font class='posOutcome'>You WON</font><p>You bet: 3</strong></font> &nbsp; &nbsp; &nbsp; &nbsp; &nbsp; &nbsp;<font class='posOutcome'>you receive: <strong>6</strong></font></div>","null","3","Banana Bonanza","Fruit/bananas.png","Won","0.65,0.2","8","0.65","35","8","",""
"","","","decision","632aaef27780d596dc7e0a9f","bdp_rwlrn","Fri Mar 10 2023 20:38:54 GMT-0600 (Central Standard Time)","667598","Untrustworthy,Trustworthy","html-keyboard-response","35","296769","0.0-11.0-1.8","","2120","","<div class='trialDiv'><img src='Fruit/plums1.png'><br><font class='baseline'><strong>Plum Powerball</strong><p>Choose number of points to bet.</font><div class='respPicDiv'><img src='img/responseButtonOffersNo0L.png' class='respPic'></div></div>","1","3","Plum Powerball","Fruit/plums1.png","Won","0.8,0.2","9","0.8","40","9","",""
"","","","decisionFB","632aaef27780d596dc7e0a9f","bdp_rwlrn","Fri Mar 10 2023 20:38:54 GMT-0600 (Central Standard Time)","667598","Untrustworthy,Trustworthy","html-keyboard-response","36","297028","0.0-11.0-2.8","","null","","<div class='trialDiv'><img src='Fruit/plums1.png'><br><font class='baseline'><strong>Plum Powerball</strong><p>Choose number of points to bet.</font><div class='respPicDiv'><img src='img/responseButtonOffersNo0L1.png' class='respPic'></div></div>","null","3","Plum Powerball","Fruit/plums1.png","Won","0.8,0.2","9","0.8","39","9","",""
"","","","feedback","632aaef27780d596dc7e0a9f","bdp_rwlrn","Fri Mar 10 2023 20:38:54 GMT-0600 (Central Standard Time)","667598","Untrustworthy,Trustworthy","html-keyboard-response","37","298038","0.0-11.0-3.8","","null","","<div class='respPicDiv'><img src='img/responseButtonOffersNo0_wht.png' class='respPic'></div><div class='trialDiv'><img src='Fruit/plums1.png'><br><font class='baseline'><strong>Plum Powerball</strong><p><strong><font class='posOutcome'>You WON</font><p>You bet: 1</strong></font> &nbsp; &nbsp; &nbsp; &nbsp; &nbsp; &nbsp;<font class='posOutcome'>you receive: <strong>2</strong></font></div>","null","3","Plum Powerball","Fruit/plums1.png","Won","0.8,0.2","9","0.8","41","9","",""
"","","","decision","632aaef27780d596dc7e0a9f","bdp_rwlrn","Fri Mar 10 2023 20:38:54 GMT-0600 (Central Standard Time)","667598","Untrustworthy,Trustworthy","html-keyboard-response","38","300266","0.0-11.0-1.9","","2227","","<div class='trialDiv'><img src='Fruit/papayas.png'><br><font class='baseline'><strong>Papaya Payday</strong><p>Choose number of points to bet.</font><div class='respPicDiv'><img src='img/responseButtonOffersNo0L.png' class='respPic'></div></div>","2","4","Papaya Payday","Fruit/papayas.png","Lost","0.2,0.65","13","0.2","46","10","",""
"","","","decisionFB","632aaef27780d596dc7e0a9f","bdp_rwlrn","Fri Mar 10 2023 20:38:54 GMT-0600 (Central Standard Time)","667598","Untrustworthy,Trustworthy","html-keyboard-response","39","300525","0.0-11.0-2.9","","null","","<div class='trialDiv'><img src='Fruit/papayas.png'><br><font class='baseline'><strong>Papaya Payday</strong><p>Choose number of points to bet.</font><div class='respPicDiv'><img src='img/responseButtonOffersNo0L2.png' class='respPic'></div></div>","null","4","Papaya Payday","Fruit/papayas.png","Lost","0.2,0.65","13","0.2","44","10","",""
"","","","feedback","632aaef27780d596dc7e0a9f","bdp_rwlrn","Fri Mar 10 2023 20:38:54 GMT-0600 (Central Standard Time)","667598","Untrustworthy,Trustworthy","html-keyboard-response","40","301530","0.0-11.0-3.9","","null","","<div class='respPicDiv'><img src='img/responseButtonOffersNo0_wht.png' class='respPic'></div><div class='trialDiv'><img src='Fruit/papayas.png'><br><font class='baseline'><strong>Papaya Payday</strong><p><strong><font class='negOutcome'>You LOST</font><p>You bet: 2</strong></font> &nbsp; &nbsp; &nbsp; &nbsp; &nbsp; &nbsp;<font class='negOutcome'>You receive: <strong>0</strong></font></div>","null","4","Papaya Payday","Fruit/papayas.png","Lost","0.2,0.65","13","0.2","44","10","",""
"","","","decision","632aaef27780d596dc7e0a9f","bdp_rwlrn","Fri Mar 10 2023 20:38:54 GMT-0600 (Central Standard Time)","667598","Untrustworthy,Trustworthy","html-keyboard-response","41","303627","0.0-11.0-1.10","","2096","","<div class='trialDiv'><img src='Fruit/plums1.png'><br><font class='baseline'><strong>Plum Powerball</strong><p>Choose number of points to bet.</font><div class='respPicDiv'><img src='img/responseButtonOffersNo0L.png' class='respPic'></div></div>","4","4","Plum Powerball","Fruit/plums1.png","Won","0.8,0.2","9","0.8","49","11","",""
"","","","decisionFB","632aaef27780d596dc7e0a9f","bdp_rwlrn","Fri Mar 10 2023 20:38:54 GMT-0600 (Central Standard Time)","667598","Untrustworthy,Trustworthy","html-keyboard-response","42","303880","0.0-11.0-2.10","","null","","<div class='trialDiv'><img src='Fruit/plums1.png'><br><font class='baseline'><strong>Plum Powerball</strong><p>Choose number of points to bet.</font><div class='respPicDiv'><img src='img/responseButtonOffersNo0L4.png' class='respPic'></div></div>","null","4","Plum Powerball","Fruit/plums1.png","Won","0.8,0.2","9","0.8","45","11","",""
"","","","feedback","632aaef27780d596dc7e0a9f","bdp_rwlrn","Fri Mar 10 2023 20:38:54 GMT-0600 (Central Standard Time)","667598","Untrustworthy,Trustworthy","html-keyboard-response","43","304889","0.0-11.0-3.10","","null","","<div class='respPicDiv'><img src='img/responseButtonOffersNo0_wht.png' class='respPic'></div><div class='trialDiv'><img src='Fruit/plums1.png'><br><font class='baseline'><strong>Plum Powerball</strong><p><strong><font class='posOutcome'>You WON</font><p>You bet: 4</strong></font> &nbsp; &nbsp; &nbsp; &nbsp; &nbsp; &nbsp;<font class='posOutcome'>you receive: <strong>8</strong></font></div>","null","4","Plum Powerball","Fruit/plums1.png","Won","0.8,0.2","9","0.8","53","11","",""
"","","","decision","632aaef27780d596dc7e0a9f","bdp_rwlrn","Fri Mar 10 2023 20:38:54 GMT-0600 (Central Standard Time)","667598","Untrustworthy,Trustworthy","html-keyboard-response","44","306579","0.0-11.0-1.11","","1689","","<div class='trialDiv'><img src='Fruit/bananas.png'><br><font class='baseline'><strong>Banana Bonanza</strong><p>Choose number of points to bet.</font><div class='respPicDiv'><img src='img/responseButtonOffersNo0L.png' class='respPic'></div></div>","3","4","Banana Bonanza","Fruit/bananas.png","Lost","0.65,0.2","8","0.65","58","12","",""
"","","","decisionFB","632aaef27780d596dc7e0a9f","bdp_rwlrn","Fri Mar 10 2023 20:38:54 GMT-0600 (Central Standard Time)","667598","Untrustworthy,Trustworthy","html-keyboard-response","45","306845","0.0-11.0-2.11","","null","","<div class='trialDiv'><img src='Fruit/bananas.png'><br><font class='baseline'><strong>Banana Bonanza</strong><p>Choose number of points to bet.</font><div class='respPicDiv'><img src='img/responseButtonOffersNo0L3.png' class='respPic'></div></div>","null","4","Banana Bonanza","Fruit/bananas.png","Lost","0.65,0.2","8","0.65","55","12","",""
"","","","feedback","632aaef27780d596dc7e0a9f","bdp_rwlrn","Fri Mar 10 2023 20:38:54 GMT-0600 (Central Standard Time)","667598","Untrustworthy,Trustworthy","html-keyboard-response","46","307851","0.0-11.0-3.11","","null","","<div class='respPicDiv'><img src='img/responseButtonOffersNo0_wht.png' class='respPic'></div><div class='trialDiv'><img src='Fruit/bananas.png'><br><font class='baseline'><strong>Banana Bonanza</strong><p><strong><font class='negOutcome'>You LOST</font><p>You bet: 3</strong></font> &nbsp; &nbsp; &nbsp; &nbsp; &nbsp; &nbsp;<font class='negOutcome'>You receive: <strong>0</strong></font></div>","null","4","Banana Bonanza","Fruit/bananas.png","Lost","0.65,0.2","8","0.65","55","12","",""
"","","","decision","632aaef27780d596dc7e0a9f","bdp_rwlrn","Fri Mar 10 2023 20:38:54 GMT-0600 (Central Standard Time)","667598","Untrustworthy,Trustworthy","html-keyboard-response","47","311131","0.0-11.0-1.12","","3278","","<div class='trialDiv'><img src='Fruit/plums1.png'><br><font class='baseline'><strong>Plum Powerball</strong><p>Choose number of points to bet.</font><div class='respPicDiv'><img src='img/responseButtonOffersNo0L.png' class='respPic'></div></div>","2","5","Plum Powerball","Fruit/plums1.png","Won","0.8,0.2","9","0.8","60","13","",""
"","","","decisionFB","632aaef27780d596dc7e0a9f","bdp_rwlrn","Fri Mar 10 2023 20:38:54 GMT-0600 (Central Standard Time)","667598","Untrustworthy,Trustworthy","html-keyboard-response","48","311388","0.0-11.0-2.12","","null","","<div class='trialDiv'><img src='Fruit/plums1.png'><br><font class='baseline'><strong>Plum Powerball</strong><p>Choose number of points to bet.</font><div class='respPicDiv'><img src='img/responseButtonOffersNo0L2.png' class='respPic'></div></div>","null","5","Plum Powerball","Fruit/plums1.png","Won","0.8,0.2","9","0.8","58","13","",""
"","","","feedback","632aaef27780d596dc7e0a9f","bdp_rwlrn","Fri Mar 10 2023 20:38:54 GMT-0600 (Central Standard Time)","667598","Untrustworthy,Trustworthy","html-keyboard-response","49","312393","0.0-11.0-3.12","","null","","<div class='respPicDiv'><img src='img/responseButtonOffersNo0_wht.png' class='respPic'></div><div class='trialDiv'><img src='Fruit/plums1.png'><br><font class='baseline'><strong>Plum Powerball</strong><p><strong><font class='posOutcome'>You WON</font><p>You bet: 2</strong></font> &nbsp; &nbsp; &nbsp; &nbsp; &nbsp; &nbsp;<font class='posOutcome'>you receive: <strong>4</strong></font></div>","null","5","Plum Powerball","Fruit/plums1.png","Won","0.8,0.2","9","0.8","62","13","",""
"","","","decision","632aaef27780d596dc7e0a9f","bdp_rwlrn","Fri Mar 10 2023 20:38:54 GMT-0600 (Central Standard Time)","667598","Untrustworthy,Trustworthy","html-keyboard-response","50","313851","0.0-11.0-1.13","","1455","","<div class='trialDiv'><img src='Fruit/bananas.png'><br><font class='baseline'><strong>Banana Bonanza</strong><p>Choose number of points to bet.</font><div class='respPicDiv'><img src='img/responseButtonOffersNo0L.png' class='respPic'></div></div>","4","5","Banana Bonanza","Fruit/bananas.png","Won","0.65,0.2","8","0.65","67","14","",""
"","","","decisionFB","632aaef27780d596dc7e0a9f","bdp_rwlrn","Fri Mar 10 2023 20:38:54 GMT-0600 (Central Standard Time)","667598","Untrustworthy,Trustworthy","html-keyboard-response","51","314115","0.0-11.0-2.13","","null","","<div class='trialDiv'><img src='Fruit/bananas.png'><br><font class='baseline'><strong>Banana Bonanza</strong><p>Choose number of points to bet.</font><div class='respPicDiv'><img src='img/responseButtonOffersNo0L4.png' class='respPic'></div></div>","null","5","Banana Bonanza","Fruit/bananas.png","Won","0.65,0.2","8","0.65","63","14","",""
"","","","feedback","632aaef27780d596dc7e0a9f","bdp_rwlrn","Fri Mar 10 2023 20:38:54 GMT-0600 (Central Standard Time)","667598","Untrustworthy,Trustworthy","html-keyboard-response","52","315123","0.0-11.0-3.13","","null","","<div class='respPicDiv'><img src='img/responseButtonOffersNo0_wht.png' class='respPic'></div><div class='trialDiv'><img src='Fruit/bananas.png'><br><font class='baseline'><strong>Banana Bonanza</strong><p><strong><font class='posOutcome'>You WON</font><p>You bet: 4</strong></font> &nbsp; &nbsp; &nbsp; &nbsp; &nbsp; &nbsp;<font class='posOutcome'>you receive: <strong>8</strong></font></div>","null","5","Banana Bonanza","Fruit/bananas.png","Won","0.65,0.2","8","0.65","71","14","",""
"","","","decision","632aaef27780d596dc7e0a9f","bdp_rwlrn","Fri Mar 10 2023 20:38:54 GMT-0600 (Central Standard Time)","667598","Untrustworthy,Trustworthy","html-keyboard-response","53","316443","0.0-11.0-1.14","","1318","","<div class='trialDiv'><img src='Fruit/papayas.png'><br><font class='baseline'><strong>Papaya Payday</strong><p>Choose number of points to bet.</font><div class='respPicDiv'><img src='img/responseButtonOffersNo0L.png' class='respPic'></div></div>","1","5","Papaya Payday","Fruit/papayas.png","Lost","0.2,0.65","13","0.2","76","15","",""
"","","","decisionFB","632aaef27780d596dc7e0a9f","bdp_rwlrn","Fri Mar 10 2023 20:38:54 GMT-0600 (Central Standard Time)","667598","Untrustworthy,Trustworthy","html-keyboard-response","54","316702","0.0-11.0-2.14","","null","","<div class='trialDiv'><img src='Fruit/papayas.png'><br><font class='baseline'><strong>Papaya Payday</strong><p>Choose number of points to bet.</font><div class='respPicDiv'><img src='img/responseButtonOffersNo0L1.png' class='respPic'></div></div>","null","5","Papaya Payday","Fruit/papayas.png","Lost","0.2,0.65","13","0.2","75","15","",""
"","","","feedback","632aaef27780d596dc7e0a9f","bdp_rwlrn","Fri Mar 10 2023 20:38:54 GMT-0600 (Central Standard Time)","667598","Untrustworthy,Trustworthy","html-keyboard-response","55","317710","0.0-11.0-3.14","","null","","<div class='respPicDiv'><img src='img/responseButtonOffersNo0_wht.png' class='respPic'></div><div class='trialDiv'><img src='Fruit/papayas.png'><br><font class='baseline'><strong>Papaya Payday</strong><p><strong><font class='negOutcome'>You LOST</font><p>You bet: 1</strong></font> &nbsp; &nbsp; &nbsp; &nbsp; &nbsp; &nbsp;<font class='negOutcome'>You receive: <strong>0</strong></font></div>","null","5","Papaya Payday","Fruit/papayas.png","Lost","0.2,0.65","13","0.2","75","15","",""
"","","","decision","632aaef27780d596dc7e0a9f","bdp_rwlrn","Fri Mar 10 2023 20:38:54 GMT-0600 (Central Standard Time)","667598","Untrustworthy,Trustworthy","html-keyboard-response","56","319299","0.0-11.0-1.15","","1587","","<div class='trialDiv'><img src='Fruit/bananas.png'><br><font class='baseline'><strong>Banana Bonanza</strong><p>Choose number of points to bet.</font><div class='respPicDiv'><img src='img/responseButtonOffersNo0L.png' class='respPic'></div></div>","3","6","Banana Bonanza","Fruit/bananas.png","Won","0.65,0.2","8","0.65","80","16","",""
"","","","decisionFB","632aaef27780d596dc7e0a9f","bdp_rwlrn","Fri Mar 10 2023 20:38:54 GMT-0600 (Central Standard Time)","667598","Untrustworthy,Trustworthy","html-keyboard-response","57","319551","0.0-11.0-2.15","","null","","<div class='trialDiv'><img src='Fruit/bananas.png'><br><font class='baseline'><strong>Banana Bonanza</strong><p>Choose number of points to bet.</font><div class='respPicDiv'><img src='img/responseButtonOffersNo0L3.png' class='respPic'></div></div>","null","6","Banana Bonanza","Fruit/bananas.png","Won","0.65,0.2","8","0.65","77","16","",""
"","","","feedback","632aaef27780d596dc7e0a9f","bdp_rwlrn","Fri Mar 10 2023 20:38:54 GMT-0600 (Central Standard Time)","667598","Untrustworthy,Trustworthy","html-keyboard-response","58","320564","0.0-11.0-3.15","","null","","<div class='respPicDiv'><img src='img/responseButtonOffersNo0_wht.png' class='respPic'></div><div class='trialDiv'><img src='Fruit/bananas.png'><br><font class='baseline'><strong>Banana Bonanza</strong><p><strong><font class='posOutcome'>You WON</font><p>You bet: 3</strong></font> &nbsp; &nbsp; &nbsp; &nbsp; &nbsp; &nbsp;<font class='posOutcome'>you receive: <strong>6</strong></font></div>","null","6","Banana Bonanza","Fruit/bananas.png","Won","0.65,0.2","8","0.65","83","16","",""
"","","","decision","632aaef27780d596dc7e0a9f","bdp_rwlrn","Fri Mar 10 2023 20:38:54 GMT-0600 (Central Standard Time)","667598","Untrustworthy,Trustworthy","html-keyboard-response","59","321866","0.0-11.0-1.16","","1299","","<div class='trialDiv'><img src='Fruit/papayas.png'><br><font class='baseline'><strong>Papaya Payday</strong><p>Choose number of points to bet.</font><div class='respPicDiv'><img src='img/responseButtonOffersNo0L.png' class='respPic'></div></div>","4","6","Papaya Payday","Fruit/papayas.png","Lost","0.2,0.65","13","0.2","88","17","",""
"","","","decisionFB","632aaef27780d596dc7e0a9f","bdp_rwlrn","Fri Mar 10 2023 20:38:54 GMT-0600 (Central Standard Time)","667598","Untrustworthy,Trustworthy","html-keyboard-response","60","322117","0.0-11.0-2.16","","null","","<div class='trialDiv'><img src='Fruit/papayas.png'><br><font class='baseline'><strong>Papaya Payday</strong><p>Choose number of points to bet.</font><div class='respPicDiv'><img src='img/responseButtonOffersNo0L4.png' class='respPic'></div></div>","null","6","Papaya Payday","Fruit/papayas.png","Lost","0.2,0.65","13","0.2","84","17","",""
"","","","feedback","632aaef27780d596dc7e0a9f","bdp_rwlrn","Fri Mar 10 2023 20:38:54 GMT-0600 (Central Standard Time)","667598","Untrustworthy,Trustworthy","html-keyboard-response","61","323123","0.0-11.0-3.16","","null","","<div class='respPicDiv'><img src='img/responseButtonOffersNo0_wht.png' class='respPic'></div><div class='trialDiv'><img src='Fruit/papayas.png'><br><font class='baseline'><strong>Papaya Payday</strong><p><strong><font class='negOutcome'>You LOST</font><p>You bet: 4</strong></font> &nbsp; &nbsp; &nbsp; &nbsp; &nbsp; &nbsp;<font class='negOutcome'>You receive: <strong>0</strong></font></div>","null","6","Papaya Payday","Fruit/papayas.png","Lost","0.2,0.65","13","0.2","84","17","",""
"","","","decision","632aaef27780d596dc7e0a9f","bdp_rwlrn","Fri Mar 10 2023 20:38:54 GMT-0600 (Central Standard Time)","667598","Untrustworthy,Trustworthy","html-keyboard-response","62","326987","0.0-11.0-1.17","","3862","","<div class='trialDiv'><img src='Fruit/plums1.png'><br><font class='baseline'><strong>Plum Powerball</strong><p>Choose number of points to bet.</font><div class='respPicDiv'><img src='img/responseButtonOffersNo0L.png' class='respPic'></div></div>","5","6","Plum Powerball","Fruit/plums1.png","Won","0.8,0.2","9","0.8","89","18","",""
"","","","decisionFB","632aaef27780d596dc7e0a9f","bdp_rwlrn","Fri Mar 10 2023 20:38:54 GMT-0600 (Central Standard Time)","667598","Untrustworthy,Trustworthy","html-keyboard-response","63","327253","0.0-11.0-2.17","","null","","<div class='trialDiv'><img src='Fruit/plums1.png'><br><font class='baseline'><strong>Plum Powerball</strong><p>Choose number of points to bet.</font><div class='respPicDiv'><img src='img/responseButtonOffersNo0L5.png' class='respPic'></div></div>","null","6","Plum Powerball","Fruit/plums1.png","Won","0.8,0.2","9","0.8","84","18","",""
"","","","feedback","632aaef27780d596dc7e0a9f","bdp_rwlrn","Fri Mar 10 2023 20:38:54 GMT-0600 (Central Standard Time)","667598","Untrustworthy,Trustworthy","html-keyboard-response","64","328265","0.0-11.0-3.17","","null","","<div class='respPicDiv'><img src='img/responseButtonOffersNo0_wht.png' class='respPic'></div><div class='trialDiv'><img src='Fruit/plums1.png'><br><font class='baseline'><strong>Plum Powerball</strong><p><strong><font class='posOutcome'>You WON</font><p>You bet: 5</strong></font> &nbsp; &nbsp; &nbsp; &nbsp; &nbsp; &nbsp;<font class='posOutcome'>you receive: <strong>10</strong></font></div>","null","6","Plum Powerball","Fruit/plums1.png","Won","0.8,0.2","9","0.8","94","18","",""
"","","","decision","632aaef27780d596dc7e0a9f","bdp_rwlrn","Fri Mar 10 2023 20:38:54 GMT-0600 (Central Standard Time)","667598","Untrustworthy,Trustworthy","html-keyboard-response","65","332613","0.0-11.0-1.18","","4346","","<div class='trialDiv'><img src='Fruit/papayas.png'><br><font class='baseline'><strong>Papaya Payday</strong><p>Choose number of points to bet.</font><div class='respPicDiv'><img src='img/responseButtonOffersNo0L.png' class='respPic'></div></div>","2","7","Papaya Payday","Fruit/papayas.png","Lost","0.2,0.65","13","0.2","99","19","",""
"","","","decisionFB","632aaef27780d596dc7e0a9f","bdp_rwlrn","Fri Mar 10 2023 20:38:54 GMT-0600 (Central Standard Time)","667598","Untrustworthy,Trustworthy","html-keyboard-response","66","332869","0.0-11.0-2.18","","null","","<div class='trialDiv'><img src='Fruit/papayas.png'><br><font class='baseline'><strong>Papaya Payday</strong><p>Choose number of points to bet.</font><div class='respPicDiv'><img src='img/responseButtonOffersNo0L2.png' class='respPic'></div></div>","null","7","Papaya Payday","Fruit/papayas.png","Lost","0.2,0.65","13","0.2","97","19","",""
"","","","feedback","632aaef27780d596dc7e0a9f","bdp_rwlrn","Fri Mar 10 2023 20:38:54 GMT-0600 (Central Standard Time)","667598","Untrustworthy,Trustworthy","html-keyboard-response","67","333875","0.0-11.0-3.18","","null","","<div class='respPicDiv'><img src='img/responseButtonOffersNo0_wht.png' class='respPic'></div><div class='trialDiv'><img src='Fruit/papayas.png'><br><font class='baseline'><strong>Papaya Payday</strong><p><strong><font class='negOutcome'>You LOST</font><p>You bet: 2</strong></font> &nbsp; &nbsp; &nbsp; &nbsp; &nbsp; &nbsp;<font class='negOutcome'>You receive: <strong>0</strong></font></div>","null","7","Papaya Payday","Fruit/papayas.png","Lost","0.2,0.65","13","0.2","97","19","",""
"","","","decision","632aaef27780d596dc7e0a9f","bdp_rwlrn","Fri Mar 10 2023 20:38:54 GMT-0600 (Central Standard Time)","667598","Untrustworthy,Trustworthy","html-keyboard-response","68","335419","0.0-11.0-1.19","","1541","","<div class='trialDiv'><img src='Fruit/plums1.png'><br><font class='baseline'><strong>Plum Powerball</strong><p>Choose number of points to bet.</font><div class='respPicDiv'><img src='img/responseButtonOffersNo0L.png' class='respPic'></div></div>","2","7","Plum Powerball","Fruit/plums1.png","Won","0.8,0.2","9","0.8","102","20","",""
"","","","decisionFB","632aaef27780d596dc7e0a9f","bdp_rwlrn","Fri Mar 10 2023 20:38:54 GMT-0600 (Central Standard Time)","667598","Untrustworthy,Trustworthy","html-keyboard-response","69","335671","0.0-11.0-2.19","","null","","<div class='trialDiv'><img src='Fruit/plums1.png'><br><font class='baseline'><strong>Plum Powerball</strong><p>Choose number of points to bet.</font><div class='respPicDiv'><img src='img/responseButtonOffersNo0L2.png' class='respPic'></div></div>","null","7","Plum Powerball","Fruit/plums1.png","Won","0.8,0.2","9","0.8","100","20","",""
"","","","feedback","632aaef27780d596dc7e0a9f","bdp_rwlrn","Fri Mar 10 2023 20:38:54 GMT-0600 (Central Standard Time)","667598","Untrustworthy,Trustworthy","html-keyboard-response","70","336678","0.0-11.0-3.19","","null","","<div class='respPicDiv'><img src='img/responseButtonOffersNo0_wht.png' class='respPic'></div><div class='trialDiv'><img src='Fruit/plums1.png'><br><font class='baseline'><strong>Plum Powerball</strong><p><strong><font class='posOutcome'>You WON</font><p>You bet: 2</strong></font> &nbsp; &nbsp; &nbsp; &nbsp; &nbsp; &nbsp;<font class='posOutcome'>you receive: <strong>4</strong></font></div>","null","7","Plum Powerball","Fruit/plums1.png","Won","0.8,0.2","9","0.8","104","20","",""
"","","","decision","632aaef27780d596dc7e0a9f","bdp_rwlrn","Fri Mar 10 2023 20:38:54 GMT-0600 (Central Standard Time)","667598","Untrustworthy,Trustworthy","html-keyboard-response","71","340986","0.0-11.0-1.20","","4307","","<div class='trialDiv'><img src='Fruit/bananas.png'><br><font class='baseline'><strong>Banana Bonanza</strong><p>Choose number of points to bet.</font><div class='respPicDiv'><img src='img/responseButtonOffersNo0L.png' class='respPic'></div></div>","5","7","Banana Bonanza","Fruit/bananas.png","Won","0.65,0.2","8","0.65","109","21","",""
"","","","decisionFB","632aaef27780d596dc7e0a9f","bdp_rwlrn","Fri Mar 10 2023 20:38:54 GMT-0600 (Central Standard Time)","667598","Untrustworthy,Trustworthy","html-keyboard-response","72","341247","0.0-11.0-2.20","","null","","<div class='trialDiv'><img src='Fruit/bananas.png'><br><font class='baseline'><strong>Banana Bonanza</strong><p>Choose number of points to bet.</font><div class='respPicDiv'><img src='img/responseButtonOffersNo0L5.png' class='respPic'></div></div>","null","7","Banana Bonanza","Fruit/bananas.png","Won","0.65,0.2","8","0.65","104","21","",""
"","","","feedback","632aaef27780d596dc7e0a9f","bdp_rwlrn","Fri Mar 10 2023 20:38:54 GMT-0600 (Central Standard Time)","667598","Untrustworthy,Trustworthy","html-keyboard-response","73","342254","0.0-11.0-3.20","","null","","<div class='respPicDiv'><img src='img/responseButtonOffersNo0_wht.png' class='respPic'></div><div class='trialDiv'><img src='Fruit/bananas.png'><br><font class='baseline'><strong>Banana Bonanza</strong><p><strong><font class='posOutcome'>You WON</font><p>You bet: 5</strong></font> &nbsp; &nbsp; &nbsp; &nbsp; &nbsp; &nbsp;<font class='posOutcome'>you receive: <strong>10</strong></font></div>","null","7","Banana Bonanza","Fruit/bananas.png","Won","0.65,0.2","8","0.65","114","21","",""
"","","","decision","632aaef27780d596dc7e0a9f","bdp_rwlrn","Fri Mar 10 2023 20:38:54 GMT-0600 (Central Standard Time)","667598","Untrustworthy,Trustworthy","html-keyboard-response","74","343738","0.0-11.0-1.21","","1482","","<div class='trialDiv'><img src='Fruit/plums1.png'><br><font class='baseline'><strong>Plum Powerball</strong><p>Choose number of points to bet.</font><div class='respPicDiv'><img src='img/responseButtonOffersNo0L.png' class='respPic'></div></div>","2","8","Plum Powerball","Fruit/plums1.png","Won","0.8,0.2","9","0.8","119","22","",""
"","","","decisionFB","632aaef27780d596dc7e0a9f","bdp_rwlrn","Fri Mar 10 2023 20:38:54 GMT-0600 (Central Standard Time)","667598","Untrustworthy,Trustworthy","html-keyboard-response","75","343999","0.0-11.0-2.21","","null","","<div class='trialDiv'><img src='Fruit/plums1.png'><br><font class='baseline'><strong>Plum Powerball</strong><p>Choose number of points to bet.</font><div class='respPicDiv'><img src='img/responseButtonOffersNo0L2.png' class='respPic'></div></div>","null","8","Plum Powerball","Fruit/plums1.png","Won","0.8,0.2","9","0.8","117","22","",""
"","","","feedback","632aaef27780d596dc7e0a9f","bdp_rwlrn","Fri Mar 10 2023 20:38:54 GMT-0600 (Central Standard Time)","667598","Untrustworthy,Trustworthy","html-keyboard-response","76","345005","0.0-11.0-3.21","","null","","<div class='respPicDiv'><img src='img/responseButtonOffersNo0_wht.png' class='respPic'></div><div class='trialDiv'><img src='Fruit/plums1.png'><br><font class='baseline'><strong>Plum Powerball</strong><p><strong><font class='posOutcome'>You WON</font><p>You bet: 2</strong></font> &nbsp; &nbsp; &nbsp; &nbsp; &nbsp; &nbsp;<font class='posOutcome'>you receive: <strong>4</strong></font></div>","null","8","Plum Powerball","Fruit/plums1.png","Won","0.8,0.2","9","0.8","121","22","",""
"","","","decision","632aaef27780d596dc7e0a9f","bdp_rwlrn","Fri Mar 10 2023 20:38:54 GMT-0600 (Central Standard Time)","667598","Untrustworthy,Trustworthy","html-keyboard-response","77","345994","0.0-11.0-1.22","","989","","<div class='trialDiv'><img src='Fruit/papayas.png'><br><font class='baseline'><strong>Papaya Payday</strong><p>Choose number of points to bet.</font><div class='respPicDiv'><img src='img/responseButtonOffersNo0L.png' class='respPic'></div></div>","1","8","Papaya Payday","Fruit/papayas.png","Lost","0.2,0.65","13","0.2","126","23","",""
"","","","decisionFB","632aaef27780d596dc7e0a9f","bdp_rwlrn","Fri Mar 10 2023 20:38:54 GMT-0600 (Central Standard Time)","667598","Untrustworthy,Trustworthy","html-keyboard-response","78","346254","0.0-11.0-2.22","","null","","<div class='trialDiv'><img src='Fruit/papayas.png'><br><font class='baseline'><strong>Papaya Payday</strong><p>Choose number of points to bet.</font><div class='respPicDiv'><img src='img/responseButtonOffersNo0L1.png' class='respPic'></div></div>","null","8","Papaya Payday","Fruit/papayas.png","Lost","0.2,0.65","13","0.2","125","23","",""
"","","","feedback","632aaef27780d596dc7e0a9f","bdp_rwlrn","Fri Mar 10 2023 20:38:54 GMT-0600 (Central Standard Time)","667598","Untrustworthy,Trustworthy","html-keyboard-response","79","347264","0.0-11.0-3.22","","null","","<div class='respPicDiv'><img src='img/responseButtonOffersNo0_wht.png' class='respPic'></div><div class='trialDiv'><img src='Fruit/papayas.png'><br><font class='baseline'><strong>Papaya Payday</strong><p><strong><font class='negOutcome'>You LOST</font><p>You bet: 1</strong></font> &nbsp; &nbsp; &nbsp; &nbsp; &nbsp; &nbsp;<font class='negOutcome'>You receive: <strong>0</strong></font></div>","null","8","Papaya Payday","Fruit/papayas.png","Lost","0.2,0.65","13","0.2","125","23","",""
"","","","decision","632aaef27780d596dc7e0a9f","bdp_rwlrn","Fri Mar 10 2023 20:38:54 GMT-0600 (Central Standard Time)","667598","Untrustworthy,Trustworthy","html-keyboard-response","80","349178","0.0-11.0-1.23","","1913","","<div class='trialDiv'><img src='Fruit/bananas.png'><br><font class='baseline'><strong>Banana Bonanza</strong><p>Choose number of points to bet.</font><div class='respPicDiv'><img src='img/responseButtonOffersNo0L.png' class='respPic'></div></div>","3","8","Banana Bonanza","Fruit/bananas.png","Won","0.65,0.2","8","0.65","130","24","",""
"","","","decisionFB","632aaef27780d596dc7e0a9f","bdp_rwlrn","Fri Mar 10 2023 20:38:54 GMT-0600 (Central Standard Time)","667598","Untrustworthy,Trustworthy","html-keyboard-response","81","349440","0.0-11.0-2.23","","null","","<div class='trialDiv'><img src='Fruit/bananas.png'><br><font class='baseline'><strong>Banana Bonanza</strong><p>Choose number of points to bet.</font><div class='respPicDiv'><img src='img/responseButtonOffersNo0L3.png' class='respPic'></div></div>","null","8","Banana Bonanza","Fruit/bananas.png","Won","0.65,0.2","8","0.65","127","24","",""
"","","","feedback","632aaef27780d596dc7e0a9f","bdp_rwlrn","Fri Mar 10 2023 20:38:54 GMT-0600 (Central Standard Time)","667598","Untrustworthy,Trustworthy","html-keyboard-response","82","350448","0.0-11.0-3.23","","null","","<div class='respPicDiv'><img src='img/responseButtonOffersNo0_wht.png' class='respPic'></div><div class='trialDiv'><img src='Fruit/bananas.png'><br><font class='baseline'><strong>Banana Bonanza</strong><p><strong><font class='posOutcome'>You WON</font><p>You bet: 3</strong></font> &nbsp; &nbsp; &nbsp; &nbsp; &nbsp; &nbsp;<font class='posOutcome'>you receive: <strong>6</strong></font></div>","null","8","Banana Bonanza","Fruit/bananas.png","Won","0.65,0.2","8","0.65","133","24","",""
"","","","decision","632aaef27780d596dc7e0a9f","bdp_rwlrn","Fri Mar 10 2023 20:38:54 GMT-0600 (Central Standard Time)","667598","Untrustworthy,Trustworthy","html-keyboard-response","83","351650","0.0-11.0-1.24","","1200","","<div class='trialDiv'><img src='Fruit/plums1.png'><br><font class='baseline'><strong>Plum Powerball</strong><p>Choose number of points to bet.</font><div class='respPicDiv'><img src='img/responseButtonOffersNo0L.png' class='respPic'></div></div>","5","9","Plum Powerball","Fruit/plums1.png","Lost","0.8,0.2","9","0.8","138","25","",""
"","","","decisionFB","632aaef27780d596dc7e0a9f","bdp_rwlrn","Fri Mar 10 2023 20:38:54 GMT-0600 (Central Standard Time)","667598","Untrustworthy,Trustworthy","html-keyboard-response","84","351907","0.0-11.0-2.24","","null","","<div class='trialDiv'><img src='Fruit/plums1.png'><br><font class='baseline'><strong>Plum Powerball</strong><p>Choose number of points to bet.</font><div class='respPicDiv'><img src='img/responseButtonOffersNo0L5.png' class='respPic'></div></div>","null","9","Plum Powerball","Fruit/plums1.png","Lost","0.8,0.2","9","0.8","133","25","",""
"","","","feedback","632aaef27780d596dc7e0a9f","bdp_rwlrn","Fri Mar 10 2023 20:38:54 GMT-0600 (Central Standard Time)","667598","Untrustworthy,Trustworthy","html-keyboard-response","85","352914","0.0-11.0-3.24","","null","","<div class='respPicDiv'><img src='img/responseButtonOffersNo0_wht.png' class='respPic'></div><div class='trialDiv'><img src='Fruit/plums1.png'><br><font class='baseline'><strong>Plum Powerball</strong><p><strong><font class='negOutcome'>You LOST</font><p>You bet: 5</strong></font> &nbsp; &nbsp; &nbsp; &nbsp; &nbsp; &nbsp;<font class='negOutcome'>You receive: <strong>0</strong></font></div>","null","9","Plum Powerball","Fruit/plums1.png","Lost","0.8,0.2","9","0.8","133","25","",""
"","","","decision","632aaef27780d596dc7e0a9f","bdp_rwlrn","Fri Mar 10 2023 20:38:54 GMT-0600 (Central Standard Time)","667598","Untrustworthy,Trustworthy","html-keyboard-response","86","353970","0.0-11.0-1.25","","1055","","<div class='trialDiv'><img src='Fruit/bananas.png'><br><font class='baseline'><strong>Banana Bonanza</strong><p>Choose number of points to bet.</font><div class='respPicDiv'><img src='img/responseButtonOffersNo0L.png' class='respPic'></div></div>","5","9","Banana Bonanza","Fruit/bananas.png","Won","0.65,0.2","8","0.65","138","26","",""
"","","","decisionFB","632aaef27780d596dc7e0a9f","bdp_rwlrn","Fri Mar 10 2023 20:38:54 GMT-0600 (Central Standard Time)","667598","Untrustworthy,Trustworthy","html-keyboard-response","87","354229","0.0-11.0-2.25","","null","","<div class='trialDiv'><img src='Fruit/bananas.png'><br><font class='baseline'><strong>Banana Bonanza</strong><p>Choose number of points to bet.</font><div class='respPicDiv'><img src='img/responseButtonOffersNo0L5.png' class='respPic'></div></div>","null","9","Banana Bonanza","Fruit/bananas.png","Won","0.65,0.2","8","0.65","133","26","",""
"","","","feedback","632aaef27780d596dc7e0a9f","bdp_rwlrn","Fri Mar 10 2023 20:38:54 GMT-0600 (Central Standard Time)","667598","Untrustworthy,Trustworthy","html-keyboard-response","88","355240","0.0-11.0-3.25","","null","","<div class='respPicDiv'><img src='img/responseButtonOffersNo0_wht.png' class='respPic'></div><div class='trialDiv'><img src='Fruit/bananas.png'><br><font class='baseline'><strong>Banana Bonanza</strong><p><strong><font class='posOutcome'>You WON</font><p>You bet: 5</strong></font> &nbsp; &nbsp; &nbsp; &nbsp; &nbsp; &nbsp;<font class='posOutcome'>you receive: <strong>10</strong></font></div>","null","9","Banana Bonanza","Fruit/bananas.png","Won","0.65,0.2","8","0.65","143","26","",""
"","","","decision","632aaef27780d596dc7e0a9f","bdp_rwlrn","Fri Mar 10 2023 20:38:54 GMT-0600 (Central Standard Time)","667598","Untrustworthy,Trustworthy","html-keyboard-response","89","356338","0.0-11.0-1.26","","1097","","<div class='trialDiv'><img src='Fruit/papayas.png'><br><font class='baseline'><strong>Papaya Payday</strong><p>Choose number of points to bet.</font><div class='respPicDiv'><img src='img/responseButtonOffersNo0L.png' class='respPic'></div></div>","1","9","Papaya Payday","Fruit/papayas.png","Lost","0.2,0.65","13","0.2","148","27","",""
"","","","decisionFB","632aaef27780d596dc7e0a9f","bdp_rwlrn","Fri Mar 10 2023 20:38:54 GMT-0600 (Central Standard Time)","667598","Untrustworthy,Trustworthy","html-keyboard-response","90","356602","0.0-11.0-2.26","","null","","<div class='trialDiv'><img src='Fruit/papayas.png'><br><font class='baseline'><strong>Papaya Payday</strong><p>Choose number of points to bet.</font><div class='respPicDiv'><img src='img/responseButtonOffersNo0L1.png' class='respPic'></div></div>","null","9","Papaya Payday","Fruit/papayas.png","Lost","0.2,0.65","13","0.2","147","27","",""
"","","","feedback","632aaef27780d596dc7e0a9f","bdp_rwlrn","Fri Mar 10 2023 20:38:54 GMT-0600 (Central Standard Time)","667598","Untrustworthy,Trustworthy","html-keyboard-response","91","357617","0.0-11.0-3.26","","null","","<div class='respPicDiv'><img src='img/responseButtonOffersNo0_wht.png' class='respPic'></div><div class='trialDiv'><img src='Fruit/papayas.png'><br><font class='baseline'><strong>Papaya Payday</strong><p><strong><font class='negOutcome'>You LOST</font><p>You bet: 1</strong></font> &nbsp; &nbsp; &nbsp; &nbsp; &nbsp; &nbsp;<font class='negOutcome'>You receive: <strong>0</strong></font></div>","null","9","Papaya Payday","Fruit/papayas.png","Lost","0.2,0.65","13","0.2","147","27","",""
"","","","decision","632aaef27780d596dc7e0a9f","bdp_rwlrn","Fri Mar 10 2023 20:38:54 GMT-0600 (Central Standard Time)","667598","Untrustworthy,Trustworthy","html-keyboard-response","92","359491","0.0-11.0-1.27","","1871","","<div class='trialDiv'><img src='Fruit/plums1.png'><br><font class='baseline'><strong>Plum Powerball</strong><p>Choose number of points to bet.</font><div class='respPicDiv'><img src='img/responseButtonOffersNo0L.png' class='respPic'></div></div>","3","10","Plum Powerball","Fruit/plums1.png","Lost","0.8,0.2","9","0.8","152","28","",""
"","","","decisionFB","632aaef27780d596dc7e0a9f","bdp_rwlrn","Fri Mar 10 2023 20:38:54 GMT-0600 (Central Standard Time)","667598","Untrustworthy,Trustworthy","html-keyboard-response","93","359750","0.0-11.0-2.27","","null","","<div class='trialDiv'><img src='Fruit/plums1.png'><br><font class='baseline'><strong>Plum Powerball</strong><p>Choose number of points to bet.</font><div class='respPicDiv'><img src='img/responseButtonOffersNo0L3.png' class='respPic'></div></div>","null","10","Plum Powerball","Fruit/plums1.png","Lost","0.8,0.2","9","0.8","149","28","",""
"","","","feedback","632aaef27780d596dc7e0a9f","bdp_rwlrn","Fri Mar 10 2023 20:38:54 GMT-0600 (Central Standard Time)","667598","Untrustworthy,Trustworthy","html-keyboard-response","94","360758","0.0-11.0-3.27","","null","","<div class='respPicDiv'><img src='img/responseButtonOffersNo0_wht.png' class='respPic'></div><div class='trialDiv'><img src='Fruit/plums1.png'><br><font class='baseline'><strong>Plum Powerball</strong><p><strong><font class='negOutcome'>You LOST</font><p>You bet: 3</strong></font> &nbsp; &nbsp; &nbsp; &nbsp; &nbsp; &nbsp;<font class='negOutcome'>You receive: <strong>0</strong></font></div>","null","10","Plum Powerball","Fruit/plums1.png","Lost","0.8,0.2","9","0.8","149","28","",""
"","","","decision","632aaef27780d596dc7e0a9f","bdp_rwlrn","Fri Mar 10 2023 20:38:54 GMT-0600 (Central Standard Time)","667598","Untrustworthy,Trustworthy","html-keyboard-response","95","361875","0.0-11.0-1.28","","1113","","<div class='trialDiv'><img src='Fruit/papayas.png'><br><font class='baseline'><strong>Papaya Payday</strong><p>Choose number of points to bet.</font><div class='respPicDiv'><img src='img/responseButtonOffersNo0L.png' class='respPic'></div></div>","1","10","Papaya Payday","Fruit/papayas.png","Lost","0.2,0.65","13","0.2","154","29","",""
"","","","decisionFB","632aaef27780d596dc7e0a9f","bdp_rwlrn","Fri Mar 10 2023 20:38:54 GMT-0600 (Central Standard Time)","667598","Untrustworthy,Trustworthy","html-keyboard-response","96","362137","0.0-11.0-2.28","","null","","<div class='trialDiv'><img src='Fruit/papayas.png'><br><font class='baseline'><strong>Papaya Payday</strong><p>Choose number of points to bet.</font><div class='respPicDiv'><img src='img/responseButtonOffersNo0L1.png' class='respPic'></div></div>","null","10","Papaya Payday","Fruit/papayas.png","Lost","0.2,0.65","13","0.2","153","29","",""
"","","","feedback","632aaef27780d596dc7e0a9f","bdp_rwlrn","Fri Mar 10 2023 20:38:54 GMT-0600 (Central Standard Time)","667598","Untrustworthy,Trustworthy","html-keyboard-response","97","363145","0.0-11.0-3.28","","null","","<div class='respPicDiv'><img src='img/responseButtonOffersNo0_wht.png' class='respPic'></div><div class='trialDiv'><img src='Fruit/papayas.png'><br><font class='baseline'><strong>Papaya Payday</strong><p><strong><font class='negOutcome'>You LOST</font><p>You bet: 1</strong></font> &nbsp; &nbsp; &nbsp; &nbsp; &nbsp; &nbsp;<font class='negOutcome'>You receive: <strong>0</strong></font></div>","null","10","Papaya Payday","Fruit/papayas.png","Lost","0.2,0.65","13","0.2","153","29","",""
"","","","decision","632aaef27780d596dc7e0a9f","bdp_rwlrn","Fri Mar 10 2023 20:38:54 GMT-0600 (Central Standard Time)","667598","Untrustworthy,Trustworthy","html-keyboard-response","98","364690","0.0-11.0-1.29","","1543","","<div class='trialDiv'><img src='Fruit/bananas.png'><br><font class='baseline'><strong>Banana Bonanza</strong><p>Choose number of points to bet.</font><div class='respPicDiv'><img src='img/responseButtonOffersNo0L.png' class='respPic'></div></div>","2","10","Banana Bonanza","Fruit/bananas.png","Won","0.65,0.2","8","0.65","158","30","",""
"","","","decisionFB","632aaef27780d596dc7e0a9f","bdp_rwlrn","Fri Mar 10 2023 20:38:54 GMT-0600 (Central Standard Time)","667598","Untrustworthy,Trustworthy","html-keyboard-response","99","364944","0.0-11.0-2.29","","null","","<div class='trialDiv'><img src='Fruit/bananas.png'><br><font class='baseline'><strong>Banana Bonanza</strong><p>Choose number of points to bet.</font><div class='respPicDiv'><img src='img/responseButtonOffersNo0L2.png' class='respPic'></div></div>","null","10","Banana Bonanza","Fruit/bananas.png","Won","0.65,0.2","8","0.65","156","30","",""
"","","","feedback","632aaef27780d596dc7e0a9f","bdp_rwlrn","Fri Mar 10 2023 20:38:54 GMT-0600 (Central Standard Time)","667598","Untrustworthy,Trustworthy","html-keyboard-response","100","365948","0.0-11.0-3.29","","null","","<div class='respPicDiv'><img src='img/responseButtonOffersNo0_wht.png' class='respPic'></div><div class='trialDiv'><img src='Fruit/bananas.png'><br><font class='baseline'><strong>Banana Bonanza</strong><p><strong><font class='posOutcome'>You WON</font><p>You bet: 2</strong></font> &nbsp; &nbsp; &nbsp; &nbsp; &nbsp; &nbsp;<font class='posOutcome'>you receive: <strong>4</strong></font></div>","null","10","Banana Bonanza","Fruit/bananas.png","Won","0.65,0.2","8","0.65","160","30","",""
"","","","decision","632aaef27780d596dc7e0a9f","bdp_rwlrn","Fri Mar 10 2023 20:38:54 GMT-0600 (Central Standard Time)","667598","Untrustworthy,Trustworthy","html-keyboard-response","101","366834","0.0-11.0-1.30","","885","","<div class='trialDiv'><img src='Fruit/papayas.png'><br><font class='baseline'><strong>Papaya Payday</strong><p>Choose number of points to bet.</font><div class='respPicDiv'><img src='img/responseButtonOffersNo0L.png' class='respPic'></div></div>","1","11","Papaya Payday","Fruit/papayas.png","Lost","0.2,0.65","13","0.2","165","31","",""
"","","","decisionFB","632aaef27780d596dc7e0a9f","bdp_rwlrn","Fri Mar 10 2023 20:38:54 GMT-0600 (Central Standard Time)","667598","Untrustworthy,Trustworthy","html-keyboard-response","102","367100","0.0-11.0-2.30","","null","","<div class='trialDiv'><img src='Fruit/papayas.png'><br><font class='baseline'><strong>Papaya Payday</strong><p>Choose number of points to bet.</font><div class='respPicDiv'><img src='img/responseButtonOffersNo0L1.png' class='respPic'></div></div>","null","11","Papaya Payday","Fruit/papayas.png","Lost","0.2,0.65","13","0.2","164","31","",""
"","","","feedback","632aaef27780d596dc7e0a9f","bdp_rwlrn","Fri Mar 10 2023 20:38:54 GMT-0600 (Central Standard Time)","667598","Untrustworthy,Trustworthy","html-keyboard-response","103","368116","0.0-11.0-3.30","","null","","<div class='respPicDiv'><img src='img/responseButtonOffersNo0_wht.png' class='respPic'></div><div class='trialDiv'><img src='Fruit/papayas.png'><br><font class='baseline'><strong>Papaya Payday</strong><p><strong><font class='negOutcome'>You LOST</font><p>You bet: 1</strong></font> &nbsp; &nbsp; &nbsp; &nbsp; &nbsp; &nbsp;<font class='negOutcome'>You receive: <strong>0</strong></font></div>","null","11","Papaya Payday","Fruit/papayas.png","Lost","0.2,0.65","13","0.2","164","31","",""
"","","","decision","632aaef27780d596dc7e0a9f","bdp_rwlrn","Fri Mar 10 2023 20:38:54 GMT-0600 (Central Standard Time)","667598","Untrustworthy,Trustworthy","html-keyboard-response","104","370403","0.0-11.0-1.31","","2285","","<div class='trialDiv'><img src='Fruit/bananas.png'><br><font class='baseline'><strong>Banana Bonanza</strong><p>Choose number of points to bet.</font><div class='respPicDiv'><img src='img/responseButtonOffersNo0L.png' class='respPic'></div></div>","2","11","Banana Bonanza","Fruit/bananas.png","Lost","0.65,0.2","8","0.65","169","32","",""
"","","","decisionFB","632aaef27780d596dc7e0a9f","bdp_rwlrn","Fri Mar 10 2023 20:38:54 GMT-0600 (Central Standard Time)","667598","Untrustworthy,Trustworthy","html-keyboard-response","105","370665","0.0-11.0-2.31","","null","","<div class='trialDiv'><img src='Fruit/bananas.png'><br><font class='baseline'><strong>Banana Bonanza</strong><p>Choose number of points to bet.</font><div class='respPicDiv'><img src='img/responseButtonOffersNo0L2.png' class='respPic'></div></div>","null","11","Banana Bonanza","Fruit/bananas.png","Lost","0.65,0.2","8","0.65","167","32","",""
"","","","feedback","632aaef27780d596dc7e0a9f","bdp_rwlrn","Fri Mar 10 2023 20:38:54 GMT-0600 (Central Standard Time)","667598","Untrustworthy,Trustworthy","html-keyboard-response","106","371677","0.0-11.0-3.31","","null","","<div class='respPicDiv'><img src='img/responseButtonOffersNo0_wht.png' class='respPic'></div><div class='trialDiv'><img src='Fruit/bananas.png'><br><font class='baseline'><strong>Banana Bonanza</strong><p><strong><font class='negOutcome'>You LOST</font><p>You bet: 2</strong></font> &nbsp; &nbsp; &nbsp; &nbsp; &nbsp; &nbsp;<font class='negOutcome'>You receive: <strong>0</strong></font></div>","null","11","Banana Bonanza","Fruit/bananas.png","Lost","0.65,0.2","8","0.65","167","32","",""
"","","","decision","632aaef27780d596dc7e0a9f","bdp_rwlrn","Fri Mar 10 2023 20:38:54 GMT-0600 (Central Standard Time)","667598","Untrustworthy,Trustworthy","html-keyboard-response","107","372867","0.0-11.0-1.32","","1188","","<div class='trialDiv'><img src='Fruit/plums1.png'><br><font class='baseline'><strong>Plum Powerball</strong><p>Choose number of points to bet.</font><div class='respPicDiv'><img src='img/responseButtonOffersNo0L.png' class='respPic'></div></div>","5","11","Plum Powerball","Fruit/plums1.png","Won","0.8,0.2","9","0.8","172","33","",""
"","","","decisionFB","632aaef27780d596dc7e0a9f","bdp_rwlrn","Fri Mar 10 2023 20:38:54 GMT-0600 (Central Standard Time)","667598","Untrustworthy,Trustworthy","html-keyboard-response","108","373126","0.0-11.0-2.32","","null","","<div class='trialDiv'><img src='Fruit/plums1.png'><br><font class='baseline'><strong>Plum Powerball</strong><p>Choose number of points to bet.</font><div class='respPicDiv'><img src='img/responseButtonOffersNo0L5.png' class='respPic'></div></div>","null","11","Plum Powerball","Fruit/plums1.png","Won","0.8,0.2","9","0.8","167","33","",""
"","","","feedback","632aaef27780d596dc7e0a9f","bdp_rwlrn","Fri Mar 10 2023 20:38:54 GMT-0600 (Central Standard Time)","667598","Untrustworthy,Trustworthy","html-keyboard-response","109","374135","0.0-11.0-3.32","","null","","<div class='respPicDiv'><img src='img/responseButtonOffersNo0_wht.png' class='respPic'></div><div class='trialDiv'><img src='Fruit/plums1.png'><br><font class='baseline'><strong>Plum Powerball</strong><p><strong><font class='posOutcome'>You WON</font><p>You bet: 5</strong></font> &nbsp; &nbsp; &nbsp; &nbsp; &nbsp; &nbsp;<font class='posOutcome'>you receive: <strong>10</strong></font></div>","null","11","Plum Powerball","Fruit/plums1.png","Won","0.8,0.2","9","0.8","177","33","",""
"","","","decision","632aaef27780d596dc7e0a9f","bdp_rwlrn","Fri Mar 10 2023 20:38:54 GMT-0600 (Central Standard Time)","667598","Untrustworthy,Trustworthy","html-keyboard-response","110","376425","0.0-11.0-1.33","","2288","","<div class='trialDiv'><img src='Fruit/bananas.png'><br><font class='baseline'><strong>Banana Bonanza</strong><p>Choose number of points to bet.</font><div class='respPicDiv'><img src='img/responseButtonOffersNo0L.png' class='respPic'></div></div>","2","12","Banana Bonanza","Fruit/bananas.png","Lost","0.65,0.2","8","0.65","182","34","",""
"","","","decisionFB","632aaef27780d596dc7e0a9f","bdp_rwlrn","Fri Mar 10 2023 20:38:54 GMT-0600 (Central Standard Time)","667598","Untrustworthy,Trustworthy","html-keyboard-response","111","376689","0.0-11.0-2.33","","null","","<div class='trialDiv'><img src='Fruit/bananas.png'><br><font class='baseline'><strong>Banana Bonanza</strong><p>Choose number of points to bet.</font><div class='respPicDiv'><img src='img/responseButtonOffersNo0L2.png' class='respPic'></div></div>","null","12","Banana Bonanza","Fruit/bananas.png","Lost","0.65,0.2","8","0.65","180","34","",""
"","","","feedback","632aaef27780d596dc7e0a9f","bdp_rwlrn","Fri Mar 10 2023 20:38:54 GMT-0600 (Central Standard Time)","667598","Untrustworthy,Trustworthy","html-keyboard-response","112","377700","0.0-11.0-3.33","","null","","<div class='respPicDiv'><img src='img/responseButtonOffersNo0_wht.png' class='respPic'></div><div class='trialDiv'><img src='Fruit/bananas.png'><br><font class='baseline'><strong>Banana Bonanza</strong><p><strong><font class='negOutcome'>You LOST</font><p>You bet: 2</strong></font> &nbsp; &nbsp; &nbsp; &nbsp; &nbsp; &nbsp;<font class='negOutcome'>You receive: <strong>0</strong></font></div>","null","12","Banana Bonanza","Fruit/bananas.png","Lost","0.65,0.2","8","0.65","180","34","",""
"","","","decision","632aaef27780d596dc7e0a9f","bdp_rwlrn","Fri Mar 10 2023 20:38:54 GMT-0600 (Central Standard Time)","667598","Untrustworthy,Trustworthy","html-keyboard-response","113","379594","0.0-11.0-1.34","","1893","","<div class='trialDiv'><img src='Fruit/papayas.png'><br><font class='baseline'><strong>Papaya Payday</strong><p>Choose number of points to bet.</font><div class='respPicDiv'><img src='img/responseButtonOffersNo0L.png' class='respPic'></div></div>","3","12","Papaya Payday","Fruit/papayas.png","Lost","0.2,0.65","13","0.2","185","35","",""
"","","","decisionFB","632aaef27780d596dc7e0a9f","bdp_rwlrn","Fri Mar 10 2023 20:38:54 GMT-0600 (Central Standard Time)","667598","Untrustworthy,Trustworthy","html-keyboard-response","114","379855","0.0-11.0-2.34","","null","","<div class='trialDiv'><img src='Fruit/papayas.png'><br><font class='baseline'><strong>Papaya Payday</strong><p>Choose number of points to bet.</font><div class='respPicDiv'><img src='img/responseButtonOffersNo0L3.png' class='respPic'></div></div>","null","12","Papaya Payday","Fruit/papayas.png","Lost","0.2,0.65","13","0.2","182","35","",""
"","","","feedback","632aaef27780d596dc7e0a9f","bdp_rwlrn","Fri Mar 10 2023 20:38:54 GMT-0600 (Central Standard Time)","667598","Untrustworthy,Trustworthy","html-keyboard-response","115","380860","0.0-11.0-3.34","","null","","<div class='respPicDiv'><img src='img/responseButtonOffersNo0_wht.png' class='respPic'></div><div class='trialDiv'><img src='Fruit/papayas.png'><br><font class='baseline'><strong>Papaya Payday</strong><p><strong><font class='negOutcome'>You LOST</font><p>You bet: 3</strong></font> &nbsp; &nbsp; &nbsp; &nbsp; &nbsp; &nbsp;<font class='negOutcome'>You receive: <strong>0</strong></font></div>","null","12","Papaya Payday","Fruit/papayas.png","Lost","0.2,0.65","13","0.2","182","35","",""
"","","","decision","632aaef27780d596dc7e0a9f","bdp_rwlrn","Fri Mar 10 2023 20:38:54 GMT-0600 (Central Standard Time)","667598","Untrustworthy,Trustworthy","html-keyboard-response","116","382226","0.0-11.0-1.35","","1364","","<div class='trialDiv'><img src='Fruit/plums1.png'><br><font class='baseline'><strong>Plum Powerball</strong><p>Choose number of points to bet.</font><div class='respPicDiv'><img src='img/responseButtonOffersNo0L.png' class='respPic'></div></div>","3","12","Plum Powerball","Fruit/plums1.png","Won","0.8,0.2","9","0.8","187","36","",""
"","","","decisionFB","632aaef27780d596dc7e0a9f","bdp_rwlrn","Fri Mar 10 2023 20:38:54 GMT-0600 (Central Standard Time)","667598","Untrustworthy,Trustworthy","html-keyboard-response","117","382488","0.0-11.0-2.35","","null","","<div class='trialDiv'><img src='Fruit/plums1.png'><br><font class='baseline'><strong>Plum Powerball</strong><p>Choose number of points to bet.</font><div class='respPicDiv'><img src='img/responseButtonOffersNo0L3.png' class='respPic'></div></div>","null","12","Plum Powerball","Fruit/plums1.png","Won","0.8,0.2","9","0.8","184","36","",""
"","","","feedback","632aaef27780d596dc7e0a9f","bdp_rwlrn","Fri Mar 10 2023 20:38:54 GMT-0600 (Central Standard Time)","667598","Untrustworthy,Trustworthy","html-keyboard-response","118","383495","0.0-11.0-3.35","","null","","<div class='respPicDiv'><img src='img/responseButtonOffersNo0_wht.png' class='respPic'></div><div class='trialDiv'><img src='Fruit/plums1.png'><br><font class='baseline'><strong>Plum Powerball</strong><p><strong><font class='posOutcome'>You WON</font><p>You bet: 3</strong></font> &nbsp; &nbsp; &nbsp; &nbsp; &nbsp; &nbsp;<font class='posOutcome'>you receive: <strong>6</strong></font></div>","null","12","Plum Powerball","Fruit/plums1.png","Won","0.8,0.2","9","0.8","190","36","",""
"","","","decision","632aaef27780d596dc7e0a9f","bdp_rwlrn","Fri Mar 10 2023 20:38:54 GMT-0600 (Central Standard Time)","667598","Untrustworthy,Trustworthy","html-keyboard-response","119","385698","0.0-11.0-1.36","","2202","","<div class='trialDiv'><img src='Fruit/papayas.png'><br><font class='baseline'><strong>Papaya Payday</strong><p>Choose number of points to bet.</font><div class='respPicDiv'><img src='img/responseButtonOffersNo0L.png' class='respPic'></div></div>","1","13","Papaya Payday","Fruit/papayas.png","Won","0.2,0.65","13","0.2","195","37","",""
"","","","decisionFB","632aaef27780d596dc7e0a9f","bdp_rwlrn","Fri Mar 10 2023 20:38:54 GMT-0600 (Central Standard Time)","667598","Untrustworthy,Trustworthy","html-keyboard-response","120","385953","0.0-11.0-2.36","","null","","<div class='trialDiv'><img src='Fruit/papayas.png'><br><font class='baseline'><strong>Papaya Payday</strong><p>Choose number of points to bet.</font><div class='respPicDiv'><img src='img/responseButtonOffersNo0L1.png' class='respPic'></div></div>","null","13","Papaya Payday","Fruit/papayas.png","Won","0.2,0.65","13","0.2","194","37","",""
"","","","feedback","632aaef27780d596dc7e0a9f","bdp_rwlrn","Fri Mar 10 2023 20:38:54 GMT-0600 (Central Standard Time)","667598","Untrustworthy,Trustworthy","html-keyboard-response","121","386963","0.0-11.0-3.36","","null","","<div class='respPicDiv'><img src='img/responseButtonOffersNo0_wht.png' class='respPic'></div><div class='trialDiv'><img src='Fruit/papayas.png'><br><font class='baseline'><strong>Papaya Payday</strong><p><strong><font class='posOutcome'>You WON</font><p>You bet: 1</strong></font> &nbsp; &nbsp; &nbsp; &nbsp; &nbsp; &nbsp;<font class='posOutcome'>you receive: <strong>2</strong></font></div>","null","13","Papaya Payday","Fruit/papayas.png","Won","0.2,0.65","13","0.2","196","37","",""
"","","","decision","632aaef27780d596dc7e0a9f","bdp_rwlrn","Fri Mar 10 2023 20:38:54 GMT-0600 (Central Standard Time)","667598","Untrustworthy,Trustworthy","html-keyboard-response","122","388154","0.0-11.0-1.37","","1190","","<div class='trialDiv'><img src='Fruit/plums1.png'><br><font class='baseline'><strong>Plum Powerball</strong><p>Choose number of points to bet.</font><div class='respPicDiv'><img src='img/responseButtonOffersNo0L.png' class='respPic'></div></div>","3","13","Plum Powerball","Fruit/plums1.png","Won","0.8,0.2","9","0.8","201","38","",""
"","","","decisionFB","632aaef27780d596dc7e0a9f","bdp_rwlrn","Fri Mar 10 2023 20:38:54 GMT-0600 (Central Standard Time)","667598","Untrustworthy,Trustworthy","html-keyboard-response","123","388419","0.0-11.0-2.37","","null","","<div class='trialDiv'><img src='Fruit/plums1.png'><br><font class='baseline'><strong>Plum Powerball</strong><p>Choose number of points to bet.</font><div class='respPicDiv'><img src='img/responseButtonOffersNo0L3.png' class='respPic'></div></div>","null","13","Plum Powerball","Fruit/plums1.png","Won","0.8,0.2","9","0.8","198","38","",""
"","","","feedback","632aaef27780d596dc7e0a9f","bdp_rwlrn","Fri Mar 10 2023 20:38:54 GMT-0600 (Central Standard Time)","667598","Untrustworthy,Trustworthy","html-keyboard-response","124","389425","0.0-11.0-3.37","","null","","<div class='respPicDiv'><img src='img/responseButtonOffersNo0_wht.png' class='respPic'></div><div class='trialDiv'><img src='Fruit/plums1.png'><br><font class='baseline'><strong>Plum Powerball</strong><p><strong><font class='posOutcome'>You WON</font><p>You bet: 3</strong></font> &nbsp; &nbsp; &nbsp; &nbsp; &nbsp; &nbsp;<font class='posOutcome'>you receive: <strong>6</strong></font></div>","null","13","Plum Powerball","Fruit/plums1.png","Won","0.8,0.2","9","0.8","204","38","",""
"","","","decision","632aaef27780d596dc7e0a9f","bdp_rwlrn","Fri Mar 10 2023 20:38:54 GMT-0600 (Central Standard Time)","667598","Untrustworthy,Trustworthy","html-keyboard-response","125","390178","0.0-11.0-1.38","","751","","<div class='trialDiv'><img src='Fruit/bananas.png'><br><font class='baseline'><strong>Banana Bonanza</strong><p>Choose number of points to bet.</font><div class='respPicDiv'><img src='img/responseButtonOffersNo0L.png' class='respPic'></div></div>","1","13","Banana Bonanza","Fruit/bananas.png","Lost","0.65,0.2","8","0.65","209","39","",""
"","","","decisionFB","632aaef27780d596dc7e0a9f","bdp_rwlrn","Fri Mar 10 2023 20:38:54 GMT-0600 (Central Standard Time)","667598","Untrustworthy,Trustworthy","html-keyboard-response","126","390431","0.0-11.0-2.38","","null","","<div class='trialDiv'><img src='Fruit/bananas.png'><br><font class='baseline'><strong>Banana Bonanza</strong><p>Choose number of points to bet.</font><div class='respPicDiv'><img src='img/responseButtonOffersNo0L1.png' class='respPic'></div></div>","null","13","Banana Bonanza","Fruit/bananas.png","Lost","0.65,0.2","8","0.65","208","39","",""
"","","","feedback","632aaef27780d596dc7e0a9f","bdp_rwlrn","Fri Mar 10 2023 20:38:54 GMT-0600 (Central Standard Time)","667598","Untrustworthy,Trustworthy","html-keyboard-response","127","391437","0.0-11.0-3.38","","null","","<div class='respPicDiv'><img src='img/responseButtonOffersNo0_wht.png' class='respPic'></div><div class='trialDiv'><img src='Fruit/bananas.png'><br><font class='baseline'><strong>Banana Bonanza</strong><p><strong><font class='negOutcome'>You LOST</font><p>You bet: 1</strong></font> &nbsp; &nbsp; &nbsp; &nbsp; &nbsp; &nbsp;<font class='negOutcome'>You receive: <strong>0</strong></font></div>","null","13","Banana Bonanza","Fruit/bananas.png","Lost","0.65,0.2","8","0.65","208","39","",""
"","","","decision","632aaef27780d596dc7e0a9f","bdp_rwlrn","Fri Mar 10 2023 20:38:54 GMT-0600 (Central Standard Time)","667598","Untrustworthy,Trustworthy","html-keyboard-response","128","392874","0.0-11.0-1.39","","1436","","<div class='trialDiv'><img src='Fruit/papayas.png'><br><font class='baseline'><strong>Papaya Payday</strong><p>Choose number of points to bet.</font><div class='respPicDiv'><img src='img/responseButtonOffersNo0L.png' class='respPic'></div></div>","3","14","Papaya Payday","Fruit/papayas.png","Won","0.2,0.65","13","0.2","213","40","",""
"","","","decisionFB","632aaef27780d596dc7e0a9f","bdp_rwlrn","Fri Mar 10 2023 20:38:54 GMT-0600 (Central Standard Time)","667598","Untrustworthy,Trustworthy","html-keyboard-response","129","393126","0.0-11.0-2.39","","null","","<div class='trialDiv'><img src='Fruit/papayas.png'><br><font class='baseline'><strong>Papaya Payday</strong><p>Choose number of points to bet.</font><div class='respPicDiv'><img src='img/responseButtonOffersNo0L3.png' class='respPic'></div></div>","null","14","Papaya Payday","Fruit/papayas.png","Won","0.2,0.65","13","0.2","210","40","",""
"","","","feedback","632aaef27780d596dc7e0a9f","bdp_rwlrn","Fri Mar 10 2023 20:38:54 GMT-0600 (Central Standard Time)","667598","Untrustworthy,Trustworthy","html-keyboard-response","130","394130","0.0-11.0-3.39","","null","","<div class='respPicDiv'><img src='img/responseButtonOffersNo0_wht.png' class='respPic'></div><div class='trialDiv'><img src='Fruit/papayas.png'><br><font class='baseline'><strong>Papaya Payday</strong><p><strong><font class='posOutcome'>You WON</font><p>You bet: 3</strong></font> &nbsp; &nbsp; &nbsp; &nbsp; &nbsp; &nbsp;<font class='posOutcome'>you receive: <strong>6</strong></font></div>","null","14","Papaya Payday","Fruit/papayas.png","Won","0.2,0.65","13","0.2","216","40","",""
"","","","decision","632aaef27780d596dc7e0a9f","bdp_rwlrn","Fri Mar 10 2023 20:38:54 GMT-0600 (Central Standard Time)","667598","Untrustworthy,Trustworthy","html-keyboard-response","131","395274","0.0-11.0-1.40","","1141","","<div class='trialDiv'><img src='Fruit/bananas.png'><br><font class='baseline'><strong>Banana Bonanza</strong><p>Choose number of points to bet.</font><div class='respPicDiv'><img src='img/responseButtonOffersNo0L.png' class='respPic'></div></div>","1","14","Banana Bonanza","Fruit/bananas.png","Won","0.65,0.2","8","0.65","221","41","",""
"","","","decisionFB","632aaef27780d596dc7e0a9f","bdp_rwlrn","Fri Mar 10 2023 20:38:54 GMT-0600 (Central Standard Time)","667598","Untrustworthy,Trustworthy","html-keyboard-response","132","395539","0.0-11.0-2.40","","null","","<div class='trialDiv'><img src='Fruit/bananas.png'><br><font class='baseline'><strong>Banana Bonanza</strong><p>Choose number of points to bet.</font><div class='respPicDiv'><img src='img/responseButtonOffersNo0L1.png' class='respPic'></div></div>","null","14","Banana Bonanza","Fruit/bananas.png","Won","0.65,0.2","8","0.65","220","41","",""
"","","","feedback","632aaef27780d596dc7e0a9f","bdp_rwlrn","Fri Mar 10 2023 20:38:54 GMT-0600 (Central Standard Time)","667598","Untrustworthy,Trustworthy","html-keyboard-response","133","396546","0.0-11.0-3.40","","null","","<div class='respPicDiv'><img src='img/responseButtonOffersNo0_wht.png' class='respPic'></div><div class='trialDiv'><img src='Fruit/bananas.png'><br><font class='baseline'><strong>Banana Bonanza</strong><p><strong><font class='posOutcome'>You WON</font><p>You bet: 1</strong></font> &nbsp; &nbsp; &nbsp; &nbsp; &nbsp; &nbsp;<font class='posOutcome'>you receive: <strong>2</strong></font></div>","null","14","Banana Bonanza","Fruit/bananas.png","Won","0.65,0.2","8","0.65","222","41","",""
"","","","decision","632aaef27780d596dc7e0a9f","bdp_rwlrn","Fri Mar 10 2023 20:38:54 GMT-0600 (Central Standard Time)","667598","Untrustworthy,Trustworthy","html-keyboard-response","134","397586","0.0-11.0-1.41","","1039","","<div class='trialDiv'><img src='Fruit/plums1.png'><br><font class='baseline'><strong>Plum Powerball</strong><p>Choose number of points to bet.</font><div class='respPicDiv'><img src='img/responseButtonOffersNo0L.png' class='respPic'></div></div>","3","14","Plum Powerball","Fruit/plums1.png","Lost","0.8,0.2","9","0.8","227","42","",""
"","","","decisionFB","632aaef27780d596dc7e0a9f","bdp_rwlrn","Fri Mar 10 2023 20:38:54 GMT-0600 (Central Standard Time)","667598","Untrustworthy,Trustworthy","html-keyboard-response","135","397847","0.0-11.0-2.41","","null","","<div class='trialDiv'><img src='Fruit/plums1.png'><br><font class='baseline'><strong>Plum Powerball</strong><p>Choose number of points to bet.</font><div class='respPicDiv'><img src='img/responseButtonOffersNo0L3.png' class='respPic'></div></div>","null","14","Plum Powerball","Fruit/plums1.png","Lost","0.8,0.2","9","0.8","224","42","",""
"","","","feedback","632aaef27780d596dc7e0a9f","bdp_rwlrn","Fri Mar 10 2023 20:38:54 GMT-0600 (Central Standard Time)","667598","Untrustworthy,Trustworthy","html-keyboard-response","136","398856","0.0-11.0-3.41","","null","","<div class='respPicDiv'><img src='img/responseButtonOffersNo0_wht.png' class='respPic'></div><div class='trialDiv'><img src='Fruit/plums1.png'><br><font class='baseline'><strong>Plum Powerball</strong><p><strong><font class='negOutcome'>You LOST</font><p>You bet: 3</strong></font> &nbsp; &nbsp; &nbsp; &nbsp; &nbsp; &nbsp;<font class='negOutcome'>You receive: <strong>0</strong></font></div>","null","14","Plum Powerball","Fruit/plums1.png","Lost","0.8,0.2","9","0.8","224","42","",""
"","","","decision","632aaef27780d596dc7e0a9f","bdp_rwlrn","Fri Mar 10 2023 20:38:54 GMT-0600 (Central Standard Time)","667598","Untrustworthy,Trustworthy","html-keyboard-response","137","399937","0.0-11.0-1.42","","1079","","<div class='trialDiv'><img src='Fruit/bananas.png'><br><font class='baseline'><strong>Banana Bonanza</strong><p>Choose number of points to bet.</font><div class='respPicDiv'><img src='img/responseButtonOffersNo0L.png' class='respPic'></div></div>","1","15","Banana Bonanza","Fruit/bananas.png","Lost","0.65,0.2","8","0.65","229","43","",""
"","","","decisionFB","632aaef27780d596dc7e0a9f","bdp_rwlrn","Fri Mar 10 2023 20:38:54 GMT-0600 (Central Standard Time)","667598","Untrustworthy,Trustworthy","html-keyboard-response","138","400190","0.0-11.0-2.42","","null","","<div class='trialDiv'><img src='Fruit/bananas.png'><br><font class='baseline'><strong>Banana Bonanza</strong><p>Choose number of points to bet.</font><div class='respPicDiv'><img src='img/responseButtonOffersNo0L1.png' class='respPic'></div></div>","null","15","Banana Bonanza","Fruit/bananas.png","Lost","0.65,0.2","8","0.65","228","43","",""
"","","","feedback","632aaef27780d596dc7e0a9f","bdp_rwlrn","Fri Mar 10 2023 20:38:54 GMT-0600 (Central Standard Time)","667598","Untrustworthy,Trustworthy","html-keyboard-response","139","401197","0.0-11.0-3.42","","null","","<div class='respPicDiv'><img src='img/responseButtonOffersNo0_wht.png' class='respPic'></div><div class='trialDiv'><img src='Fruit/bananas.png'><br><font class='baseline'><strong>Banana Bonanza</strong><p><strong><font class='negOutcome'>You LOST</font><p>You bet: 1</strong></font> &nbsp; &nbsp; &nbsp; &nbsp; &nbsp; &nbsp;<font class='negOutcome'>You receive: <strong>0</strong></font></div>","null","15","Banana Bonanza","Fruit/bananas.png","Lost","0.65,0.2","8","0.65","228","43","",""
"","","","decision","632aaef27780d596dc7e0a9f","bdp_rwlrn","Fri Mar 10 2023 20:38:54 GMT-0600 (Central Standard Time)","667598","Untrustworthy,Trustworthy","html-keyboard-response","140","402433","0.0-11.0-1.43","","1235","","<div class='trialDiv'><img src='Fruit/plums1.png'><br><font class='baseline'><strong>Plum Powerball</strong><p>Choose number of points to bet.</font><div class='respPicDiv'><img src='img/responseButtonOffersNo0L.png' class='respPic'></div></div>","1","15","Plum Powerball","Fruit/plums1.png","Lost","0.8,0.2","9","0.8","233","44","",""
"","","","decisionFB","632aaef27780d596dc7e0a9f","bdp_rwlrn","Fri Mar 10 2023 20:38:54 GMT-0600 (Central Standard Time)","667598","Untrustworthy,Trustworthy","html-keyboard-response","141","402698","0.0-11.0-2.43","","null","","<div class='trialDiv'><img src='Fruit/plums1.png'><br><font class='baseline'><strong>Plum Powerball</strong><p>Choose number of points to bet.</font><div class='respPicDiv'><img src='img/responseButtonOffersNo0L1.png' class='respPic'></div></div>","null","15","Plum Powerball","Fruit/plums1.png","Lost","0.8,0.2","9","0.8","232","44","",""
"","","","feedback","632aaef27780d596dc7e0a9f","bdp_rwlrn","Fri Mar 10 2023 20:38:54 GMT-0600 (Central Standard Time)","667598","Untrustworthy,Trustworthy","html-keyboard-response","142","403705","0.0-11.0-3.43","","null","","<div class='respPicDiv'><img src='img/responseButtonOffersNo0_wht.png' class='respPic'></div><div class='trialDiv'><img src='Fruit/plums1.png'><br><font class='baseline'><strong>Plum Powerball</strong><p><strong><font class='negOutcome'>You LOST</font><p>You bet: 1</strong></font> &nbsp; &nbsp; &nbsp; &nbsp; &nbsp; &nbsp;<font class='negOutcome'>You receive: <strong>0</strong></font></div>","null","15","Plum Powerball","Fruit/plums1.png","Lost","0.8,0.2","9","0.8","232","44","",""
"","","","decision","632aaef27780d596dc7e0a9f","bdp_rwlrn","Fri Mar 10 2023 20:38:54 GMT-0600 (Central Standard Time)","667598","Untrustworthy,Trustworthy","html-keyboard-response","143","404714","0.0-11.0-1.44","","1008","","<div class='trialDiv'><img src='Fruit/papayas.png'><br><font class='baseline'><strong>Papaya Payday</strong><p>Choose number of points to bet.</font><div class='respPicDiv'><img src='img/responseButtonOffersNo0L.png' class='respPic'></div></div>","5","15","Papaya Payday","Fruit/papayas.png","Lost","0.2,0.65","13","0.2","237","45","",""
"","","","decisionFB","632aaef27780d596dc7e0a9f","bdp_rwlrn","Fri Mar 10 2023 20:38:54 GMT-0600 (Central Standard Time)","667598","Untrustworthy,Trustworthy","html-keyboard-response","144","404973","0.0-11.0-2.44","","null","","<div class='trialDiv'><img src='Fruit/papayas.png'><br><font class='baseline'><strong>Papaya Payday</strong><p>Choose number of points to bet.</font><div class='respPicDiv'><img src='img/responseButtonOffersNo0L5.png' class='respPic'></div></div>","null","15","Papaya Payday","Fruit/papayas.png","Lost","0.2,0.65","13","0.2","232","45","",""
"","","","feedback","632aaef27780d596dc7e0a9f","bdp_rwlrn","Fri Mar 10 2023 20:38:54 GMT-0600 (Central Standard Time)","667598","Untrustworthy,Trustworthy","html-keyboard-response","145","405977","0.0-11.0-3.44","","null","","<div class='respPicDiv'><img src='img/responseButtonOffersNo0_wht.png' class='respPic'></div><div class='trialDiv'><img src='Fruit/papayas.png'><br><font class='baseline'><strong>Papaya Payday</strong><p><strong><font class='negOutcome'>You LOST</font><p>You bet: 5</strong></font> &nbsp; &nbsp; &nbsp; &nbsp; &nbsp; &nbsp;<font class='negOutcome'>You receive: <strong>0</strong></font></div>","null","15","Papaya Payday","Fruit/papayas.png","Lost","0.2,0.65","13","0.2","232","45","",""
"","","","decision","632aaef27780d596dc7e0a9f","bdp_rwlrn","Fri Mar 10 2023 20:38:54 GMT-0600 (Central Standard Time)","667598","Untrustworthy,Trustworthy","html-keyboard-response","146","407146","0.0-11.0-1.45","","1167","","<div class='trialDiv'><img src='Fruit/plums1.png'><br><font class='baseline'><strong>Plum Powerball</strong><p>Choose number of points to bet.</font><div class='respPicDiv'><img src='img/responseButtonOffersNo0L.png' class='respPic'></div></div>","5","16","Plum Powerball","Fruit/plums1.png","Lost","0.8,0.2","9","0.8","237","46","",""
"","","","decisionFB","632aaef27780d596dc7e0a9f","bdp_rwlrn","Fri Mar 10 2023 20:38:54 GMT-0600 (Central Standard Time)","667598","Untrustworthy,Trustworthy","html-keyboard-response","147","407412","0.0-11.0-2.45","","null","","<div class='trialDiv'><img src='Fruit/plums1.png'><br><font class='baseline'><strong>Plum Powerball</strong><p>Choose number of points to bet.</font><div class='respPicDiv'><img src='img/responseButtonOffersNo0L5.png' class='respPic'></div></div>","null","16","Plum Powerball","Fruit/plums1.png","Lost","0.8,0.2","9","0.8","232","46","",""
"","","","feedback","632aaef27780d596dc7e0a9f","bdp_rwlrn","Fri Mar 10 2023 20:38:54 GMT-0600 (Central Standard Time)","667598","Untrustworthy,Trustworthy","html-keyboard-response","148","408419","0.0-11.0-3.45","","null","","<div class='respPicDiv'><img src='img/responseButtonOffersNo0_wht.png' class='respPic'></div><div class='trialDiv'><img src='Fruit/plums1.png'><br><font class='baseline'><strong>Plum Powerball</strong><p><strong><font class='negOutcome'>You LOST</font><p>You bet: 5</strong></font> &nbsp; &nbsp; &nbsp; &nbsp; &nbsp; &nbsp;<font class='negOutcome'>You receive: <strong>0</strong></font></div>","null","16","Plum Powerball","Fruit/plums1.png","Lost","0.8,0.2","9","0.8","232","46","",""
"","","","decision","632aaef27780d596dc7e0a9f","bdp_rwlrn","Fri Mar 10 2023 20:38:54 GMT-0600 (Central Standard Time)","667598","Untrustworthy,Trustworthy","html-keyboard-response","149","409282","0.0-11.0-1.46","","862","","<div class='trialDiv'><img src='Fruit/bananas.png'><br><font class='baseline'><strong>Banana Bonanza</strong><p>Choose number of points to bet.</font><div class='respPicDiv'><img src='img/responseButtonOffersNo0L.png' class='respPic'></div></div>","5","16","Banana Bonanza","Fruit/bananas.png","Lost","0.65,0.2","8","0.65","237","47","",""
"","","","decisionFB","632aaef27780d596dc7e0a9f","bdp_rwlrn","Fri Mar 10 2023 20:38:54 GMT-0600 (Central Standard Time)","667598","Untrustworthy,Trustworthy","html-keyboard-response","150","409533","0.0-11.0-2.46","","null","","<div class='trialDiv'><img src='Fruit/bananas.png'><br><font class='baseline'><strong>Banana Bonanza</strong><p>Choose number of points to bet.</font><div class='respPicDiv'><img src='img/responseButtonOffersNo0L5.png' class='respPic'></div></div>","null","16","Banana Bonanza","Fruit/bananas.png","Lost","0.65,0.2","8","0.65","232","47","",""
"","","","feedback","632aaef27780d596dc7e0a9f","bdp_rwlrn","Fri Mar 10 2023 20:38:54 GMT-0600 (Central Standard Time)","667598","Untrustworthy,Trustworthy","html-keyboard-response","151","410540","0.0-11.0-3.46","","null","","<div class='respPicDiv'><img src='img/responseButtonOffersNo0_wht.png' class='respPic'></div><div class='trialDiv'><img src='Fruit/bananas.png'><br><font class='baseline'><strong>Banana Bonanza</strong><p><strong><font class='negOutcome'>You LOST</font><p>You bet: 5</strong></font> &nbsp; &nbsp; &nbsp; &nbsp; &nbsp; &nbsp;<font class='negOutcome'>You receive: <strong>0</strong></font></div>","null","16","Banana Bonanza","Fruit/bananas.png","Lost","0.65,0.2","8","0.65","232","47","",""
"","","","decision","632aaef27780d596dc7e0a9f","bdp_rwlrn","Fri Mar 10 2023 20:38:54 GMT-0600 (Central Standard Time)","667598","Untrustworthy,Trustworthy","html-keyboard-response","152","411297","0.0-11.0-1.47","","756","","<div class='trialDiv'><img src='Fruit/papayas.png'><br><font class='baseline'><strong>Papaya Payday</strong><p>Choose number of points to bet.</font><div class='respPicDiv'><img src='img/responseButtonOffersNo0L.png' class='respPic'></div></div>","5","16","Papaya Payday","Fruit/papayas.png","Won","0.2,0.65","13","0.2","237","48","",""
"","","","decisionFB","632aaef27780d596dc7e0a9f","bdp_rwlrn","Fri Mar 10 2023 20:38:54 GMT-0600 (Central Standard Time)","667598","Untrustworthy,Trustworthy","html-keyboard-response","153","411563","0.0-11.0-2.47","","null","","<div class='trialDiv'><img src='Fruit/papayas.png'><br><font class='baseline'><strong>Papaya Payday</strong><p>Choose number of points to bet.</font><div class='respPicDiv'><img src='img/responseButtonOffersNo0L5.png' class='respPic'></div></div>","null","16","Papaya Payday","Fruit/papayas.png","Won","0.2,0.65","13","0.2","232","48","",""
"","","","feedback","632aaef27780d596dc7e0a9f","bdp_rwlrn","Fri Mar 10 2023 20:38:54 GMT-0600 (Central Standard Time)","667598","Untrustworthy,Trustworthy","html-keyboard-response","154","412565","0.0-11.0-3.47","","null","","<div class='respPicDiv'><img src='img/responseButtonOffersNo0_wht.png' class='respPic'></div><div class='trialDiv'><img src='Fruit/papayas.png'><br><font class='baseline'><strong>Papaya Payday</strong><p><strong><font class='posOutcome'>You WON</font><p>You bet: 5</strong></font> &nbsp; &nbsp; &nbsp; &nbsp; &nbsp; &nbsp;<font class='posOutcome'>you receive: <strong>10</strong></font></div>","null","16","Papaya Payday","Fruit/papayas.png","Won","0.2,0.65","13","0.2","242","48","",""
"","","","decision","632aaef27780d596dc7e0a9f","bdp_rwlrn","Fri Mar 10 2023 20:38:54 GMT-0600 (Central Standard Time)","667598","Untrustworthy,Trustworthy","html-keyboard-response","155","414185","0.0-11.0-1.48","","1618","","<div class='trialDiv'><img src='Fruit/plums1.png'><br><font class='baseline'><strong>Plum Powerball</strong><p>Choose number of points to bet.</font><div class='respPicDiv'><img src='img/responseButtonOffersNo0L.png' class='respPic'></div></div>","2","17","Plum Powerball","Fruit/plums1.png","Lost","0.8,0.2","9","0.8","247","49","",""
"","","","decisionFB","632aaef27780d596dc7e0a9f","bdp_rwlrn","Fri Mar 10 2023 20:38:54 GMT-0600 (Central Standard Time)","667598","Untrustworthy,Trustworthy","html-keyboard-response","156","414442","0.0-11.0-2.48","","null","","<div class='trialDiv'><img src='Fruit/plums1.png'><br><font class='baseline'><strong>Plum Powerball</strong><p>Choose number of points to bet.</font><div class='respPicDiv'><img src='img/responseButtonOffersNo0L2.png' class='respPic'></div></div>","null","17","Plum Powerball","Fruit/plums1.png","Lost","0.8,0.2","9","0.8","245","49","",""
"","","","feedback","632aaef27780d596dc7e0a9f","bdp_rwlrn","Fri Mar 10 2023 20:38:54 GMT-0600 (Central Standard Time)","667598","Untrustworthy,Trustworthy","html-keyboard-response","157","415448","0.0-11.0-3.48","","null","","<div class='respPicDiv'><img src='img/responseButtonOffersNo0_wht.png' class='respPic'></div><div class='trialDiv'><img src='Fruit/plums1.png'><br><font class='baseline'><strong>Plum Powerball</strong><p><strong><font class='negOutcome'>You LOST</font><p>You bet: 2</strong></font> &nbsp; &nbsp; &nbsp; &nbsp; &nbsp; &nbsp;<font class='negOutcome'>You receive: <strong>0</strong></font></div>","null","17","Plum Powerball","Fruit/plums1.png","Lost","0.8,0.2","9","0.8","245","49","",""
"","","","decision","632aaef27780d596dc7e0a9f","bdp_rwlrn","Fri Mar 10 2023 20:38:54 GMT-0600 (Central Standard Time)","667598","Untrustworthy,Trustworthy","html-keyboard-response","158","416706","0.0-11.0-1.49","","1256","","<div class='trialDiv'><img src='Fruit/papayas.png'><br><font class='baseline'><strong>Papaya Payday</strong><p>Choose number of points to bet.</font><div class='respPicDiv'><img src='img/responseButtonOffersNo0L.png' class='respPic'></div></div>","1","17","Papaya Payday","Fruit/papayas.png","Won","0.2,0.65","13","0.2","250","50","",""
"","","","decisionFB","632aaef27780d596dc7e0a9f","bdp_rwlrn","Fri Mar 10 2023 20:38:54 GMT-0600 (Central Standard Time)","667598","Untrustworthy,Trustworthy","html-keyboard-response","159","416963","0.0-11.0-2.49","","null","","<div class='trialDiv'><img src='Fruit/papayas.png'><br><font class='baseline'><strong>Papaya Payday</strong><p>Choose number of points to bet.</font><div class='respPicDiv'><img src='img/responseButtonOffersNo0L1.png' class='respPic'></div></div>","null","17","Papaya Payday","Fruit/papayas.png","Won","0.2,0.65","13","0.2","249","50","",""
"","","","feedback","632aaef27780d596dc7e0a9f","bdp_rwlrn","Fri Mar 10 2023 20:38:54 GMT-0600 (Central Standard Time)","667598","Untrustworthy,Trustworthy","html-keyboard-response","160","417970","0.0-11.0-3.49","","null","","<div class='respPicDiv'><img src='img/responseButtonOffersNo0_wht.png' class='respPic'></div><div class='trialDiv'><img src='Fruit/papayas.png'><br><font class='baseline'><strong>Papaya Payday</strong><p><strong><font class='posOutcome'>You WON</font><p>You bet: 1</strong></font> &nbsp; &nbsp; &nbsp; &nbsp; &nbsp; &nbsp;<font class='posOutcome'>you receive: <strong>2</strong></font></div>","null","17","Papaya Payday","Fruit/papayas.png","Won","0.2,0.65","13","0.2","251","50","",""
"","","","decision","632aaef27780d596dc7e0a9f","bdp_rwlrn","Fri Mar 10 2023 20:38:54 GMT-0600 (Central Standard Time)","667598","Untrustworthy,Trustworthy","html-keyboard-response","161","419585","0.0-11.0-1.50","","1614","","<div class='trialDiv'><img src='Fruit/bananas.png'><br><font class='baseline'><strong>Banana Bonanza</strong><p>Choose number of points to bet.</font><div class='respPicDiv'><img src='img/responseButtonOffersNo0L.png' class='respPic'></div></div>","5","17","Banana Bonanza","Fruit/bananas.png","Lost","0.65,0.2","8","0.65","256","51","",""
"","","","decisionFB","632aaef27780d596dc7e0a9f","bdp_rwlrn","Fri Mar 10 2023 20:38:54 GMT-0600 (Central Standard Time)","667598","Untrustworthy,Trustworthy","html-keyboard-response","162","419846","0.0-11.0-2.50","","null","","<div class='trialDiv'><img src='Fruit/bananas.png'><br><font class='baseline'><strong>Banana Bonanza</strong><p>Choose number of points to bet.</font><div class='respPicDiv'><img src='img/responseButtonOffersNo0L5.png' class='respPic'></div></div>","null","17","Banana Bonanza","Fruit/bananas.png","Lost","0.65,0.2","8","0.65","251","51","",""
