"trial_type","trial_index","time_elapsed","internal_node_id","subject_id","task","startTime","totalTime","labels","view_history","rt","event","trial","time","trialtype","success","stimulus","key_press","ltround","name","fileID","outcome","lottotype","lottoswpt","lottocurrpshare","point_total","round","faceID","face"
"pavlovia","0","4","0.0-0.0","5e87900b524dca41065df104","bdp_rwlrn","Sun Mar 12 2023 23:12:57 GMT-0400 (Eastern Daylight Time)","336545","Trustworthy,Untrustworthy","","","","","","","","","","","","","","","","","","","",""
"instructions","1","3284","0.0-1.0","5e87900b524dca41065df104","bdp_rwlrn","Sun Mar 12 2023 23:12:57 GMT-0400 (Eastern Daylight Time)","336545","Trustworthy,Untrustworthy","[{""page_index"":0,""viewing_time"":3279}]","3279","","","","","","","","","","","","","","","","","",""
"","","","","5e87900b524dca41065df104","bdp_rwlrn","Sun Mar 12 2023 23:12:57 GMT-0400 (Eastern Daylight Time)","336545","Trustworthy,Untrustworthy","","","fullscreenenter","2","6251","fullscreenenter","","","","","","","","","","","","","",""
"fullscreen","2","7184","0.0-2.0","5e87900b524dca41065df104","bdp_rwlrn","Sun Mar 12 2023 23:12:57 GMT-0400 (Eastern Daylight Time)","336545","Trustworthy,Untrustworthy","","","","","","","true","","","","","","","","","","","","",""
"instructions","3","25771","0.0-4.0","5e87900b524dca41065df104","bdp_rwlrn","Sun Mar 12 2023 23:12:57 GMT-0400 (Eastern Daylight Time)","336545","Trustworthy,Untrustworthy","[{""page_index"":0,""viewing_time"":2626},{""page_index"":1,""viewing_time"":2644},{""page_index"":2,""viewing_time"":2795},{""page_index"":3,""viewing_time"":1849},{""page_index"":4,""viewing_time"":6517},{""page_index"":5,""viewing_time"":2155}]","18586","","","","","","","","","","","","","","","","","",""
"html-keyboard-response","4","30871","0.0-5.0","5e87900b524dca41065df104","bdp_rwlrn","Sun Mar 12 2023 23:12:57 GMT-0400 (Eastern Daylight Time)","336545","Trustworthy,Untrustworthy","","5098","","","","","","<div class='header' style='text-align:left; position: absolute; top: 5%; left: 5%;'><small>Task 1 of 5</small></div><div class='instruxDiv'><p><strong>1) What is the maximum number of points you can choose to bet on a lottery?</strong></p><p>a) 0</p><p>b) 1</p><p>c) 5</p>","C","","","","","","","","","","",""
"html-keyboard-response","5","32341","0.0-6.0","5e87900b524dca41065df104","bdp_rwlrn","Sun Mar 12 2023 23:12:57 GMT-0400 (Eastern Daylight Time)","336545","Trustworthy,Untrustworthy","","1369","","","","","","<div class='header' style='text-align:left; position: absolute; top: 5%; left: 5%;'><small>Task 1 of 5</small></div><div class='instruxDiv'><p><strong>1) What is the maximum number of points you can choose to bet on a lottery?</strong></p><p>a) 1</p><p>b) 1</p><p style='color:#00FF00'>c) 5</p><h3 style='color:#00FF00'>Correct!</h3><h3 class='center-content'>The correct response is c).</h3><h3 class='center-content'>The maximum number of points you can choose to bet on a lottery is 5 points.</h3><p><em>Press SPACEBAR to continue</em></p></div>"," ","","","","","","","","","","",""
"html-keyboard-response","6","34820","0.0-7.0","5e87900b524dca41065df104","bdp_rwlrn","Sun Mar 12 2023 23:12:57 GMT-0400 (Eastern Daylight Time)","336545","Trustworthy,Untrustworthy","","2376","","","","","","<div class='header' style='text-align:left; position: absolute; top: 5%; left: 5%;'><small>Task 1 of 5</small></div><div class='instruxDiv'><p><strong>2) How many points can you win each round?</strong></p><p>a) 10 points</p><p>b) Double what you bet</p><p>c) Quadruple what you bet</p>","C","","","","","","","","","","",""
"html-keyboard-response","7","35158","0.0-8.0","5e87900b524dca41065df104","bdp_rwlrn","Sun Mar 12 2023 23:12:57 GMT-0400 (Eastern Daylight Time)","336545","Trustworthy,Untrustworthy","","225","","","","","","<div class='header' style='text-align:left; position: absolute; top: 5%; left: 5%;'><small>Task 1 of 5</small></div><div class='instruxDiv'><p><strong>2) How many points can you win each round?</strong></p><p>a) 10 points</p><p>b) Double what you bet</p><p style='color:#FF0000'>c) Quadruple what you bet</p><h3 style='color:#FF0000'>Incorrect!</h3><h3 class='center-content'>The correct response is b).</h3><h3 class='center-content'>You can win double the amount of points you bet.</h3><p><em>Press SPACEBAR to continue</em></p></div>"," ","","","","","","","","","","",""
"html-keyboard-response","8","40288","0.0-9.0","5e87900b524dca41065df104","bdp_rwlrn","Sun Mar 12 2023 23:12:57 GMT-0400 (Eastern Daylight Time)","336545","Trustworthy,Untrustworthy","","null","","","","","","<div class='header' style='text-align:left; position: absolute; top: 5%; left: 5%;'><small>Task 1 of 5</small></div><div class='instruxDiv'><p>Thank you for completing the quiz<p>These are the actual lotteries you will be playing in the next block:<p><div class='tc' align='center'><img class='introPic' src='Fruit/papayas.png'><br><strong>Papaya Payday</strong></div><div class='bl' align='center'><img class='introPic' src='Fruit/plums1.png'><br><strong>Plum Powerball</strong></div><div class='br' align='center'><img class='introPic' src='Fruit/orange.png'><br><strong>Odds are Orange</strong></div></div><p>Across <strong>66 rounds</strong> you will play each lottery <strong>22 times</strong> (in random order).<p style='align:center; color:white'><font <em>Press SPACEBAR to continue</em></p>","null","","","","","","","","","","",""
"instructions","9","43422","0.0-10.0","5e87900b524dca41065df104","bdp_rwlrn","Sun Mar 12 2023 23:12:57 GMT-0400 (Eastern Daylight Time)","336545","Trustworthy,Untrustworthy","[{""page_index"":0,""viewing_time"":762},{""page_index"":1,""viewing_time"":2372}]","3134","","","","","","","","","","","","","","","","","",""
"html-keyboard-response","10","47020","0.0-11.0-1.0","5e87900b524dca41065df104","bdp_rwlrn","Sun Mar 12 2023 23:12:57 GMT-0400 (Eastern Daylight Time)","336545","Trustworthy,Untrustworthy","","3491","","","","decision","","<div class='trialDiv'><img src='Fruit/orange.png'><br><font class='baseline'><strong>Odds are Orange</strong><p>Choose number of points to bet.</font><div class='respPicDiv'><img src='img/responseButtonOffersNo0L.png' class='respPic'></div></div>","3","1","Odds are Orange","Fruit/orange.png","Won","0.8,0.35","14","0.8","5","1","",""
"html-keyboard-response","11","47278","0.0-11.0-2.0","5e87900b524dca41065df104","bdp_rwlrn","Sun Mar 12 2023 23:12:57 GMT-0400 (Eastern Daylight Time)","336545","Trustworthy,Untrustworthy","","null","","","","decisionFB","","<div class='trialDiv'><img src='Fruit/orange.png'><br><font class='baseline'><strong>Odds are Orange</strong><p>Choose number of points to bet.</font><div class='respPicDiv'><img src='img/responseButtonOffersNo0L3.png' class='respPic'></div></div>","null","1","Odds are Orange","Fruit/orange.png","Won","0.8,0.35","14","0.8","2","1","",""
"html-keyboard-response","12","48291","0.0-11.0-3.0","5e87900b524dca41065df104","bdp_rwlrn","Sun Mar 12 2023 23:12:57 GMT-0400 (Eastern Daylight Time)","336545","Trustworthy,Untrustworthy","","null","","","","feedback","","<div class='respPicDiv'><img src='img/responseButtonOffersNo0_wht.png' class='respPic'></div><div class='trialDiv'><img src='Fruit/orange.png'><br><font class='baseline'><strong>Odds are Orange</strong><p><strong><font class='posOutcome'>You WON</font><p>You bet: 3</strong></font> &nbsp; &nbsp; &nbsp; &nbsp; &nbsp; &nbsp;<font class='posOutcome'>you receive: <strong>6</strong></font></div>","null","1","Odds are Orange","Fruit/orange.png","Won","0.8,0.35","14","0.8","8","1","",""
"html-keyboard-response","13","49615","0.0-11.0-1.1","5e87900b524dca41065df104","bdp_rwlrn","Sun Mar 12 2023 23:12:57 GMT-0400 (Eastern Daylight Time)","336545","Trustworthy,Untrustworthy","","1321","","","","decision","","<div class='trialDiv'><img src='Fruit/plums1.png'><br><font class='baseline'><strong>Plum Powerball</strong><p>Choose number of points to bet.</font><div class='respPicDiv'><img src='img/responseButtonOffersNo0L.png' class='respPic'></div></div>","4","1","Plum Powerball","Fruit/plums1.png","Lost","0.35,0.8","13","0.35","13","2","",""
"html-keyboard-response","14","49873","0.0-11.0-2.1","5e87900b524dca41065df104","bdp_rwlrn","Sun Mar 12 2023 23:12:57 GMT-0400 (Eastern Daylight Time)","336545","Trustworthy,Untrustworthy","","null","","","","decisionFB","","<div class='trialDiv'><img src='Fruit/plums1.png'><br><font class='baseline'><strong>Plum Powerball</strong><p>Choose number of points to bet.</font><div class='respPicDiv'><img src='img/responseButtonOffersNo0L4.png' class='respPic'></div></div>","null","1","Plum Powerball","Fruit/plums1.png","Lost","0.35,0.8","13","0.35","9","2","",""
"html-keyboard-response","15","50882","0.0-11.0-3.1","5e87900b524dca41065df104","bdp_rwlrn","Sun Mar 12 2023 23:12:57 GMT-0400 (Eastern Daylight Time)","336545","Trustworthy,Untrustworthy","","null","","","","feedback","","<div class='respPicDiv'><img src='img/responseButtonOffersNo0_wht.png' class='respPic'></div><div class='trialDiv'><img src='Fruit/plums1.png'><br><font class='baseline'><strong>Plum Powerball</strong><p><strong><font class='negOutcome'>You LOST</font><p>You bet: 4</strong></font> &nbsp; &nbsp; &nbsp; &nbsp; &nbsp; &nbsp;<font class='negOutcome'>You receive: <strong>0</strong></font></div>","null","1","Plum Powerball","Fruit/plums1.png","Lost","0.35,0.8","13","0.35","9","2","",""
"html-keyboard-response","16","51941","0.0-11.0-1.2","5e87900b524dca41065df104","bdp_rwlrn","Sun Mar 12 2023 23:12:57 GMT-0400 (Eastern Daylight Time)","336545","Trustworthy,Untrustworthy","","1057","","","","decision","","<div class='trialDiv'><img src='Fruit/papayas.png'><br><font class='baseline'><strong>Papaya Payday</strong><p>Choose number of points to bet.</font><div class='respPicDiv'><img src='img/responseButtonOffersNo0L.png' class='respPic'></div></div>","5","1","Papaya Payday","Fruit/papayas.png","Lost","0.2,0.8","14","0.2","14","3","",""
"html-keyboard-response","17","52204","0.0-11.0-2.2","5e87900b524dca41065df104","bdp_rwlrn","Sun Mar 12 2023 23:12:57 GMT-0400 (Eastern Daylight Time)","336545","Trustworthy,Untrustworthy","","null","","","","decisionFB","","<div class='trialDiv'><img src='Fruit/papayas.png'><br><font class='baseline'><strong>Papaya Payday</strong><p>Choose number of points to bet.</font><div class='respPicDiv'><img src='img/responseButtonOffersNo0L5.png' class='respPic'></div></div>","null","1","Papaya Payday","Fruit/papayas.png","Lost","0.2,0.8","14","0.2","9","3","",""
"html-keyboard-response","18","53217","0.0-11.0-3.2","5e87900b524dca41065df104","bdp_rwlrn","Sun Mar 12 2023 23:12:57 GMT-0400 (Eastern Daylight Time)","336545","Trustworthy,Untrustworthy","","null","","","","feedback","","<div class='respPicDiv'><img src='img/responseButtonOffersNo0_wht.png' class='respPic'></div><div class='trialDiv'><img src='Fruit/papayas.png'><br><font class='baseline'><strong>Papaya Payday</strong><p><strong><font class='negOutcome'>You LOST</font><p>You bet: 5</strong></font> &nbsp; &nbsp; &nbsp; &nbsp; &nbsp; &nbsp;<font class='negOutcome'>You receive: <strong>0</strong></font></div>","null","1","Papaya Payday","Fruit/papayas.png","Lost","0.2,0.8","14","0.2","9","3","",""
"html-keyboard-response","19","53638","0.0-11.0-1.3","5e87900b524dca41065df104","bdp_rwlrn","Sun Mar 12 2023 23:12:57 GMT-0400 (Eastern Daylight Time)","336545","Trustworthy,Untrustworthy","","420","","","","decision","","<div class='trialDiv'><img src='Fruit/plums1.png'><br><font class='baseline'><strong>Plum Powerball</strong><p>Choose number of points to bet.</font><div class='respPicDiv'><img src='img/responseButtonOffersNo0L.png' class='respPic'></div></div>","3","2","Plum Powerball","Fruit/plums1.png","Won","0.35,0.8","13","0.35","14","4","",""
"html-keyboard-response","20","53902","0.0-11.0-2.3","5e87900b524dca41065df104","bdp_rwlrn","Sun Mar 12 2023 23:12:57 GMT-0400 (Eastern Daylight Time)","336545","Trustworthy,Untrustworthy","","null","","","","decisionFB","","<div class='trialDiv'><img src='Fruit/plums1.png'><br><font class='baseline'><strong>Plum Powerball</strong><p>Choose number of points to bet.</font><div class='respPicDiv'><img src='img/responseButtonOffersNo0L3.png' class='respPic'></div></div>","null","2","Plum Powerball","Fruit/plums1.png","Won","0.35,0.8","13","0.35","11","4","",""
"html-keyboard-response","21","54915","0.0-11.0-3.3","5e87900b524dca41065df104","bdp_rwlrn","Sun Mar 12 2023 23:12:57 GMT-0400 (Eastern Daylight Time)","336545","Trustworthy,Untrustworthy","","null","","","","feedback","","<div class='respPicDiv'><img src='img/responseButtonOffersNo0_wht.png' class='respPic'></div><div class='trialDiv'><img src='Fruit/plums1.png'><br><font class='baseline'><strong>Plum Powerball</strong><p><strong><font class='posOutcome'>You WON</font><p>You bet: 3</strong></font> &nbsp; &nbsp; &nbsp; &nbsp; &nbsp; &nbsp;<font class='posOutcome'>you receive: <strong>6</strong></font></div>","null","2","Plum Powerball","Fruit/plums1.png","Won","0.35,0.8","13","0.35","17","4","",""
"html-keyboard-response","22","55416","0.0-11.0-1.4","5e87900b524dca41065df104","bdp_rwlrn","Sun Mar 12 2023 23:12:57 GMT-0400 (Eastern Daylight Time)","336545","Trustworthy,Untrustworthy","","499","","","","decision","","<div class='trialDiv'><img src='Fruit/papayas.png'><br><font class='baseline'><strong>Papaya Payday</strong><p>Choose number of points to bet.</font><div class='respPicDiv'><img src='img/responseButtonOffersNo0L.png' class='respPic'></div></div>","3","2","Papaya Payday","Fruit/papayas.png","Lost","0.2,0.8","14","0.2","22","5","",""
"html-keyboard-response","23","55677","0.0-11.0-2.4","5e87900b524dca41065df104","bdp_rwlrn","Sun Mar 12 2023 23:12:57 GMT-0400 (Eastern Daylight Time)","336545","Trustworthy,Untrustworthy","","null","","","","decisionFB","","<div class='trialDiv'><img src='Fruit/papayas.png'><br><font class='baseline'><strong>Papaya Payday</strong><p>Choose number of points to bet.</font><div class='respPicDiv'><img src='img/responseButtonOffersNo0L3.png' class='respPic'></div></div>","null","2","Papaya Payday","Fruit/papayas.png","Lost","0.2,0.8","14","0.2","19","5","",""
"html-keyboard-response","24","56686","0.0-11.0-3.4","5e87900b524dca41065df104","bdp_rwlrn","Sun Mar 12 2023 23:12:57 GMT-0400 (Eastern Daylight Time)","336545","Trustworthy,Untrustworthy","","null","","","","feedback","","<div class='respPicDiv'><img src='img/responseButtonOffersNo0_wht.png' class='respPic'></div><div class='trialDiv'><img src='Fruit/papayas.png'><br><font class='baseline'><strong>Papaya Payday</strong><p><strong><font class='negOutcome'>You LOST</font><p>You bet: 3</strong></font> &nbsp; &nbsp; &nbsp; &nbsp; &nbsp; &nbsp;<font class='negOutcome'>You receive: <strong>0</strong></font></div>","null","2","Papaya Payday","Fruit/papayas.png","Lost","0.2,0.8","14","0.2","19","5","",""
"html-keyboard-response","25","57002","0.0-11.0-1.5","5e87900b524dca41065df104","bdp_rwlrn","Sun Mar 12 2023 23:12:57 GMT-0400 (Eastern Daylight Time)","336545","Trustworthy,Untrustworthy","","315","","","","decision","","<div class='trialDiv'><img src='Fruit/orange.png'><br><font class='baseline'><strong>Odds are Orange</strong><p>Choose number of points to bet.</font><div class='respPicDiv'><img src='img/responseButtonOffersNo0L.png' class='respPic'></div></div>","3","2","Odds are Orange","Fruit/orange.png","Won","0.8,0.35","14","0.8","24","6","",""
"html-keyboard-response","26","57263","0.0-11.0-2.5","5e87900b524dca41065df104","bdp_rwlrn","Sun Mar 12 2023 23:12:57 GMT-0400 (Eastern Daylight Time)","336545","Trustworthy,Untrustworthy","","null","","","","decisionFB","","<div class='trialDiv'><img src='Fruit/orange.png'><br><font class='baseline'><strong>Odds are Orange</strong><p>Choose number of points to bet.</font><div class='respPicDiv'><img src='img/responseButtonOffersNo0L3.png' class='respPic'></div></div>","null","2","Odds are Orange","Fruit/orange.png","Won","0.8,0.35","14","0.8","21","6","",""
"html-keyboard-response","27","58280","0.0-11.0-3.5","5e87900b524dca41065df104","bdp_rwlrn","Sun Mar 12 2023 23:12:57 GMT-0400 (Eastern Daylight Time)","336545","Trustworthy,Untrustworthy","","null","","","","feedback","","<div class='respPicDiv'><img src='img/responseButtonOffersNo0_wht.png' class='respPic'></div><div class='trialDiv'><img src='Fruit/orange.png'><br><font class='baseline'><strong>Odds are Orange</strong><p><strong><font class='posOutcome'>You WON</font><p>You bet: 3</strong></font> &nbsp; &nbsp; &nbsp; &nbsp; &nbsp; &nbsp;<font class='posOutcome'>you receive: <strong>6</strong></font></div>","null","2","Odds are Orange","Fruit/orange.png","Won","0.8,0.35","14","0.8","27","6","",""
"html-keyboard-response","28","58831","0.0-11.0-1.6","5e87900b524dca41065df104","bdp_rwlrn","Sun Mar 12 2023 23:12:57 GMT-0400 (Eastern Daylight Time)","336545","Trustworthy,Untrustworthy","","550","","","","decision","","<div class='trialDiv'><img src='Fruit/papayas.png'><br><font class='baseline'><strong>Papaya Payday</strong><p>Choose number of points to bet.</font><div class='respPicDiv'><img src='img/responseButtonOffersNo0L.png' class='respPic'></div></div>","3","3","Papaya Payday","Fruit/papayas.png","Lost","0.2,0.8","14","0.2","32","7","",""
"html-keyboard-response","29","59090","0.0-11.0-2.6","5e87900b524dca41065df104","bdp_rwlrn","Sun Mar 12 2023 23:12:57 GMT-0400 (Eastern Daylight Time)","336545","Trustworthy,Untrustworthy","","null","","","","decisionFB","","<div class='trialDiv'><img src='Fruit/papayas.png'><br><font class='baseline'><strong>Papaya Payday</strong><p>Choose number of points to bet.</font><div class='respPicDiv'><img src='img/responseButtonOffersNo0L3.png' class='respPic'></div></div>","null","3","Papaya Payday","Fruit/papayas.png","Lost","0.2,0.8","14","0.2","29","7","",""
"html-keyboard-response","30","60102","0.0-11.0-3.6","5e87900b524dca41065df104","bdp_rwlrn","Sun Mar 12 2023 23:12:57 GMT-0400 (Eastern Daylight Time)","336545","Trustworthy,Untrustworthy","","null","","","","feedback","","<div class='respPicDiv'><img src='img/responseButtonOffersNo0_wht.png' class='respPic'></div><div class='trialDiv'><img src='Fruit/papayas.png'><br><font class='baseline'><strong>Papaya Payday</strong><p><strong><font class='negOutcome'>You LOST</font><p>You bet: 3</strong></font> &nbsp; &nbsp; &nbsp; &nbsp; &nbsp; &nbsp;<font class='negOutcome'>You receive: <strong>0</strong></font></div>","null","3","Papaya Payday","Fruit/papayas.png","Lost","0.2,0.8","14","0.2","29","7","",""
"html-keyboard-response","31","60388","0.0-11.0-1.7","5e87900b524dca41065df104","bdp_rwlrn","Sun Mar 12 2023 23:12:57 GMT-0400 (Eastern Daylight Time)","336545","Trustworthy,Untrustworthy","","285","","","","decision","","<div class='trialDiv'><img src='Fruit/plums1.png'><br><font class='baseline'><strong>Plum Powerball</strong><p>Choose number of points to bet.</font><div class='respPicDiv'><img src='img/responseButtonOffersNo0L.png' class='respPic'></div></div>","3","3","Plum Powerball","Fruit/plums1.png","Won","0.35,0.8","13","0.35","34","8","",""
"html-keyboard-response","32","60647","0.0-11.0-2.7","5e87900b524dca41065df104","bdp_rwlrn","Sun Mar 12 2023 23:12:57 GMT-0400 (Eastern Daylight Time)","336545","Trustworthy,Untrustworthy","","null","","","","decisionFB","","<div class='trialDiv'><img src='Fruit/plums1.png'><br><font class='baseline'><strong>Plum Powerball</strong><p>Choose number of points to bet.</font><div class='respPicDiv'><img src='img/responseButtonOffersNo0L3.png' class='respPic'></div></div>","null","3","Plum Powerball","Fruit/plums1.png","Won","0.35,0.8","13","0.35","31","8","",""
"html-keyboard-response","33","61659","0.0-11.0-3.7","5e87900b524dca41065df104","bdp_rwlrn","Sun Mar 12 2023 23:12:57 GMT-0400 (Eastern Daylight Time)","336545","Trustworthy,Untrustworthy","","null","","","","feedback","","<div class='respPicDiv'><img src='img/responseButtonOffersNo0_wht.png' class='respPic'></div><div class='trialDiv'><img src='Fruit/plums1.png'><br><font class='baseline'><strong>Plum Powerball</strong><p><strong><font class='posOutcome'>You WON</font><p>You bet: 3</strong></font> &nbsp; &nbsp; &nbsp; &nbsp; &nbsp; &nbsp;<font class='posOutcome'>you receive: <strong>6</strong></font></div>","null","3","Plum Powerball","Fruit/plums1.png","Won","0.35,0.8","13","0.35","37","8","",""
"html-keyboard-response","34","61993","0.0-11.0-1.8","5e87900b524dca41065df104","bdp_rwlrn","Sun Mar 12 2023 23:12:57 GMT-0400 (Eastern Daylight Time)","336545","Trustworthy,Untrustworthy","","333","","","","decision","","<div class='trialDiv'><img src='Fruit/orange.png'><br><font class='baseline'><strong>Odds are Orange</strong><p>Choose number of points to bet.</font><div class='respPicDiv'><img src='img/responseButtonOffersNo0L.png' class='respPic'></div></div>","3","3","Odds are Orange","Fruit/orange.png","Lost","0.8,0.35","14","0.8","42","9","",""
"html-keyboard-response","35","62251","0.0-11.0-2.8","5e87900b524dca41065df104","bdp_rwlrn","Sun Mar 12 2023 23:12:57 GMT-0400 (Eastern Daylight Time)","336545","Trustworthy,Untrustworthy","","null","","","","decisionFB","","<div class='trialDiv'><img src='Fruit/orange.png'><br><font class='baseline'><strong>Odds are Orange</strong><p>Choose number of points to bet.</font><div class='respPicDiv'><img src='img/responseButtonOffersNo0L3.png' class='respPic'></div></div>","null","3","Odds are Orange","Fruit/orange.png","Lost","0.8,0.35","14","0.8","39","9","",""
"html-keyboard-response","36","63263","0.0-11.0-3.8","5e87900b524dca41065df104","bdp_rwlrn","Sun Mar 12 2023 23:12:57 GMT-0400 (Eastern Daylight Time)","336545","Trustworthy,Untrustworthy","","null","","","","feedback","","<div class='respPicDiv'><img src='img/responseButtonOffersNo0_wht.png' class='respPic'></div><div class='trialDiv'><img src='Fruit/orange.png'><br><font class='baseline'><strong>Odds are Orange</strong><p><strong><font class='negOutcome'>You LOST</font><p>You bet: 3</strong></font> &nbsp; &nbsp; &nbsp; &nbsp; &nbsp; &nbsp;<font class='negOutcome'>You receive: <strong>0</strong></font></div>","null","3","Odds are Orange","Fruit/orange.png","Lost","0.8,0.35","14","0.8","39","9","",""
"html-keyboard-response","37","63523","0.0-11.0-1.9","5e87900b524dca41065df104","bdp_rwlrn","Sun Mar 12 2023 23:12:57 GMT-0400 (Eastern Daylight Time)","336545","Trustworthy,Untrustworthy","","259","","","","decision","","<div class='trialDiv'><img src='Fruit/papayas.png'><br><font class='baseline'><strong>Papaya Payday</strong><p>Choose number of points to bet.</font><div class='respPicDiv'><img src='img/responseButtonOffersNo0L.png' class='respPic'></div></div>","3","4","Papaya Payday","Fruit/papayas.png","Lost","0.2,0.8","14","0.2","44","10","",""
"html-keyboard-response","38","63776","0.0-11.0-2.9","5e87900b524dca41065df104","bdp_rwlrn","Sun Mar 12 2023 23:12:57 GMT-0400 (Eastern Daylight Time)","336545","Trustworthy,Untrustworthy","","null","","","","decisionFB","","<div class='trialDiv'><img src='Fruit/papayas.png'><br><font class='baseline'><strong>Papaya Payday</strong><p>Choose number of points to bet.</font><div class='respPicDiv'><img src='img/responseButtonOffersNo0L3.png' class='respPic'></div></div>","null","4","Papaya Payday","Fruit/papayas.png","Lost","0.2,0.8","14","0.2","41","10","",""
"html-keyboard-response","39","64787","0.0-11.0-3.9","5e87900b524dca41065df104","bdp_rwlrn","Sun Mar 12 2023 23:12:57 GMT-0400 (Eastern Daylight Time)","336545","Trustworthy,Untrustworthy","","null","","","","feedback","","<div class='respPicDiv'><img src='img/responseButtonOffersNo0_wht.png' class='respPic'></div><div class='trialDiv'><img src='Fruit/papayas.png'><br><font class='baseline'><strong>Papaya Payday</strong><p><strong><font class='negOutcome'>You LOST</font><p>You bet: 3</strong></font> &nbsp; &nbsp; &nbsp; &nbsp; &nbsp; &nbsp;<font class='negOutcome'>You receive: <strong>0</strong></font></div>","null","4","Papaya Payday","Fruit/papayas.png","Lost","0.2,0.8","14","0.2","41","10","",""
"html-keyboard-response","40","64946","0.0-11.0-1.10","5e87900b524dca41065df104","bdp_rwlrn","Sun Mar 12 2023 23:12:57 GMT-0400 (Eastern Daylight Time)","336545","Trustworthy,Untrustworthy","","157","","","","decision","","<div class='trialDiv'><img src='Fruit/plums1.png'><br><font class='baseline'><strong>Plum Powerball</strong><p>Choose number of points to bet.</font><div class='respPicDiv'><img src='img/responseButtonOffersNo0L.png' class='respPic'></div></div>","2","4","Plum Powerball","Fruit/plums1.png","Lost","0.35,0.8","13","0.35","46","11","",""
"html-keyboard-response","41","65208","0.0-11.0-2.10","5e87900b524dca41065df104","bdp_rwlrn","Sun Mar 12 2023 23:12:57 GMT-0400 (Eastern Daylight Time)","336545","Trustworthy,Untrustworthy","","null","","","","decisionFB","","<div class='trialDiv'><img src='Fruit/plums1.png'><br><font class='baseline'><strong>Plum Powerball</strong><p>Choose number of points to bet.</font><div class='respPicDiv'><img src='img/responseButtonOffersNo0L2.png' class='respPic'></div></div>","null","4","Plum Powerball","Fruit/plums1.png","Lost","0.35,0.8","13","0.35","44","11","",""
"html-keyboard-response","42","66220","0.0-11.0-3.10","5e87900b524dca41065df104","bdp_rwlrn","Sun Mar 12 2023 23:12:57 GMT-0400 (Eastern Daylight Time)","336545","Trustworthy,Untrustworthy","","null","","","","feedback","","<div class='respPicDiv'><img src='img/responseButtonOffersNo0_wht.png' class='respPic'></div><div class='trialDiv'><img src='Fruit/plums1.png'><br><font class='baseline'><strong>Plum Powerball</strong><p><strong><font class='negOutcome'>You LOST</font><p>You bet: 2</strong></font> &nbsp; &nbsp; &nbsp; &nbsp; &nbsp; &nbsp;<font class='negOutcome'>You receive: <strong>0</strong></font></div>","null","4","Plum Powerball","Fruit/plums1.png","Lost","0.35,0.8","13","0.35","44","11","",""
"html-keyboard-response","43","66480","0.0-11.0-1.11","5e87900b524dca41065df104","bdp_rwlrn","Sun Mar 12 2023 23:12:57 GMT-0400 (Eastern Daylight Time)","336545","Trustworthy,Untrustworthy","","257","","","","decision","","<div class='trialDiv'><img src='Fruit/orange.png'><br><font class='baseline'><strong>Odds are Orange</strong><p>Choose number of points to bet.</font><div class='respPicDiv'><img src='img/responseButtonOffersNo0L.png' class='respPic'></div></div>","5","4","Odds are Orange","Fruit/orange.png","Won","0.8,0.35","14","0.8","49","12","",""
"html-keyboard-response","44","66735","0.0-11.0-2.11","5e87900b524dca41065df104","bdp_rwlrn","Sun Mar 12 2023 23:12:57 GMT-0400 (Eastern Daylight Time)","336545","Trustworthy,Untrustworthy","","null","","","","decisionFB","","<div class='trialDiv'><img src='Fruit/orange.png'><br><font class='baseline'><strong>Odds are Orange</strong><p>Choose number of points to bet.</font><div class='respPicDiv'><img src='img/responseButtonOffersNo0L5.png' class='respPic'></div></div>","null","4","Odds are Orange","Fruit/orange.png","Won","0.8,0.35","14","0.8","44","12","",""
"html-keyboard-response","45","67744","0.0-11.0-3.11","5e87900b524dca41065df104","bdp_rwlrn","Sun Mar 12 2023 23:12:57 GMT-0400 (Eastern Daylight Time)","336545","Trustworthy,Untrustworthy","","null","","","","feedback","","<div class='respPicDiv'><img src='img/responseButtonOffersNo0_wht.png' class='respPic'></div><div class='trialDiv'><img src='Fruit/orange.png'><br><font class='baseline'><strong>Odds are Orange</strong><p><strong><font class='posOutcome'>You WON</font><p>You bet: 5</strong></font> &nbsp; &nbsp; &nbsp; &nbsp; &nbsp; &nbsp;<font class='posOutcome'>you receive: <strong>10</strong></font></div>","null","4","Odds are Orange","Fruit/orange.png","Won","0.8,0.35","14","0.8","54","12","",""
"html-keyboard-response","46","68172","0.0-11.0-1.12","5e87900b524dca41065df104","bdp_rwlrn","Sun Mar 12 2023 23:12:57 GMT-0400 (Eastern Daylight Time)","336545","Trustworthy,Untrustworthy","","427","","","","decision","","<div class='trialDiv'><img src='Fruit/plums1.png'><br><font class='baseline'><strong>Plum Powerball</strong><p>Choose number of points to bet.</font><div class='respPicDiv'><img src='img/responseButtonOffersNo0L.png' class='respPic'></div></div>","3","5","Plum Powerball","Fruit/plums1.png","Lost","0.35,0.8","13","0.35","59","13","",""
"html-keyboard-response","47","68430","0.0-11.0-2.12","5e87900b524dca41065df104","bdp_rwlrn","Sun Mar 12 2023 23:12:57 GMT-0400 (Eastern Daylight Time)","336545","Trustworthy,Untrustworthy","","null","","","","decisionFB","","<div class='trialDiv'><img src='Fruit/plums1.png'><br><font class='baseline'><strong>Plum Powerball</strong><p>Choose number of points to bet.</font><div class='respPicDiv'><img src='img/responseButtonOffersNo0L3.png' class='respPic'></div></div>","null","5","Plum Powerball","Fruit/plums1.png","Lost","0.35,0.8","13","0.35","56","13","",""
"html-keyboard-response","48","69443","0.0-11.0-3.12","5e87900b524dca41065df104","bdp_rwlrn","Sun Mar 12 2023 23:12:57 GMT-0400 (Eastern Daylight Time)","336545","Trustworthy,Untrustworthy","","null","","","","feedback","","<div class='respPicDiv'><img src='img/responseButtonOffersNo0_wht.png' class='respPic'></div><div class='trialDiv'><img src='Fruit/plums1.png'><br><font class='baseline'><strong>Plum Powerball</strong><p><strong><font class='negOutcome'>You LOST</font><p>You bet: 3</strong></font> &nbsp; &nbsp; &nbsp; &nbsp; &nbsp; &nbsp;<font class='negOutcome'>You receive: <strong>0</strong></font></div>","null","5","Plum Powerball","Fruit/plums1.png","Lost","0.35,0.8","13","0.35","56","13","",""
"html-keyboard-response","49","69671","0.0-11.0-1.13","5e87900b524dca41065df104","bdp_rwlrn","Sun Mar 12 2023 23:12:57 GMT-0400 (Eastern Daylight Time)","336545","Trustworthy,Untrustworthy","","227","","","","decision","","<div class='trialDiv'><img src='Fruit/papayas.png'><br><font class='baseline'><strong>Papaya Payday</strong><p>Choose number of points to bet.</font><div class='respPicDiv'><img src='img/responseButtonOffersNo0L.png' class='respPic'></div></div>","5","5","Papaya Payday","Fruit/papayas.png","Lost","0.2,0.8","14","0.2","61","14","",""
"html-keyboard-response","50","69926","0.0-11.0-2.13","5e87900b524dca41065df104","bdp_rwlrn","Sun Mar 12 2023 23:12:57 GMT-0400 (Eastern Daylight Time)","336545","Trustworthy,Untrustworthy","","null","","","","decisionFB","","<div class='trialDiv'><img src='Fruit/papayas.png'><br><font class='baseline'><strong>Papaya Payday</strong><p>Choose number of points to bet.</font><div class='respPicDiv'><img src='img/responseButtonOffersNo0L5.png' class='respPic'></div></div>","null","5","Papaya Payday","Fruit/papayas.png","Lost","0.2,0.8","14","0.2","56","14","",""
"html-keyboard-response","51","70934","0.0-11.0-3.13","5e87900b524dca41065df104","bdp_rwlrn","Sun Mar 12 2023 23:12:57 GMT-0400 (Eastern Daylight Time)","336545","Trustworthy,Untrustworthy","","null","","","","feedback","","<div class='respPicDiv'><img src='img/responseButtonOffersNo0_wht.png' class='respPic'></div><div class='trialDiv'><img src='Fruit/papayas.png'><br><font class='baseline'><strong>Papaya Payday</strong><p><strong><font class='negOutcome'>You LOST</font><p>You bet: 5</strong></font> &nbsp; &nbsp; &nbsp; &nbsp; &nbsp; &nbsp;<font class='negOutcome'>You receive: <strong>0</strong></font></div>","null","5","Papaya Payday","Fruit/papayas.png","Lost","0.2,0.8","14","0.2","56","14","",""
"html-keyboard-response","52","71371","0.0-11.0-1.14","5e87900b524dca41065df104","bdp_rwlrn","Sun Mar 12 2023 23:12:57 GMT-0400 (Eastern Daylight Time)","336545","Trustworthy,Untrustworthy","","435","","","","decision","","<div class='trialDiv'><img src='Fruit/orange.png'><br><font class='baseline'><strong>Odds are Orange</strong><p>Choose number of points to bet.</font><div class='respPicDiv'><img src='img/responseButtonOffersNo0L.png' class='respPic'></div></div>","3","5","Odds are Orange","Fruit/orange.png","Lost","0.8,0.35","14","0.8","61","15","",""
"html-keyboard-response","53","71633","0.0-11.0-2.14","5e87900b524dca41065df104","bdp_rwlrn","Sun Mar 12 2023 23:12:57 GMT-0400 (Eastern Daylight Time)","336545","Trustworthy,Untrustworthy","","null","","","","decisionFB","","<div class='trialDiv'><img src='Fruit/orange.png'><br><font class='baseline'><strong>Odds are Orange</strong><p>Choose number of points to bet.</font><div class='respPicDiv'><img src='img/responseButtonOffersNo0L3.png' class='respPic'></div></div>","null","5","Odds are Orange","Fruit/orange.png","Lost","0.8,0.35","14","0.8","58","15","",""
"html-keyboard-response","54","72645","0.0-11.0-3.14","5e87900b524dca41065df104","bdp_rwlrn","Sun Mar 12 2023 23:12:57 GMT-0400 (Eastern Daylight Time)","336545","Trustworthy,Untrustworthy","","null","","","","feedback","","<div class='respPicDiv'><img src='img/responseButtonOffersNo0_wht.png' class='respPic'></div><div class='trialDiv'><img src='Fruit/orange.png'><br><font class='baseline'><strong>Odds are Orange</strong><p><strong><font class='negOutcome'>You LOST</font><p>You bet: 3</strong></font> &nbsp; &nbsp; &nbsp; &nbsp; &nbsp; &nbsp;<font class='negOutcome'>You receive: <strong>0</strong></font></div>","null","5","Odds are Orange","Fruit/orange.png","Lost","0.8,0.35","14","0.8","58","15","",""
"html-keyboard-response","55","73440","0.0-11.0-1.15","5e87900b524dca41065df104","bdp_rwlrn","Sun Mar 12 2023 23:12:57 GMT-0400 (Eastern Daylight Time)","336545","Trustworthy,Untrustworthy","","793","","","","decision","","<div class='trialDiv'><img src='Fruit/papayas.png'><br><font class='baseline'><strong>Papaya Payday</strong><p>Choose number of points to bet.</font><div class='respPicDiv'><img src='img/responseButtonOffersNo0L.png' class='respPic'></div></div>","4","6","Papaya Payday","Fruit/papayas.png","Lost","0.2,0.8","14","0.2","63","16","",""
"html-keyboard-response","56","73705","0.0-11.0-2.15","5e87900b524dca41065df104","bdp_rwlrn","Sun Mar 12 2023 23:12:57 GMT-0400 (Eastern Daylight Time)","336545","Trustworthy,Untrustworthy","","null","","","","decisionFB","","<div class='trialDiv'><img src='Fruit/papayas.png'><br><font class='baseline'><strong>Papaya Payday</strong><p>Choose number of points to bet.</font><div class='respPicDiv'><img src='img/responseButtonOffersNo0L4.png' class='respPic'></div></div>","null","6","Papaya Payday","Fruit/papayas.png","Lost","0.2,0.8","14","0.2","59","16","",""
"html-keyboard-response","57","74717","0.0-11.0-3.15","5e87900b524dca41065df104","bdp_rwlrn","Sun Mar 12 2023 23:12:57 GMT-0400 (Eastern Daylight Time)","336545","Trustworthy,Untrustworthy","","null","","","","feedback","","<div class='respPicDiv'><img src='img/responseButtonOffersNo0_wht.png' class='respPic'></div><div class='trialDiv'><img src='Fruit/papayas.png'><br><font class='baseline'><strong>Papaya Payday</strong><p><strong><font class='negOutcome'>You LOST</font><p>You bet: 4</strong></font> &nbsp; &nbsp; &nbsp; &nbsp; &nbsp; &nbsp;<font class='negOutcome'>You receive: <strong>0</strong></font></div>","null","6","Papaya Payday","Fruit/papayas.png","Lost","0.2,0.8","14","0.2","59","16","",""
"html-keyboard-response","58","75067","0.0-11.0-1.16","5e87900b524dca41065df104","bdp_rwlrn","Sun Mar 12 2023 23:12:57 GMT-0400 (Eastern Daylight Time)","336545","Trustworthy,Untrustworthy","","349","","","","decision","","<div class='trialDiv'><img src='Fruit/plums1.png'><br><font class='baseline'><strong>Plum Powerball</strong><p>Choose number of points to bet.</font><div class='respPicDiv'><img src='img/responseButtonOffersNo0L.png' class='respPic'></div></div>","5","6","Plum Powerball","Fruit/plums1.png","Lost","0.35,0.8","13","0.35","64","17","",""
"html-keyboard-response","59","75325","0.0-11.0-2.16","5e87900b524dca41065df104","bdp_rwlrn","Sun Mar 12 2023 23:12:57 GMT-0400 (Eastern Daylight Time)","336545","Trustworthy,Untrustworthy","","null","","","","decisionFB","","<div class='trialDiv'><img src='Fruit/plums1.png'><br><font class='baseline'><strong>Plum Powerball</strong><p>Choose number of points to bet.</font><div class='respPicDiv'><img src='img/responseButtonOffersNo0L5.png' class='respPic'></div></div>","null","6","Plum Powerball","Fruit/plums1.png","Lost","0.35,0.8","13","0.35","59","17","",""
"html-keyboard-response","60","76339","0.0-11.0-3.16","5e87900b524dca41065df104","bdp_rwlrn","Sun Mar 12 2023 23:12:57 GMT-0400 (Eastern Daylight Time)","336545","Trustworthy,Untrustworthy","","null","","","","feedback","","<div class='respPicDiv'><img src='img/responseButtonOffersNo0_wht.png' class='respPic'></div><div class='trialDiv'><img src='Fruit/plums1.png'><br><font class='baseline'><strong>Plum Powerball</strong><p><strong><font class='negOutcome'>You LOST</font><p>You bet: 5</strong></font> &nbsp; &nbsp; &nbsp; &nbsp; &nbsp; &nbsp;<font class='negOutcome'>You receive: <strong>0</strong></font></div>","null","6","Plum Powerball","Fruit/plums1.png","Lost","0.35,0.8","13","0.35","59","17","",""
"html-keyboard-response","61","76616","0.0-11.0-1.17","5e87900b524dca41065df104","bdp_rwlrn","Sun Mar 12 2023 23:12:57 GMT-0400 (Eastern Daylight Time)","336545","Trustworthy,Untrustworthy","","276","","","","decision","","<div class='trialDiv'><img src='Fruit/orange.png'><br><font class='baseline'><strong>Odds are Orange</strong><p>Choose number of points to bet.</font><div class='respPicDiv'><img src='img/responseButtonOffersNo0L.png' class='respPic'></div></div>","3","6","Odds are Orange","Fruit/orange.png","Won","0.8,0.35","14","0.8","64","18","",""
"html-keyboard-response","62","76880","0.0-11.0-2.17","5e87900b524dca41065df104","bdp_rwlrn","Sun Mar 12 2023 23:12:57 GMT-0400 (Eastern Daylight Time)","336545","Trustworthy,Untrustworthy","","null","","","","decisionFB","","<div class='trialDiv'><img src='Fruit/orange.png'><br><font class='baseline'><strong>Odds are Orange</strong><p>Choose number of points to bet.</font><div class='respPicDiv'><img src='img/responseButtonOffersNo0L3.png' class='respPic'></div></div>","null","6","Odds are Orange","Fruit/orange.png","Won","0.8,0.35","14","0.8","61","18","",""
"html-keyboard-response","63","77895","0.0-11.0-3.17","5e87900b524dca41065df104","bdp_rwlrn","Sun Mar 12 2023 23:12:57 GMT-0400 (Eastern Daylight Time)","336545","Trustworthy,Untrustworthy","","null","","","","feedback","","<div class='respPicDiv'><img src='img/responseButtonOffersNo0_wht.png' class='respPic'></div><div class='trialDiv'><img src='Fruit/orange.png'><br><font class='baseline'><strong>Odds are Orange</strong><p><strong><font class='posOutcome'>You WON</font><p>You bet: 3</strong></font> &nbsp; &nbsp; &nbsp; &nbsp; &nbsp; &nbsp;<font class='posOutcome'>you receive: <strong>6</strong></font></div>","null","6","Odds are Orange","Fruit/orange.png","Won","0.8,0.35","14","0.8","67","18","",""
"html-keyboard-response","64","78632","0.0-11.0-1.18","5e87900b524dca41065df104","bdp_rwlrn","Sun Mar 12 2023 23:12:57 GMT-0400 (Eastern Daylight Time)","336545","Trustworthy,Untrustworthy","","736","","","","decision","","<div class='trialDiv'><img src='Fruit/plums1.png'><br><font class='baseline'><strong>Plum Powerball</strong><p>Choose number of points to bet.</font><div class='respPicDiv'><img src='img/responseButtonOffersNo0L.png' class='respPic'></div></div>","4","7","Plum Powerball","Fruit/plums1.png","Lost","0.35,0.8","13","0.35","72","19","",""
"html-keyboard-response","65","78892","0.0-11.0-2.18","5e87900b524dca41065df104","bdp_rwlrn","Sun Mar 12 2023 23:12:57 GMT-0400 (Eastern Daylight Time)","336545","Trustworthy,Untrustworthy","","null","","","","decisionFB","","<div class='trialDiv'><img src='Fruit/plums1.png'><br><font class='baseline'><strong>Plum Powerball</strong><p>Choose number of points to bet.</font><div class='respPicDiv'><img src='img/responseButtonOffersNo0L4.png' class='respPic'></div></div>","null","7","Plum Powerball","Fruit/plums1.png","Lost","0.35,0.8","13","0.35","68","19","",""
"html-keyboard-response","66","79903","0.0-11.0-3.18","5e87900b524dca41065df104","bdp_rwlrn","Sun Mar 12 2023 23:12:57 GMT-0400 (Eastern Daylight Time)","336545","Trustworthy,Untrustworthy","","null","","","","feedback","","<div class='respPicDiv'><img src='img/responseButtonOffersNo0_wht.png' class='respPic'></div><div class='trialDiv'><img src='Fruit/plums1.png'><br><font class='baseline'><strong>Plum Powerball</strong><p><strong><font class='negOutcome'>You LOST</font><p>You bet: 4</strong></font> &nbsp; &nbsp; &nbsp; &nbsp; &nbsp; &nbsp;<font class='negOutcome'>You receive: <strong>0</strong></font></div>","null","7","Plum Powerball","Fruit/plums1.png","Lost","0.35,0.8","13","0.35","68","19","",""
"html-keyboard-response","67","80201","0.0-11.0-1.19","5e87900b524dca41065df104","bdp_rwlrn","Sun Mar 12 2023 23:12:57 GMT-0400 (Eastern Daylight Time)","336545","Trustworthy,Untrustworthy","","297","","","","decision","","<div class='trialDiv'><img src='Fruit/papayas.png'><br><font class='baseline'><strong>Papaya Payday</strong><p>Choose number of points to bet.</font><div class='respPicDiv'><img src='img/responseButtonOffersNo0L.png' class='respPic'></div></div>","5","7","Papaya Payday","Fruit/papayas.png","Lost","0.2,0.8","14","0.2","73","20","",""
"html-keyboard-response","68","80462","0.0-11.0-2.19","5e87900b524dca41065df104","bdp_rwlrn","Sun Mar 12 2023 23:12:57 GMT-0400 (Eastern Daylight Time)","336545","Trustworthy,Untrustworthy","","null","","","","decisionFB","","<div class='trialDiv'><img src='Fruit/papayas.png'><br><font class='baseline'><strong>Papaya Payday</strong><p>Choose number of points to bet.</font><div class='respPicDiv'><img src='img/responseButtonOffersNo0L5.png' class='respPic'></div></div>","null","7","Papaya Payday","Fruit/papayas.png","Lost","0.2,0.8","14","0.2","68","20","",""
"html-keyboard-response","69","81472","0.0-11.0-3.19","5e87900b524dca41065df104","bdp_rwlrn","Sun Mar 12 2023 23:12:57 GMT-0400 (Eastern Daylight Time)","336545","Trustworthy,Untrustworthy","","null","","","","feedback","","<div class='respPicDiv'><img src='img/responseButtonOffersNo0_wht.png' class='respPic'></div><div class='trialDiv'><img src='Fruit/papayas.png'><br><font class='baseline'><strong>Papaya Payday</strong><p><strong><font class='negOutcome'>You LOST</font><p>You bet: 5</strong></font> &nbsp; &nbsp; &nbsp; &nbsp; &nbsp; &nbsp;<font class='negOutcome'>You receive: <strong>0</strong></font></div>","null","7","Papaya Payday","Fruit/papayas.png","Lost","0.2,0.8","14","0.2","68","20","",""
"html-keyboard-response","70","81887","0.0-11.0-1.20","5e87900b524dca41065df104","bdp_rwlrn","Sun Mar 12 2023 23:12:57 GMT-0400 (Eastern Daylight Time)","336545","Trustworthy,Untrustworthy","","414","","","","decision","","<div class='trialDiv'><img src='Fruit/orange.png'><br><font class='baseline'><strong>Odds are Orange</strong><p>Choose number of points to bet.</font><div class='respPicDiv'><img src='img/responseButtonOffersNo0L.png' class='respPic'></div></div>","2","7","Odds are Orange","Fruit/orange.png","Won","0.8,0.35","14","0.8","73","21","",""
"html-keyboard-response","71","82145","0.0-11.0-2.20","5e87900b524dca41065df104","bdp_rwlrn","Sun Mar 12 2023 23:12:57 GMT-0400 (Eastern Daylight Time)","336545","Trustworthy,Untrustworthy","","null","","","","decisionFB","","<div class='trialDiv'><img src='Fruit/orange.png'><br><font class='baseline'><strong>Odds are Orange</strong><p>Choose number of points to bet.</font><div class='respPicDiv'><img src='img/responseButtonOffersNo0L2.png' class='respPic'></div></div>","null","7","Odds are Orange","Fruit/orange.png","Won","0.8,0.35","14","0.8","71","21","",""
"html-keyboard-response","72","83157","0.0-11.0-3.20","5e87900b524dca41065df104","bdp_rwlrn","Sun Mar 12 2023 23:12:57 GMT-0400 (Eastern Daylight Time)","336545","Trustworthy,Untrustworthy","","null","","","","feedback","","<div class='respPicDiv'><img src='img/responseButtonOffersNo0_wht.png' class='respPic'></div><div class='trialDiv'><img src='Fruit/orange.png'><br><font class='baseline'><strong>Odds are Orange</strong><p><strong><font class='posOutcome'>You WON</font><p>You bet: 2</strong></font> &nbsp; &nbsp; &nbsp; &nbsp; &nbsp; &nbsp;<font class='posOutcome'>you receive: <strong>4</strong></font></div>","null","7","Odds are Orange","Fruit/orange.png","Won","0.8,0.35","14","0.8","75","21","",""
"html-keyboard-response","73","83533","0.0-11.0-1.21","5e87900b524dca41065df104","bdp_rwlrn","Sun Mar 12 2023 23:12:57 GMT-0400 (Eastern Daylight Time)","336545","Trustworthy,Untrustworthy","","376","","","","decision","","<div class='trialDiv'><img src='Fruit/papayas.png'><br><font class='baseline'><strong>Papaya Payday</strong><p>Choose number of points to bet.</font><div class='respPicDiv'><img src='img/responseButtonOffersNo0L.png' class='respPic'></div></div>","3","8","Papaya Payday","Fruit/papayas.png","Won","0.2,0.8","14","0.2","80","22","",""
"html-keyboard-response","74","83795","0.0-11.0-2.21","5e87900b524dca41065df104","bdp_rwlrn","Sun Mar 12 2023 23:12:57 GMT-0400 (Eastern Daylight Time)","336545","Trustworthy,Untrustworthy","","null","","","","decisionFB","","<div class='trialDiv'><img src='Fruit/papayas.png'><br><font class='baseline'><strong>Papaya Payday</strong><p>Choose number of points to bet.</font><div class='respPicDiv'><img src='img/responseButtonOffersNo0L3.png' class='respPic'></div></div>","null","8","Papaya Payday","Fruit/papayas.png","Won","0.2,0.8","14","0.2","77","22","",""
"html-keyboard-response","75","84806","0.0-11.0-3.21","5e87900b524dca41065df104","bdp_rwlrn","Sun Mar 12 2023 23:12:57 GMT-0400 (Eastern Daylight Time)","336545","Trustworthy,Untrustworthy","","null","","","","feedback","","<div class='respPicDiv'><img src='img/responseButtonOffersNo0_wht.png' class='respPic'></div><div class='trialDiv'><img src='Fruit/papayas.png'><br><font class='baseline'><strong>Papaya Payday</strong><p><strong><font class='posOutcome'>You WON</font><p>You bet: 3</strong></font> &nbsp; &nbsp; &nbsp; &nbsp; &nbsp; &nbsp;<font class='posOutcome'>you receive: <strong>6</strong></font></div>","null","8","Papaya Payday","Fruit/papayas.png","Won","0.2,0.8","14","0.2","83","22","",""
"html-keyboard-response","76","84877","0.0-11.0-1.22","5e87900b524dca41065df104","bdp_rwlrn","Sun Mar 12 2023 23:12:57 GMT-0400 (Eastern Daylight Time)","336545","Trustworthy,Untrustworthy","","70","","","","decision","","<div class='trialDiv'><img src='Fruit/orange.png'><br><font class='baseline'><strong>Odds are Orange</strong><p>Choose number of points to bet.</font><div class='respPicDiv'><img src='img/responseButtonOffersNo0L.png' class='respPic'></div></div>","5","8","Odds are Orange","Fruit/orange.png","Won","0.8,0.35","14","0.8","88","23","",""
"html-keyboard-response","77","85134","0.0-11.0-2.22","5e87900b524dca41065df104","bdp_rwlrn","Sun Mar 12 2023 23:12:57 GMT-0400 (Eastern Daylight Time)","336545","Trustworthy,Untrustworthy","","null","","","","decisionFB","","<div class='trialDiv'><img src='Fruit/orange.png'><br><font class='baseline'><strong>Odds are Orange</strong><p>Choose number of points to bet.</font><div class='respPicDiv'><img src='img/responseButtonOffersNo0L5.png' class='respPic'></div></div>","null","8","Odds are Orange","Fruit/orange.png","Won","0.8,0.35","14","0.8","83","23","",""
"html-keyboard-response","78","86145","0.0-11.0-3.22","5e87900b524dca41065df104","bdp_rwlrn","Sun Mar 12 2023 23:12:57 GMT-0400 (Eastern Daylight Time)","336545","Trustworthy,Untrustworthy","","null","","","","feedback","","<div class='respPicDiv'><img src='img/responseButtonOffersNo0_wht.png' class='respPic'></div><div class='trialDiv'><img src='Fruit/orange.png'><br><font class='baseline'><strong>Odds are Orange</strong><p><strong><font class='posOutcome'>You WON</font><p>You bet: 5</strong></font> &nbsp; &nbsp; &nbsp; &nbsp; &nbsp; &nbsp;<font class='posOutcome'>you receive: <strong>10</strong></font></div>","null","8","Odds are Orange","Fruit/orange.png","Won","0.8,0.35","14","0.8","93","23","",""
"html-keyboard-response","79","86403","0.0-11.0-1.23","5e87900b524dca41065df104","bdp_rwlrn","Sun Mar 12 2023 23:12:57 GMT-0400 (Eastern Daylight Time)","336545","Trustworthy,Untrustworthy","","257","","","","decision","","<div class='trialDiv'><img src='Fruit/plums1.png'><br><font class='baseline'><strong>Plum Powerball</strong><p>Choose number of points to bet.</font><div class='respPicDiv'><img src='img/responseButtonOffersNo0L.png' class='respPic'></div></div>","4","8","Plum Powerball","Fruit/plums1.png","Lost","0.35,0.8","13","0.35","98","24","",""
"html-keyboard-response","80","86660","0.0-11.0-2.23","5e87900b524dca41065df104","bdp_rwlrn","Sun Mar 12 2023 23:12:57 GMT-0400 (Eastern Daylight Time)","336545","Trustworthy,Untrustworthy","","null","","","","decisionFB","","<div class='trialDiv'><img src='Fruit/plums1.png'><br><font class='baseline'><strong>Plum Powerball</strong><p>Choose number of points to bet.</font><div class='respPicDiv'><img src='img/responseButtonOffersNo0L4.png' class='respPic'></div></div>","null","8","Plum Powerball","Fruit/plums1.png","Lost","0.35,0.8","13","0.35","94","24","",""
"html-keyboard-response","81","87668","0.0-11.0-3.23","5e87900b524dca41065df104","bdp_rwlrn","Sun Mar 12 2023 23:12:57 GMT-0400 (Eastern Daylight Time)","336545","Trustworthy,Untrustworthy","","null","","","","feedback","","<div class='respPicDiv'><img src='img/responseButtonOffersNo0_wht.png' class='respPic'></div><div class='trialDiv'><img src='Fruit/plums1.png'><br><font class='baseline'><strong>Plum Powerball</strong><p><strong><font class='negOutcome'>You LOST</font><p>You bet: 4</strong></font> &nbsp; &nbsp; &nbsp; &nbsp; &nbsp; &nbsp;<font class='negOutcome'>You receive: <strong>0</strong></font></div>","null","8","Plum Powerball","Fruit/plums1.png","Lost","0.35,0.8","13","0.35","94","24","",""
"html-keyboard-response","82","87906","0.0-11.0-1.24","5e87900b524dca41065df104","bdp_rwlrn","Sun Mar 12 2023 23:12:57 GMT-0400 (Eastern Daylight Time)","336545","Trustworthy,Untrustworthy","","237","","","","decision","","<div class='trialDiv'><img src='Fruit/orange.png'><br><font class='baseline'><strong>Odds are Orange</strong><p>Choose number of points to bet.</font><div class='respPicDiv'><img src='img/responseButtonOffersNo0L.png' class='respPic'></div></div>","3","9","Odds are Orange","Fruit/orange.png","Won","0.8,0.35","14","0.8","99","25","",""
"html-keyboard-response","83","88167","0.0-11.0-2.24","5e87900b524dca41065df104","bdp_rwlrn","Sun Mar 12 2023 23:12:57 GMT-0400 (Eastern Daylight Time)","336545","Trustworthy,Untrustworthy","","null","","","","decisionFB","","<div class='trialDiv'><img src='Fruit/orange.png'><br><font class='baseline'><strong>Odds are Orange</strong><p>Choose number of points to bet.</font><div class='respPicDiv'><img src='img/responseButtonOffersNo0L3.png' class='respPic'></div></div>","null","9","Odds are Orange","Fruit/orange.png","Won","0.8,0.35","14","0.8","96","25","",""
"html-keyboard-response","84","89177","0.0-11.0-3.24","5e87900b524dca41065df104","bdp_rwlrn","Sun Mar 12 2023 23:12:57 GMT-0400 (Eastern Daylight Time)","336545","Trustworthy,Untrustworthy","","null","","","","feedback","","<div class='respPicDiv'><img src='img/responseButtonOffersNo0_wht.png' class='respPic'></div><div class='trialDiv'><img src='Fruit/orange.png'><br><font class='baseline'><strong>Odds are Orange</strong><p><strong><font class='posOutcome'>You WON</font><p>You bet: 3</strong></font> &nbsp; &nbsp; &nbsp; &nbsp; &nbsp; &nbsp;<font class='posOutcome'>you receive: <strong>6</strong></font></div>","null","9","Odds are Orange","Fruit/orange.png","Won","0.8,0.35","14","0.8","102","25","",""
"html-keyboard-response","85","89327","0.0-11.0-1.25","5e87900b524dca41065df104","bdp_rwlrn","Sun Mar 12 2023 23:12:57 GMT-0400 (Eastern Daylight Time)","336545","Trustworthy,Untrustworthy","","149","","","","decision","","<div class='trialDiv'><img src='Fruit/plums1.png'><br><font class='baseline'><strong>Plum Powerball</strong><p>Choose number of points to bet.</font><div class='respPicDiv'><img src='img/responseButtonOffersNo0L.png' class='respPic'></div></div>","5","9","Plum Powerball","Fruit/plums1.png","Won","0.35,0.8","13","0.35","107","26","",""
"html-keyboard-response","86","89583","0.0-11.0-2.25","5e87900b524dca41065df104","bdp_rwlrn","Sun Mar 12 2023 23:12:57 GMT-0400 (Eastern Daylight Time)","336545","Trustworthy,Untrustworthy","","null","","","","decisionFB","","<div class='trialDiv'><img src='Fruit/plums1.png'><br><font class='baseline'><strong>Plum Powerball</strong><p>Choose number of points to bet.</font><div class='respPicDiv'><img src='img/responseButtonOffersNo0L5.png' class='respPic'></div></div>","null","9","Plum Powerball","Fruit/plums1.png","Won","0.35,0.8","13","0.35","102","26","",""
"html-keyboard-response","87","90595","0.0-11.0-3.25","5e87900b524dca41065df104","bdp_rwlrn","Sun Mar 12 2023 23:12:57 GMT-0400 (Eastern Daylight Time)","336545","Trustworthy,Untrustworthy","","null","","","","feedback","","<div class='respPicDiv'><img src='img/responseButtonOffersNo0_wht.png' class='respPic'></div><div class='trialDiv'><img src='Fruit/plums1.png'><br><font class='baseline'><strong>Plum Powerball</strong><p><strong><font class='posOutcome'>You WON</font><p>You bet: 5</strong></font> &nbsp; &nbsp; &nbsp; &nbsp; &nbsp; &nbsp;<font class='posOutcome'>you receive: <strong>10</strong></font></div>","null","9","Plum Powerball","Fruit/plums1.png","Won","0.35,0.8","13","0.35","112","26","",""
"html-keyboard-response","88","90636","0.0-11.0-1.26","5e87900b524dca41065df104","bdp_rwlrn","Sun Mar 12 2023 23:12:57 GMT-0400 (Eastern Daylight Time)","336545","Trustworthy,Untrustworthy","","38","","","","decision","","<div class='trialDiv'><img src='Fruit/papayas.png'><br><font class='baseline'><strong>Papaya Payday</strong><p>Choose number of points to bet.</font><div class='respPicDiv'><img src='img/responseButtonOffersNo0L.png' class='respPic'></div></div>","3","9","Papaya Payday","Fruit/papayas.png","Won","0.2,0.8","14","0.2","117","27","",""
"html-keyboard-response","89","90891","0.0-11.0-2.26","5e87900b524dca41065df104","bdp_rwlrn","Sun Mar 12 2023 23:12:57 GMT-0400 (Eastern Daylight Time)","336545","Trustworthy,Untrustworthy","","null","","","","decisionFB","","<div class='trialDiv'><img src='Fruit/papayas.png'><br><font class='baseline'><strong>Papaya Payday</strong><p>Choose number of points to bet.</font><div class='respPicDiv'><img src='img/responseButtonOffersNo0L3.png' class='respPic'></div></div>","null","9","Papaya Payday","Fruit/papayas.png","Won","0.2,0.8","14","0.2","114","27","",""
"html-keyboard-response","90","91902","0.0-11.0-3.26","5e87900b524dca41065df104","bdp_rwlrn","Sun Mar 12 2023 23:12:57 GMT-0400 (Eastern Daylight Time)","336545","Trustworthy,Untrustworthy","","null","","","","feedback","","<div class='respPicDiv'><img src='img/responseButtonOffersNo0_wht.png' class='respPic'></div><div class='trialDiv'><img src='Fruit/papayas.png'><br><font class='baseline'><strong>Papaya Payday</strong><p><strong><font class='posOutcome'>You WON</font><p>You bet: 3</strong></font> &nbsp; &nbsp; &nbsp; &nbsp; &nbsp; &nbsp;<font class='posOutcome'>you receive: <strong>6</strong></font></div>","null","9","Papaya Payday","Fruit/papayas.png","Won","0.2,0.8","14","0.2","120","27","",""
"html-keyboard-response","91","91993","0.0-11.0-1.27","5e87900b524dca41065df104","bdp_rwlrn","Sun Mar 12 2023 23:12:57 GMT-0400 (Eastern Daylight Time)","336545","Trustworthy,Untrustworthy","","90","","","","decision","","<div class='trialDiv'><img src='Fruit/orange.png'><br><font class='baseline'><strong>Odds are Orange</strong><p>Choose number of points to bet.</font><div class='respPicDiv'><img src='img/responseButtonOffersNo0L.png' class='respPic'></div></div>","5","10","Odds are Orange","Fruit/orange.png","Won","0.8,0.35","14","0.8","125","28","",""
"html-keyboard-response","92","92262","0.0-11.0-2.27","5e87900b524dca41065df104","bdp_rwlrn","Sun Mar 12 2023 23:12:57 GMT-0400 (Eastern Daylight Time)","336545","Trustworthy,Untrustworthy","","null","","","","decisionFB","","<div class='trialDiv'><img src='Fruit/orange.png'><br><font class='baseline'><strong>Odds are Orange</strong><p>Choose number of points to bet.</font><div class='respPicDiv'><img src='img/responseButtonOffersNo0L5.png' class='respPic'></div></div>","null","10","Odds are Orange","Fruit/orange.png","Won","0.8,0.35","14","0.8","120","28","",""
"html-keyboard-response","93","93274","0.0-11.0-3.27","5e87900b524dca41065df104","bdp_rwlrn","Sun Mar 12 2023 23:12:57 GMT-0400 (Eastern Daylight Time)","336545","Trustworthy,Untrustworthy","","null","","","","feedback","","<div class='respPicDiv'><img src='img/responseButtonOffersNo0_wht.png' class='respPic'></div><div class='trialDiv'><img src='Fruit/orange.png'><br><font class='baseline'><strong>Odds are Orange</strong><p><strong><font class='posOutcome'>You WON</font><p>You bet: 5</strong></font> &nbsp; &nbsp; &nbsp; &nbsp; &nbsp; &nbsp;<font class='posOutcome'>you receive: <strong>10</strong></font></div>","null","10","Odds are Orange","Fruit/orange.png","Won","0.8,0.35","14","0.8","130","28","",""
"html-keyboard-response","94","94081","0.0-11.0-1.28","5e87900b524dca41065df104","bdp_rwlrn","Sun Mar 12 2023 23:12:57 GMT-0400 (Eastern Daylight Time)","336545","Trustworthy,Untrustworthy","","806","","","","decision","","<div class='trialDiv'><img src='Fruit/papayas.png'><br><font class='baseline'><strong>Papaya Payday</strong><p>Choose number of points to bet.</font><div class='respPicDiv'><img src='img/responseButtonOffersNo0L.png' class='respPic'></div></div>","3","10","Papaya Payday","Fruit/papayas.png","Won","0.2,0.8","14","0.2","135","29","",""
"html-keyboard-response","95","94335","0.0-11.0-2.28","5e87900b524dca41065df104","bdp_rwlrn","Sun Mar 12 2023 23:12:57 GMT-0400 (Eastern Daylight Time)","336545","Trustworthy,Untrustworthy","","null","","","","decisionFB","","<div class='trialDiv'><img src='Fruit/papayas.png'><br><font class='baseline'><strong>Papaya Payday</strong><p>Choose number of points to bet.</font><div class='respPicDiv'><img src='img/responseButtonOffersNo0L3.png' class='respPic'></div></div>","null","10","Papaya Payday","Fruit/papayas.png","Won","0.2,0.8","14","0.2","132","29","",""
"html-keyboard-response","96","95345","0.0-11.0-3.28","5e87900b524dca41065df104","bdp_rwlrn","Sun Mar 12 2023 23:12:57 GMT-0400 (Eastern Daylight Time)","336545","Trustworthy,Untrustworthy","","null","","","","feedback","","<div class='respPicDiv'><img src='img/responseButtonOffersNo0_wht.png' class='respPic'></div><div class='trialDiv'><img src='Fruit/papayas.png'><br><font class='baseline'><strong>Papaya Payday</strong><p><strong><font class='posOutcome'>You WON</font><p>You bet: 3</strong></font> &nbsp; &nbsp; &nbsp; &nbsp; &nbsp; &nbsp;<font class='posOutcome'>you receive: <strong>6</strong></font></div>","null","10","Papaya Payday","Fruit/papayas.png","Won","0.2,0.8","14","0.2","138","29","",""
"html-keyboard-response","97","95861","0.0-11.0-1.29","5e87900b524dca41065df104","bdp_rwlrn","Sun Mar 12 2023 23:12:57 GMT-0400 (Eastern Daylight Time)","336545","Trustworthy,Untrustworthy","","515","","","","decision","","<div class='trialDiv'><img src='Fruit/plums1.png'><br><font class='baseline'><strong>Plum Powerball</strong><p>Choose number of points to bet.</font><div class='respPicDiv'><img src='img/responseButtonOffersNo0L.png' class='respPic'></div></div>","5","10","Plum Powerball","Fruit/plums1.png","Lost","0.35,0.8","13","0.35","143","30","",""
"html-keyboard-response","98","96122","0.0-11.0-2.29","5e87900b524dca41065df104","bdp_rwlrn","Sun Mar 12 2023 23:12:57 GMT-0400 (Eastern Daylight Time)","336545","Trustworthy,Untrustworthy","","null","","","","decisionFB","","<div class='trialDiv'><img src='Fruit/plums1.png'><br><font class='baseline'><strong>Plum Powerball</strong><p>Choose number of points to bet.</font><div class='respPicDiv'><img src='img/responseButtonOffersNo0L5.png' class='respPic'></div></div>","null","10","Plum Powerball","Fruit/plums1.png","Lost","0.35,0.8","13","0.35","138","30","",""
"html-keyboard-response","99","97135","0.0-11.0-3.29","5e87900b524dca41065df104","bdp_rwlrn","Sun Mar 12 2023 23:12:57 GMT-0400 (Eastern Daylight Time)","336545","Trustworthy,Untrustworthy","","null","","","","feedback","","<div class='respPicDiv'><img src='img/responseButtonOffersNo0_wht.png' class='respPic'></div><div class='trialDiv'><img src='Fruit/plums1.png'><br><font class='baseline'><strong>Plum Powerball</strong><p><strong><font class='negOutcome'>You LOST</font><p>You bet: 5</strong></font> &nbsp; &nbsp; &nbsp; &nbsp; &nbsp; &nbsp;<font class='negOutcome'>You receive: <strong>0</strong></font></div>","null","10","Plum Powerball","Fruit/plums1.png","Lost","0.35,0.8","13","0.35","138","30","",""
"html-keyboard-response","100","97404","0.0-11.0-1.30","5e87900b524dca41065df104","bdp_rwlrn","Sun Mar 12 2023 23:12:57 GMT-0400 (Eastern Daylight Time)","336545","Trustworthy,Untrustworthy","","268","","","","decision","","<div class='trialDiv'><img src='Fruit/orange.png'><br><font class='baseline'><strong>Odds are Orange</strong><p>Choose number of points to bet.</font><div class='respPicDiv'><img src='img/responseButtonOffersNo0L.png' class='respPic'></div></div>","3","11","Odds are Orange","Fruit/orange.png","Lost","0.8,0.35","14","0.8","143","31","",""
"html-keyboard-response","101","97666","0.0-11.0-2.30","5e87900b524dca41065df104","bdp_rwlrn","Sun Mar 12 2023 23:12:57 GMT-0400 (Eastern Daylight Time)","336545","Trustworthy,Untrustworthy","","null","","","","decisionFB","","<div class='trialDiv'><img src='Fruit/orange.png'><br><font class='baseline'><strong>Odds are Orange</strong><p>Choose number of points to bet.</font><div class='respPicDiv'><img src='img/responseButtonOffersNo0L3.png' class='respPic'></div></div>","null","11","Odds are Orange","Fruit/orange.png","Lost","0.8,0.35","14","0.8","140","31","",""
"html-keyboard-response","102","98682","0.0-11.0-3.30","5e87900b524dca41065df104","bdp_rwlrn","Sun Mar 12 2023 23:12:57 GMT-0400 (Eastern Daylight Time)","336545","Trustworthy,Untrustworthy","","null","","","","feedback","","<div class='respPicDiv'><img src='img/responseButtonOffersNo0_wht.png' class='respPic'></div><div class='trialDiv'><img src='Fruit/orange.png'><br><font class='baseline'><strong>Odds are Orange</strong><p><strong><font class='negOutcome'>You LOST</font><p>You bet: 3</strong></font> &nbsp; &nbsp; &nbsp; &nbsp; &nbsp; &nbsp;<font class='negOutcome'>You receive: <strong>0</strong></font></div>","null","11","Odds are Orange","Fruit/orange.png","Lost","0.8,0.35","14","0.8","140","31","",""
"html-keyboard-response","103","98920","0.0-11.0-1.31","5e87900b524dca41065df104","bdp_rwlrn","Sun Mar 12 2023 23:12:57 GMT-0400 (Eastern Daylight Time)","336545","Trustworthy,Untrustworthy","","235","","","","decision","","<div class='trialDiv'><img src='Fruit/plums1.png'><br><font class='baseline'><strong>Plum Powerball</strong><p>Choose number of points to bet.</font><div class='respPicDiv'><img src='img/responseButtonOffersNo0L.png' class='respPic'></div></div>","4","11","Plum Powerball","Fruit/plums1.png","Won","0.35,0.8","13","0.35","145","32","",""
"html-keyboard-response","104","99180","0.0-11.0-2.31","5e87900b524dca41065df104","bdp_rwlrn","Sun Mar 12 2023 23:12:57 GMT-0400 (Eastern Daylight Time)","336545","Trustworthy,Untrustworthy","","null","","","","decisionFB","","<div class='trialDiv'><img src='Fruit/plums1.png'><br><font class='baseline'><strong>Plum Powerball</strong><p>Choose number of points to bet.</font><div class='respPicDiv'><img src='img/responseButtonOffersNo0L4.png' class='respPic'></div></div>","null","11","Plum Powerball","Fruit/plums1.png","Won","0.35,0.8","13","0.35","141","32","",""
"html-keyboard-response","105","100191","0.0-11.0-3.31","5e87900b524dca41065df104","bdp_rwlrn","Sun Mar 12 2023 23:12:57 GMT-0400 (Eastern Daylight Time)","336545","Trustworthy,Untrustworthy","","null","","","","feedback","","<div class='respPicDiv'><img src='img/responseButtonOffersNo0_wht.png' class='respPic'></div><div class='trialDiv'><img src='Fruit/plums1.png'><br><font class='baseline'><strong>Plum Powerball</strong><p><strong><font class='posOutcome'>You WON</font><p>You bet: 4</strong></font> &nbsp; &nbsp; &nbsp; &nbsp; &nbsp; &nbsp;<font class='posOutcome'>you receive: <strong>8</strong></font></div>","null","11","Plum Powerball","Fruit/plums1.png","Won","0.35,0.8","13","0.35","149","32","",""
"html-keyboard-response","106","100277","0.0-11.0-1.32","5e87900b524dca41065df104","bdp_rwlrn","Sun Mar 12 2023 23:12:57 GMT-0400 (Eastern Daylight Time)","336545","Trustworthy,Untrustworthy","","84","","","","decision","","<div class='trialDiv'><img src='Fruit/papayas.png'><br><font class='baseline'><strong>Papaya Payday</strong><p>Choose number of points to bet.</font><div class='respPicDiv'><img src='img/responseButtonOffersNo0L.png' class='respPic'></div></div>","2","11","Papaya Payday","Fruit/papayas.png","Lost","0.2,0.8","14","0.2","154","33","",""
"html-keyboard-response","107","100533","0.0-11.0-2.32","5e87900b524dca41065df104","bdp_rwlrn","Sun Mar 12 2023 23:12:57 GMT-0400 (Eastern Daylight Time)","336545","Trustworthy,Untrustworthy","","null","","","","decisionFB","","<div class='trialDiv'><img src='Fruit/papayas.png'><br><font class='baseline'><strong>Papaya Payday</strong><p>Choose number of points to bet.</font><div class='respPicDiv'><img src='img/responseButtonOffersNo0L2.png' class='respPic'></div></div>","null","11","Papaya Payday","Fruit/papayas.png","Lost","0.2,0.8","14","0.2","152","33","",""
"html-keyboard-response","108","101546","0.0-11.0-3.32","5e87900b524dca41065df104","bdp_rwlrn","Sun Mar 12 2023 23:12:57 GMT-0400 (Eastern Daylight Time)","336545","Trustworthy,Untrustworthy","","null","","","","feedback","","<div class='respPicDiv'><img src='img/responseButtonOffersNo0_wht.png' class='respPic'></div><div class='trialDiv'><img src='Fruit/papayas.png'><br><font class='baseline'><strong>Papaya Payday</strong><p><strong><font class='negOutcome'>You LOST</font><p>You bet: 2</strong></font> &nbsp; &nbsp; &nbsp; &nbsp; &nbsp; &nbsp;<font class='negOutcome'>You receive: <strong>0</strong></font></div>","null","11","Papaya Payday","Fruit/papayas.png","Lost","0.2,0.8","14","0.2","152","33","",""
"html-keyboard-response","109","101851","0.0-11.0-1.33","5e87900b524dca41065df104","bdp_rwlrn","Sun Mar 12 2023 23:12:57 GMT-0400 (Eastern Daylight Time)","336545","Trustworthy,Untrustworthy","","303","","","","decision","","<div class='trialDiv'><img src='Fruit/plums1.png'><br><font class='baseline'><strong>Plum Powerball</strong><p>Choose number of points to bet.</font><div class='respPicDiv'><img src='img/responseButtonOffersNo0L.png' class='respPic'></div></div>","5","12","Plum Powerball","Fruit/plums1.png","Lost","0.35,0.8","13","0.35","157","34","",""
"html-keyboard-response","110","102109","0.0-11.0-2.33","5e87900b524dca41065df104","bdp_rwlrn","Sun Mar 12 2023 23:12:57 GMT-0400 (Eastern Daylight Time)","336545","Trustworthy,Untrustworthy","","null","","","","decisionFB","","<div class='trialDiv'><img src='Fruit/plums1.png'><br><font class='baseline'><strong>Plum Powerball</strong><p>Choose number of points to bet.</font><div class='respPicDiv'><img src='img/responseButtonOffersNo0L5.png' class='respPic'></div></div>","null","12","Plum Powerball","Fruit/plums1.png","Lost","0.35,0.8","13","0.35","152","34","",""
"html-keyboard-response","111","103120","0.0-11.0-3.33","5e87900b524dca41065df104","bdp_rwlrn","Sun Mar 12 2023 23:12:57 GMT-0400 (Eastern Daylight Time)","336545","Trustworthy,Untrustworthy","","null","","","","feedback","","<div class='respPicDiv'><img src='img/responseButtonOffersNo0_wht.png' class='respPic'></div><div class='trialDiv'><img src='Fruit/plums1.png'><br><font class='baseline'><strong>Plum Powerball</strong><p><strong><font class='negOutcome'>You LOST</font><p>You bet: 5</strong></font> &nbsp; &nbsp; &nbsp; &nbsp; &nbsp; &nbsp;<font class='negOutcome'>You receive: <strong>0</strong></font></div>","null","12","Plum Powerball","Fruit/plums1.png","Lost","0.35,0.8","13","0.35","152","34","",""
"html-keyboard-response","112","103304","0.0-11.0-1.34","5e87900b524dca41065df104","bdp_rwlrn","Sun Mar 12 2023 23:12:57 GMT-0400 (Eastern Daylight Time)","336545","Trustworthy,Untrustworthy","","183","","","","decision","","<div class='trialDiv'><img src='Fruit/orange.png'><br><font class='baseline'><strong>Odds are Orange</strong><p>Choose number of points to bet.</font><div class='respPicDiv'><img src='img/responseButtonOffersNo0L.png' class='respPic'></div></div>","3","12","Odds are Orange","Fruit/orange.png","Lost","0.8,0.35","14","0.8","157","35","",""
"html-keyboard-response","113","103571","0.0-11.0-2.34","5e87900b524dca41065df104","bdp_rwlrn","Sun Mar 12 2023 23:12:57 GMT-0400 (Eastern Daylight Time)","336545","Trustworthy,Untrustworthy","","null","","","","decisionFB","","<div class='trialDiv'><img src='Fruit/orange.png'><br><font class='baseline'><strong>Odds are Orange</strong><p>Choose number of points to bet.</font><div class='respPicDiv'><img src='img/responseButtonOffersNo0L3.png' class='respPic'></div></div>","null","12","Odds are Orange","Fruit/orange.png","Lost","0.8,0.35","14","0.8","154","35","",""
"html-keyboard-response","114","104584","0.0-11.0-3.34","5e87900b524dca41065df104","bdp_rwlrn","Sun Mar 12 2023 23:12:57 GMT-0400 (Eastern Daylight Time)","336545","Trustworthy,Untrustworthy","","null","","","","feedback","","<div class='respPicDiv'><img src='img/responseButtonOffersNo0_wht.png' class='respPic'></div><div class='trialDiv'><img src='Fruit/orange.png'><br><font class='baseline'><strong>Odds are Orange</strong><p><strong><font class='negOutcome'>You LOST</font><p>You bet: 3</strong></font> &nbsp; &nbsp; &nbsp; &nbsp; &nbsp; &nbsp;<font class='negOutcome'>You receive: <strong>0</strong></font></div>","null","12","Odds are Orange","Fruit/orange.png","Lost","0.8,0.35","14","0.8","154","35","",""
"html-keyboard-response","115","104638","0.0-11.0-1.35","5e87900b524dca41065df104","bdp_rwlrn","Sun Mar 12 2023 23:12:57 GMT-0400 (Eastern Daylight Time)","336545","Trustworthy,Untrustworthy","","53","","","","decision","","<div class='trialDiv'><img src='Fruit/papayas.png'><br><font class='baseline'><strong>Papaya Payday</strong><p>Choose number of points to bet.</font><div class='respPicDiv'><img src='img/responseButtonOffersNo0L.png' class='respPic'></div></div>","5","12","Papaya Payday","Fruit/papayas.png","Lost","0.2,0.8","14","0.2","159","36","",""
"html-keyboard-response","116","104895","0.0-11.0-2.35","5e87900b524dca41065df104","bdp_rwlrn","Sun Mar 12 2023 23:12:57 GMT-0400 (Eastern Daylight Time)","336545","Trustworthy,Untrustworthy","","null","","","","decisionFB","","<div class='trialDiv'><img src='Fruit/papayas.png'><br><font class='baseline'><strong>Papaya Payday</strong><p>Choose number of points to bet.</font><div class='respPicDiv'><img src='img/responseButtonOffersNo0L5.png' class='respPic'></div></div>","null","12","Papaya Payday","Fruit/papayas.png","Lost","0.2,0.8","14","0.2","154","36","",""
"html-keyboard-response","117","105904","0.0-11.0-3.35","5e87900b524dca41065df104","bdp_rwlrn","Sun Mar 12 2023 23:12:57 GMT-0400 (Eastern Daylight Time)","336545","Trustworthy,Untrustworthy","","null","","","","feedback","","<div class='respPicDiv'><img src='img/responseButtonOffersNo0_wht.png' class='respPic'></div><div class='trialDiv'><img src='Fruit/papayas.png'><br><font class='baseline'><strong>Papaya Payday</strong><p><strong><font class='negOutcome'>You LOST</font><p>You bet: 5</strong></font> &nbsp; &nbsp; &nbsp; &nbsp; &nbsp; &nbsp;<font class='negOutcome'>You receive: <strong>0</strong></font></div>","null","12","Papaya Payday","Fruit/papayas.png","Lost","0.2,0.8","14","0.2","154","36","",""
"html-keyboard-response","118","106133","0.0-11.0-1.36","5e87900b524dca41065df104","bdp_rwlrn","Sun Mar 12 2023 23:12:57 GMT-0400 (Eastern Daylight Time)","336545","Trustworthy,Untrustworthy","","228","","","","decision","","<div class='trialDiv'><img src='Fruit/orange.png'><br><font class='baseline'><strong>Odds are Orange</strong><p>Choose number of points to bet.</font><div class='respPicDiv'><img src='img/responseButtonOffersNo0L.png' class='respPic'></div></div>","3","13","Odds are Orange","Fruit/orange.png","Lost","0.8,0.35","14","0.8","159","37","",""
"html-keyboard-response","119","106385","0.0-11.0-2.36","5e87900b524dca41065df104","bdp_rwlrn","Sun Mar 12 2023 23:12:57 GMT-0400 (Eastern Daylight Time)","336545","Trustworthy,Untrustworthy","","null","","","","decisionFB","","<div class='trialDiv'><img src='Fruit/orange.png'><br><font class='baseline'><strong>Odds are Orange</strong><p>Choose number of points to bet.</font><div class='respPicDiv'><img src='img/responseButtonOffersNo0L3.png' class='respPic'></div></div>","null","13","Odds are Orange","Fruit/orange.png","Lost","0.8,0.35","14","0.8","156","37","",""
"html-keyboard-response","120","107392","0.0-11.0-3.36","5e87900b524dca41065df104","bdp_rwlrn","Sun Mar 12 2023 23:12:57 GMT-0400 (Eastern Daylight Time)","336545","Trustworthy,Untrustworthy","","null","","","","feedback","","<div class='respPicDiv'><img src='img/responseButtonOffersNo0_wht.png' class='respPic'></div><div class='trialDiv'><img src='Fruit/orange.png'><br><font class='baseline'><strong>Odds are Orange</strong><p><strong><font class='negOutcome'>You LOST</font><p>You bet: 3</strong></font> &nbsp; &nbsp; &nbsp; &nbsp; &nbsp; &nbsp;<font class='negOutcome'>You receive: <strong>0</strong></font></div>","null","13","Odds are Orange","Fruit/orange.png","Lost","0.8,0.35","14","0.8","156","37","",""
"html-keyboard-response","121","107803","0.0-11.0-1.37","5e87900b524dca41065df104","bdp_rwlrn","Sun Mar 12 2023 23:12:57 GMT-0400 (Eastern Daylight Time)","336545","Trustworthy,Untrustworthy","","410","","","","decision","","<div class='trialDiv'><img src='Fruit/papayas.png'><br><font class='baseline'><strong>Papaya Payday</strong><p>Choose number of points to bet.</font><div class='respPicDiv'><img src='img/responseButtonOffersNo0L.png' class='respPic'></div></div>","2","13","Papaya Payday","Fruit/papayas.png","Lost","0.2,0.8","14","0.2","161","38","",""
"html-keyboard-response","122","108060","0.0-11.0-2.37","5e87900b524dca41065df104","bdp_rwlrn","Sun Mar 12 2023 23:12:57 GMT-0400 (Eastern Daylight Time)","336545","Trustworthy,Untrustworthy","","null","","","","decisionFB","","<div class='trialDiv'><img src='Fruit/papayas.png'><br><font class='baseline'><strong>Papaya Payday</strong><p>Choose number of points to bet.</font><div class='respPicDiv'><img src='img/responseButtonOffersNo0L2.png' class='respPic'></div></div>","null","13","Papaya Payday","Fruit/papayas.png","Lost","0.2,0.8","14","0.2","159","38","",""
"html-keyboard-response","123","109072","0.0-11.0-3.37","5e87900b524dca41065df104","bdp_rwlrn","Sun Mar 12 2023 23:12:57 GMT-0400 (Eastern Daylight Time)","336545","Trustworthy,Untrustworthy","","null","","","","feedback","","<div class='respPicDiv'><img src='img/responseButtonOffersNo0_wht.png' class='respPic'></div><div class='trialDiv'><img src='Fruit/papayas.png'><br><font class='baseline'><strong>Papaya Payday</strong><p><strong><font class='negOutcome'>You LOST</font><p>You bet: 2</strong></font> &nbsp; &nbsp; &nbsp; &nbsp; &nbsp; &nbsp;<font class='negOutcome'>You receive: <strong>0</strong></font></div>","null","13","Papaya Payday","Fruit/papayas.png","Lost","0.2,0.8","14","0.2","159","38","",""
"html-keyboard-response","124","109323","0.0-11.0-1.38","5e87900b524dca41065df104","bdp_rwlrn","Sun Mar 12 2023 23:12:57 GMT-0400 (Eastern Daylight Time)","336545","Trustworthy,Untrustworthy","","250","","","","decision","","<div class='trialDiv'><img src='Fruit/plums1.png'><br><font class='baseline'><strong>Plum Powerball</strong><p>Choose number of points to bet.</font><div class='respPicDiv'><img src='img/responseButtonOffersNo0L.png' class='respPic'></div></div>","1","13","Plum Powerball","Fruit/plums1.png","Won","0.35,0.8","13","0.35","164","39","",""
"html-keyboard-response","125","109584","0.0-11.0-2.38","5e87900b524dca41065df104","bdp_rwlrn","Sun Mar 12 2023 23:12:57 GMT-0400 (Eastern Daylight Time)","336545","Trustworthy,Untrustworthy","","null","","","","decisionFB","","<div class='trialDiv'><img src='Fruit/plums1.png'><br><font class='baseline'><strong>Plum Powerball</strong><p>Choose number of points to bet.</font><div class='respPicDiv'><img src='img/responseButtonOffersNo0L1.png' class='respPic'></div></div>","null","13","Plum Powerball","Fruit/plums1.png","Won","0.35,0.8","13","0.35","163","39","",""
"html-keyboard-response","126","110595","0.0-11.0-3.38","5e87900b524dca41065df104","bdp_rwlrn","Sun Mar 12 2023 23:12:57 GMT-0400 (Eastern Daylight Time)","336545","Trustworthy,Untrustworthy","","null","","","","feedback","","<div class='respPicDiv'><img src='img/responseButtonOffersNo0_wht.png' class='respPic'></div><div class='trialDiv'><img src='Fruit/plums1.png'><br><font class='baseline'><strong>Plum Powerball</strong><p><strong><font class='posOutcome'>You WON</font><p>You bet: 1</strong></font> &nbsp; &nbsp; &nbsp; &nbsp; &nbsp; &nbsp;<font class='posOutcome'>you receive: <strong>2</strong></font></div>","null","13","Plum Powerball","Fruit/plums1.png","Won","0.35,0.8","13","0.35","165","39","",""
"html-keyboard-response","127","110837","0.0-11.0-1.39","5e87900b524dca41065df104","bdp_rwlrn","Sun Mar 12 2023 23:12:57 GMT-0400 (Eastern Daylight Time)","336545","Trustworthy,Untrustworthy","","240","","","","decision","","<div class='trialDiv'><img src='Fruit/orange.png'><br><font class='baseline'><strong>Odds are Orange</strong><p>Choose number of points to bet.</font><div class='respPicDiv'><img src='img/responseButtonOffersNo0L.png' class='respPic'></div></div>","5","14","Odds are Orange","Fruit/orange.png","Lost","0.8,0.35","14","0.8","170","40","",""
"html-keyboard-response","128","111094","0.0-11.0-2.39","5e87900b524dca41065df104","bdp_rwlrn","Sun Mar 12 2023 23:12:57 GMT-0400 (Eastern Daylight Time)","336545","Trustworthy,Untrustworthy","","null","","","","decisionFB","","<div class='trialDiv'><img src='Fruit/orange.png'><br><font class='baseline'><strong>Odds are Orange</strong><p>Choose number of points to bet.</font><div class='respPicDiv'><img src='img/responseButtonOffersNo0L5.png' class='respPic'></div></div>","null","14","Odds are Orange","Fruit/orange.png","Lost","0.8,0.35","14","0.8","165","40","",""
"html-keyboard-response","129","112102","0.0-11.0-3.39","5e87900b524dca41065df104","bdp_rwlrn","Sun Mar 12 2023 23:12:57 GMT-0400 (Eastern Daylight Time)","336545","Trustworthy,Untrustworthy","","null","","","","feedback","","<div class='respPicDiv'><img src='img/responseButtonOffersNo0_wht.png' class='respPic'></div><div class='trialDiv'><img src='Fruit/orange.png'><br><font class='baseline'><strong>Odds are Orange</strong><p><strong><font class='negOutcome'>You LOST</font><p>You bet: 5</strong></font> &nbsp; &nbsp; &nbsp; &nbsp; &nbsp; &nbsp;<font class='negOutcome'>You receive: <strong>0</strong></font></div>","null","14","Odds are Orange","Fruit/orange.png","Lost","0.8,0.35","14","0.8","165","40","",""
"html-keyboard-response","130","112371","0.0-11.0-1.40","5e87900b524dca41065df104","bdp_rwlrn","Sun Mar 12 2023 23:12:57 GMT-0400 (Eastern Daylight Time)","336545","Trustworthy,Untrustworthy","","266","","","","decision","","<div class='trialDiv'><img src='Fruit/plums1.png'><br><font class='baseline'><strong>Plum Powerball</strong><p>Choose number of points to bet.</font><div class='respPicDiv'><img src='img/responseButtonOffersNo0L.png' class='respPic'></div></div>","3","14","Plum Powerball","Fruit/plums1.png","Lost","0.35,0.8","13","0.35","170","41","",""
"html-keyboard-response","131","112632","0.0-11.0-2.40","5e87900b524dca41065df104","bdp_rwlrn","Sun Mar 12 2023 23:12:57 GMT-0400 (Eastern Daylight Time)","336545","Trustworthy,Untrustworthy","","null","","","","decisionFB","","<div class='trialDiv'><img src='Fruit/plums1.png'><br><font class='baseline'><strong>Plum Powerball</strong><p>Choose number of points to bet.</font><div class='respPicDiv'><img src='img/responseButtonOffersNo0L3.png' class='respPic'></div></div>","null","14","Plum Powerball","Fruit/plums1.png","Lost","0.35,0.8","13","0.35","167","41","",""
"html-keyboard-response","132","113644","0.0-11.0-3.40","5e87900b524dca41065df104","bdp_rwlrn","Sun Mar 12 2023 23:12:57 GMT-0400 (Eastern Daylight Time)","336545","Trustworthy,Untrustworthy","","null","","","","feedback","","<div class='respPicDiv'><img src='img/responseButtonOffersNo0_wht.png' class='respPic'></div><div class='trialDiv'><img src='Fruit/plums1.png'><br><font class='baseline'><strong>Plum Powerball</strong><p><strong><font class='negOutcome'>You LOST</font><p>You bet: 3</strong></font> &nbsp; &nbsp; &nbsp; &nbsp; &nbsp; &nbsp;<font class='negOutcome'>You receive: <strong>0</strong></font></div>","null","14","Plum Powerball","Fruit/plums1.png","Lost","0.35,0.8","13","0.35","167","41","",""
"html-keyboard-response","133","113918","0.0-11.0-1.41","5e87900b524dca41065df104","bdp_rwlrn","Sun Mar 12 2023 23:12:57 GMT-0400 (Eastern Daylight Time)","336545","Trustworthy,Untrustworthy","","273","","","","decision","","<div class='trialDiv'><img src='Fruit/papayas.png'><br><font class='baseline'><strong>Papaya Payday</strong><p>Choose number of points to bet.</font><div class='respPicDiv'><img src='img/responseButtonOffersNo0L.png' class='respPic'></div></div>","2","14","Papaya Payday","Fruit/papayas.png","Won","0.2,0.8","14","0.2","172","42","",""
"html-keyboard-response","134","114175","0.0-11.0-2.41","5e87900b524dca41065df104","bdp_rwlrn","Sun Mar 12 2023 23:12:57 GMT-0400 (Eastern Daylight Time)","336545","Trustworthy,Untrustworthy","","null","","","","decisionFB","","<div class='trialDiv'><img src='Fruit/papayas.png'><br><font class='baseline'><strong>Papaya Payday</strong><p>Choose number of points to bet.</font><div class='respPicDiv'><img src='img/responseButtonOffersNo0L2.png' class='respPic'></div></div>","null","14","Papaya Payday","Fruit/papayas.png","Won","0.2,0.8","14","0.2","170","42","",""
"html-keyboard-response","135","115192","0.0-11.0-3.41","5e87900b524dca41065df104","bdp_rwlrn","Sun Mar 12 2023 23:12:57 GMT-0400 (Eastern Daylight Time)","336545","Trustworthy,Untrustworthy","","null","","","","feedback","","<div class='respPicDiv'><img src='img/responseButtonOffersNo0_wht.png' class='respPic'></div><div class='trialDiv'><img src='Fruit/papayas.png'><br><font class='baseline'><strong>Papaya Payday</strong><p><strong><font class='posOutcome'>You WON</font><p>You bet: 2</strong></font> &nbsp; &nbsp; &nbsp; &nbsp; &nbsp; &nbsp;<font class='posOutcome'>you receive: <strong>4</strong></font></div>","null","14","Papaya Payday","Fruit/papayas.png","Won","0.2,0.8","14","0.2","174","42","",""
"html-keyboard-response","136","115578","0.0-11.0-1.42","5e87900b524dca41065df104","bdp_rwlrn","Sun Mar 12 2023 23:12:57 GMT-0400 (Eastern Daylight Time)","336545","Trustworthy,Untrustworthy","","384","","","","decision","","<div class='trialDiv'><img src='Fruit/plums1.png'><br><font class='baseline'><strong>Plum Powerball</strong><p>Choose number of points to bet.</font><div class='respPicDiv'><img src='img/responseButtonOffersNo0L.png' class='respPic'></div></div>","3","15","Plum Powerball","Fruit/plums1.png","Won","0.35,0.8","13","0.35","179","43","",""
"html-keyboard-response","137","115845","0.0-11.0-2.42","5e87900b524dca41065df104","bdp_rwlrn","Sun Mar 12 2023 23:12:57 GMT-0400 (Eastern Daylight Time)","336545","Trustworthy,Untrustworthy","","null","","","","decisionFB","","<div class='trialDiv'><img src='Fruit/plums1.png'><br><font class='baseline'><strong>Plum Powerball</strong><p>Choose number of points to bet.</font><div class='respPicDiv'><img src='img/responseButtonOffersNo0L3.png' class='respPic'></div></div>","null","15","Plum Powerball","Fruit/plums1.png","Won","0.35,0.8","13","0.35","176","43","",""
"html-keyboard-response","138","116858","0.0-11.0-3.42","5e87900b524dca41065df104","bdp_rwlrn","Sun Mar 12 2023 23:12:57 GMT-0400 (Eastern Daylight Time)","336545","Trustworthy,Untrustworthy","","null","","","","feedback","","<div class='respPicDiv'><img src='img/responseButtonOffersNo0_wht.png' class='respPic'></div><div class='trialDiv'><img src='Fruit/plums1.png'><br><font class='baseline'><strong>Plum Powerball</strong><p><strong><font class='posOutcome'>You WON</font><p>You bet: 3</strong></font> &nbsp; &nbsp; &nbsp; &nbsp; &nbsp; &nbsp;<font class='posOutcome'>you receive: <strong>6</strong></font></div>","null","15","Plum Powerball","Fruit/plums1.png","Won","0.35,0.8","13","0.35","182","43","",""
"html-keyboard-response","139","117096","0.0-11.0-1.43","5e87900b524dca41065df104","bdp_rwlrn","Sun Mar 12 2023 23:12:57 GMT-0400 (Eastern Daylight Time)","336545","Trustworthy,Untrustworthy","","237","","","","decision","","<div class='trialDiv'><img src='Fruit/papayas.png'><br><font class='baseline'><strong>Papaya Payday</strong><p>Choose number of points to bet.</font><div class='respPicDiv'><img src='img/responseButtonOffersNo0L.png' class='respPic'></div></div>","4","15","Papaya Payday","Fruit/papayas.png","Won","0.2,0.8","14","0.2","187","44","",""
"html-keyboard-response","140","117357","0.0-11.0-2.43","5e87900b524dca41065df104","bdp_rwlrn","Sun Mar 12 2023 23:12:57 GMT-0400 (Eastern Daylight Time)","336545","Trustworthy,Untrustworthy","","null","","","","decisionFB","","<div class='trialDiv'><img src='Fruit/papayas.png'><br><font class='baseline'><strong>Papaya Payday</strong><p>Choose number of points to bet.</font><div class='respPicDiv'><img src='img/responseButtonOffersNo0L4.png' class='respPic'></div></div>","null","15","Papaya Payday","Fruit/papayas.png","Won","0.2,0.8","14","0.2","183","44","",""
"html-keyboard-response","141","118364","0.0-11.0-3.43","5e87900b524dca41065df104","bdp_rwlrn","Sun Mar 12 2023 23:12:57 GMT-0400 (Eastern Daylight Time)","336545","Trustworthy,Untrustworthy","","null","","","","feedback","","<div class='respPicDiv'><img src='img/responseButtonOffersNo0_wht.png' class='respPic'></div><div class='trialDiv'><img src='Fruit/papayas.png'><br><font class='baseline'><strong>Papaya Payday</strong><p><strong><font class='posOutcome'>You WON</font><p>You bet: 4</strong></font> &nbsp; &nbsp; &nbsp; &nbsp; &nbsp; &nbsp;<font class='posOutcome'>you receive: <strong>8</strong></font></div>","null","15","Papaya Payday","Fruit/papayas.png","Won","0.2,0.8","14","0.2","191","44","",""
"html-keyboard-response","142","118624","0.0-11.0-1.44","5e87900b524dca41065df104","bdp_rwlrn","Sun Mar 12 2023 23:12:57 GMT-0400 (Eastern Daylight Time)","336545","Trustworthy,Untrustworthy","","259","","","","decision","","<div class='trialDiv'><img src='Fruit/orange.png'><br><font class='baseline'><strong>Odds are Orange</strong><p>Choose number of points to bet.</font><div class='respPicDiv'><img src='img/responseButtonOffersNo0L.png' class='respPic'></div></div>","3","15","Odds are Orange","Fruit/orange.png","Won","0.8,0.35","14","0.8","196","45","",""
"html-keyboard-response","143","118891","0.0-11.0-2.44","5e87900b524dca41065df104","bdp_rwlrn","Sun Mar 12 2023 23:12:57 GMT-0400 (Eastern Daylight Time)","336545","Trustworthy,Untrustworthy","","null","","","","decisionFB","","<div class='trialDiv'><img src='Fruit/orange.png'><br><font class='baseline'><strong>Odds are Orange</strong><p>Choose number of points to bet.</font><div class='respPicDiv'><img src='img/responseButtonOffersNo0L3.png' class='respPic'></div></div>","null","15","Odds are Orange","Fruit/orange.png","Won","0.8,0.35","14","0.8","193","45","",""
"html-keyboard-response","144","119907","0.0-11.0-3.44","5e87900b524dca41065df104","bdp_rwlrn","Sun Mar 12 2023 23:12:57 GMT-0400 (Eastern Daylight Time)","336545","Trustworthy,Untrustworthy","","null","","","","feedback","","<div class='respPicDiv'><img src='img/responseButtonOffersNo0_wht.png' class='respPic'></div><div class='trialDiv'><img src='Fruit/orange.png'><br><font class='baseline'><strong>Odds are Orange</strong><p><strong><font class='posOutcome'>You WON</font><p>You bet: 3</strong></font> &nbsp; &nbsp; &nbsp; &nbsp; &nbsp; &nbsp;<font class='posOutcome'>you receive: <strong>6</strong></font></div>","null","15","Odds are Orange","Fruit/orange.png","Won","0.8,0.35","14","0.8","199","45","",""
"html-keyboard-response","145","120164","0.0-11.0-1.45","5e87900b524dca41065df104","bdp_rwlrn","Sun Mar 12 2023 23:12:57 GMT-0400 (Eastern Daylight Time)","336545","Trustworthy,Untrustworthy","","256","","","","decision","","<div class='trialDiv'><img src='Fruit/papayas.png'><br><font class='baseline'><strong>Papaya Payday</strong><p>Choose number of points to bet.</font><div class='respPicDiv'><img src='img/responseButtonOffersNo0L.png' class='respPic'></div></div>","2","16","Papaya Payday","Fruit/papayas.png","Won","0.2,0.8","14","0.2","204","46","",""
"html-keyboard-response","146","120420","0.0-11.0-2.45","5e87900b524dca41065df104","bdp_rwlrn","Sun Mar 12 2023 23:12:57 GMT-0400 (Eastern Daylight Time)","336545","Trustworthy,Untrustworthy","","null","","","","decisionFB","","<div class='trialDiv'><img src='Fruit/papayas.png'><br><font class='baseline'><strong>Papaya Payday</strong><p>Choose number of points to bet.</font><div class='respPicDiv'><img src='img/responseButtonOffersNo0L2.png' class='respPic'></div></div>","null","16","Papaya Payday","Fruit/papayas.png","Won","0.2,0.8","14","0.2","202","46","",""
"html-keyboard-response","147","121433","0.0-11.0-3.45","5e87900b524dca41065df104","bdp_rwlrn","Sun Mar 12 2023 23:12:57 GMT-0400 (Eastern Daylight Time)","336545","Trustworthy,Untrustworthy","","null","","","","feedback","","<div class='respPicDiv'><img src='img/responseButtonOffersNo0_wht.png' class='respPic'></div><div class='trialDiv'><img src='Fruit/papayas.png'><br><font class='baseline'><strong>Papaya Payday</strong><p><strong><font class='posOutcome'>You WON</font><p>You bet: 2</strong></font> &nbsp; &nbsp; &nbsp; &nbsp; &nbsp; &nbsp;<font class='posOutcome'>you receive: <strong>4</strong></font></div>","null","16","Papaya Payday","Fruit/papayas.png","Won","0.2,0.8","14","0.2","206","46","",""
"html-keyboard-response","148","121700","0.0-11.0-1.46","5e87900b524dca41065df104","bdp_rwlrn","Sun Mar 12 2023 23:12:57 GMT-0400 (Eastern Daylight Time)","336545","Trustworthy,Untrustworthy","","265","","","","decision","","<div class='trialDiv'><img src='Fruit/plums1.png'><br><font class='baseline'><strong>Plum Powerball</strong><p>Choose number of points to bet.</font><div class='respPicDiv'><img src='img/responseButtonOffersNo0L.png' class='respPic'></div></div>","3","16","Plum Powerball","Fruit/plums1.png","Lost","0.35,0.8","13","0.35","211","47","",""
"html-keyboard-response","149","121961","0.0-11.0-2.46","5e87900b524dca41065df104","bdp_rwlrn","Sun Mar 12 2023 23:12:57 GMT-0400 (Eastern Daylight Time)","336545","Trustworthy,Untrustworthy","","null","","","","decisionFB","","<div class='trialDiv'><img src='Fruit/plums1.png'><br><font class='baseline'><strong>Plum Powerball</strong><p>Choose number of points to bet.</font><div class='respPicDiv'><img src='img/responseButtonOffersNo0L3.png' class='respPic'></div></div>","null","16","Plum Powerball","Fruit/plums1.png","Lost","0.35,0.8","13","0.35","208","47","",""
"html-keyboard-response","150","122969","0.0-11.0-3.46","5e87900b524dca41065df104","bdp_rwlrn","Sun Mar 12 2023 23:12:57 GMT-0400 (Eastern Daylight Time)","336545","Trustworthy,Untrustworthy","","null","","","","feedback","","<div class='respPicDiv'><img src='img/responseButtonOffersNo0_wht.png' class='respPic'></div><div class='trialDiv'><img src='Fruit/plums1.png'><br><font class='baseline'><strong>Plum Powerball</strong><p><strong><font class='negOutcome'>You LOST</font><p>You bet: 3</strong></font> &nbsp; &nbsp; &nbsp; &nbsp; &nbsp; &nbsp;<font class='negOutcome'>You receive: <strong>0</strong></font></div>","null","16","Plum Powerball","Fruit/plums1.png","Lost","0.35,0.8","13","0.35","208","47","",""
"html-keyboard-response","151","123043","0.0-11.0-1.47","5e87900b524dca41065df104","bdp_rwlrn","Sun Mar 12 2023 23:12:57 GMT-0400 (Eastern Daylight Time)","336545","Trustworthy,Untrustworthy","","73","","","","decision","","<div class='trialDiv'><img src='Fruit/orange.png'><br><font class='baseline'><strong>Odds are Orange</strong><p>Choose number of points to bet.</font><div class='respPicDiv'><img src='img/responseButtonOffersNo0L.png' class='respPic'></div></div>","4","16","Odds are Orange","Fruit/orange.png","Won","0.8,0.35","14","0.8","213","48","",""
"html-keyboard-response","152","123294","0.0-11.0-2.47","5e87900b524dca41065df104","bdp_rwlrn","Sun Mar 12 2023 23:12:57 GMT-0400 (Eastern Daylight Time)","336545","Trustworthy,Untrustworthy","","null","","","","decisionFB","","<div class='trialDiv'><img src='Fruit/orange.png'><br><font class='baseline'><strong>Odds are Orange</strong><p>Choose number of points to bet.</font><div class='respPicDiv'><img src='img/responseButtonOffersNo0L4.png' class='respPic'></div></div>","null","16","Odds are Orange","Fruit/orange.png","Won","0.8,0.35","14","0.8","209","48","",""
"html-keyboard-response","153","124304","0.0-11.0-3.47","5e87900b524dca41065df104","bdp_rwlrn","Sun Mar 12 2023 23:12:57 GMT-0400 (Eastern Daylight Time)","336545","Trustworthy,Untrustworthy","","null","","","","feedback","","<div class='respPicDiv'><img src='img/responseButtonOffersNo0_wht.png' class='respPic'></div><div class='trialDiv'><img src='Fruit/orange.png'><br><font class='baseline'><strong>Odds are Orange</strong><p><strong><font class='posOutcome'>You WON</font><p>You bet: 4</strong></font> &nbsp; &nbsp; &nbsp; &nbsp; &nbsp; &nbsp;<font class='posOutcome'>you receive: <strong>8</strong></font></div>","null","16","Odds are Orange","Fruit/orange.png","Won","0.8,0.35","14","0.8","217","48","",""
"html-keyboard-response","154","124589","0.0-11.0-1.48","5e87900b524dca41065df104","bdp_rwlrn","Sun Mar 12 2023 23:12:57 GMT-0400 (Eastern Daylight Time)","336545","Trustworthy,Untrustworthy","","284","","","","decision","","<div class='trialDiv'><img src='Fruit/papayas.png'><br><font class='baseline'><strong>Papaya Payday</strong><p>Choose number of points to bet.</font><div class='respPicDiv'><img src='img/responseButtonOffersNo0L.png' class='respPic'></div></div>","5","17","Papaya Payday","Fruit/papayas.png","Won","0.2,0.8","14","0.2","222","49","",""
"html-keyboard-response","155","124851","0.0-11.0-2.48","5e87900b524dca41065df104","bdp_rwlrn","Sun Mar 12 2023 23:12:57 GMT-0400 (Eastern Daylight Time)","336545","Trustworthy,Untrustworthy","","null","","","","decisionFB","","<div class='trialDiv'><img src='Fruit/papayas.png'><br><font class='baseline'><strong>Papaya Payday</strong><p>Choose number of points to bet.</font><div class='respPicDiv'><img src='img/responseButtonOffersNo0L5.png' class='respPic'></div></div>","null","17","Papaya Payday","Fruit/papayas.png","Won","0.2,0.8","14","0.2","217","49","",""
"html-keyboard-response","156","125862","0.0-11.0-3.48","5e87900b524dca41065df104","bdp_rwlrn","Sun Mar 12 2023 23:12:57 GMT-0400 (Eastern Daylight Time)","336545","Trustworthy,Untrustworthy","","null","","","","feedback","","<div class='respPicDiv'><img src='img/responseButtonOffersNo0_wht.png' class='respPic'></div><div class='trialDiv'><img src='Fruit/papayas.png'><br><font class='baseline'><strong>Papaya Payday</strong><p><strong><font class='posOutcome'>You WON</font><p>You bet: 5</strong></font> &nbsp; &nbsp; &nbsp; &nbsp; &nbsp; &nbsp;<font class='posOutcome'>you receive: <strong>10</strong></font></div>","null","17","Papaya Payday","Fruit/papayas.png","Won","0.2,0.8","14","0.2","227","49","",""
"html-keyboard-response","157","126092","0.0-11.0-1.49","5e87900b524dca41065df104","bdp_rwlrn","Sun Mar 12 2023 23:12:57 GMT-0400 (Eastern Daylight Time)","336545","Trustworthy,Untrustworthy","","228","","","","decision","","<div class='trialDiv'><img src='Fruit/plums1.png'><br><font class='baseline'><strong>Plum Powerball</strong><p>Choose number of points to bet.</font><div class='respPicDiv'><img src='img/responseButtonOffersNo0L.png' class='respPic'></div></div>","2","17","Plum Powerball","Fruit/plums1.png","Won","0.35,0.8","13","0.35","232","50","",""
"html-keyboard-response","158","126358","0.0-11.0-2.49","5e87900b524dca41065df104","bdp_rwlrn","Sun Mar 12 2023 23:12:57 GMT-0400 (Eastern Daylight Time)","336545","Trustworthy,Untrustworthy","","null","","","","decisionFB","","<div class='trialDiv'><img src='Fruit/plums1.png'><br><font class='baseline'><strong>Plum Powerball</strong><p>Choose number of points to bet.</font><div class='respPicDiv'><img src='img/responseButtonOffersNo0L2.png' class='respPic'></div></div>","null","17","Plum Powerball","Fruit/plums1.png","Won","0.35,0.8","13","0.35","230","50","",""
"html-keyboard-response","159","127366","0.0-11.0-3.49","5e87900b524dca41065df104","bdp_rwlrn","Sun Mar 12 2023 23:12:57 GMT-0400 (Eastern Daylight Time)","336545","Trustworthy,Untrustworthy","","null","","","","feedback","","<div class='respPicDiv'><img src='img/responseButtonOffersNo0_wht.png' class='respPic'></div><div class='trialDiv'><img src='Fruit/plums1.png'><br><font class='baseline'><strong>Plum Powerball</strong><p><strong><font class='posOutcome'>You WON</font><p>You bet: 2</strong></font> &nbsp; &nbsp; &nbsp; &nbsp; &nbsp; &nbsp;<font class='posOutcome'>you receive: <strong>4</strong></font></div>","null","17","Plum Powerball","Fruit/plums1.png","Won","0.35,0.8","13","0.35","234","50","",""
"html-keyboard-response","160","127851","0.0-11.0-1.50","5e87900b524dca41065df104","bdp_rwlrn","Sun Mar 12 2023 23:12:57 GMT-0400 (Eastern Daylight Time)","336545","Trustworthy,Untrustworthy","","484","","","","decision","","<div class='trialDiv'><img src='Fruit/orange.png'><br><font class='baseline'><strong>Odds are Orange</strong><p>Choose number of points to bet.</font><div class='respPicDiv'><img src='img/responseButtonOffersNo0L.png' class='respPic'></div></div>","3","17","Odds are Orange","Fruit/orange.png","Won","0.8,0.35","14","0.8","239","51","",""
"html-keyboard-response","161","128113","0.0-11.0-2.50","5e87900b524dca41065df104","bdp_rwlrn","Sun Mar 12 2023 23:12:57 GMT-0400 (Eastern Daylight Time)","336545","Trustworthy,Untrustworthy","","null","","","","decisionFB","","<div class='trialDiv'><img src='Fruit/orange.png'><br><font class='baseline'><strong>Odds are Orange</strong><p>Choose number of points to bet.</font><div class='respPicDiv'><img src='img/responseButtonOffersNo0L3.png' class='respPic'></div></div>","null","17","Odds are Orange","Fruit/orange.png","Won","0.8,0.35","14","0.8","236","51","",""
"html-keyboard-response","162","129130","0.0-11.0-3.50","5e87900b524dca41065df104","bdp_rwlrn","Sun Mar 12 2023 23:12:57 GMT-0400 (Eastern Daylight Time)","336545","Trustworthy,Untrustworthy","","null","","","","feedback","","<div class='respPicDiv'><img src='img/responseButtonOffersNo0_wht.png' class='respPic'></div><div class='trialDiv'><img src='Fruit/orange.png'><br><font class='baseline'><strong>Odds are Orange</strong><p><strong><font class='posOutcome'>You WON</font><p>You bet: 3</strong></font> &nbsp; &nbsp; &nbsp; &nbsp; &nbsp; &nbsp;<font class='posOutcome'>you receive: <strong>6</strong></font></div>","null","17","Odds are Orange","Fruit/orange.png","Won","0.8,0.35","14","0.8","242","51","",""
