"trial_type","trial_index","time_elapsed","internal_node_id","subject_id","task","startTime","totalTime","labels","view_history","rt","event","trial","time","trialtype","success","stimulus","key_press","ltround","name","fileID","outcome","lottotype","lottoswpt","lottocurrpshare","point_total","round","faceID","face"
"pavlovia","0","5","0.0-0.0","62951043176ada9a9de2faa4","bdp_rwlrn","Wed Mar 15 2023 13:13:01 GMT-0600 (Mountain Daylight Time)","359587","Untrustworthy,Trustworthy","","","","","","","","","","","","","","","","","","","",""
"instructions","1","3410","0.0-1.0","62951043176ada9a9de2faa4","bdp_rwlrn","Wed Mar 15 2023 13:13:01 GMT-0600 (Mountain Daylight Time)","359587","Untrustworthy,Trustworthy","[{""page_index"":0,""viewing_time"":3405}]","3405","","","","","","","","","","","","","","","","","",""
"","","","","62951043176ada9a9de2faa4","bdp_rwlrn","Wed Mar 15 2023 13:13:01 GMT-0600 (Mountain Daylight Time)","359587","Untrustworthy,Trustworthy","","","fullscreenenter","2","5065","fullscreenenter","","","","","","","","","","","","","",""
"fullscreen","2","6061","0.0-2.0","62951043176ada9a9de2faa4","bdp_rwlrn","Wed Mar 15 2023 13:13:01 GMT-0600 (Mountain Daylight Time)","359587","Untrustworthy,Trustworthy","","","","","","","true","","","","","","","","","","","","",""
"instructions","3","38034","0.0-4.0","62951043176ada9a9de2faa4","bdp_rwlrn","Wed Mar 15 2023 13:13:01 GMT-0600 (Mountain Daylight Time)","359587","Untrustworthy,Trustworthy","[{""page_index"":0,""viewing_time"":11475},{""page_index"":1,""viewing_time"":8299},{""page_index"":2,""viewing_time"":3625},{""page_index"":3,""viewing_time"":2273},{""page_index"":4,""viewing_time"":3105},{""page_index"":5,""viewing_time"":3193}]","31971","","","","","","","","","","","","","","","","","",""
"html-keyboard-response","4","40799","0.0-5.0","62951043176ada9a9de2faa4","bdp_rwlrn","Wed Mar 15 2023 13:13:01 GMT-0600 (Mountain Daylight Time)","359587","Untrustworthy,Trustworthy","","2763","","","","","","<div class='header' style='text-align:left; position: absolute; top: 5%; left: 5%;'><small>Task 3 of 5</small></div><div class='instruxDiv'><p><strong>1) What is the maximum number of points you can choose to bet on a lottery?</strong></p><p>a) 0</p><p>b) 1</p><p>c) 5</p>","B","","","","","","","","","","",""
"html-keyboard-response","5","42671","0.0-6.0","62951043176ada9a9de2faa4","bdp_rwlrn","Wed Mar 15 2023 13:13:01 GMT-0600 (Mountain Daylight Time)","359587","Untrustworthy,Trustworthy","","1761","","","","","","<div class='header' style='text-align:left; position: absolute; top: 5%; left: 5%;'><small>Task 3 of 5</small></div><div class='instruxDiv'><p><strong>1) What is the maximum number of points you can choose to bet on a lottery?</strong></p><p>a) 0</p><p style='color:#FF0000'>b) 1</p><p>c) 5</p><h3 style='color:#FF0000'>Incorrect!</h3><h3 class='center-content'>The correct response is c).</h3><h3 class='center-content'>The maximum number of points you can choose to bet on a lottery is 5 points.</h3><p><em>Press SPACEBAR to continue</em></p></div>"," ","","","","","","","","","","",""
"html-keyboard-response","6","46832","0.0-7.0","62951043176ada9a9de2faa4","bdp_rwlrn","Wed Mar 15 2023 13:13:01 GMT-0600 (Mountain Daylight Time)","359587","Untrustworthy,Trustworthy","","4051","","","","","","<div class='header' style='text-align:left; position: absolute; top: 5%; left: 5%;'><small>Task 3 of 5</small></div><div class='instruxDiv'><p><strong>2) How many points can you win each round?</strong></p><p>a) 10 points</p><p>b) Double what you bet</p><p>c) Quadruple what you bet</p>","B","","","","","","","","","","",""
"html-keyboard-response","7","47819","0.0-8.0","62951043176ada9a9de2faa4","bdp_rwlrn","Wed Mar 15 2023 13:13:01 GMT-0600 (Mountain Daylight Time)","359587","Untrustworthy,Trustworthy","","878","","","","","","<div class='header' style='text-align:left; position: absolute; top: 5%; left: 5%;'><small>Task 3 of 5</small></div><div class='instruxDiv'><p><strong>2) How many points can you win each round?</strong></p><p>a) 10 points</p><p style='color:#00FF00'>b) Double what you bet</p><p>c) Quadruple what you bet</p><h3 style='color:#00FF00'>Correct!</h3><h3 class='center-content'>The correct response is b).</h3><h3 class='center-content'>You can win double the amount of points you bet.</h3><p><em>Press SPACEBAR to continue</em></p></div>"," ","","","","","","","","","","",""
"html-keyboard-response","8","52931","0.0-9.0","62951043176ada9a9de2faa4","bdp_rwlrn","Wed Mar 15 2023 13:13:01 GMT-0600 (Mountain Daylight Time)","359587","Untrustworthy,Trustworthy","","null","","","","","","<div class='header' style='text-align:left; position: absolute; top: 5%; left: 5%;'><small>Task 3 of 5</small></div><div class='instruxDiv'><p>Thank you for completing the quiz<p>These are the actual lotteries you will be playing in the next block:<p><div class='tc' align='center'><img class='introPic' src='Fruit/lemon.png'><br><strong>Lucky Lemons</strong></div><div class='bl' align='center'><img class='introPic' src='Fruit/apple.png'><br><strong>Awesome Apples</strong></div><div class='br' align='center'><img class='introPic' src='Fruit/bananas.png'><br><strong>Banana Bonanza</strong></div></div><p>Across <strong>66 rounds</strong> you will play each lottery <strong>22 times</strong> (in random order).<p style='align:center; color:white'><font <em>Press SPACEBAR to continue</em></p>","null","","","","","","","","","","",""
"instructions","9","57069","0.0-10.0","62951043176ada9a9de2faa4","bdp_rwlrn","Wed Mar 15 2023 13:13:01 GMT-0600 (Mountain Daylight Time)","359587","Untrustworthy,Trustworthy","[{""page_index"":0,""viewing_time"":737},{""page_index"":1,""viewing_time"":3399}]","4136","","","","","","","","","","","","","","","","","",""
"html-keyboard-response","10","58981","0.0-11.0-1.0","62951043176ada9a9de2faa4","bdp_rwlrn","Wed Mar 15 2023 13:13:01 GMT-0600 (Mountain Daylight Time)","359587","Untrustworthy,Trustworthy","","1807","","","","decision","","<div class='trialDiv'><img src='Fruit/lemon.png'><br><font class='baseline'><strong>Lucky Lemons</strong><p>Choose number of points to bet.</font><div class='respPicDiv'><img src='img/responseButtonOffersNo0L.png' class='respPic'></div></div>","3","1","Lucky Lemons","Fruit/lemon.png","Lost","0.2,0.65","14","0.2","5","1","",""
"html-keyboard-response","11","59237","0.0-11.0-2.0","62951043176ada9a9de2faa4","bdp_rwlrn","Wed Mar 15 2023 13:13:01 GMT-0600 (Mountain Daylight Time)","359587","Untrustworthy,Trustworthy","","null","","","","decisionFB","","<div class='trialDiv'><img src='Fruit/lemon.png'><br><font class='baseline'><strong>Lucky Lemons</strong><p>Choose number of points to bet.</font><div class='respPicDiv'><img src='img/responseButtonOffersNo0L3.png' class='respPic'></div></div>","null","1","Lucky Lemons","Fruit/lemon.png","Lost","0.2,0.65","14","0.2","2","1","",""
"html-keyboard-response","12","60246","0.0-11.0-3.0","62951043176ada9a9de2faa4","bdp_rwlrn","Wed Mar 15 2023 13:13:01 GMT-0600 (Mountain Daylight Time)","359587","Untrustworthy,Trustworthy","","null","","","","feedback","","<div class='respPicDiv'><img src='img/responseButtonOffersNo0_wht.png' class='respPic'></div><div class='trialDiv'><img src='Fruit/lemon.png'><br><font class='baseline'><strong>Lucky Lemons</strong><p><strong><font class='negOutcome'>You LOST</font><p>You bet: 3</strong></font> &nbsp; &nbsp; &nbsp; &nbsp; &nbsp; &nbsp;<font class='negOutcome'>You receive: <strong>0</strong></font></div>","null","1","Lucky Lemons","Fruit/lemon.png","Lost","0.2,0.65","14","0.2","2","1","",""
"html-keyboard-response","13","61568","0.0-11.0-1.1","62951043176ada9a9de2faa4","bdp_rwlrn","Wed Mar 15 2023 13:13:01 GMT-0600 (Mountain Daylight Time)","359587","Untrustworthy,Trustworthy","","1320","","","","decision","","<div class='trialDiv'><img src='Fruit/apple.png'><br><font class='baseline'><strong>Awesome Apples</strong><p>Choose number of points to bet.</font><div class='respPicDiv'><img src='img/responseButtonOffersNo0L.png' class='respPic'></div></div>","4","1","Awesome Apples","Fruit/apple.png","Lost","0.65,0.2","12","0.65","7","2","",""
"html-keyboard-response","14","61831","0.0-11.0-2.1","62951043176ada9a9de2faa4","bdp_rwlrn","Wed Mar 15 2023 13:13:01 GMT-0600 (Mountain Daylight Time)","359587","Untrustworthy,Trustworthy","","null","","","","decisionFB","","<div class='trialDiv'><img src='Fruit/apple.png'><br><font class='baseline'><strong>Awesome Apples</strong><p>Choose number of points to bet.</font><div class='respPicDiv'><img src='img/responseButtonOffersNo0L4.png' class='respPic'></div></div>","null","1","Awesome Apples","Fruit/apple.png","Lost","0.65,0.2","12","0.65","3","2","",""
"html-keyboard-response","15","62839","0.0-11.0-3.1","62951043176ada9a9de2faa4","bdp_rwlrn","Wed Mar 15 2023 13:13:01 GMT-0600 (Mountain Daylight Time)","359587","Untrustworthy,Trustworthy","","null","","","","feedback","","<div class='respPicDiv'><img src='img/responseButtonOffersNo0_wht.png' class='respPic'></div><div class='trialDiv'><img src='Fruit/apple.png'><br><font class='baseline'><strong>Awesome Apples</strong><p><strong><font class='negOutcome'>You LOST</font><p>You bet: 4</strong></font> &nbsp; &nbsp; &nbsp; &nbsp; &nbsp; &nbsp;<font class='negOutcome'>You receive: <strong>0</strong></font></div>","null","1","Awesome Apples","Fruit/apple.png","Lost","0.65,0.2","12","0.65","3","2","",""
"html-keyboard-response","16","63640","0.0-11.0-1.2","62951043176ada9a9de2faa4","bdp_rwlrn","Wed Mar 15 2023 13:13:01 GMT-0600 (Mountain Daylight Time)","359587","Untrustworthy,Trustworthy","","799","","","","decision","","<div class='trialDiv'><img src='Fruit/bananas.png'><br><font class='baseline'><strong>Banana Bonanza</strong><p>Choose number of points to bet.</font><div class='respPicDiv'><img src='img/responseButtonOffersNo0L.png' class='respPic'></div></div>","2","1","Banana Bonanza","Fruit/bananas.png","Lost","0.65,0.35","14","0.65","8","3","",""
"html-keyboard-response","17","63900","0.0-11.0-2.2","62951043176ada9a9de2faa4","bdp_rwlrn","Wed Mar 15 2023 13:13:01 GMT-0600 (Mountain Daylight Time)","359587","Untrustworthy,Trustworthy","","null","","","","decisionFB","","<div class='trialDiv'><img src='Fruit/bananas.png'><br><font class='baseline'><strong>Banana Bonanza</strong><p>Choose number of points to bet.</font><div class='respPicDiv'><img src='img/responseButtonOffersNo0L2.png' class='respPic'></div></div>","null","1","Banana Bonanza","Fruit/bananas.png","Lost","0.65,0.35","14","0.65","6","3","",""
"html-keyboard-response","18","64908","0.0-11.0-3.2","62951043176ada9a9de2faa4","bdp_rwlrn","Wed Mar 15 2023 13:13:01 GMT-0600 (Mountain Daylight Time)","359587","Untrustworthy,Trustworthy","","null","","","","feedback","","<div class='respPicDiv'><img src='img/responseButtonOffersNo0_wht.png' class='respPic'></div><div class='trialDiv'><img src='Fruit/bananas.png'><br><font class='baseline'><strong>Banana Bonanza</strong><p><strong><font class='negOutcome'>You LOST</font><p>You bet: 2</strong></font> &nbsp; &nbsp; &nbsp; &nbsp; &nbsp; &nbsp;<font class='negOutcome'>You receive: <strong>0</strong></font></div>","null","1","Banana Bonanza","Fruit/bananas.png","Lost","0.65,0.35","14","0.65","6","3","",""
"html-keyboard-response","19","67645","0.0-11.0-1.3","62951043176ada9a9de2faa4","bdp_rwlrn","Wed Mar 15 2023 13:13:01 GMT-0600 (Mountain Daylight Time)","359587","Untrustworthy,Trustworthy","","2736","","","","decision","","<div class='trialDiv'><img src='Fruit/lemon.png'><br><font class='baseline'><strong>Lucky Lemons</strong><p>Choose number of points to bet.</font><div class='respPicDiv'><img src='img/responseButtonOffersNo0L.png' class='respPic'></div></div>","5","2","Lucky Lemons","Fruit/lemon.png","Lost","0.2,0.65","14","0.2","11","4","",""
"html-keyboard-response","20","67900","0.0-11.0-2.3","62951043176ada9a9de2faa4","bdp_rwlrn","Wed Mar 15 2023 13:13:01 GMT-0600 (Mountain Daylight Time)","359587","Untrustworthy,Trustworthy","","null","","","","decisionFB","","<div class='trialDiv'><img src='Fruit/lemon.png'><br><font class='baseline'><strong>Lucky Lemons</strong><p>Choose number of points to bet.</font><div class='respPicDiv'><img src='img/responseButtonOffersNo0L5.png' class='respPic'></div></div>","null","2","Lucky Lemons","Fruit/lemon.png","Lost","0.2,0.65","14","0.2","6","4","",""
"html-keyboard-response","21","68908","0.0-11.0-3.3","62951043176ada9a9de2faa4","bdp_rwlrn","Wed Mar 15 2023 13:13:01 GMT-0600 (Mountain Daylight Time)","359587","Untrustworthy,Trustworthy","","null","","","","feedback","","<div class='respPicDiv'><img src='img/responseButtonOffersNo0_wht.png' class='respPic'></div><div class='trialDiv'><img src='Fruit/lemon.png'><br><font class='baseline'><strong>Lucky Lemons</strong><p><strong><font class='negOutcome'>You LOST</font><p>You bet: 5</strong></font> &nbsp; &nbsp; &nbsp; &nbsp; &nbsp; &nbsp;<font class='negOutcome'>You receive: <strong>0</strong></font></div>","null","2","Lucky Lemons","Fruit/lemon.png","Lost","0.2,0.65","14","0.2","6","4","",""
"html-keyboard-response","22","70205","0.0-11.0-1.4","62951043176ada9a9de2faa4","bdp_rwlrn","Wed Mar 15 2023 13:13:01 GMT-0600 (Mountain Daylight Time)","359587","Untrustworthy,Trustworthy","","1295","","","","decision","","<div class='trialDiv'><img src='Fruit/apple.png'><br><font class='baseline'><strong>Awesome Apples</strong><p>Choose number of points to bet.</font><div class='respPicDiv'><img src='img/responseButtonOffersNo0L.png' class='respPic'></div></div>","3","2","Awesome Apples","Fruit/apple.png","Won","0.65,0.2","12","0.65","11","5","",""
"html-keyboard-response","23","70460","0.0-11.0-2.4","62951043176ada9a9de2faa4","bdp_rwlrn","Wed Mar 15 2023 13:13:01 GMT-0600 (Mountain Daylight Time)","359587","Untrustworthy,Trustworthy","","null","","","","decisionFB","","<div class='trialDiv'><img src='Fruit/apple.png'><br><font class='baseline'><strong>Awesome Apples</strong><p>Choose number of points to bet.</font><div class='respPicDiv'><img src='img/responseButtonOffersNo0L3.png' class='respPic'></div></div>","null","2","Awesome Apples","Fruit/apple.png","Won","0.65,0.2","12","0.65","8","5","",""
"html-keyboard-response","24","71468","0.0-11.0-3.4","62951043176ada9a9de2faa4","bdp_rwlrn","Wed Mar 15 2023 13:13:01 GMT-0600 (Mountain Daylight Time)","359587","Untrustworthy,Trustworthy","","null","","","","feedback","","<div class='respPicDiv'><img src='img/responseButtonOffersNo0_wht.png' class='respPic'></div><div class='trialDiv'><img src='Fruit/apple.png'><br><font class='baseline'><strong>Awesome Apples</strong><p><strong><font class='posOutcome'>You WON</font><p>You bet: 3</strong></font> &nbsp; &nbsp; &nbsp; &nbsp; &nbsp; &nbsp;<font class='posOutcome'>you receive: <strong>6</strong></font></div>","null","2","Awesome Apples","Fruit/apple.png","Won","0.65,0.2","12","0.65","14","5","",""
"html-keyboard-response","25","72548","0.0-11.0-1.5","62951043176ada9a9de2faa4","bdp_rwlrn","Wed Mar 15 2023 13:13:01 GMT-0600 (Mountain Daylight Time)","359587","Untrustworthy,Trustworthy","","1079","","","","decision","","<div class='trialDiv'><img src='Fruit/bananas.png'><br><font class='baseline'><strong>Banana Bonanza</strong><p>Choose number of points to bet.</font><div class='respPicDiv'><img src='img/responseButtonOffersNo0L.png' class='respPic'></div></div>","1","2","Banana Bonanza","Fruit/bananas.png","Won","0.65,0.35","14","0.65","19","6","",""
"html-keyboard-response","26","72807","0.0-11.0-2.5","62951043176ada9a9de2faa4","bdp_rwlrn","Wed Mar 15 2023 13:13:01 GMT-0600 (Mountain Daylight Time)","359587","Untrustworthy,Trustworthy","","null","","","","decisionFB","","<div class='trialDiv'><img src='Fruit/bananas.png'><br><font class='baseline'><strong>Banana Bonanza</strong><p>Choose number of points to bet.</font><div class='respPicDiv'><img src='img/responseButtonOffersNo0L1.png' class='respPic'></div></div>","null","2","Banana Bonanza","Fruit/bananas.png","Won","0.65,0.35","14","0.65","18","6","",""
"html-keyboard-response","27","73809","0.0-11.0-3.5","62951043176ada9a9de2faa4","bdp_rwlrn","Wed Mar 15 2023 13:13:01 GMT-0600 (Mountain Daylight Time)","359587","Untrustworthy,Trustworthy","","null","","","","feedback","","<div class='respPicDiv'><img src='img/responseButtonOffersNo0_wht.png' class='respPic'></div><div class='trialDiv'><img src='Fruit/bananas.png'><br><font class='baseline'><strong>Banana Bonanza</strong><p><strong><font class='posOutcome'>You WON</font><p>You bet: 1</strong></font> &nbsp; &nbsp; &nbsp; &nbsp; &nbsp; &nbsp;<font class='posOutcome'>you receive: <strong>2</strong></font></div>","null","2","Banana Bonanza","Fruit/bananas.png","Won","0.65,0.35","14","0.65","20","6","",""
"html-keyboard-response","28","75312","0.0-11.0-1.6","62951043176ada9a9de2faa4","bdp_rwlrn","Wed Mar 15 2023 13:13:01 GMT-0600 (Mountain Daylight Time)","359587","Untrustworthy,Trustworthy","","1501","","","","decision","","<div class='trialDiv'><img src='Fruit/lemon.png'><br><font class='baseline'><strong>Lucky Lemons</strong><p>Choose number of points to bet.</font><div class='respPicDiv'><img src='img/responseButtonOffersNo0L.png' class='respPic'></div></div>","3","3","Lucky Lemons","Fruit/lemon.png","Lost","0.2,0.65","14","0.2","25","7","",""
"html-keyboard-response","29","75569","0.0-11.0-2.6","62951043176ada9a9de2faa4","bdp_rwlrn","Wed Mar 15 2023 13:13:01 GMT-0600 (Mountain Daylight Time)","359587","Untrustworthy,Trustworthy","","null","","","","decisionFB","","<div class='trialDiv'><img src='Fruit/lemon.png'><br><font class='baseline'><strong>Lucky Lemons</strong><p>Choose number of points to bet.</font><div class='respPicDiv'><img src='img/responseButtonOffersNo0L3.png' class='respPic'></div></div>","null","3","Lucky Lemons","Fruit/lemon.png","Lost","0.2,0.65","14","0.2","22","7","",""
"html-keyboard-response","30","76582","0.0-11.0-3.6","62951043176ada9a9de2faa4","bdp_rwlrn","Wed Mar 15 2023 13:13:01 GMT-0600 (Mountain Daylight Time)","359587","Untrustworthy,Trustworthy","","null","","","","feedback","","<div class='respPicDiv'><img src='img/responseButtonOffersNo0_wht.png' class='respPic'></div><div class='trialDiv'><img src='Fruit/lemon.png'><br><font class='baseline'><strong>Lucky Lemons</strong><p><strong><font class='negOutcome'>You LOST</font><p>You bet: 3</strong></font> &nbsp; &nbsp; &nbsp; &nbsp; &nbsp; &nbsp;<font class='negOutcome'>You receive: <strong>0</strong></font></div>","null","3","Lucky Lemons","Fruit/lemon.png","Lost","0.2,0.65","14","0.2","22","7","",""
"html-keyboard-response","31","77719","0.0-11.0-1.7","62951043176ada9a9de2faa4","bdp_rwlrn","Wed Mar 15 2023 13:13:01 GMT-0600 (Mountain Daylight Time)","359587","Untrustworthy,Trustworthy","","1135","","","","decision","","<div class='trialDiv'><img src='Fruit/bananas.png'><br><font class='baseline'><strong>Banana Bonanza</strong><p>Choose number of points to bet.</font><div class='respPicDiv'><img src='img/responseButtonOffersNo0L.png' class='respPic'></div></div>","4","3","Banana Bonanza","Fruit/bananas.png","Won","0.65,0.35","14","0.65","27","8","",""
"html-keyboard-response","32","77980","0.0-11.0-2.7","62951043176ada9a9de2faa4","bdp_rwlrn","Wed Mar 15 2023 13:13:01 GMT-0600 (Mountain Daylight Time)","359587","Untrustworthy,Trustworthy","","null","","","","decisionFB","","<div class='trialDiv'><img src='Fruit/bananas.png'><br><font class='baseline'><strong>Banana Bonanza</strong><p>Choose number of points to bet.</font><div class='respPicDiv'><img src='img/responseButtonOffersNo0L4.png' class='respPic'></div></div>","null","3","Banana Bonanza","Fruit/bananas.png","Won","0.65,0.35","14","0.65","23","8","",""
"html-keyboard-response","33","78988","0.0-11.0-3.7","62951043176ada9a9de2faa4","bdp_rwlrn","Wed Mar 15 2023 13:13:01 GMT-0600 (Mountain Daylight Time)","359587","Untrustworthy,Trustworthy","","null","","","","feedback","","<div class='respPicDiv'><img src='img/responseButtonOffersNo0_wht.png' class='respPic'></div><div class='trialDiv'><img src='Fruit/bananas.png'><br><font class='baseline'><strong>Banana Bonanza</strong><p><strong><font class='posOutcome'>You WON</font><p>You bet: 4</strong></font> &nbsp; &nbsp; &nbsp; &nbsp; &nbsp; &nbsp;<font class='posOutcome'>you receive: <strong>8</strong></font></div>","null","3","Banana Bonanza","Fruit/bananas.png","Won","0.65,0.35","14","0.65","31","8","",""
"html-keyboard-response","34","79547","0.0-11.0-1.8","62951043176ada9a9de2faa4","bdp_rwlrn","Wed Mar 15 2023 13:13:01 GMT-0600 (Mountain Daylight Time)","359587","Untrustworthy,Trustworthy","","557","","","","decision","","<div class='trialDiv'><img src='Fruit/apple.png'><br><font class='baseline'><strong>Awesome Apples</strong><p>Choose number of points to bet.</font><div class='respPicDiv'><img src='img/responseButtonOffersNo0L.png' class='respPic'></div></div>","5","3","Awesome Apples","Fruit/apple.png","Won","0.65,0.2","12","0.65","36","9","",""
"html-keyboard-response","35","79804","0.0-11.0-2.8","62951043176ada9a9de2faa4","bdp_rwlrn","Wed Mar 15 2023 13:13:01 GMT-0600 (Mountain Daylight Time)","359587","Untrustworthy,Trustworthy","","null","","","","decisionFB","","<div class='trialDiv'><img src='Fruit/apple.png'><br><font class='baseline'><strong>Awesome Apples</strong><p>Choose number of points to bet.</font><div class='respPicDiv'><img src='img/responseButtonOffersNo0L5.png' class='respPic'></div></div>","null","3","Awesome Apples","Fruit/apple.png","Won","0.65,0.2","12","0.65","31","9","",""
"html-keyboard-response","36","80812","0.0-11.0-3.8","62951043176ada9a9de2faa4","bdp_rwlrn","Wed Mar 15 2023 13:13:01 GMT-0600 (Mountain Daylight Time)","359587","Untrustworthy,Trustworthy","","null","","","","feedback","","<div class='respPicDiv'><img src='img/responseButtonOffersNo0_wht.png' class='respPic'></div><div class='trialDiv'><img src='Fruit/apple.png'><br><font class='baseline'><strong>Awesome Apples</strong><p><strong><font class='posOutcome'>You WON</font><p>You bet: 5</strong></font> &nbsp; &nbsp; &nbsp; &nbsp; &nbsp; &nbsp;<font class='posOutcome'>you receive: <strong>10</strong></font></div>","null","3","Awesome Apples","Fruit/apple.png","Won","0.65,0.2","12","0.65","41","9","",""
"html-keyboard-response","37","81612","0.0-11.0-1.9","62951043176ada9a9de2faa4","bdp_rwlrn","Wed Mar 15 2023 13:13:01 GMT-0600 (Mountain Daylight Time)","359587","Untrustworthy,Trustworthy","","799","","","","decision","","<div class='trialDiv'><img src='Fruit/bananas.png'><br><font class='baseline'><strong>Banana Bonanza</strong><p>Choose number of points to bet.</font><div class='respPicDiv'><img src='img/responseButtonOffersNo0L.png' class='respPic'></div></div>","5","4","Banana Bonanza","Fruit/bananas.png","Won","0.65,0.35","14","0.65","46","10","",""
"html-keyboard-response","38","81868","0.0-11.0-2.9","62951043176ada9a9de2faa4","bdp_rwlrn","Wed Mar 15 2023 13:13:01 GMT-0600 (Mountain Daylight Time)","359587","Untrustworthy,Trustworthy","","null","","","","decisionFB","","<div class='trialDiv'><img src='Fruit/bananas.png'><br><font class='baseline'><strong>Banana Bonanza</strong><p>Choose number of points to bet.</font><div class='respPicDiv'><img src='img/responseButtonOffersNo0L5.png' class='respPic'></div></div>","null","4","Banana Bonanza","Fruit/bananas.png","Won","0.65,0.35","14","0.65","41","10","",""
"html-keyboard-response","39","82875","0.0-11.0-3.9","62951043176ada9a9de2faa4","bdp_rwlrn","Wed Mar 15 2023 13:13:01 GMT-0600 (Mountain Daylight Time)","359587","Untrustworthy,Trustworthy","","null","","","","feedback","","<div class='respPicDiv'><img src='img/responseButtonOffersNo0_wht.png' class='respPic'></div><div class='trialDiv'><img src='Fruit/bananas.png'><br><font class='baseline'><strong>Banana Bonanza</strong><p><strong><font class='posOutcome'>You WON</font><p>You bet: 5</strong></font> &nbsp; &nbsp; &nbsp; &nbsp; &nbsp; &nbsp;<font class='posOutcome'>you receive: <strong>10</strong></font></div>","null","4","Banana Bonanza","Fruit/bananas.png","Won","0.65,0.35","14","0.65","51","10","",""
"html-keyboard-response","40","84001","0.0-11.0-1.10","62951043176ada9a9de2faa4","bdp_rwlrn","Wed Mar 15 2023 13:13:01 GMT-0600 (Mountain Daylight Time)","359587","Untrustworthy,Trustworthy","","1124","","","","decision","","<div class='trialDiv'><img src='Fruit/apple.png'><br><font class='baseline'><strong>Awesome Apples</strong><p>Choose number of points to bet.</font><div class='respPicDiv'><img src='img/responseButtonOffersNo0L.png' class='respPic'></div></div>","5","4","Awesome Apples","Fruit/apple.png","Lost","0.65,0.2","12","0.65","56","11","",""
"html-keyboard-response","41","84262","0.0-11.0-2.10","62951043176ada9a9de2faa4","bdp_rwlrn","Wed Mar 15 2023 13:13:01 GMT-0600 (Mountain Daylight Time)","359587","Untrustworthy,Trustworthy","","null","","","","decisionFB","","<div class='trialDiv'><img src='Fruit/apple.png'><br><font class='baseline'><strong>Awesome Apples</strong><p>Choose number of points to bet.</font><div class='respPicDiv'><img src='img/responseButtonOffersNo0L5.png' class='respPic'></div></div>","null","4","Awesome Apples","Fruit/apple.png","Lost","0.65,0.2","12","0.65","51","11","",""
"html-keyboard-response","42","85265","0.0-11.0-3.10","62951043176ada9a9de2faa4","bdp_rwlrn","Wed Mar 15 2023 13:13:01 GMT-0600 (Mountain Daylight Time)","359587","Untrustworthy,Trustworthy","","null","","","","feedback","","<div class='respPicDiv'><img src='img/responseButtonOffersNo0_wht.png' class='respPic'></div><div class='trialDiv'><img src='Fruit/apple.png'><br><font class='baseline'><strong>Awesome Apples</strong><p><strong><font class='negOutcome'>You LOST</font><p>You bet: 5</strong></font> &nbsp; &nbsp; &nbsp; &nbsp; &nbsp; &nbsp;<font class='negOutcome'>You receive: <strong>0</strong></font></div>","null","4","Awesome Apples","Fruit/apple.png","Lost","0.65,0.2","12","0.65","51","11","",""
"html-keyboard-response","43","86630","0.0-11.0-1.11","62951043176ada9a9de2faa4","bdp_rwlrn","Wed Mar 15 2023 13:13:01 GMT-0600 (Mountain Daylight Time)","359587","Untrustworthy,Trustworthy","","1363","","","","decision","","<div class='trialDiv'><img src='Fruit/lemon.png'><br><font class='baseline'><strong>Lucky Lemons</strong><p>Choose number of points to bet.</font><div class='respPicDiv'><img src='img/responseButtonOffersNo0L.png' class='respPic'></div></div>","3","4","Lucky Lemons","Fruit/lemon.png","Lost","0.2,0.65","14","0.2","56","12","",""
"html-keyboard-response","44","86881","0.0-11.0-2.11","62951043176ada9a9de2faa4","bdp_rwlrn","Wed Mar 15 2023 13:13:01 GMT-0600 (Mountain Daylight Time)","359587","Untrustworthy,Trustworthy","","null","","","","decisionFB","","<div class='trialDiv'><img src='Fruit/lemon.png'><br><font class='baseline'><strong>Lucky Lemons</strong><p>Choose number of points to bet.</font><div class='respPicDiv'><img src='img/responseButtonOffersNo0L3.png' class='respPic'></div></div>","null","4","Lucky Lemons","Fruit/lemon.png","Lost","0.2,0.65","14","0.2","53","12","",""
"html-keyboard-response","45","87889","0.0-11.0-3.11","62951043176ada9a9de2faa4","bdp_rwlrn","Wed Mar 15 2023 13:13:01 GMT-0600 (Mountain Daylight Time)","359587","Untrustworthy,Trustworthy","","null","","","","feedback","","<div class='respPicDiv'><img src='img/responseButtonOffersNo0_wht.png' class='respPic'></div><div class='trialDiv'><img src='Fruit/lemon.png'><br><font class='baseline'><strong>Lucky Lemons</strong><p><strong><font class='negOutcome'>You LOST</font><p>You bet: 3</strong></font> &nbsp; &nbsp; &nbsp; &nbsp; &nbsp; &nbsp;<font class='negOutcome'>You receive: <strong>0</strong></font></div>","null","4","Lucky Lemons","Fruit/lemon.png","Lost","0.2,0.65","14","0.2","53","12","",""
"html-keyboard-response","46","88771","0.0-11.0-1.12","62951043176ada9a9de2faa4","bdp_rwlrn","Wed Mar 15 2023 13:13:01 GMT-0600 (Mountain Daylight Time)","359587","Untrustworthy,Trustworthy","","881","","","","decision","","<div class='trialDiv'><img src='Fruit/bananas.png'><br><font class='baseline'><strong>Banana Bonanza</strong><p>Choose number of points to bet.</font><div class='respPicDiv'><img src='img/responseButtonOffersNo0L.png' class='respPic'></div></div>","5","5","Banana Bonanza","Fruit/bananas.png","Won","0.65,0.35","14","0.65","58","13","",""
"html-keyboard-response","47","89025","0.0-11.0-2.12","62951043176ada9a9de2faa4","bdp_rwlrn","Wed Mar 15 2023 13:13:01 GMT-0600 (Mountain Daylight Time)","359587","Untrustworthy,Trustworthy","","null","","","","decisionFB","","<div class='trialDiv'><img src='Fruit/bananas.png'><br><font class='baseline'><strong>Banana Bonanza</strong><p>Choose number of points to bet.</font><div class='respPicDiv'><img src='img/responseButtonOffersNo0L5.png' class='respPic'></div></div>","null","5","Banana Bonanza","Fruit/bananas.png","Won","0.65,0.35","14","0.65","53","13","",""
"html-keyboard-response","48","90034","0.0-11.0-3.12","62951043176ada9a9de2faa4","bdp_rwlrn","Wed Mar 15 2023 13:13:01 GMT-0600 (Mountain Daylight Time)","359587","Untrustworthy,Trustworthy","","null","","","","feedback","","<div class='respPicDiv'><img src='img/responseButtonOffersNo0_wht.png' class='respPic'></div><div class='trialDiv'><img src='Fruit/bananas.png'><br><font class='baseline'><strong>Banana Bonanza</strong><p><strong><font class='posOutcome'>You WON</font><p>You bet: 5</strong></font> &nbsp; &nbsp; &nbsp; &nbsp; &nbsp; &nbsp;<font class='posOutcome'>you receive: <strong>10</strong></font></div>","null","5","Banana Bonanza","Fruit/bananas.png","Won","0.65,0.35","14","0.65","63","13","",""
"html-keyboard-response","49","91402","0.0-11.0-1.13","62951043176ada9a9de2faa4","bdp_rwlrn","Wed Mar 15 2023 13:13:01 GMT-0600 (Mountain Daylight Time)","359587","Untrustworthy,Trustworthy","","1367","","","","decision","","<div class='trialDiv'><img src='Fruit/apple.png'><br><font class='baseline'><strong>Awesome Apples</strong><p>Choose number of points to bet.</font><div class='respPicDiv'><img src='img/responseButtonOffersNo0L.png' class='respPic'></div></div>","3","5","Awesome Apples","Fruit/apple.png","Lost","0.65,0.2","12","0.65","68","14","",""
"html-keyboard-response","50","91659","0.0-11.0-2.13","62951043176ada9a9de2faa4","bdp_rwlrn","Wed Mar 15 2023 13:13:01 GMT-0600 (Mountain Daylight Time)","359587","Untrustworthy,Trustworthy","","null","","","","decisionFB","","<div class='trialDiv'><img src='Fruit/apple.png'><br><font class='baseline'><strong>Awesome Apples</strong><p>Choose number of points to bet.</font><div class='respPicDiv'><img src='img/responseButtonOffersNo0L3.png' class='respPic'></div></div>","null","5","Awesome Apples","Fruit/apple.png","Lost","0.65,0.2","12","0.65","65","14","",""
"html-keyboard-response","51","92667","0.0-11.0-3.13","62951043176ada9a9de2faa4","bdp_rwlrn","Wed Mar 15 2023 13:13:01 GMT-0600 (Mountain Daylight Time)","359587","Untrustworthy,Trustworthy","","null","","","","feedback","","<div class='respPicDiv'><img src='img/responseButtonOffersNo0_wht.png' class='respPic'></div><div class='trialDiv'><img src='Fruit/apple.png'><br><font class='baseline'><strong>Awesome Apples</strong><p><strong><font class='negOutcome'>You LOST</font><p>You bet: 3</strong></font> &nbsp; &nbsp; &nbsp; &nbsp; &nbsp; &nbsp;<font class='negOutcome'>You receive: <strong>0</strong></font></div>","null","5","Awesome Apples","Fruit/apple.png","Lost","0.65,0.2","12","0.65","65","14","",""
"html-keyboard-response","52","93271","0.0-11.0-1.14","62951043176ada9a9de2faa4","bdp_rwlrn","Wed Mar 15 2023 13:13:01 GMT-0600 (Mountain Daylight Time)","359587","Untrustworthy,Trustworthy","","602","","","","decision","","<div class='trialDiv'><img src='Fruit/lemon.png'><br><font class='baseline'><strong>Lucky Lemons</strong><p>Choose number of points to bet.</font><div class='respPicDiv'><img src='img/responseButtonOffersNo0L.png' class='respPic'></div></div>","1","5","Lucky Lemons","Fruit/lemon.png","Won","0.2,0.65","14","0.2","70","15","",""
"html-keyboard-response","53","93531","0.0-11.0-2.14","62951043176ada9a9de2faa4","bdp_rwlrn","Wed Mar 15 2023 13:13:01 GMT-0600 (Mountain Daylight Time)","359587","Untrustworthy,Trustworthy","","null","","","","decisionFB","","<div class='trialDiv'><img src='Fruit/lemon.png'><br><font class='baseline'><strong>Lucky Lemons</strong><p>Choose number of points to bet.</font><div class='respPicDiv'><img src='img/responseButtonOffersNo0L1.png' class='respPic'></div></div>","null","5","Lucky Lemons","Fruit/lemon.png","Won","0.2,0.65","14","0.2","69","15","",""
"html-keyboard-response","54","94539","0.0-11.0-3.14","62951043176ada9a9de2faa4","bdp_rwlrn","Wed Mar 15 2023 13:13:01 GMT-0600 (Mountain Daylight Time)","359587","Untrustworthy,Trustworthy","","null","","","","feedback","","<div class='respPicDiv'><img src='img/responseButtonOffersNo0_wht.png' class='respPic'></div><div class='trialDiv'><img src='Fruit/lemon.png'><br><font class='baseline'><strong>Lucky Lemons</strong><p><strong><font class='posOutcome'>You WON</font><p>You bet: 1</strong></font> &nbsp; &nbsp; &nbsp; &nbsp; &nbsp; &nbsp;<font class='posOutcome'>you receive: <strong>2</strong></font></div>","null","5","Lucky Lemons","Fruit/lemon.png","Won","0.2,0.65","14","0.2","71","15","",""
"html-keyboard-response","55","95700","0.0-11.0-1.15","62951043176ada9a9de2faa4","bdp_rwlrn","Wed Mar 15 2023 13:13:01 GMT-0600 (Mountain Daylight Time)","359587","Untrustworthy,Trustworthy","","1160","","","","decision","","<div class='trialDiv'><img src='Fruit/bananas.png'><br><font class='baseline'><strong>Banana Bonanza</strong><p>Choose number of points to bet.</font><div class='respPicDiv'><img src='img/responseButtonOffersNo0L.png' class='respPic'></div></div>","5","6","Banana Bonanza","Fruit/bananas.png","Lost","0.65,0.35","14","0.65","76","16","",""
"html-keyboard-response","56","95958","0.0-11.0-2.15","62951043176ada9a9de2faa4","bdp_rwlrn","Wed Mar 15 2023 13:13:01 GMT-0600 (Mountain Daylight Time)","359587","Untrustworthy,Trustworthy","","null","","","","decisionFB","","<div class='trialDiv'><img src='Fruit/bananas.png'><br><font class='baseline'><strong>Banana Bonanza</strong><p>Choose number of points to bet.</font><div class='respPicDiv'><img src='img/responseButtonOffersNo0L5.png' class='respPic'></div></div>","null","6","Banana Bonanza","Fruit/bananas.png","Lost","0.65,0.35","14","0.65","71","16","",""
"html-keyboard-response","57","96964","0.0-11.0-3.15","62951043176ada9a9de2faa4","bdp_rwlrn","Wed Mar 15 2023 13:13:01 GMT-0600 (Mountain Daylight Time)","359587","Untrustworthy,Trustworthy","","null","","","","feedback","","<div class='respPicDiv'><img src='img/responseButtonOffersNo0_wht.png' class='respPic'></div><div class='trialDiv'><img src='Fruit/bananas.png'><br><font class='baseline'><strong>Banana Bonanza</strong><p><strong><font class='negOutcome'>You LOST</font><p>You bet: 5</strong></font> &nbsp; &nbsp; &nbsp; &nbsp; &nbsp; &nbsp;<font class='negOutcome'>You receive: <strong>0</strong></font></div>","null","6","Banana Bonanza","Fruit/bananas.png","Lost","0.65,0.35","14","0.65","71","16","",""
"html-keyboard-response","58","97817","0.0-11.0-1.16","62951043176ada9a9de2faa4","bdp_rwlrn","Wed Mar 15 2023 13:13:01 GMT-0600 (Mountain Daylight Time)","359587","Untrustworthy,Trustworthy","","852","","","","decision","","<div class='trialDiv'><img src='Fruit/lemon.png'><br><font class='baseline'><strong>Lucky Lemons</strong><p>Choose number of points to bet.</font><div class='respPicDiv'><img src='img/responseButtonOffersNo0L.png' class='respPic'></div></div>","5","6","Lucky Lemons","Fruit/lemon.png","Lost","0.2,0.65","14","0.2","76","17","",""
"html-keyboard-response","59","98075","0.0-11.0-2.16","62951043176ada9a9de2faa4","bdp_rwlrn","Wed Mar 15 2023 13:13:01 GMT-0600 (Mountain Daylight Time)","359587","Untrustworthy,Trustworthy","","null","","","","decisionFB","","<div class='trialDiv'><img src='Fruit/lemon.png'><br><font class='baseline'><strong>Lucky Lemons</strong><p>Choose number of points to bet.</font><div class='respPicDiv'><img src='img/responseButtonOffersNo0L5.png' class='respPic'></div></div>","null","6","Lucky Lemons","Fruit/lemon.png","Lost","0.2,0.65","14","0.2","71","17","",""
"html-keyboard-response","60","99083","0.0-11.0-3.16","62951043176ada9a9de2faa4","bdp_rwlrn","Wed Mar 15 2023 13:13:01 GMT-0600 (Mountain Daylight Time)","359587","Untrustworthy,Trustworthy","","null","","","","feedback","","<div class='respPicDiv'><img src='img/responseButtonOffersNo0_wht.png' class='respPic'></div><div class='trialDiv'><img src='Fruit/lemon.png'><br><font class='baseline'><strong>Lucky Lemons</strong><p><strong><font class='negOutcome'>You LOST</font><p>You bet: 5</strong></font> &nbsp; &nbsp; &nbsp; &nbsp; &nbsp; &nbsp;<font class='negOutcome'>You receive: <strong>0</strong></font></div>","null","6","Lucky Lemons","Fruit/lemon.png","Lost","0.2,0.65","14","0.2","71","17","",""
"html-keyboard-response","61","99526","0.0-11.0-1.17","62951043176ada9a9de2faa4","bdp_rwlrn","Wed Mar 15 2023 13:13:01 GMT-0600 (Mountain Daylight Time)","359587","Untrustworthy,Trustworthy","","442","","","","decision","","<div class='trialDiv'><img src='Fruit/apple.png'><br><font class='baseline'><strong>Awesome Apples</strong><p>Choose number of points to bet.</font><div class='respPicDiv'><img src='img/responseButtonOffersNo0L.png' class='respPic'></div></div>","5","6","Awesome Apples","Fruit/apple.png","Won","0.65,0.2","12","0.65","76","18","",""
"html-keyboard-response","62","99787","0.0-11.0-2.17","62951043176ada9a9de2faa4","bdp_rwlrn","Wed Mar 15 2023 13:13:01 GMT-0600 (Mountain Daylight Time)","359587","Untrustworthy,Trustworthy","","null","","","","decisionFB","","<div class='trialDiv'><img src='Fruit/apple.png'><br><font class='baseline'><strong>Awesome Apples</strong><p>Choose number of points to bet.</font><div class='respPicDiv'><img src='img/responseButtonOffersNo0L5.png' class='respPic'></div></div>","null","6","Awesome Apples","Fruit/apple.png","Won","0.65,0.2","12","0.65","71","18","",""
"html-keyboard-response","63","100795","0.0-11.0-3.17","62951043176ada9a9de2faa4","bdp_rwlrn","Wed Mar 15 2023 13:13:01 GMT-0600 (Mountain Daylight Time)","359587","Untrustworthy,Trustworthy","","null","","","","feedback","","<div class='respPicDiv'><img src='img/responseButtonOffersNo0_wht.png' class='respPic'></div><div class='trialDiv'><img src='Fruit/apple.png'><br><font class='baseline'><strong>Awesome Apples</strong><p><strong><font class='posOutcome'>You WON</font><p>You bet: 5</strong></font> &nbsp; &nbsp; &nbsp; &nbsp; &nbsp; &nbsp;<font class='posOutcome'>you receive: <strong>10</strong></font></div>","null","6","Awesome Apples","Fruit/apple.png","Won","0.65,0.2","12","0.65","81","18","",""
"html-keyboard-response","64","101978","0.0-11.0-1.18","62951043176ada9a9de2faa4","bdp_rwlrn","Wed Mar 15 2023 13:13:01 GMT-0600 (Mountain Daylight Time)","359587","Untrustworthy,Trustworthy","","1181","","","","decision","","<div class='trialDiv'><img src='Fruit/lemon.png'><br><font class='baseline'><strong>Lucky Lemons</strong><p>Choose number of points to bet.</font><div class='respPicDiv'><img src='img/responseButtonOffersNo0L.png' class='respPic'></div></div>","3","7","Lucky Lemons","Fruit/lemon.png","Lost","0.2,0.65","14","0.2","86","19","",""
"html-keyboard-response","65","102235","0.0-11.0-2.18","62951043176ada9a9de2faa4","bdp_rwlrn","Wed Mar 15 2023 13:13:01 GMT-0600 (Mountain Daylight Time)","359587","Untrustworthy,Trustworthy","","null","","","","decisionFB","","<div class='trialDiv'><img src='Fruit/lemon.png'><br><font class='baseline'><strong>Lucky Lemons</strong><p>Choose number of points to bet.</font><div class='respPicDiv'><img src='img/responseButtonOffersNo0L3.png' class='respPic'></div></div>","null","7","Lucky Lemons","Fruit/lemon.png","Lost","0.2,0.65","14","0.2","83","19","",""
"html-keyboard-response","66","103243","0.0-11.0-3.18","62951043176ada9a9de2faa4","bdp_rwlrn","Wed Mar 15 2023 13:13:01 GMT-0600 (Mountain Daylight Time)","359587","Untrustworthy,Trustworthy","","null","","","","feedback","","<div class='respPicDiv'><img src='img/responseButtonOffersNo0_wht.png' class='respPic'></div><div class='trialDiv'><img src='Fruit/lemon.png'><br><font class='baseline'><strong>Lucky Lemons</strong><p><strong><font class='negOutcome'>You LOST</font><p>You bet: 3</strong></font> &nbsp; &nbsp; &nbsp; &nbsp; &nbsp; &nbsp;<font class='negOutcome'>You receive: <strong>0</strong></font></div>","null","7","Lucky Lemons","Fruit/lemon.png","Lost","0.2,0.65","14","0.2","83","19","",""
"html-keyboard-response","67","104270","0.0-11.0-1.19","62951043176ada9a9de2faa4","bdp_rwlrn","Wed Mar 15 2023 13:13:01 GMT-0600 (Mountain Daylight Time)","359587","Untrustworthy,Trustworthy","","1026","","","","decision","","<div class='trialDiv'><img src='Fruit/apple.png'><br><font class='baseline'><strong>Awesome Apples</strong><p>Choose number of points to bet.</font><div class='respPicDiv'><img src='img/responseButtonOffersNo0L.png' class='respPic'></div></div>","5","7","Awesome Apples","Fruit/apple.png","Lost","0.65,0.2","12","0.65","88","20","",""
"html-keyboard-response","68","104531","0.0-11.0-2.19","62951043176ada9a9de2faa4","bdp_rwlrn","Wed Mar 15 2023 13:13:01 GMT-0600 (Mountain Daylight Time)","359587","Untrustworthy,Trustworthy","","null","","","","decisionFB","","<div class='trialDiv'><img src='Fruit/apple.png'><br><font class='baseline'><strong>Awesome Apples</strong><p>Choose number of points to bet.</font><div class='respPicDiv'><img src='img/responseButtonOffersNo0L5.png' class='respPic'></div></div>","null","7","Awesome Apples","Fruit/apple.png","Lost","0.65,0.2","12","0.65","83","20","",""
"html-keyboard-response","69","105539","0.0-11.0-3.19","62951043176ada9a9de2faa4","bdp_rwlrn","Wed Mar 15 2023 13:13:01 GMT-0600 (Mountain Daylight Time)","359587","Untrustworthy,Trustworthy","","null","","","","feedback","","<div class='respPicDiv'><img src='img/responseButtonOffersNo0_wht.png' class='respPic'></div><div class='trialDiv'><img src='Fruit/apple.png'><br><font class='baseline'><strong>Awesome Apples</strong><p><strong><font class='negOutcome'>You LOST</font><p>You bet: 5</strong></font> &nbsp; &nbsp; &nbsp; &nbsp; &nbsp; &nbsp;<font class='negOutcome'>You receive: <strong>0</strong></font></div>","null","7","Awesome Apples","Fruit/apple.png","Lost","0.65,0.2","12","0.65","83","20","",""
"html-keyboard-response","70","106208","0.0-11.0-1.20","62951043176ada9a9de2faa4","bdp_rwlrn","Wed Mar 15 2023 13:13:01 GMT-0600 (Mountain Daylight Time)","359587","Untrustworthy,Trustworthy","","667","","","","decision","","<div class='trialDiv'><img src='Fruit/bananas.png'><br><font class='baseline'><strong>Banana Bonanza</strong><p>Choose number of points to bet.</font><div class='respPicDiv'><img src='img/responseButtonOffersNo0L.png' class='respPic'></div></div>","5","7","Banana Bonanza","Fruit/bananas.png","Won","0.65,0.35","14","0.65","88","21","",""
"html-keyboard-response","71","106464","0.0-11.0-2.20","62951043176ada9a9de2faa4","bdp_rwlrn","Wed Mar 15 2023 13:13:01 GMT-0600 (Mountain Daylight Time)","359587","Untrustworthy,Trustworthy","","null","","","","decisionFB","","<div class='trialDiv'><img src='Fruit/bananas.png'><br><font class='baseline'><strong>Banana Bonanza</strong><p>Choose number of points to bet.</font><div class='respPicDiv'><img src='img/responseButtonOffersNo0L5.png' class='respPic'></div></div>","null","7","Banana Bonanza","Fruit/bananas.png","Won","0.65,0.35","14","0.65","83","21","",""
"html-keyboard-response","72","107472","0.0-11.0-3.20","62951043176ada9a9de2faa4","bdp_rwlrn","Wed Mar 15 2023 13:13:01 GMT-0600 (Mountain Daylight Time)","359587","Untrustworthy,Trustworthy","","null","","","","feedback","","<div class='respPicDiv'><img src='img/responseButtonOffersNo0_wht.png' class='respPic'></div><div class='trialDiv'><img src='Fruit/bananas.png'><br><font class='baseline'><strong>Banana Bonanza</strong><p><strong><font class='posOutcome'>You WON</font><p>You bet: 5</strong></font> &nbsp; &nbsp; &nbsp; &nbsp; &nbsp; &nbsp;<font class='posOutcome'>you receive: <strong>10</strong></font></div>","null","7","Banana Bonanza","Fruit/bananas.png","Won","0.65,0.35","14","0.65","93","21","",""
"html-keyboard-response","73","108502","0.0-11.0-1.21","62951043176ada9a9de2faa4","bdp_rwlrn","Wed Mar 15 2023 13:13:01 GMT-0600 (Mountain Daylight Time)","359587","Untrustworthy,Trustworthy","","1028","","","","decision","","<div class='trialDiv'><img src='Fruit/apple.png'><br><font class='baseline'><strong>Awesome Apples</strong><p>Choose number of points to bet.</font><div class='respPicDiv'><img src='img/responseButtonOffersNo0L.png' class='respPic'></div></div>","2","8","Awesome Apples","Fruit/apple.png","Lost","0.65,0.2","12","0.65","98","22","",""
"html-keyboard-response","74","108763","0.0-11.0-2.21","62951043176ada9a9de2faa4","bdp_rwlrn","Wed Mar 15 2023 13:13:01 GMT-0600 (Mountain Daylight Time)","359587","Untrustworthy,Trustworthy","","null","","","","decisionFB","","<div class='trialDiv'><img src='Fruit/apple.png'><br><font class='baseline'><strong>Awesome Apples</strong><p>Choose number of points to bet.</font><div class='respPicDiv'><img src='img/responseButtonOffersNo0L2.png' class='respPic'></div></div>","null","8","Awesome Apples","Fruit/apple.png","Lost","0.65,0.2","12","0.65","96","22","",""
"html-keyboard-response","75","109770","0.0-11.0-3.21","62951043176ada9a9de2faa4","bdp_rwlrn","Wed Mar 15 2023 13:13:01 GMT-0600 (Mountain Daylight Time)","359587","Untrustworthy,Trustworthy","","null","","","","feedback","","<div class='respPicDiv'><img src='img/responseButtonOffersNo0_wht.png' class='respPic'></div><div class='trialDiv'><img src='Fruit/apple.png'><br><font class='baseline'><strong>Awesome Apples</strong><p><strong><font class='negOutcome'>You LOST</font><p>You bet: 2</strong></font> &nbsp; &nbsp; &nbsp; &nbsp; &nbsp; &nbsp;<font class='negOutcome'>You receive: <strong>0</strong></font></div>","null","8","Awesome Apples","Fruit/apple.png","Lost","0.65,0.2","12","0.65","96","22","",""
"html-keyboard-response","76","111716","0.0-11.0-1.22","62951043176ada9a9de2faa4","bdp_rwlrn","Wed Mar 15 2023 13:13:01 GMT-0600 (Mountain Daylight Time)","359587","Untrustworthy,Trustworthy","","1944","","","","decision","","<div class='trialDiv'><img src='Fruit/bananas.png'><br><font class='baseline'><strong>Banana Bonanza</strong><p>Choose number of points to bet.</font><div class='respPicDiv'><img src='img/responseButtonOffersNo0L.png' class='respPic'></div></div>","3","8","Banana Bonanza","Fruit/bananas.png","Won","0.65,0.35","14","0.65","101","23","",""
"html-keyboard-response","77","111969","0.0-11.0-2.22","62951043176ada9a9de2faa4","bdp_rwlrn","Wed Mar 15 2023 13:13:01 GMT-0600 (Mountain Daylight Time)","359587","Untrustworthy,Trustworthy","","null","","","","decisionFB","","<div class='trialDiv'><img src='Fruit/bananas.png'><br><font class='baseline'><strong>Banana Bonanza</strong><p>Choose number of points to bet.</font><div class='respPicDiv'><img src='img/responseButtonOffersNo0L3.png' class='respPic'></div></div>","null","8","Banana Bonanza","Fruit/bananas.png","Won","0.65,0.35","14","0.65","98","23","",""
"html-keyboard-response","78","112978","0.0-11.0-3.22","62951043176ada9a9de2faa4","bdp_rwlrn","Wed Mar 15 2023 13:13:01 GMT-0600 (Mountain Daylight Time)","359587","Untrustworthy,Trustworthy","","null","","","","feedback","","<div class='respPicDiv'><img src='img/responseButtonOffersNo0_wht.png' class='respPic'></div><div class='trialDiv'><img src='Fruit/bananas.png'><br><font class='baseline'><strong>Banana Bonanza</strong><p><strong><font class='posOutcome'>You WON</font><p>You bet: 3</strong></font> &nbsp; &nbsp; &nbsp; &nbsp; &nbsp; &nbsp;<font class='posOutcome'>you receive: <strong>6</strong></font></div>","null","8","Banana Bonanza","Fruit/bananas.png","Won","0.65,0.35","14","0.65","104","23","",""
"html-keyboard-response","79","114218","0.0-11.0-1.23","62951043176ada9a9de2faa4","bdp_rwlrn","Wed Mar 15 2023 13:13:01 GMT-0600 (Mountain Daylight Time)","359587","Untrustworthy,Trustworthy","","1239","","","","decision","","<div class='trialDiv'><img src='Fruit/lemon.png'><br><font class='baseline'><strong>Lucky Lemons</strong><p>Choose number of points to bet.</font><div class='respPicDiv'><img src='img/responseButtonOffersNo0L.png' class='respPic'></div></div>","4","8","Lucky Lemons","Fruit/lemon.png","Lost","0.2,0.65","14","0.2","109","24","",""
"html-keyboard-response","80","114475","0.0-11.0-2.23","62951043176ada9a9de2faa4","bdp_rwlrn","Wed Mar 15 2023 13:13:01 GMT-0600 (Mountain Daylight Time)","359587","Untrustworthy,Trustworthy","","null","","","","decisionFB","","<div class='trialDiv'><img src='Fruit/lemon.png'><br><font class='baseline'><strong>Lucky Lemons</strong><p>Choose number of points to bet.</font><div class='respPicDiv'><img src='img/responseButtonOffersNo0L4.png' class='respPic'></div></div>","null","8","Lucky Lemons","Fruit/lemon.png","Lost","0.2,0.65","14","0.2","105","24","",""
"html-keyboard-response","81","115483","0.0-11.0-3.23","62951043176ada9a9de2faa4","bdp_rwlrn","Wed Mar 15 2023 13:13:01 GMT-0600 (Mountain Daylight Time)","359587","Untrustworthy,Trustworthy","","null","","","","feedback","","<div class='respPicDiv'><img src='img/responseButtonOffersNo0_wht.png' class='respPic'></div><div class='trialDiv'><img src='Fruit/lemon.png'><br><font class='baseline'><strong>Lucky Lemons</strong><p><strong><font class='negOutcome'>You LOST</font><p>You bet: 4</strong></font> &nbsp; &nbsp; &nbsp; &nbsp; &nbsp; &nbsp;<font class='negOutcome'>You receive: <strong>0</strong></font></div>","null","8","Lucky Lemons","Fruit/lemon.png","Lost","0.2,0.65","14","0.2","105","24","",""
"html-keyboard-response","82","116058","0.0-11.0-1.24","62951043176ada9a9de2faa4","bdp_rwlrn","Wed Mar 15 2023 13:13:01 GMT-0600 (Mountain Daylight Time)","359587","Untrustworthy,Trustworthy","","574","","","","decision","","<div class='trialDiv'><img src='Fruit/apple.png'><br><font class='baseline'><strong>Awesome Apples</strong><p>Choose number of points to bet.</font><div class='respPicDiv'><img src='img/responseButtonOffersNo0L.png' class='respPic'></div></div>","1","9","Awesome Apples","Fruit/apple.png","Lost","0.65,0.2","12","0.65","110","25","",""
"html-keyboard-response","83","116314","0.0-11.0-2.24","62951043176ada9a9de2faa4","bdp_rwlrn","Wed Mar 15 2023 13:13:01 GMT-0600 (Mountain Daylight Time)","359587","Untrustworthy,Trustworthy","","null","","","","decisionFB","","<div class='trialDiv'><img src='Fruit/apple.png'><br><font class='baseline'><strong>Awesome Apples</strong><p>Choose number of points to bet.</font><div class='respPicDiv'><img src='img/responseButtonOffersNo0L1.png' class='respPic'></div></div>","null","9","Awesome Apples","Fruit/apple.png","Lost","0.65,0.2","12","0.65","109","25","",""
"html-keyboard-response","84","117322","0.0-11.0-3.24","62951043176ada9a9de2faa4","bdp_rwlrn","Wed Mar 15 2023 13:13:01 GMT-0600 (Mountain Daylight Time)","359587","Untrustworthy,Trustworthy","","null","","","","feedback","","<div class='respPicDiv'><img src='img/responseButtonOffersNo0_wht.png' class='respPic'></div><div class='trialDiv'><img src='Fruit/apple.png'><br><font class='baseline'><strong>Awesome Apples</strong><p><strong><font class='negOutcome'>You LOST</font><p>You bet: 1</strong></font> &nbsp; &nbsp; &nbsp; &nbsp; &nbsp; &nbsp;<font class='negOutcome'>You receive: <strong>0</strong></font></div>","null","9","Awesome Apples","Fruit/apple.png","Lost","0.65,0.2","12","0.65","109","25","",""
"html-keyboard-response","85","118447","0.0-11.0-1.25","62951043176ada9a9de2faa4","bdp_rwlrn","Wed Mar 15 2023 13:13:01 GMT-0600 (Mountain Daylight Time)","359587","Untrustworthy,Trustworthy","","1122","","","","decision","","<div class='trialDiv'><img src='Fruit/lemon.png'><br><font class='baseline'><strong>Lucky Lemons</strong><p>Choose number of points to bet.</font><div class='respPicDiv'><img src='img/responseButtonOffersNo0L.png' class='respPic'></div></div>","3","9","Lucky Lemons","Fruit/lemon.png","Lost","0.2,0.65","14","0.2","114","26","",""
"html-keyboard-response","86","118704","0.0-11.0-2.25","62951043176ada9a9de2faa4","bdp_rwlrn","Wed Mar 15 2023 13:13:01 GMT-0600 (Mountain Daylight Time)","359587","Untrustworthy,Trustworthy","","null","","","","decisionFB","","<div class='trialDiv'><img src='Fruit/lemon.png'><br><font class='baseline'><strong>Lucky Lemons</strong><p>Choose number of points to bet.</font><div class='respPicDiv'><img src='img/responseButtonOffersNo0L3.png' class='respPic'></div></div>","null","9","Lucky Lemons","Fruit/lemon.png","Lost","0.2,0.65","14","0.2","111","26","",""
"html-keyboard-response","87","119712","0.0-11.0-3.25","62951043176ada9a9de2faa4","bdp_rwlrn","Wed Mar 15 2023 13:13:01 GMT-0600 (Mountain Daylight Time)","359587","Untrustworthy,Trustworthy","","null","","","","feedback","","<div class='respPicDiv'><img src='img/responseButtonOffersNo0_wht.png' class='respPic'></div><div class='trialDiv'><img src='Fruit/lemon.png'><br><font class='baseline'><strong>Lucky Lemons</strong><p><strong><font class='negOutcome'>You LOST</font><p>You bet: 3</strong></font> &nbsp; &nbsp; &nbsp; &nbsp; &nbsp; &nbsp;<font class='negOutcome'>You receive: <strong>0</strong></font></div>","null","9","Lucky Lemons","Fruit/lemon.png","Lost","0.2,0.65","14","0.2","111","26","",""
"html-keyboard-response","88","120111","0.0-11.0-1.26","62951043176ada9a9de2faa4","bdp_rwlrn","Wed Mar 15 2023 13:13:01 GMT-0600 (Mountain Daylight Time)","359587","Untrustworthy,Trustworthy","","398","","","","decision","","<div class='trialDiv'><img src='Fruit/bananas.png'><br><font class='baseline'><strong>Banana Bonanza</strong><p>Choose number of points to bet.</font><div class='respPicDiv'><img src='img/responseButtonOffersNo0L.png' class='respPic'></div></div>","5","9","Banana Bonanza","Fruit/bananas.png","Won","0.65,0.35","14","0.65","116","27","",""
"html-keyboard-response","89","120370","0.0-11.0-2.26","62951043176ada9a9de2faa4","bdp_rwlrn","Wed Mar 15 2023 13:13:01 GMT-0600 (Mountain Daylight Time)","359587","Untrustworthy,Trustworthy","","null","","","","decisionFB","","<div class='trialDiv'><img src='Fruit/bananas.png'><br><font class='baseline'><strong>Banana Bonanza</strong><p>Choose number of points to bet.</font><div class='respPicDiv'><img src='img/responseButtonOffersNo0L5.png' class='respPic'></div></div>","null","9","Banana Bonanza","Fruit/bananas.png","Won","0.65,0.35","14","0.65","111","27","",""
"html-keyboard-response","90","121379","0.0-11.0-3.26","62951043176ada9a9de2faa4","bdp_rwlrn","Wed Mar 15 2023 13:13:01 GMT-0600 (Mountain Daylight Time)","359587","Untrustworthy,Trustworthy","","null","","","","feedback","","<div class='respPicDiv'><img src='img/responseButtonOffersNo0_wht.png' class='respPic'></div><div class='trialDiv'><img src='Fruit/bananas.png'><br><font class='baseline'><strong>Banana Bonanza</strong><p><strong><font class='posOutcome'>You WON</font><p>You bet: 5</strong></font> &nbsp; &nbsp; &nbsp; &nbsp; &nbsp; &nbsp;<font class='posOutcome'>you receive: <strong>10</strong></font></div>","null","9","Banana Bonanza","Fruit/bananas.png","Won","0.65,0.35","14","0.65","121","27","",""
"html-keyboard-response","91","122898","0.0-11.0-1.27","62951043176ada9a9de2faa4","bdp_rwlrn","Wed Mar 15 2023 13:13:01 GMT-0600 (Mountain Daylight Time)","359587","Untrustworthy,Trustworthy","","1517","","","","decision","","<div class='trialDiv'><img src='Fruit/lemon.png'><br><font class='baseline'><strong>Lucky Lemons</strong><p>Choose number of points to bet.</font><div class='respPicDiv'><img src='img/responseButtonOffersNo0L.png' class='respPic'></div></div>","1","10","Lucky Lemons","Fruit/lemon.png","Lost","0.2,0.65","14","0.2","126","28","",""
"html-keyboard-response","92","123156","0.0-11.0-2.27","62951043176ada9a9de2faa4","bdp_rwlrn","Wed Mar 15 2023 13:13:01 GMT-0600 (Mountain Daylight Time)","359587","Untrustworthy,Trustworthy","","null","","","","decisionFB","","<div class='trialDiv'><img src='Fruit/lemon.png'><br><font class='baseline'><strong>Lucky Lemons</strong><p>Choose number of points to bet.</font><div class='respPicDiv'><img src='img/responseButtonOffersNo0L1.png' class='respPic'></div></div>","null","10","Lucky Lemons","Fruit/lemon.png","Lost","0.2,0.65","14","0.2","125","28","",""
"html-keyboard-response","93","124165","0.0-11.0-3.27","62951043176ada9a9de2faa4","bdp_rwlrn","Wed Mar 15 2023 13:13:01 GMT-0600 (Mountain Daylight Time)","359587","Untrustworthy,Trustworthy","","null","","","","feedback","","<div class='respPicDiv'><img src='img/responseButtonOffersNo0_wht.png' class='respPic'></div><div class='trialDiv'><img src='Fruit/lemon.png'><br><font class='baseline'><strong>Lucky Lemons</strong><p><strong><font class='negOutcome'>You LOST</font><p>You bet: 1</strong></font> &nbsp; &nbsp; &nbsp; &nbsp; &nbsp; &nbsp;<font class='negOutcome'>You receive: <strong>0</strong></font></div>","null","10","Lucky Lemons","Fruit/lemon.png","Lost","0.2,0.65","14","0.2","125","28","",""
"html-keyboard-response","94","125107","0.0-11.0-1.28","62951043176ada9a9de2faa4","bdp_rwlrn","Wed Mar 15 2023 13:13:01 GMT-0600 (Mountain Daylight Time)","359587","Untrustworthy,Trustworthy","","941","","","","decision","","<div class='trialDiv'><img src='Fruit/apple.png'><br><font class='baseline'><strong>Awesome Apples</strong><p>Choose number of points to bet.</font><div class='respPicDiv'><img src='img/responseButtonOffersNo0L.png' class='respPic'></div></div>","3","10","Awesome Apples","Fruit/apple.png","Won","0.65,0.2","12","0.65","130","29","",""
"html-keyboard-response","95","125360","0.0-11.0-2.28","62951043176ada9a9de2faa4","bdp_rwlrn","Wed Mar 15 2023 13:13:01 GMT-0600 (Mountain Daylight Time)","359587","Untrustworthy,Trustworthy","","null","","","","decisionFB","","<div class='trialDiv'><img src='Fruit/apple.png'><br><font class='baseline'><strong>Awesome Apples</strong><p>Choose number of points to bet.</font><div class='respPicDiv'><img src='img/responseButtonOffersNo0L3.png' class='respPic'></div></div>","null","10","Awesome Apples","Fruit/apple.png","Won","0.65,0.2","12","0.65","127","29","",""
"html-keyboard-response","96","126373","0.0-11.0-3.28","62951043176ada9a9de2faa4","bdp_rwlrn","Wed Mar 15 2023 13:13:01 GMT-0600 (Mountain Daylight Time)","359587","Untrustworthy,Trustworthy","","null","","","","feedback","","<div class='respPicDiv'><img src='img/responseButtonOffersNo0_wht.png' class='respPic'></div><div class='trialDiv'><img src='Fruit/apple.png'><br><font class='baseline'><strong>Awesome Apples</strong><p><strong><font class='posOutcome'>You WON</font><p>You bet: 3</strong></font> &nbsp; &nbsp; &nbsp; &nbsp; &nbsp; &nbsp;<font class='posOutcome'>you receive: <strong>6</strong></font></div>","null","10","Awesome Apples","Fruit/apple.png","Won","0.65,0.2","12","0.65","133","29","",""
"html-keyboard-response","97","128095","0.0-11.0-1.29","62951043176ada9a9de2faa4","bdp_rwlrn","Wed Mar 15 2023 13:13:01 GMT-0600 (Mountain Daylight Time)","359587","Untrustworthy,Trustworthy","","1721","","","","decision","","<div class='trialDiv'><img src='Fruit/bananas.png'><br><font class='baseline'><strong>Banana Bonanza</strong><p>Choose number of points to bet.</font><div class='respPicDiv'><img src='img/responseButtonOffersNo0L.png' class='respPic'></div></div>","2","10","Banana Bonanza","Fruit/bananas.png","Won","0.65,0.35","14","0.65","138","30","",""
"html-keyboard-response","98","128352","0.0-11.0-2.29","62951043176ada9a9de2faa4","bdp_rwlrn","Wed Mar 15 2023 13:13:01 GMT-0600 (Mountain Daylight Time)","359587","Untrustworthy,Trustworthy","","null","","","","decisionFB","","<div class='trialDiv'><img src='Fruit/bananas.png'><br><font class='baseline'><strong>Banana Bonanza</strong><p>Choose number of points to bet.</font><div class='respPicDiv'><img src='img/responseButtonOffersNo0L2.png' class='respPic'></div></div>","null","10","Banana Bonanza","Fruit/bananas.png","Won","0.65,0.35","14","0.65","136","30","",""
"html-keyboard-response","99","129361","0.0-11.0-3.29","62951043176ada9a9de2faa4","bdp_rwlrn","Wed Mar 15 2023 13:13:01 GMT-0600 (Mountain Daylight Time)","359587","Untrustworthy,Trustworthy","","null","","","","feedback","","<div class='respPicDiv'><img src='img/responseButtonOffersNo0_wht.png' class='respPic'></div><div class='trialDiv'><img src='Fruit/bananas.png'><br><font class='baseline'><strong>Banana Bonanza</strong><p><strong><font class='posOutcome'>You WON</font><p>You bet: 2</strong></font> &nbsp; &nbsp; &nbsp; &nbsp; &nbsp; &nbsp;<font class='posOutcome'>you receive: <strong>4</strong></font></div>","null","10","Banana Bonanza","Fruit/bananas.png","Won","0.65,0.35","14","0.65","140","30","",""
"html-keyboard-response","100","130615","0.0-11.0-1.30","62951043176ada9a9de2faa4","bdp_rwlrn","Wed Mar 15 2023 13:13:01 GMT-0600 (Mountain Daylight Time)","359587","Untrustworthy,Trustworthy","","1253","","","","decision","","<div class='trialDiv'><img src='Fruit/apple.png'><br><font class='baseline'><strong>Awesome Apples</strong><p>Choose number of points to bet.</font><div class='respPicDiv'><img src='img/responseButtonOffersNo0L.png' class='respPic'></div></div>","3","11","Awesome Apples","Fruit/apple.png","Won","0.65,0.2","12","0.65","145","31","",""
"html-keyboard-response","101","130874","0.0-11.0-2.30","62951043176ada9a9de2faa4","bdp_rwlrn","Wed Mar 15 2023 13:13:01 GMT-0600 (Mountain Daylight Time)","359587","Untrustworthy,Trustworthy","","null","","","","decisionFB","","<div class='trialDiv'><img src='Fruit/apple.png'><br><font class='baseline'><strong>Awesome Apples</strong><p>Choose number of points to bet.</font><div class='respPicDiv'><img src='img/responseButtonOffersNo0L3.png' class='respPic'></div></div>","null","11","Awesome Apples","Fruit/apple.png","Won","0.65,0.2","12","0.65","142","31","",""
"html-keyboard-response","102","131882","0.0-11.0-3.30","62951043176ada9a9de2faa4","bdp_rwlrn","Wed Mar 15 2023 13:13:01 GMT-0600 (Mountain Daylight Time)","359587","Untrustworthy,Trustworthy","","null","","","","feedback","","<div class='respPicDiv'><img src='img/responseButtonOffersNo0_wht.png' class='respPic'></div><div class='trialDiv'><img src='Fruit/apple.png'><br><font class='baseline'><strong>Awesome Apples</strong><p><strong><font class='posOutcome'>You WON</font><p>You bet: 3</strong></font> &nbsp; &nbsp; &nbsp; &nbsp; &nbsp; &nbsp;<font class='posOutcome'>you receive: <strong>6</strong></font></div>","null","11","Awesome Apples","Fruit/apple.png","Won","0.65,0.2","12","0.65","148","31","",""
"html-keyboard-response","103","132555","0.0-11.0-1.31","62951043176ada9a9de2faa4","bdp_rwlrn","Wed Mar 15 2023 13:13:01 GMT-0600 (Mountain Daylight Time)","359587","Untrustworthy,Trustworthy","","672","","","","decision","","<div class='trialDiv'><img src='Fruit/bananas.png'><br><font class='baseline'><strong>Banana Bonanza</strong><p>Choose number of points to bet.</font><div class='respPicDiv'><img src='img/responseButtonOffersNo0L.png' class='respPic'></div></div>","5","11","Banana Bonanza","Fruit/bananas.png","Lost","0.65,0.35","14","0.65","153","32","",""
"html-keyboard-response","104","132810","0.0-11.0-2.31","62951043176ada9a9de2faa4","bdp_rwlrn","Wed Mar 15 2023 13:13:01 GMT-0600 (Mountain Daylight Time)","359587","Untrustworthy,Trustworthy","","null","","","","decisionFB","","<div class='trialDiv'><img src='Fruit/bananas.png'><br><font class='baseline'><strong>Banana Bonanza</strong><p>Choose number of points to bet.</font><div class='respPicDiv'><img src='img/responseButtonOffersNo0L5.png' class='respPic'></div></div>","null","11","Banana Bonanza","Fruit/bananas.png","Lost","0.65,0.35","14","0.65","148","32","",""
"html-keyboard-response","105","133818","0.0-11.0-3.31","62951043176ada9a9de2faa4","bdp_rwlrn","Wed Mar 15 2023 13:13:01 GMT-0600 (Mountain Daylight Time)","359587","Untrustworthy,Trustworthy","","null","","","","feedback","","<div class='respPicDiv'><img src='img/responseButtonOffersNo0_wht.png' class='respPic'></div><div class='trialDiv'><img src='Fruit/bananas.png'><br><font class='baseline'><strong>Banana Bonanza</strong><p><strong><font class='negOutcome'>You LOST</font><p>You bet: 5</strong></font> &nbsp; &nbsp; &nbsp; &nbsp; &nbsp; &nbsp;<font class='negOutcome'>You receive: <strong>0</strong></font></div>","null","11","Banana Bonanza","Fruit/bananas.png","Lost","0.65,0.35","14","0.65","148","32","",""
"html-keyboard-response","106","134193","0.0-11.0-1.32","62951043176ada9a9de2faa4","bdp_rwlrn","Wed Mar 15 2023 13:13:01 GMT-0600 (Mountain Daylight Time)","359587","Untrustworthy,Trustworthy","","374","","","","decision","","<div class='trialDiv'><img src='Fruit/lemon.png'><br><font class='baseline'><strong>Lucky Lemons</strong><p>Choose number of points to bet.</font><div class='respPicDiv'><img src='img/responseButtonOffersNo0L.png' class='respPic'></div></div>","1","11","Lucky Lemons","Fruit/lemon.png","Lost","0.2,0.65","14","0.2","153","33","",""
"html-keyboard-response","107","134452","0.0-11.0-2.32","62951043176ada9a9de2faa4","bdp_rwlrn","Wed Mar 15 2023 13:13:01 GMT-0600 (Mountain Daylight Time)","359587","Untrustworthy,Trustworthy","","null","","","","decisionFB","","<div class='trialDiv'><img src='Fruit/lemon.png'><br><font class='baseline'><strong>Lucky Lemons</strong><p>Choose number of points to bet.</font><div class='respPicDiv'><img src='img/responseButtonOffersNo0L1.png' class='respPic'></div></div>","null","11","Lucky Lemons","Fruit/lemon.png","Lost","0.2,0.65","14","0.2","152","33","",""
"html-keyboard-response","108","135460","0.0-11.0-3.32","62951043176ada9a9de2faa4","bdp_rwlrn","Wed Mar 15 2023 13:13:01 GMT-0600 (Mountain Daylight Time)","359587","Untrustworthy,Trustworthy","","null","","","","feedback","","<div class='respPicDiv'><img src='img/responseButtonOffersNo0_wht.png' class='respPic'></div><div class='trialDiv'><img src='Fruit/lemon.png'><br><font class='baseline'><strong>Lucky Lemons</strong><p><strong><font class='negOutcome'>You LOST</font><p>You bet: 1</strong></font> &nbsp; &nbsp; &nbsp; &nbsp; &nbsp; &nbsp;<font class='negOutcome'>You receive: <strong>0</strong></font></div>","null","11","Lucky Lemons","Fruit/lemon.png","Lost","0.2,0.65","14","0.2","152","33","",""
"html-keyboard-response","109","136265","0.0-11.0-1.33","62951043176ada9a9de2faa4","bdp_rwlrn","Wed Mar 15 2023 13:13:01 GMT-0600 (Mountain Daylight Time)","359587","Untrustworthy,Trustworthy","","803","","","","decision","","<div class='trialDiv'><img src='Fruit/bananas.png'><br><font class='baseline'><strong>Banana Bonanza</strong><p>Choose number of points to bet.</font><div class='respPicDiv'><img src='img/responseButtonOffersNo0L.png' class='respPic'></div></div>","5","12","Banana Bonanza","Fruit/bananas.png","Won","0.65,0.35","14","0.65","157","34","",""
"html-keyboard-response","110","136522","0.0-11.0-2.33","62951043176ada9a9de2faa4","bdp_rwlrn","Wed Mar 15 2023 13:13:01 GMT-0600 (Mountain Daylight Time)","359587","Untrustworthy,Trustworthy","","null","","","","decisionFB","","<div class='trialDiv'><img src='Fruit/bananas.png'><br><font class='baseline'><strong>Banana Bonanza</strong><p>Choose number of points to bet.</font><div class='respPicDiv'><img src='img/responseButtonOffersNo0L5.png' class='respPic'></div></div>","null","12","Banana Bonanza","Fruit/bananas.png","Won","0.65,0.35","14","0.65","152","34","",""
"html-keyboard-response","111","137530","0.0-11.0-3.33","62951043176ada9a9de2faa4","bdp_rwlrn","Wed Mar 15 2023 13:13:01 GMT-0600 (Mountain Daylight Time)","359587","Untrustworthy,Trustworthy","","null","","","","feedback","","<div class='respPicDiv'><img src='img/responseButtonOffersNo0_wht.png' class='respPic'></div><div class='trialDiv'><img src='Fruit/bananas.png'><br><font class='baseline'><strong>Banana Bonanza</strong><p><strong><font class='posOutcome'>You WON</font><p>You bet: 5</strong></font> &nbsp; &nbsp; &nbsp; &nbsp; &nbsp; &nbsp;<font class='posOutcome'>you receive: <strong>10</strong></font></div>","null","12","Banana Bonanza","Fruit/bananas.png","Won","0.65,0.35","14","0.65","162","34","",""
"html-keyboard-response","112","138692","0.0-11.0-1.34","62951043176ada9a9de2faa4","bdp_rwlrn","Wed Mar 15 2023 13:13:01 GMT-0600 (Mountain Daylight Time)","359587","Untrustworthy,Trustworthy","","1161","","","","decision","","<div class='trialDiv'><img src='Fruit/lemon.png'><br><font class='baseline'><strong>Lucky Lemons</strong><p>Choose number of points to bet.</font><div class='respPicDiv'><img src='img/responseButtonOffersNo0L.png' class='respPic'></div></div>","3","12","Lucky Lemons","Fruit/lemon.png","Lost","0.2,0.65","14","0.2","167","35","",""
"html-keyboard-response","113","138954","0.0-11.0-2.34","62951043176ada9a9de2faa4","bdp_rwlrn","Wed Mar 15 2023 13:13:01 GMT-0600 (Mountain Daylight Time)","359587","Untrustworthy,Trustworthy","","null","","","","decisionFB","","<div class='trialDiv'><img src='Fruit/lemon.png'><br><font class='baseline'><strong>Lucky Lemons</strong><p>Choose number of points to bet.</font><div class='respPicDiv'><img src='img/responseButtonOffersNo0L3.png' class='respPic'></div></div>","null","12","Lucky Lemons","Fruit/lemon.png","Lost","0.2,0.65","14","0.2","164","35","",""
"html-keyboard-response","114","139962","0.0-11.0-3.34","62951043176ada9a9de2faa4","bdp_rwlrn","Wed Mar 15 2023 13:13:01 GMT-0600 (Mountain Daylight Time)","359587","Untrustworthy,Trustworthy","","null","","","","feedback","","<div class='respPicDiv'><img src='img/responseButtonOffersNo0_wht.png' class='respPic'></div><div class='trialDiv'><img src='Fruit/lemon.png'><br><font class='baseline'><strong>Lucky Lemons</strong><p><strong><font class='negOutcome'>You LOST</font><p>You bet: 3</strong></font> &nbsp; &nbsp; &nbsp; &nbsp; &nbsp; &nbsp;<font class='negOutcome'>You receive: <strong>0</strong></font></div>","null","12","Lucky Lemons","Fruit/lemon.png","Lost","0.2,0.65","14","0.2","164","35","",""
"html-keyboard-response","115","140988","0.0-11.0-1.35","62951043176ada9a9de2faa4","bdp_rwlrn","Wed Mar 15 2023 13:13:01 GMT-0600 (Mountain Daylight Time)","359587","Untrustworthy,Trustworthy","","1025","","","","decision","","<div class='trialDiv'><img src='Fruit/apple.png'><br><font class='baseline'><strong>Awesome Apples</strong><p>Choose number of points to bet.</font><div class='respPicDiv'><img src='img/responseButtonOffersNo0L.png' class='respPic'></div></div>","3","12","Awesome Apples","Fruit/apple.png","Lost","0.65,0.2","12","0.65","169","36","",""
"html-keyboard-response","116","141251","0.0-11.0-2.35","62951043176ada9a9de2faa4","bdp_rwlrn","Wed Mar 15 2023 13:13:01 GMT-0600 (Mountain Daylight Time)","359587","Untrustworthy,Trustworthy","","null","","","","decisionFB","","<div class='trialDiv'><img src='Fruit/apple.png'><br><font class='baseline'><strong>Awesome Apples</strong><p>Choose number of points to bet.</font><div class='respPicDiv'><img src='img/responseButtonOffersNo0L3.png' class='respPic'></div></div>","null","12","Awesome Apples","Fruit/apple.png","Lost","0.65,0.2","12","0.65","166","36","",""
"html-keyboard-response","117","142260","0.0-11.0-3.35","62951043176ada9a9de2faa4","bdp_rwlrn","Wed Mar 15 2023 13:13:01 GMT-0600 (Mountain Daylight Time)","359587","Untrustworthy,Trustworthy","","null","","","","feedback","","<div class='respPicDiv'><img src='img/responseButtonOffersNo0_wht.png' class='respPic'></div><div class='trialDiv'><img src='Fruit/apple.png'><br><font class='baseline'><strong>Awesome Apples</strong><p><strong><font class='negOutcome'>You LOST</font><p>You bet: 3</strong></font> &nbsp; &nbsp; &nbsp; &nbsp; &nbsp; &nbsp;<font class='negOutcome'>You receive: <strong>0</strong></font></div>","null","12","Awesome Apples","Fruit/apple.png","Lost","0.65,0.2","12","0.65","166","36","",""
"html-keyboard-response","118","143307","0.0-11.0-1.36","62951043176ada9a9de2faa4","bdp_rwlrn","Wed Mar 15 2023 13:13:01 GMT-0600 (Mountain Daylight Time)","359587","Untrustworthy,Trustworthy","","1046","","","","decision","","<div class='trialDiv'><img src='Fruit/bananas.png'><br><font class='baseline'><strong>Banana Bonanza</strong><p>Choose number of points to bet.</font><div class='respPicDiv'><img src='img/responseButtonOffersNo0L.png' class='respPic'></div></div>","5","13","Banana Bonanza","Fruit/bananas.png","Won","0.65,0.35","14","0.65","171","37","",""
"html-keyboard-response","119","143561","0.0-11.0-2.36","62951043176ada9a9de2faa4","bdp_rwlrn","Wed Mar 15 2023 13:13:01 GMT-0600 (Mountain Daylight Time)","359587","Untrustworthy,Trustworthy","","null","","","","decisionFB","","<div class='trialDiv'><img src='Fruit/bananas.png'><br><font class='baseline'><strong>Banana Bonanza</strong><p>Choose number of points to bet.</font><div class='respPicDiv'><img src='img/responseButtonOffersNo0L5.png' class='respPic'></div></div>","null","13","Banana Bonanza","Fruit/bananas.png","Won","0.65,0.35","14","0.65","166","37","",""
"html-keyboard-response","120","144570","0.0-11.0-3.36","62951043176ada9a9de2faa4","bdp_rwlrn","Wed Mar 15 2023 13:13:01 GMT-0600 (Mountain Daylight Time)","359587","Untrustworthy,Trustworthy","","null","","","","feedback","","<div class='respPicDiv'><img src='img/responseButtonOffersNo0_wht.png' class='respPic'></div><div class='trialDiv'><img src='Fruit/bananas.png'><br><font class='baseline'><strong>Banana Bonanza</strong><p><strong><font class='posOutcome'>You WON</font><p>You bet: 5</strong></font> &nbsp; &nbsp; &nbsp; &nbsp; &nbsp; &nbsp;<font class='posOutcome'>you receive: <strong>10</strong></font></div>","null","13","Banana Bonanza","Fruit/bananas.png","Won","0.65,0.35","14","0.65","176","37","",""
"html-keyboard-response","121","146031","0.0-11.0-1.37","62951043176ada9a9de2faa4","bdp_rwlrn","Wed Mar 15 2023 13:13:01 GMT-0600 (Mountain Daylight Time)","359587","Untrustworthy,Trustworthy","","1460","","","","decision","","<div class='trialDiv'><img src='Fruit/apple.png'><br><font class='baseline'><strong>Awesome Apples</strong><p>Choose number of points to bet.</font><div class='respPicDiv'><img src='img/responseButtonOffersNo0L.png' class='respPic'></div></div>","2","13","Awesome Apples","Fruit/apple.png","Lost","0.65,0.2","12","0.65","181","38","",""
"html-keyboard-response","122","146290","0.0-11.0-2.37","62951043176ada9a9de2faa4","bdp_rwlrn","Wed Mar 15 2023 13:13:01 GMT-0600 (Mountain Daylight Time)","359587","Untrustworthy,Trustworthy","","null","","","","decisionFB","","<div class='trialDiv'><img src='Fruit/apple.png'><br><font class='baseline'><strong>Awesome Apples</strong><p>Choose number of points to bet.</font><div class='respPicDiv'><img src='img/responseButtonOffersNo0L2.png' class='respPic'></div></div>","null","13","Awesome Apples","Fruit/apple.png","Lost","0.65,0.2","12","0.65","179","38","",""
"html-keyboard-response","123","147296","0.0-11.0-3.37","62951043176ada9a9de2faa4","bdp_rwlrn","Wed Mar 15 2023 13:13:01 GMT-0600 (Mountain Daylight Time)","359587","Untrustworthy,Trustworthy","","null","","","","feedback","","<div class='respPicDiv'><img src='img/responseButtonOffersNo0_wht.png' class='respPic'></div><div class='trialDiv'><img src='Fruit/apple.png'><br><font class='baseline'><strong>Awesome Apples</strong><p><strong><font class='negOutcome'>You LOST</font><p>You bet: 2</strong></font> &nbsp; &nbsp; &nbsp; &nbsp; &nbsp; &nbsp;<font class='negOutcome'>You receive: <strong>0</strong></font></div>","null","13","Awesome Apples","Fruit/apple.png","Lost","0.65,0.2","12","0.65","179","38","",""
"html-keyboard-response","124","147697","0.0-11.0-1.38","62951043176ada9a9de2faa4","bdp_rwlrn","Wed Mar 15 2023 13:13:01 GMT-0600 (Mountain Daylight Time)","359587","Untrustworthy,Trustworthy","","399","","","","decision","","<div class='trialDiv'><img src='Fruit/lemon.png'><br><font class='baseline'><strong>Lucky Lemons</strong><p>Choose number of points to bet.</font><div class='respPicDiv'><img src='img/responseButtonOffersNo0L.png' class='respPic'></div></div>","1","13","Lucky Lemons","Fruit/lemon.png","Won","0.2,0.65","14","0.2","184","39","",""
"html-keyboard-response","125","147951","0.0-11.0-2.38","62951043176ada9a9de2faa4","bdp_rwlrn","Wed Mar 15 2023 13:13:01 GMT-0600 (Mountain Daylight Time)","359587","Untrustworthy,Trustworthy","","null","","","","decisionFB","","<div class='trialDiv'><img src='Fruit/lemon.png'><br><font class='baseline'><strong>Lucky Lemons</strong><p>Choose number of points to bet.</font><div class='respPicDiv'><img src='img/responseButtonOffersNo0L1.png' class='respPic'></div></div>","null","13","Lucky Lemons","Fruit/lemon.png","Won","0.2,0.65","14","0.2","183","39","",""
"html-keyboard-response","126","148962","0.0-11.0-3.38","62951043176ada9a9de2faa4","bdp_rwlrn","Wed Mar 15 2023 13:13:01 GMT-0600 (Mountain Daylight Time)","359587","Untrustworthy,Trustworthy","","null","","","","feedback","","<div class='respPicDiv'><img src='img/responseButtonOffersNo0_wht.png' class='respPic'></div><div class='trialDiv'><img src='Fruit/lemon.png'><br><font class='baseline'><strong>Lucky Lemons</strong><p><strong><font class='posOutcome'>You WON</font><p>You bet: 1</strong></font> &nbsp; &nbsp; &nbsp; &nbsp; &nbsp; &nbsp;<font class='posOutcome'>you receive: <strong>2</strong></font></div>","null","13","Lucky Lemons","Fruit/lemon.png","Won","0.2,0.65","14","0.2","185","39","",""
"html-keyboard-response","127","150915","0.0-11.0-1.39","62951043176ada9a9de2faa4","bdp_rwlrn","Wed Mar 15 2023 13:13:01 GMT-0600 (Mountain Daylight Time)","359587","Untrustworthy,Trustworthy","","1951","","","","decision","","<div class='trialDiv'><img src='Fruit/apple.png'><br><font class='baseline'><strong>Awesome Apples</strong><p>Choose number of points to bet.</font><div class='respPicDiv'><img src='img/responseButtonOffersNo0L.png' class='respPic'></div></div>","3","14","Awesome Apples","Fruit/apple.png","Won","0.65,0.2","12","0.65","190","40","",""
"html-keyboard-response","128","151170","0.0-11.0-2.39","62951043176ada9a9de2faa4","bdp_rwlrn","Wed Mar 15 2023 13:13:01 GMT-0600 (Mountain Daylight Time)","359587","Untrustworthy,Trustworthy","","null","","","","decisionFB","","<div class='trialDiv'><img src='Fruit/apple.png'><br><font class='baseline'><strong>Awesome Apples</strong><p>Choose number of points to bet.</font><div class='respPicDiv'><img src='img/responseButtonOffersNo0L3.png' class='respPic'></div></div>","null","14","Awesome Apples","Fruit/apple.png","Won","0.65,0.2","12","0.65","187","40","",""
"html-keyboard-response","129","152179","0.0-11.0-3.39","62951043176ada9a9de2faa4","bdp_rwlrn","Wed Mar 15 2023 13:13:01 GMT-0600 (Mountain Daylight Time)","359587","Untrustworthy,Trustworthy","","null","","","","feedback","","<div class='respPicDiv'><img src='img/responseButtonOffersNo0_wht.png' class='respPic'></div><div class='trialDiv'><img src='Fruit/apple.png'><br><font class='baseline'><strong>Awesome Apples</strong><p><strong><font class='posOutcome'>You WON</font><p>You bet: 3</strong></font> &nbsp; &nbsp; &nbsp; &nbsp; &nbsp; &nbsp;<font class='posOutcome'>you receive: <strong>6</strong></font></div>","null","14","Awesome Apples","Fruit/apple.png","Won","0.65,0.2","12","0.65","193","40","",""
"html-keyboard-response","130","153748","0.0-11.0-1.40","62951043176ada9a9de2faa4","bdp_rwlrn","Wed Mar 15 2023 13:13:01 GMT-0600 (Mountain Daylight Time)","359587","Untrustworthy,Trustworthy","","1568","","","","decision","","<div class='trialDiv'><img src='Fruit/lemon.png'><br><font class='baseline'><strong>Lucky Lemons</strong><p>Choose number of points to bet.</font><div class='respPicDiv'><img src='img/responseButtonOffersNo0L.png' class='respPic'></div></div>","4","14","Lucky Lemons","Fruit/lemon.png","Lost","0.2,0.65","14","0.2","198","41","",""
"html-keyboard-response","131","154009","0.0-11.0-2.40","62951043176ada9a9de2faa4","bdp_rwlrn","Wed Mar 15 2023 13:13:01 GMT-0600 (Mountain Daylight Time)","359587","Untrustworthy,Trustworthy","","null","","","","decisionFB","","<div class='trialDiv'><img src='Fruit/lemon.png'><br><font class='baseline'><strong>Lucky Lemons</strong><p>Choose number of points to bet.</font><div class='respPicDiv'><img src='img/responseButtonOffersNo0L4.png' class='respPic'></div></div>","null","14","Lucky Lemons","Fruit/lemon.png","Lost","0.2,0.65","14","0.2","194","41","",""
"html-keyboard-response","132","155017","0.0-11.0-3.40","62951043176ada9a9de2faa4","bdp_rwlrn","Wed Mar 15 2023 13:13:01 GMT-0600 (Mountain Daylight Time)","359587","Untrustworthy,Trustworthy","","null","","","","feedback","","<div class='respPicDiv'><img src='img/responseButtonOffersNo0_wht.png' class='respPic'></div><div class='trialDiv'><img src='Fruit/lemon.png'><br><font class='baseline'><strong>Lucky Lemons</strong><p><strong><font class='negOutcome'>You LOST</font><p>You bet: 4</strong></font> &nbsp; &nbsp; &nbsp; &nbsp; &nbsp; &nbsp;<font class='negOutcome'>You receive: <strong>0</strong></font></div>","null","14","Lucky Lemons","Fruit/lemon.png","Lost","0.2,0.65","14","0.2","194","41","",""
"html-keyboard-response","133","155460","0.0-11.0-1.41","62951043176ada9a9de2faa4","bdp_rwlrn","Wed Mar 15 2023 13:13:01 GMT-0600 (Mountain Daylight Time)","359587","Untrustworthy,Trustworthy","","441","","","","decision","","<div class='trialDiv'><img src='Fruit/bananas.png'><br><font class='baseline'><strong>Banana Bonanza</strong><p>Choose number of points to bet.</font><div class='respPicDiv'><img src='img/responseButtonOffersNo0L.png' class='respPic'></div></div>","5","14","Banana Bonanza","Fruit/bananas.png","Lost","0.65,0.35","14","0.65","199","42","",""
"html-keyboard-response","134","155721","0.0-11.0-2.41","62951043176ada9a9de2faa4","bdp_rwlrn","Wed Mar 15 2023 13:13:01 GMT-0600 (Mountain Daylight Time)","359587","Untrustworthy,Trustworthy","","null","","","","decisionFB","","<div class='trialDiv'><img src='Fruit/bananas.png'><br><font class='baseline'><strong>Banana Bonanza</strong><p>Choose number of points to bet.</font><div class='respPicDiv'><img src='img/responseButtonOffersNo0L5.png' class='respPic'></div></div>","null","14","Banana Bonanza","Fruit/bananas.png","Lost","0.65,0.35","14","0.65","194","42","",""
"html-keyboard-response","135","156729","0.0-11.0-3.41","62951043176ada9a9de2faa4","bdp_rwlrn","Wed Mar 15 2023 13:13:01 GMT-0600 (Mountain Daylight Time)","359587","Untrustworthy,Trustworthy","","null","","","","feedback","","<div class='respPicDiv'><img src='img/responseButtonOffersNo0_wht.png' class='respPic'></div><div class='trialDiv'><img src='Fruit/bananas.png'><br><font class='baseline'><strong>Banana Bonanza</strong><p><strong><font class='negOutcome'>You LOST</font><p>You bet: 5</strong></font> &nbsp; &nbsp; &nbsp; &nbsp; &nbsp; &nbsp;<font class='negOutcome'>You receive: <strong>0</strong></font></div>","null","14","Banana Bonanza","Fruit/bananas.png","Lost","0.65,0.35","14","0.65","194","42","",""
"html-keyboard-response","136","157233","0.0-11.0-1.42","62951043176ada9a9de2faa4","bdp_rwlrn","Wed Mar 15 2023 13:13:01 GMT-0600 (Mountain Daylight Time)","359587","Untrustworthy,Trustworthy","","501","","","","decision","","<div class='trialDiv'><img src='Fruit/lemon.png'><br><font class='baseline'><strong>Lucky Lemons</strong><p>Choose number of points to bet.</font><div class='respPicDiv'><img src='img/responseButtonOffersNo0L.png' class='respPic'></div></div>","1","15","Lucky Lemons","Fruit/lemon.png","Won","0.2,0.65","14","0.2","199","43","",""
"html-keyboard-response","137","157492","0.0-11.0-2.42","62951043176ada9a9de2faa4","bdp_rwlrn","Wed Mar 15 2023 13:13:01 GMT-0600 (Mountain Daylight Time)","359587","Untrustworthy,Trustworthy","","null","","","","decisionFB","","<div class='trialDiv'><img src='Fruit/lemon.png'><br><font class='baseline'><strong>Lucky Lemons</strong><p>Choose number of points to bet.</font><div class='respPicDiv'><img src='img/responseButtonOffersNo0L1.png' class='respPic'></div></div>","null","15","Lucky Lemons","Fruit/lemon.png","Won","0.2,0.65","14","0.2","198","43","",""
"html-keyboard-response","138","158495","0.0-11.0-3.42","62951043176ada9a9de2faa4","bdp_rwlrn","Wed Mar 15 2023 13:13:01 GMT-0600 (Mountain Daylight Time)","359587","Untrustworthy,Trustworthy","","null","","","","feedback","","<div class='respPicDiv'><img src='img/responseButtonOffersNo0_wht.png' class='respPic'></div><div class='trialDiv'><img src='Fruit/lemon.png'><br><font class='baseline'><strong>Lucky Lemons</strong><p><strong><font class='posOutcome'>You WON</font><p>You bet: 1</strong></font> &nbsp; &nbsp; &nbsp; &nbsp; &nbsp; &nbsp;<font class='posOutcome'>you receive: <strong>2</strong></font></div>","null","15","Lucky Lemons","Fruit/lemon.png","Won","0.2,0.65","14","0.2","200","43","",""
"html-keyboard-response","139","159261","0.0-11.0-1.43","62951043176ada9a9de2faa4","bdp_rwlrn","Wed Mar 15 2023 13:13:01 GMT-0600 (Mountain Daylight Time)","359587","Untrustworthy,Trustworthy","","765","","","","decision","","<div class='trialDiv'><img src='Fruit/bananas.png'><br><font class='baseline'><strong>Banana Bonanza</strong><p>Choose number of points to bet.</font><div class='respPicDiv'><img src='img/responseButtonOffersNo0L.png' class='respPic'></div></div>","3","15","Banana Bonanza","Fruit/bananas.png","Lost","0.65,0.35","14","0.65","205","44","",""
"html-keyboard-response","140","159519","0.0-11.0-2.43","62951043176ada9a9de2faa4","bdp_rwlrn","Wed Mar 15 2023 13:13:01 GMT-0600 (Mountain Daylight Time)","359587","Untrustworthy,Trustworthy","","null","","","","decisionFB","","<div class='trialDiv'><img src='Fruit/bananas.png'><br><font class='baseline'><strong>Banana Bonanza</strong><p>Choose number of points to bet.</font><div class='respPicDiv'><img src='img/responseButtonOffersNo0L3.png' class='respPic'></div></div>","null","15","Banana Bonanza","Fruit/bananas.png","Lost","0.65,0.35","14","0.65","202","44","",""
"html-keyboard-response","141","160530","0.0-11.0-3.43","62951043176ada9a9de2faa4","bdp_rwlrn","Wed Mar 15 2023 13:13:01 GMT-0600 (Mountain Daylight Time)","359587","Untrustworthy,Trustworthy","","null","","","","feedback","","<div class='respPicDiv'><img src='img/responseButtonOffersNo0_wht.png' class='respPic'></div><div class='trialDiv'><img src='Fruit/bananas.png'><br><font class='baseline'><strong>Banana Bonanza</strong><p><strong><font class='negOutcome'>You LOST</font><p>You bet: 3</strong></font> &nbsp; &nbsp; &nbsp; &nbsp; &nbsp; &nbsp;<font class='negOutcome'>You receive: <strong>0</strong></font></div>","null","15","Banana Bonanza","Fruit/bananas.png","Lost","0.65,0.35","14","0.65","202","44","",""
"html-keyboard-response","142","161395","0.0-11.0-1.44","62951043176ada9a9de2faa4","bdp_rwlrn","Wed Mar 15 2023 13:13:01 GMT-0600 (Mountain Daylight Time)","359587","Untrustworthy,Trustworthy","","863","","","","decision","","<div class='trialDiv'><img src='Fruit/apple.png'><br><font class='baseline'><strong>Awesome Apples</strong><p>Choose number of points to bet.</font><div class='respPicDiv'><img src='img/responseButtonOffersNo0L.png' class='respPic'></div></div>","3","15","Awesome Apples","Fruit/apple.png","Lost","0.65,0.2","12","0.65","207","45","",""
"html-keyboard-response","143","161652","0.0-11.0-2.44","62951043176ada9a9de2faa4","bdp_rwlrn","Wed Mar 15 2023 13:13:01 GMT-0600 (Mountain Daylight Time)","359587","Untrustworthy,Trustworthy","","null","","","","decisionFB","","<div class='trialDiv'><img src='Fruit/apple.png'><br><font class='baseline'><strong>Awesome Apples</strong><p>Choose number of points to bet.</font><div class='respPicDiv'><img src='img/responseButtonOffersNo0L3.png' class='respPic'></div></div>","null","15","Awesome Apples","Fruit/apple.png","Lost","0.65,0.2","12","0.65","204","45","",""
"html-keyboard-response","144","162658","0.0-11.0-3.44","62951043176ada9a9de2faa4","bdp_rwlrn","Wed Mar 15 2023 13:13:01 GMT-0600 (Mountain Daylight Time)","359587","Untrustworthy,Trustworthy","","null","","","","feedback","","<div class='respPicDiv'><img src='img/responseButtonOffersNo0_wht.png' class='respPic'></div><div class='trialDiv'><img src='Fruit/apple.png'><br><font class='baseline'><strong>Awesome Apples</strong><p><strong><font class='negOutcome'>You LOST</font><p>You bet: 3</strong></font> &nbsp; &nbsp; &nbsp; &nbsp; &nbsp; &nbsp;<font class='negOutcome'>You receive: <strong>0</strong></font></div>","null","15","Awesome Apples","Fruit/apple.png","Lost","0.65,0.2","12","0.65","204","45","",""
"html-keyboard-response","145","163780","0.0-11.0-1.45","62951043176ada9a9de2faa4","bdp_rwlrn","Wed Mar 15 2023 13:13:01 GMT-0600 (Mountain Daylight Time)","359587","Untrustworthy,Trustworthy","","1120","","","","decision","","<div class='trialDiv'><img src='Fruit/bananas.png'><br><font class='baseline'><strong>Banana Bonanza</strong><p>Choose number of points to bet.</font><div class='respPicDiv'><img src='img/responseButtonOffersNo0L.png' class='respPic'></div></div>","1","16","Banana Bonanza","Fruit/bananas.png","Lost","0.65,0.35","14","0.65","209","46","",""
"html-keyboard-response","146","164041","0.0-11.0-2.45","62951043176ada9a9de2faa4","bdp_rwlrn","Wed Mar 15 2023 13:13:01 GMT-0600 (Mountain Daylight Time)","359587","Untrustworthy,Trustworthy","","null","","","","decisionFB","","<div class='trialDiv'><img src='Fruit/bananas.png'><br><font class='baseline'><strong>Banana Bonanza</strong><p>Choose number of points to bet.</font><div class='respPicDiv'><img src='img/responseButtonOffersNo0L1.png' class='respPic'></div></div>","null","16","Banana Bonanza","Fruit/bananas.png","Lost","0.65,0.35","14","0.65","208","46","",""
"html-keyboard-response","147","165049","0.0-11.0-3.45","62951043176ada9a9de2faa4","bdp_rwlrn","Wed Mar 15 2023 13:13:01 GMT-0600 (Mountain Daylight Time)","359587","Untrustworthy,Trustworthy","","null","","","","feedback","","<div class='respPicDiv'><img src='img/responseButtonOffersNo0_wht.png' class='respPic'></div><div class='trialDiv'><img src='Fruit/bananas.png'><br><font class='baseline'><strong>Banana Bonanza</strong><p><strong><font class='negOutcome'>You LOST</font><p>You bet: 1</strong></font> &nbsp; &nbsp; &nbsp; &nbsp; &nbsp; &nbsp;<font class='negOutcome'>You receive: <strong>0</strong></font></div>","null","16","Banana Bonanza","Fruit/bananas.png","Lost","0.65,0.35","14","0.65","208","46","",""
"html-keyboard-response","148","165517","0.0-11.0-1.46","62951043176ada9a9de2faa4","bdp_rwlrn","Wed Mar 15 2023 13:13:01 GMT-0600 (Mountain Daylight Time)","359587","Untrustworthy,Trustworthy","","467","","","","decision","","<div class='trialDiv'><img src='Fruit/lemon.png'><br><font class='baseline'><strong>Lucky Lemons</strong><p>Choose number of points to bet.</font><div class='respPicDiv'><img src='img/responseButtonOffersNo0L.png' class='respPic'></div></div>","5","16","Lucky Lemons","Fruit/lemon.png","Won","0.2,0.65","14","0.2","213","47","",""
"html-keyboard-response","149","165777","0.0-11.0-2.46","62951043176ada9a9de2faa4","bdp_rwlrn","Wed Mar 15 2023 13:13:01 GMT-0600 (Mountain Daylight Time)","359587","Untrustworthy,Trustworthy","","null","","","","decisionFB","","<div class='trialDiv'><img src='Fruit/lemon.png'><br><font class='baseline'><strong>Lucky Lemons</strong><p>Choose number of points to bet.</font><div class='respPicDiv'><img src='img/responseButtonOffersNo0L5.png' class='respPic'></div></div>","null","16","Lucky Lemons","Fruit/lemon.png","Won","0.2,0.65","14","0.2","208","47","",""
"html-keyboard-response","150","166782","0.0-11.0-3.46","62951043176ada9a9de2faa4","bdp_rwlrn","Wed Mar 15 2023 13:13:01 GMT-0600 (Mountain Daylight Time)","359587","Untrustworthy,Trustworthy","","null","","","","feedback","","<div class='respPicDiv'><img src='img/responseButtonOffersNo0_wht.png' class='respPic'></div><div class='trialDiv'><img src='Fruit/lemon.png'><br><font class='baseline'><strong>Lucky Lemons</strong><p><strong><font class='posOutcome'>You WON</font><p>You bet: 5</strong></font> &nbsp; &nbsp; &nbsp; &nbsp; &nbsp; &nbsp;<font class='posOutcome'>you receive: <strong>10</strong></font></div>","null","16","Lucky Lemons","Fruit/lemon.png","Won","0.2,0.65","14","0.2","218","47","",""
"html-keyboard-response","151","167991","0.0-11.0-1.47","62951043176ada9a9de2faa4","bdp_rwlrn","Wed Mar 15 2023 13:13:01 GMT-0600 (Mountain Daylight Time)","359587","Untrustworthy,Trustworthy","","1206","","","","decision","","<div class='trialDiv'><img src='Fruit/apple.png'><br><font class='baseline'><strong>Awesome Apples</strong><p>Choose number of points to bet.</font><div class='respPicDiv'><img src='img/responseButtonOffersNo0L.png' class='respPic'></div></div>","1","16","Awesome Apples","Fruit/apple.png","Lost","0.65,0.2","12","0.65","223","48","",""
"html-keyboard-response","152","168249","0.0-11.0-2.47","62951043176ada9a9de2faa4","bdp_rwlrn","Wed Mar 15 2023 13:13:01 GMT-0600 (Mountain Daylight Time)","359587","Untrustworthy,Trustworthy","","null","","","","decisionFB","","<div class='trialDiv'><img src='Fruit/apple.png'><br><font class='baseline'><strong>Awesome Apples</strong><p>Choose number of points to bet.</font><div class='respPicDiv'><img src='img/responseButtonOffersNo0L1.png' class='respPic'></div></div>","null","16","Awesome Apples","Fruit/apple.png","Lost","0.65,0.2","12","0.65","222","48","",""
"html-keyboard-response","153","169257","0.0-11.0-3.47","62951043176ada9a9de2faa4","bdp_rwlrn","Wed Mar 15 2023 13:13:01 GMT-0600 (Mountain Daylight Time)","359587","Untrustworthy,Trustworthy","","null","","","","feedback","","<div class='respPicDiv'><img src='img/responseButtonOffersNo0_wht.png' class='respPic'></div><div class='trialDiv'><img src='Fruit/apple.png'><br><font class='baseline'><strong>Awesome Apples</strong><p><strong><font class='negOutcome'>You LOST</font><p>You bet: 1</strong></font> &nbsp; &nbsp; &nbsp; &nbsp; &nbsp; &nbsp;<font class='negOutcome'>You receive: <strong>0</strong></font></div>","null","16","Awesome Apples","Fruit/apple.png","Lost","0.65,0.2","12","0.65","222","48","",""
"html-keyboard-response","154","171002","0.0-11.0-1.48","62951043176ada9a9de2faa4","bdp_rwlrn","Wed Mar 15 2023 13:13:01 GMT-0600 (Mountain Daylight Time)","359587","Untrustworthy,Trustworthy","","1744","","","","decision","","<div class='trialDiv'><img src='Fruit/bananas.png'><br><font class='baseline'><strong>Banana Bonanza</strong><p>Choose number of points to bet.</font><div class='respPicDiv'><img src='img/responseButtonOffersNo0L.png' class='respPic'></div></div>","2","17","Banana Bonanza","Fruit/bananas.png","Lost","0.65,0.35","14","0.65","227","49","",""
"html-keyboard-response","155","171257","0.0-11.0-2.48","62951043176ada9a9de2faa4","bdp_rwlrn","Wed Mar 15 2023 13:13:01 GMT-0600 (Mountain Daylight Time)","359587","Untrustworthy,Trustworthy","","null","","","","decisionFB","","<div class='trialDiv'><img src='Fruit/bananas.png'><br><font class='baseline'><strong>Banana Bonanza</strong><p>Choose number of points to bet.</font><div class='respPicDiv'><img src='img/responseButtonOffersNo0L2.png' class='respPic'></div></div>","null","17","Banana Bonanza","Fruit/bananas.png","Lost","0.65,0.35","14","0.65","225","49","",""
"html-keyboard-response","156","172265","0.0-11.0-3.48","62951043176ada9a9de2faa4","bdp_rwlrn","Wed Mar 15 2023 13:13:01 GMT-0600 (Mountain Daylight Time)","359587","Untrustworthy,Trustworthy","","null","","","","feedback","","<div class='respPicDiv'><img src='img/responseButtonOffersNo0_wht.png' class='respPic'></div><div class='trialDiv'><img src='Fruit/bananas.png'><br><font class='baseline'><strong>Banana Bonanza</strong><p><strong><font class='negOutcome'>You LOST</font><p>You bet: 2</strong></font> &nbsp; &nbsp; &nbsp; &nbsp; &nbsp; &nbsp;<font class='negOutcome'>You receive: <strong>0</strong></font></div>","null","17","Banana Bonanza","Fruit/bananas.png","Lost","0.65,0.35","14","0.65","225","49","",""
"html-keyboard-response","157","172713","0.0-11.0-1.49","62951043176ada9a9de2faa4","bdp_rwlrn","Wed Mar 15 2023 13:13:01 GMT-0600 (Mountain Daylight Time)","359587","Untrustworthy,Trustworthy","","447","","","","decision","","<div class='trialDiv'><img src='Fruit/lemon.png'><br><font class='baseline'><strong>Lucky Lemons</strong><p>Choose number of points to bet.</font><div class='respPicDiv'><img src='img/responseButtonOffersNo0L.png' class='respPic'></div></div>","5","17","Lucky Lemons","Fruit/lemon.png","Won","0.2,0.65","14","0.2","230","50","",""
"html-keyboard-response","158","172969","0.0-11.0-2.49","62951043176ada9a9de2faa4","bdp_rwlrn","Wed Mar 15 2023 13:13:01 GMT-0600 (Mountain Daylight Time)","359587","Untrustworthy,Trustworthy","","null","","","","decisionFB","","<div class='trialDiv'><img src='Fruit/lemon.png'><br><font class='baseline'><strong>Lucky Lemons</strong><p>Choose number of points to bet.</font><div class='respPicDiv'><img src='img/responseButtonOffersNo0L5.png' class='respPic'></div></div>","null","17","Lucky Lemons","Fruit/lemon.png","Won","0.2,0.65","14","0.2","225","50","",""
"html-keyboard-response","159","173977","0.0-11.0-3.49","62951043176ada9a9de2faa4","bdp_rwlrn","Wed Mar 15 2023 13:13:01 GMT-0600 (Mountain Daylight Time)","359587","Untrustworthy,Trustworthy","","null","","","","feedback","","<div class='respPicDiv'><img src='img/responseButtonOffersNo0_wht.png' class='respPic'></div><div class='trialDiv'><img src='Fruit/lemon.png'><br><font class='baseline'><strong>Lucky Lemons</strong><p><strong><font class='posOutcome'>You WON</font><p>You bet: 5</strong></font> &nbsp; &nbsp; &nbsp; &nbsp; &nbsp; &nbsp;<font class='posOutcome'>you receive: <strong>10</strong></font></div>","null","17","Lucky Lemons","Fruit/lemon.png","Won","0.2,0.65","14","0.2","235","50","",""
"html-keyboard-response","160","175254","0.0-11.0-1.50","62951043176ada9a9de2faa4","bdp_rwlrn","Wed Mar 15 2023 13:13:01 GMT-0600 (Mountain Daylight Time)","359587","Untrustworthy,Trustworthy","","1276","","","","decision","","<div class='trialDiv'><img src='Fruit/apple.png'><br><font class='baseline'><strong>Awesome Apples</strong><p>Choose number of points to bet.</font><div class='respPicDiv'><img src='img/responseButtonOffersNo0L.png' class='respPic'></div></div>","3","17","Awesome Apples","Fruit/apple.png","Lost","0.65,0.2","12","0.65","240","51","",""
"html-keyboard-response","161","175513","0.0-11.0-2.50","62951043176ada9a9de2faa4","bdp_rwlrn","Wed Mar 15 2023 13:13:01 GMT-0600 (Mountain Daylight Time)","359587","Untrustworthy,Trustworthy","","null","","","","decisionFB","","<div class='trialDiv'><img src='Fruit/apple.png'><br><font class='baseline'><strong>Awesome Apples</strong><p>Choose number of points to bet.</font><div class='respPicDiv'><img src='img/responseButtonOffersNo0L3.png' class='respPic'></div></div>","null","17","Awesome Apples","Fruit/apple.png","Lost","0.65,0.2","12","0.65","237","51","",""
"html-keyboard-response","162","176520","0.0-11.0-3.50","62951043176ada9a9de2faa4","bdp_rwlrn","Wed Mar 15 2023 13:13:01 GMT-0600 (Mountain Daylight Time)","359587","Untrustworthy,Trustworthy","","null","","","","feedback","","<div class='respPicDiv'><img src='img/responseButtonOffersNo0_wht.png' class='respPic'></div><div class='trialDiv'><img src='Fruit/apple.png'><br><font class='baseline'><strong>Awesome Apples</strong><p><strong><font class='negOutcome'>You LOST</font><p>You bet: 3</strong></font> &nbsp; &nbsp; &nbsp; &nbsp; &nbsp; &nbsp;<font class='negOutcome'>You receive: <strong>0</strong></font></div>","null","17","Awesome Apples","Fruit/apple.png","Lost","0.65,0.2","12","0.65","237","51","",""
