"event","trial","time","trialtype","numBlurs","subject_id","task","startTime","totalTime","labels","trial_type","trial_index","time_elapsed","internal_node_id","view_history","rt","success","stimulus","key_press","ltround","name","fileID","outcome","lottotype","lottoswpt","lottocurrpshare","point_total","round","faceID","face"
"blur","0","0","blurevent","1","63d40583fbdb78bfb9b0d3a4","bdp_rwlrn","Tue Mar 14 2023 20:36:28 GMT-0400 (Eastern Daylight Time)","390252","Trustworthy,Untrustworthy","","","","","","","","","","","","","","","","","","","",""
"","","","","","63d40583fbdb78bfb9b0d3a4","bdp_rwlrn","Tue Mar 14 2023 20:36:28 GMT-0400 (Eastern Daylight Time)","390252","Trustworthy,Untrustworthy","pavlovia","0","2","0.0-0.0","","","","","","","","","","","","","","","",""
"focus","1","586","focusevent","","63d40583fbdb78bfb9b0d3a4","bdp_rwlrn","Tue Mar 14 2023 20:36:28 GMT-0400 (Eastern Daylight Time)","390252","Trustworthy,Untrustworthy","","","","","","","","","","","","","","","","","","","",""
"","","","","","63d40583fbdb78bfb9b0d3a4","bdp_rwlrn","Tue Mar 14 2023 20:36:28 GMT-0400 (Eastern Daylight Time)","390252","Trustworthy,Untrustworthy","instructions","1","6037","0.0-1.0","[{""page_index"":0,""viewing_time"":6035}]","6035","","","","","","","","","","","","","",""
"fullscreenenter","2","8513","fullscreenenter","","63d40583fbdb78bfb9b0d3a4","bdp_rwlrn","Tue Mar 14 2023 20:36:28 GMT-0400 (Eastern Daylight Time)","390252","Trustworthy,Untrustworthy","","","","","","","","","","","","","","","","","","","",""
"","","","","","63d40583fbdb78bfb9b0d3a4","bdp_rwlrn","Tue Mar 14 2023 20:36:28 GMT-0400 (Eastern Daylight Time)","390252","Trustworthy,Untrustworthy","fullscreen","2","9501","0.0-2.0","","","true","","","","","","","","","","","","",""
"","","","","","63d40583fbdb78bfb9b0d3a4","bdp_rwlrn","Tue Mar 14 2023 20:36:28 GMT-0400 (Eastern Daylight Time)","390252","Trustworthy,Untrustworthy","instructions","3","79339","0.0-4.0","[{""page_index"":0,""viewing_time"":32071},{""page_index"":1,""viewing_time"":7896},{""page_index"":2,""viewing_time"":6214},{""page_index"":3,""viewing_time"":4552},{""page_index"":4,""viewing_time"":15054},{""page_index"":5,""viewing_time"":4050}]","69837","","","","","","","","","","","","","",""
"","","","","","63d40583fbdb78bfb9b0d3a4","bdp_rwlrn","Tue Mar 14 2023 20:36:28 GMT-0400 (Eastern Daylight Time)","390252","Trustworthy,Untrustworthy","html-keyboard-response","4","82772","0.0-5.0","","3432","","<div class='header' style='text-align:left; position: absolute; top: 5%; left: 5%;'><small>Task 1 of 5</small></div><div class='instruxDiv'><p><strong>1) What is the maximum number of points you can choose to bet on a lottery?</strong></p><p>a) 0</p><p>b) 1</p><p>c) 5</p>","C","","","","","","","","","","",""
"","","","","","63d40583fbdb78bfb9b0d3a4","bdp_rwlrn","Tue Mar 14 2023 20:36:28 GMT-0400 (Eastern Daylight Time)","390252","Trustworthy,Untrustworthy","html-keyboard-response","5","85760","0.0-6.0","","2878","","<div class='header' style='text-align:left; position: absolute; top: 5%; left: 5%;'><small>Task 1 of 5</small></div><div class='instruxDiv'><p><strong>1) What is the maximum number of points you can choose to bet on a lottery?</strong></p><p>a) 1</p><p>b) 1</p><p style='color:#00FF00'>c) 5</p><h3 style='color:#00FF00'>Correct!</h3><h3 class='center-content'>The correct response is c).</h3><h3 class='center-content'>The maximum number of points you can choose to bet on a lottery is 5 points.</h3><p><em>Press SPACEBAR to continue</em></p></div>"," ","","","","","","","","","","",""
"","","","","","63d40583fbdb78bfb9b0d3a4","bdp_rwlrn","Tue Mar 14 2023 20:36:28 GMT-0400 (Eastern Daylight Time)","390252","Trustworthy,Untrustworthy","html-keyboard-response","6","88858","0.0-7.0","","2992","","<div class='header' style='text-align:left; position: absolute; top: 5%; left: 5%;'><small>Task 1 of 5</small></div><div class='instruxDiv'><p><strong>2) How many points can you win each round?</strong></p><p>a) 10 points</p><p>b) Double what you bet</p><p>c) Quadruple what you bet</p>","B","","","","","","","","","","",""
"","","","","","63d40583fbdb78bfb9b0d3a4","bdp_rwlrn","Tue Mar 14 2023 20:36:28 GMT-0400 (Eastern Daylight Time)","390252","Trustworthy,Untrustworthy","html-keyboard-response","7","89896","0.0-8.0","","926","","<div class='header' style='text-align:left; position: absolute; top: 5%; left: 5%;'><small>Task 1 of 5</small></div><div class='instruxDiv'><p><strong>2) How many points can you win each round?</strong></p><p>a) 10 points</p><p style='color:#00FF00'>b) Double what you bet</p><p>c) Quadruple what you bet</p><h3 style='color:#00FF00'>Correct!</h3><h3 class='center-content'>The correct response is b).</h3><h3 class='center-content'>You can win double the amount of points you bet.</h3><p><em>Press SPACEBAR to continue</em></p></div>"," ","","","","","","","","","","",""
"","","","","","63d40583fbdb78bfb9b0d3a4","bdp_rwlrn","Tue Mar 14 2023 20:36:28 GMT-0400 (Eastern Daylight Time)","390252","Trustworthy,Untrustworthy","html-keyboard-response","8","95003","0.0-9.0","","null","","<div class='header' style='text-align:left; position: absolute; top: 5%; left: 5%;'><small>Task 1 of 5</small></div><div class='instruxDiv'><p>Thank you for completing the quiz<p>These are the actual lotteries you will be playing in the next block:<p><div class='tc' align='center'><img class='introPic' src='Fruit/pears.png'><br><strong>Pears Aplenty</strong></div><div class='bl' align='center'><img class='introPic' src='Fruit/mango.png'><br><strong>Mega Mangos</strong></div><div class='br' align='center'><img class='introPic' src='Fruit/watermelon.png'><br><strong>Watermelon Win$</strong></div></div><p>Across <strong>66 rounds</strong> you will play each lottery <strong>22 times</strong> (in random order).<p style='align:center; color:white'><font <em>Press SPACEBAR to continue</em></p>","null","","","","","","","","","","",""
"","","","","","63d40583fbdb78bfb9b0d3a4","bdp_rwlrn","Tue Mar 14 2023 20:36:28 GMT-0400 (Eastern Daylight Time)","390252","Trustworthy,Untrustworthy","instructions","9","100948","0.0-10.0","[{""page_index"":0,""viewing_time"":2836},{""page_index"":1,""viewing_time"":3109}]","5945","","","","","","","","","","","","","",""
"","","","decision","","63d40583fbdb78bfb9b0d3a4","bdp_rwlrn","Tue Mar 14 2023 20:36:28 GMT-0400 (Eastern Daylight Time)","390252","Trustworthy,Untrustworthy","html-keyboard-response","10","104006","0.0-11.0-1.0","","2947","","<div class='trialDiv'><img src='Fruit/mango.png'><br><font class='baseline'><strong>Mega Mangos</strong><p>Choose number of points to bet.</font><div class='respPicDiv'><img src='img/responseButtonOffersNo0L.png' class='respPic'></div></div>","3","1","Mega Mangos","Fruit/mango.png","Won","0.8,0.35","10","0.8","5","1","",""
"","","","decisionFB","","63d40583fbdb78bfb9b0d3a4","bdp_rwlrn","Tue Mar 14 2023 20:36:28 GMT-0400 (Eastern Daylight Time)","390252","Trustworthy,Untrustworthy","html-keyboard-response","11","104272","0.0-11.0-2.0","","null","","<div class='trialDiv'><img src='Fruit/mango.png'><br><font class='baseline'><strong>Mega Mangos</strong><p>Choose number of points to bet.</font><div class='respPicDiv'><img src='img/responseButtonOffersNo0L3.png' class='respPic'></div></div>","null","1","Mega Mangos","Fruit/mango.png","Won","0.8,0.35","10","0.8","2","1","",""
"","","","feedback","","63d40583fbdb78bfb9b0d3a4","bdp_rwlrn","Tue Mar 14 2023 20:36:28 GMT-0400 (Eastern Daylight Time)","390252","Trustworthy,Untrustworthy","html-keyboard-response","12","105285","0.0-11.0-3.0","","null","","<div class='respPicDiv'><img src='img/responseButtonOffersNo0_wht.png' class='respPic'></div><div class='trialDiv'><img src='Fruit/mango.png'><br><font class='baseline'><strong>Mega Mangos</strong><p><strong><font class='posOutcome'>You WON</font><p>You bet: 3</strong></font> &nbsp; &nbsp; &nbsp; &nbsp; &nbsp; &nbsp;<font class='posOutcome'>you receive: <strong>6</strong></font></div>","null","1","Mega Mangos","Fruit/mango.png","Won","0.8,0.35","10","0.8","8","1","",""
"","","","decision","","63d40583fbdb78bfb9b0d3a4","bdp_rwlrn","Tue Mar 14 2023 20:36:28 GMT-0400 (Eastern Daylight Time)","390252","Trustworthy,Untrustworthy","html-keyboard-response","13","105413","0.0-11.0-1.1","","127","","<div class='trialDiv'><img src='Fruit/pears.png'><br><font class='baseline'><strong>Pears Aplenty</strong><p>Choose number of points to bet.</font><div class='respPicDiv'><img src='img/responseButtonOffersNo0L.png' class='respPic'></div></div>","5","1","Pears Aplenty","Fruit/pears.png","Won","0.35,0.65","10","0.35","13","2","",""
"","","","decisionFB","","63d40583fbdb78bfb9b0d3a4","bdp_rwlrn","Tue Mar 14 2023 20:36:28 GMT-0400 (Eastern Daylight Time)","390252","Trustworthy,Untrustworthy","html-keyboard-response","14","105671","0.0-11.0-2.1","","null","","<div class='trialDiv'><img src='Fruit/pears.png'><br><font class='baseline'><strong>Pears Aplenty</strong><p>Choose number of points to bet.</font><div class='respPicDiv'><img src='img/responseButtonOffersNo0L5.png' class='respPic'></div></div>","null","1","Pears Aplenty","Fruit/pears.png","Won","0.35,0.65","10","0.35","8","2","",""
"","","","feedback","","63d40583fbdb78bfb9b0d3a4","bdp_rwlrn","Tue Mar 14 2023 20:36:28 GMT-0400 (Eastern Daylight Time)","390252","Trustworthy,Untrustworthy","html-keyboard-response","15","106685","0.0-11.0-3.1","","null","","<div class='respPicDiv'><img src='img/responseButtonOffersNo0_wht.png' class='respPic'></div><div class='trialDiv'><img src='Fruit/pears.png'><br><font class='baseline'><strong>Pears Aplenty</strong><p><strong><font class='posOutcome'>You WON</font><p>You bet: 5</strong></font> &nbsp; &nbsp; &nbsp; &nbsp; &nbsp; &nbsp;<font class='posOutcome'>you receive: <strong>10</strong></font></div>","null","1","Pears Aplenty","Fruit/pears.png","Won","0.35,0.65","10","0.35","18","2","",""
"","","","decision","","63d40583fbdb78bfb9b0d3a4","bdp_rwlrn","Tue Mar 14 2023 20:36:28 GMT-0400 (Eastern Daylight Time)","390252","Trustworthy,Untrustworthy","html-keyboard-response","16","108092","0.0-11.0-1.2","","1407","","<div class='trialDiv'><img src='Fruit/watermelon.png'><br><font class='baseline'><strong>Watermelon Win$</strong><p>Choose number of points to bet.</font><div class='respPicDiv'><img src='img/responseButtonOffersNo0L.png' class='respPic'></div></div>","2","1","Watermelon Win$","Fruit/watermelon.png","Lost","0.2,0.65","11","0.2","23","3","",""
"","","","decisionFB","","63d40583fbdb78bfb9b0d3a4","bdp_rwlrn","Tue Mar 14 2023 20:36:28 GMT-0400 (Eastern Daylight Time)","390252","Trustworthy,Untrustworthy","html-keyboard-response","17","108345","0.0-11.0-2.2","","null","","<div class='trialDiv'><img src='Fruit/watermelon.png'><br><font class='baseline'><strong>Watermelon Win$</strong><p>Choose number of points to bet.</font><div class='respPicDiv'><img src='img/responseButtonOffersNo0L2.png' class='respPic'></div></div>","null","1","Watermelon Win$","Fruit/watermelon.png","Lost","0.2,0.65","11","0.2","21","3","",""
"","","","feedback","","63d40583fbdb78bfb9b0d3a4","bdp_rwlrn","Tue Mar 14 2023 20:36:28 GMT-0400 (Eastern Daylight Time)","390252","Trustworthy,Untrustworthy","html-keyboard-response","18","109358","0.0-11.0-3.2","","null","","<div class='respPicDiv'><img src='img/responseButtonOffersNo0_wht.png' class='respPic'></div><div class='trialDiv'><img src='Fruit/watermelon.png'><br><font class='baseline'><strong>Watermelon Win$</strong><p><strong><font class='negOutcome'>You LOST</font><p>You bet: 2</strong></font> &nbsp; &nbsp; &nbsp; &nbsp; &nbsp; &nbsp;<font class='negOutcome'>You receive: <strong>0</strong></font></div>","null","1","Watermelon Win$","Fruit/watermelon.png","Lost","0.2,0.65","11","0.2","21","3","",""
"","","","decision","","63d40583fbdb78bfb9b0d3a4","bdp_rwlrn","Tue Mar 14 2023 20:36:28 GMT-0400 (Eastern Daylight Time)","390252","Trustworthy,Untrustworthy","html-keyboard-response","19","110646","0.0-11.0-1.3","","1287","","<div class='trialDiv'><img src='Fruit/pears.png'><br><font class='baseline'><strong>Pears Aplenty</strong><p>Choose number of points to bet.</font><div class='respPicDiv'><img src='img/responseButtonOffersNo0L.png' class='respPic'></div></div>","3","2","Pears Aplenty","Fruit/pears.png","Lost","0.35,0.65","10","0.35","26","4","",""
"","","","decisionFB","","63d40583fbdb78bfb9b0d3a4","bdp_rwlrn","Tue Mar 14 2023 20:36:28 GMT-0400 (Eastern Daylight Time)","390252","Trustworthy,Untrustworthy","html-keyboard-response","20","110910","0.0-11.0-2.3","","null","","<div class='trialDiv'><img src='Fruit/pears.png'><br><font class='baseline'><strong>Pears Aplenty</strong><p>Choose number of points to bet.</font><div class='respPicDiv'><img src='img/responseButtonOffersNo0L3.png' class='respPic'></div></div>","null","2","Pears Aplenty","Fruit/pears.png","Lost","0.35,0.65","10","0.35","23","4","",""
"","","","feedback","","63d40583fbdb78bfb9b0d3a4","bdp_rwlrn","Tue Mar 14 2023 20:36:28 GMT-0400 (Eastern Daylight Time)","390252","Trustworthy,Untrustworthy","html-keyboard-response","21","111923","0.0-11.0-3.3","","null","","<div class='respPicDiv'><img src='img/responseButtonOffersNo0_wht.png' class='respPic'></div><div class='trialDiv'><img src='Fruit/pears.png'><br><font class='baseline'><strong>Pears Aplenty</strong><p><strong><font class='negOutcome'>You LOST</font><p>You bet: 3</strong></font> &nbsp; &nbsp; &nbsp; &nbsp; &nbsp; &nbsp;<font class='negOutcome'>You receive: <strong>0</strong></font></div>","null","2","Pears Aplenty","Fruit/pears.png","Lost","0.35,0.65","10","0.35","23","4","",""
"","","","decision","","63d40583fbdb78bfb9b0d3a4","bdp_rwlrn","Tue Mar 14 2023 20:36:28 GMT-0400 (Eastern Daylight Time)","390252","Trustworthy,Untrustworthy","html-keyboard-response","22","115312","0.0-11.0-1.4","","3389","","<div class='trialDiv'><img src='Fruit/mango.png'><br><font class='baseline'><strong>Mega Mangos</strong><p>Choose number of points to bet.</font><div class='respPicDiv'><img src='img/responseButtonOffersNo0L.png' class='respPic'></div></div>","4","2","Mega Mangos","Fruit/mango.png","Won","0.8,0.35","10","0.8","28","5","",""
"","","","decisionFB","","63d40583fbdb78bfb9b0d3a4","bdp_rwlrn","Tue Mar 14 2023 20:36:28 GMT-0400 (Eastern Daylight Time)","390252","Trustworthy,Untrustworthy","html-keyboard-response","23","115564","0.0-11.0-2.4","","null","","<div class='trialDiv'><img src='Fruit/mango.png'><br><font class='baseline'><strong>Mega Mangos</strong><p>Choose number of points to bet.</font><div class='respPicDiv'><img src='img/responseButtonOffersNo0L4.png' class='respPic'></div></div>","null","2","Mega Mangos","Fruit/mango.png","Won","0.8,0.35","10","0.8","24","5","",""
"","","","feedback","","63d40583fbdb78bfb9b0d3a4","bdp_rwlrn","Tue Mar 14 2023 20:36:28 GMT-0400 (Eastern Daylight Time)","390252","Trustworthy,Untrustworthy","html-keyboard-response","24","116565","0.0-11.0-3.4","","null","","<div class='respPicDiv'><img src='img/responseButtonOffersNo0_wht.png' class='respPic'></div><div class='trialDiv'><img src='Fruit/mango.png'><br><font class='baseline'><strong>Mega Mangos</strong><p><strong><font class='posOutcome'>You WON</font><p>You bet: 4</strong></font> &nbsp; &nbsp; &nbsp; &nbsp; &nbsp; &nbsp;<font class='posOutcome'>you receive: <strong>8</strong></font></div>","null","2","Mega Mangos","Fruit/mango.png","Won","0.8,0.35","10","0.8","32","5","",""
"","","","decision","","63d40583fbdb78bfb9b0d3a4","bdp_rwlrn","Tue Mar 14 2023 20:36:28 GMT-0400 (Eastern Daylight Time)","390252","Trustworthy,Untrustworthy","html-keyboard-response","25","117704","0.0-11.0-1.5","","1138","","<div class='trialDiv'><img src='Fruit/watermelon.png'><br><font class='baseline'><strong>Watermelon Win$</strong><p>Choose number of points to bet.</font><div class='respPicDiv'><img src='img/responseButtonOffersNo0L.png' class='respPic'></div></div>","5","2","Watermelon Win$","Fruit/watermelon.png","Lost","0.2,0.65","11","0.2","37","6","",""
"","","","decisionFB","","63d40583fbdb78bfb9b0d3a4","bdp_rwlrn","Tue Mar 14 2023 20:36:28 GMT-0400 (Eastern Daylight Time)","390252","Trustworthy,Untrustworthy","html-keyboard-response","26","117965","0.0-11.0-2.5","","null","","<div class='trialDiv'><img src='Fruit/watermelon.png'><br><font class='baseline'><strong>Watermelon Win$</strong><p>Choose number of points to bet.</font><div class='respPicDiv'><img src='img/responseButtonOffersNo0L5.png' class='respPic'></div></div>","null","2","Watermelon Win$","Fruit/watermelon.png","Lost","0.2,0.65","11","0.2","32","6","",""
"","","","feedback","","63d40583fbdb78bfb9b0d3a4","bdp_rwlrn","Tue Mar 14 2023 20:36:28 GMT-0400 (Eastern Daylight Time)","390252","Trustworthy,Untrustworthy","html-keyboard-response","27","118980","0.0-11.0-3.5","","null","","<div class='respPicDiv'><img src='img/responseButtonOffersNo0_wht.png' class='respPic'></div><div class='trialDiv'><img src='Fruit/watermelon.png'><br><font class='baseline'><strong>Watermelon Win$</strong><p><strong><font class='negOutcome'>You LOST</font><p>You bet: 5</strong></font> &nbsp; &nbsp; &nbsp; &nbsp; &nbsp; &nbsp;<font class='negOutcome'>You receive: <strong>0</strong></font></div>","null","2","Watermelon Win$","Fruit/watermelon.png","Lost","0.2,0.65","11","0.2","32","6","",""
"","","","decision","","63d40583fbdb78bfb9b0d3a4","bdp_rwlrn","Tue Mar 14 2023 20:36:28 GMT-0400 (Eastern Daylight Time)","390252","Trustworthy,Untrustworthy","html-keyboard-response","28","120140","0.0-11.0-1.6","","1160","","<div class='trialDiv'><img src='Fruit/pears.png'><br><font class='baseline'><strong>Pears Aplenty</strong><p>Choose number of points to bet.</font><div class='respPicDiv'><img src='img/responseButtonOffersNo0L.png' class='respPic'></div></div>","3","3","Pears Aplenty","Fruit/pears.png","Lost","0.35,0.65","10","0.35","37","7","",""
"","","","decisionFB","","63d40583fbdb78bfb9b0d3a4","bdp_rwlrn","Tue Mar 14 2023 20:36:28 GMT-0400 (Eastern Daylight Time)","390252","Trustworthy,Untrustworthy","html-keyboard-response","29","120394","0.0-11.0-2.6","","null","","<div class='trialDiv'><img src='Fruit/pears.png'><br><font class='baseline'><strong>Pears Aplenty</strong><p>Choose number of points to bet.</font><div class='respPicDiv'><img src='img/responseButtonOffersNo0L3.png' class='respPic'></div></div>","null","3","Pears Aplenty","Fruit/pears.png","Lost","0.35,0.65","10","0.35","34","7","",""
"","","","feedback","","63d40583fbdb78bfb9b0d3a4","bdp_rwlrn","Tue Mar 14 2023 20:36:28 GMT-0400 (Eastern Daylight Time)","390252","Trustworthy,Untrustworthy","html-keyboard-response","30","121408","0.0-11.0-3.6","","null","","<div class='respPicDiv'><img src='img/responseButtonOffersNo0_wht.png' class='respPic'></div><div class='trialDiv'><img src='Fruit/pears.png'><br><font class='baseline'><strong>Pears Aplenty</strong><p><strong><font class='negOutcome'>You LOST</font><p>You bet: 3</strong></font> &nbsp; &nbsp; &nbsp; &nbsp; &nbsp; &nbsp;<font class='negOutcome'>You receive: <strong>0</strong></font></div>","null","3","Pears Aplenty","Fruit/pears.png","Lost","0.35,0.65","10","0.35","34","7","",""
"","","","decision","","63d40583fbdb78bfb9b0d3a4","bdp_rwlrn","Tue Mar 14 2023 20:36:28 GMT-0400 (Eastern Daylight Time)","390252","Trustworthy,Untrustworthy","html-keyboard-response","31","122328","0.0-11.0-1.7","","920","","<div class='trialDiv'><img src='Fruit/mango.png'><br><font class='baseline'><strong>Mega Mangos</strong><p>Choose number of points to bet.</font><div class='respPicDiv'><img src='img/responseButtonOffersNo0L.png' class='respPic'></div></div>","5","3","Mega Mangos","Fruit/mango.png","Won","0.8,0.35","10","0.8","39","8","",""
"","","","decisionFB","","63d40583fbdb78bfb9b0d3a4","bdp_rwlrn","Tue Mar 14 2023 20:36:28 GMT-0400 (Eastern Daylight Time)","390252","Trustworthy,Untrustworthy","html-keyboard-response","32","122592","0.0-11.0-2.7","","null","","<div class='trialDiv'><img src='Fruit/mango.png'><br><font class='baseline'><strong>Mega Mangos</strong><p>Choose number of points to bet.</font><div class='respPicDiv'><img src='img/responseButtonOffersNo0L5.png' class='respPic'></div></div>","null","3","Mega Mangos","Fruit/mango.png","Won","0.8,0.35","10","0.8","34","8","",""
"","","","feedback","","63d40583fbdb78bfb9b0d3a4","bdp_rwlrn","Tue Mar 14 2023 20:36:28 GMT-0400 (Eastern Daylight Time)","390252","Trustworthy,Untrustworthy","html-keyboard-response","33","123604","0.0-11.0-3.7","","null","","<div class='respPicDiv'><img src='img/responseButtonOffersNo0_wht.png' class='respPic'></div><div class='trialDiv'><img src='Fruit/mango.png'><br><font class='baseline'><strong>Mega Mangos</strong><p><strong><font class='posOutcome'>You WON</font><p>You bet: 5</strong></font> &nbsp; &nbsp; &nbsp; &nbsp; &nbsp; &nbsp;<font class='posOutcome'>you receive: <strong>10</strong></font></div>","null","3","Mega Mangos","Fruit/mango.png","Won","0.8,0.35","10","0.8","44","8","",""
"","","","decision","","63d40583fbdb78bfb9b0d3a4","bdp_rwlrn","Tue Mar 14 2023 20:36:28 GMT-0400 (Eastern Daylight Time)","390252","Trustworthy,Untrustworthy","html-keyboard-response","34","124809","0.0-11.0-1.8","","1205","","<div class='trialDiv'><img src='Fruit/watermelon.png'><br><font class='baseline'><strong>Watermelon Win$</strong><p>Choose number of points to bet.</font><div class='respPicDiv'><img src='img/responseButtonOffersNo0L.png' class='respPic'></div></div>","1","3","Watermelon Win$","Fruit/watermelon.png","Lost","0.2,0.65","11","0.2","49","9","",""
"","","","decisionFB","","63d40583fbdb78bfb9b0d3a4","bdp_rwlrn","Tue Mar 14 2023 20:36:28 GMT-0400 (Eastern Daylight Time)","390252","Trustworthy,Untrustworthy","html-keyboard-response","35","125064","0.0-11.0-2.8","","null","","<div class='trialDiv'><img src='Fruit/watermelon.png'><br><font class='baseline'><strong>Watermelon Win$</strong><p>Choose number of points to bet.</font><div class='respPicDiv'><img src='img/responseButtonOffersNo0L1.png' class='respPic'></div></div>","null","3","Watermelon Win$","Fruit/watermelon.png","Lost","0.2,0.65","11","0.2","48","9","",""
"","","","feedback","","63d40583fbdb78bfb9b0d3a4","bdp_rwlrn","Tue Mar 14 2023 20:36:28 GMT-0400 (Eastern Daylight Time)","390252","Trustworthy,Untrustworthy","html-keyboard-response","36","126079","0.0-11.0-3.8","","null","","<div class='respPicDiv'><img src='img/responseButtonOffersNo0_wht.png' class='respPic'></div><div class='trialDiv'><img src='Fruit/watermelon.png'><br><font class='baseline'><strong>Watermelon Win$</strong><p><strong><font class='negOutcome'>You LOST</font><p>You bet: 1</strong></font> &nbsp; &nbsp; &nbsp; &nbsp; &nbsp; &nbsp;<font class='negOutcome'>You receive: <strong>0</strong></font></div>","null","3","Watermelon Win$","Fruit/watermelon.png","Lost","0.2,0.65","11","0.2","48","9","",""
"","","","decision","","63d40583fbdb78bfb9b0d3a4","bdp_rwlrn","Tue Mar 14 2023 20:36:28 GMT-0400 (Eastern Daylight Time)","390252","Trustworthy,Untrustworthy","html-keyboard-response","37","126759","0.0-11.0-1.9","","680","","<div class='trialDiv'><img src='Fruit/pears.png'><br><font class='baseline'><strong>Pears Aplenty</strong><p>Choose number of points to bet.</font><div class='respPicDiv'><img src='img/responseButtonOffersNo0L.png' class='respPic'></div></div>","1","4","Pears Aplenty","Fruit/pears.png","Lost","0.35,0.65","10","0.35","53","10","",""
"","","","decisionFB","","63d40583fbdb78bfb9b0d3a4","bdp_rwlrn","Tue Mar 14 2023 20:36:28 GMT-0400 (Eastern Daylight Time)","390252","Trustworthy,Untrustworthy","html-keyboard-response","38","127013","0.0-11.0-2.9","","null","","<div class='trialDiv'><img src='Fruit/pears.png'><br><font class='baseline'><strong>Pears Aplenty</strong><p>Choose number of points to bet.</font><div class='respPicDiv'><img src='img/responseButtonOffersNo0L1.png' class='respPic'></div></div>","null","4","Pears Aplenty","Fruit/pears.png","Lost","0.35,0.65","10","0.35","52","10","",""
"","","","feedback","","63d40583fbdb78bfb9b0d3a4","bdp_rwlrn","Tue Mar 14 2023 20:36:28 GMT-0400 (Eastern Daylight Time)","390252","Trustworthy,Untrustworthy","html-keyboard-response","39","128029","0.0-11.0-3.9","","null","","<div class='respPicDiv'><img src='img/responseButtonOffersNo0_wht.png' class='respPic'></div><div class='trialDiv'><img src='Fruit/pears.png'><br><font class='baseline'><strong>Pears Aplenty</strong><p><strong><font class='negOutcome'>You LOST</font><p>You bet: 1</strong></font> &nbsp; &nbsp; &nbsp; &nbsp; &nbsp; &nbsp;<font class='negOutcome'>You receive: <strong>0</strong></font></div>","null","4","Pears Aplenty","Fruit/pears.png","Lost","0.35,0.65","10","0.35","52","10","",""
"","","","decision","","63d40583fbdb78bfb9b0d3a4","bdp_rwlrn","Tue Mar 14 2023 20:36:28 GMT-0400 (Eastern Daylight Time)","390252","Trustworthy,Untrustworthy","html-keyboard-response","40","128979","0.0-11.0-1.10","","950","","<div class='trialDiv'><img src='Fruit/watermelon.png'><br><font class='baseline'><strong>Watermelon Win$</strong><p>Choose number of points to bet.</font><div class='respPicDiv'><img src='img/responseButtonOffersNo0L.png' class='respPic'></div></div>","1","4","Watermelon Win$","Fruit/watermelon.png","Lost","0.2,0.65","11","0.2","57","11","",""
"","","","decisionFB","","63d40583fbdb78bfb9b0d3a4","bdp_rwlrn","Tue Mar 14 2023 20:36:28 GMT-0400 (Eastern Daylight Time)","390252","Trustworthy,Untrustworthy","html-keyboard-response","41","129245","0.0-11.0-2.10","","null","","<div class='trialDiv'><img src='Fruit/watermelon.png'><br><font class='baseline'><strong>Watermelon Win$</strong><p>Choose number of points to bet.</font><div class='respPicDiv'><img src='img/responseButtonOffersNo0L1.png' class='respPic'></div></div>","null","4","Watermelon Win$","Fruit/watermelon.png","Lost","0.2,0.65","11","0.2","56","11","",""
"","","","feedback","","63d40583fbdb78bfb9b0d3a4","bdp_rwlrn","Tue Mar 14 2023 20:36:28 GMT-0400 (Eastern Daylight Time)","390252","Trustworthy,Untrustworthy","html-keyboard-response","42","130259","0.0-11.0-3.10","","null","","<div class='respPicDiv'><img src='img/responseButtonOffersNo0_wht.png' class='respPic'></div><div class='trialDiv'><img src='Fruit/watermelon.png'><br><font class='baseline'><strong>Watermelon Win$</strong><p><strong><font class='negOutcome'>You LOST</font><p>You bet: 1</strong></font> &nbsp; &nbsp; &nbsp; &nbsp; &nbsp; &nbsp;<font class='negOutcome'>You receive: <strong>0</strong></font></div>","null","4","Watermelon Win$","Fruit/watermelon.png","Lost","0.2,0.65","11","0.2","56","11","",""
"","","","decision","","63d40583fbdb78bfb9b0d3a4","bdp_rwlrn","Tue Mar 14 2023 20:36:28 GMT-0400 (Eastern Daylight Time)","390252","Trustworthy,Untrustworthy","html-keyboard-response","43","131235","0.0-11.0-1.11","","976","","<div class='trialDiv'><img src='Fruit/mango.png'><br><font class='baseline'><strong>Mega Mangos</strong><p>Choose number of points to bet.</font><div class='respPicDiv'><img src='img/responseButtonOffersNo0L.png' class='respPic'></div></div>","5","4","Mega Mangos","Fruit/mango.png","Won","0.8,0.35","10","0.8","61","12","",""
"","","","decisionFB","","63d40583fbdb78bfb9b0d3a4","bdp_rwlrn","Tue Mar 14 2023 20:36:28 GMT-0400 (Eastern Daylight Time)","390252","Trustworthy,Untrustworthy","html-keyboard-response","44","131491","0.0-11.0-2.11","","null","","<div class='trialDiv'><img src='Fruit/mango.png'><br><font class='baseline'><strong>Mega Mangos</strong><p>Choose number of points to bet.</font><div class='respPicDiv'><img src='img/responseButtonOffersNo0L5.png' class='respPic'></div></div>","null","4","Mega Mangos","Fruit/mango.png","Won","0.8,0.35","10","0.8","56","12","",""
"","","","feedback","","63d40583fbdb78bfb9b0d3a4","bdp_rwlrn","Tue Mar 14 2023 20:36:28 GMT-0400 (Eastern Daylight Time)","390252","Trustworthy,Untrustworthy","html-keyboard-response","45","132507","0.0-11.0-3.11","","null","","<div class='respPicDiv'><img src='img/responseButtonOffersNo0_wht.png' class='respPic'></div><div class='trialDiv'><img src='Fruit/mango.png'><br><font class='baseline'><strong>Mega Mangos</strong><p><strong><font class='posOutcome'>You WON</font><p>You bet: 5</strong></font> &nbsp; &nbsp; &nbsp; &nbsp; &nbsp; &nbsp;<font class='posOutcome'>you receive: <strong>10</strong></font></div>","null","4","Mega Mangos","Fruit/mango.png","Won","0.8,0.35","10","0.8","66","12","",""
"","","","decision","","63d40583fbdb78bfb9b0d3a4","bdp_rwlrn","Tue Mar 14 2023 20:36:28 GMT-0400 (Eastern Daylight Time)","390252","Trustworthy,Untrustworthy","html-keyboard-response","46","133321","0.0-11.0-1.12","","814","","<div class='trialDiv'><img src='Fruit/watermelon.png'><br><font class='baseline'><strong>Watermelon Win$</strong><p>Choose number of points to bet.</font><div class='respPicDiv'><img src='img/responseButtonOffersNo0L.png' class='respPic'></div></div>","1","5","Watermelon Win$","Fruit/watermelon.png","Lost","0.2,0.65","11","0.2","71","13","",""
"","","","decisionFB","","63d40583fbdb78bfb9b0d3a4","bdp_rwlrn","Tue Mar 14 2023 20:36:28 GMT-0400 (Eastern Daylight Time)","390252","Trustworthy,Untrustworthy","html-keyboard-response","47","133584","0.0-11.0-2.12","","null","","<div class='trialDiv'><img src='Fruit/watermelon.png'><br><font class='baseline'><strong>Watermelon Win$</strong><p>Choose number of points to bet.</font><div class='respPicDiv'><img src='img/responseButtonOffersNo0L1.png' class='respPic'></div></div>","null","5","Watermelon Win$","Fruit/watermelon.png","Lost","0.2,0.65","11","0.2","70","13","",""
"","","","feedback","","63d40583fbdb78bfb9b0d3a4","bdp_rwlrn","Tue Mar 14 2023 20:36:28 GMT-0400 (Eastern Daylight Time)","390252","Trustworthy,Untrustworthy","html-keyboard-response","48","134598","0.0-11.0-3.12","","null","","<div class='respPicDiv'><img src='img/responseButtonOffersNo0_wht.png' class='respPic'></div><div class='trialDiv'><img src='Fruit/watermelon.png'><br><font class='baseline'><strong>Watermelon Win$</strong><p><strong><font class='negOutcome'>You LOST</font><p>You bet: 1</strong></font> &nbsp; &nbsp; &nbsp; &nbsp; &nbsp; &nbsp;<font class='negOutcome'>You receive: <strong>0</strong></font></div>","null","5","Watermelon Win$","Fruit/watermelon.png","Lost","0.2,0.65","11","0.2","70","13","",""
"","","","decision","","63d40583fbdb78bfb9b0d3a4","bdp_rwlrn","Tue Mar 14 2023 20:36:28 GMT-0400 (Eastern Daylight Time)","390252","Trustworthy,Untrustworthy","html-keyboard-response","49","135481","0.0-11.0-1.13","","883","","<div class='trialDiv'><img src='Fruit/mango.png'><br><font class='baseline'><strong>Mega Mangos</strong><p>Choose number of points to bet.</font><div class='respPicDiv'><img src='img/responseButtonOffersNo0L.png' class='respPic'></div></div>","1","5","Mega Mangos","Fruit/mango.png","Won","0.8,0.35","10","0.8","75","14","",""
"","","","decisionFB","","63d40583fbdb78bfb9b0d3a4","bdp_rwlrn","Tue Mar 14 2023 20:36:28 GMT-0400 (Eastern Daylight Time)","390252","Trustworthy,Untrustworthy","html-keyboard-response","50","135739","0.0-11.0-2.13","","null","","<div class='trialDiv'><img src='Fruit/mango.png'><br><font class='baseline'><strong>Mega Mangos</strong><p>Choose number of points to bet.</font><div class='respPicDiv'><img src='img/responseButtonOffersNo0L1.png' class='respPic'></div></div>","null","5","Mega Mangos","Fruit/mango.png","Won","0.8,0.35","10","0.8","74","14","",""
"","","","feedback","","63d40583fbdb78bfb9b0d3a4","bdp_rwlrn","Tue Mar 14 2023 20:36:28 GMT-0400 (Eastern Daylight Time)","390252","Trustworthy,Untrustworthy","html-keyboard-response","51","136753","0.0-11.0-3.13","","null","","<div class='respPicDiv'><img src='img/responseButtonOffersNo0_wht.png' class='respPic'></div><div class='trialDiv'><img src='Fruit/mango.png'><br><font class='baseline'><strong>Mega Mangos</strong><p><strong><font class='posOutcome'>You WON</font><p>You bet: 1</strong></font> &nbsp; &nbsp; &nbsp; &nbsp; &nbsp; &nbsp;<font class='posOutcome'>you receive: <strong>2</strong></font></div>","null","5","Mega Mangos","Fruit/mango.png","Won","0.8,0.35","10","0.8","76","14","",""
"","","","decision","","63d40583fbdb78bfb9b0d3a4","bdp_rwlrn","Tue Mar 14 2023 20:36:28 GMT-0400 (Eastern Daylight Time)","390252","Trustworthy,Untrustworthy","html-keyboard-response","52","137921","0.0-11.0-1.14","","1167","","<div class='trialDiv'><img src='Fruit/pears.png'><br><font class='baseline'><strong>Pears Aplenty</strong><p>Choose number of points to bet.</font><div class='respPicDiv'><img src='img/responseButtonOffersNo0L.png' class='respPic'></div></div>","1","5","Pears Aplenty","Fruit/pears.png","Won","0.35,0.65","10","0.35","81","15","",""
"","","","decisionFB","","63d40583fbdb78bfb9b0d3a4","bdp_rwlrn","Tue Mar 14 2023 20:36:28 GMT-0400 (Eastern Daylight Time)","390252","Trustworthy,Untrustworthy","html-keyboard-response","53","138185","0.0-11.0-2.14","","null","","<div class='trialDiv'><img src='Fruit/pears.png'><br><font class='baseline'><strong>Pears Aplenty</strong><p>Choose number of points to bet.</font><div class='respPicDiv'><img src='img/responseButtonOffersNo0L1.png' class='respPic'></div></div>","null","5","Pears Aplenty","Fruit/pears.png","Won","0.35,0.65","10","0.35","80","15","",""
"","","","feedback","","63d40583fbdb78bfb9b0d3a4","bdp_rwlrn","Tue Mar 14 2023 20:36:28 GMT-0400 (Eastern Daylight Time)","390252","Trustworthy,Untrustworthy","html-keyboard-response","54","139201","0.0-11.0-3.14","","null","","<div class='respPicDiv'><img src='img/responseButtonOffersNo0_wht.png' class='respPic'></div><div class='trialDiv'><img src='Fruit/pears.png'><br><font class='baseline'><strong>Pears Aplenty</strong><p><strong><font class='posOutcome'>You WON</font><p>You bet: 1</strong></font> &nbsp; &nbsp; &nbsp; &nbsp; &nbsp; &nbsp;<font class='posOutcome'>you receive: <strong>2</strong></font></div>","null","5","Pears Aplenty","Fruit/pears.png","Won","0.35,0.65","10","0.35","82","15","",""
"","","","decision","","63d40583fbdb78bfb9b0d3a4","bdp_rwlrn","Tue Mar 14 2023 20:36:28 GMT-0400 (Eastern Daylight Time)","390252","Trustworthy,Untrustworthy","html-keyboard-response","55","139853","0.0-11.0-1.15","","651","","<div class='trialDiv'><img src='Fruit/mango.png'><br><font class='baseline'><strong>Mega Mangos</strong><p>Choose number of points to bet.</font><div class='respPicDiv'><img src='img/responseButtonOffersNo0L.png' class='respPic'></div></div>","5","6","Mega Mangos","Fruit/mango.png","Won","0.8,0.35","10","0.8","87","16","",""
"","","","decisionFB","","63d40583fbdb78bfb9b0d3a4","bdp_rwlrn","Tue Mar 14 2023 20:36:28 GMT-0400 (Eastern Daylight Time)","390252","Trustworthy,Untrustworthy","html-keyboard-response","56","140110","0.0-11.0-2.15","","null","","<div class='trialDiv'><img src='Fruit/mango.png'><br><font class='baseline'><strong>Mega Mangos</strong><p>Choose number of points to bet.</font><div class='respPicDiv'><img src='img/responseButtonOffersNo0L5.png' class='respPic'></div></div>","null","6","Mega Mangos","Fruit/mango.png","Won","0.8,0.35","10","0.8","82","16","",""
"","","","feedback","","63d40583fbdb78bfb9b0d3a4","bdp_rwlrn","Tue Mar 14 2023 20:36:28 GMT-0400 (Eastern Daylight Time)","390252","Trustworthy,Untrustworthy","html-keyboard-response","57","141124","0.0-11.0-3.15","","null","","<div class='respPicDiv'><img src='img/responseButtonOffersNo0_wht.png' class='respPic'></div><div class='trialDiv'><img src='Fruit/mango.png'><br><font class='baseline'><strong>Mega Mangos</strong><p><strong><font class='posOutcome'>You WON</font><p>You bet: 5</strong></font> &nbsp; &nbsp; &nbsp; &nbsp; &nbsp; &nbsp;<font class='posOutcome'>you receive: <strong>10</strong></font></div>","null","6","Mega Mangos","Fruit/mango.png","Won","0.8,0.35","10","0.8","92","16","",""
"","","","decision","","63d40583fbdb78bfb9b0d3a4","bdp_rwlrn","Tue Mar 14 2023 20:36:28 GMT-0400 (Eastern Daylight Time)","390252","Trustworthy,Untrustworthy","html-keyboard-response","58","141834","0.0-11.0-1.16","","709","","<div class='trialDiv'><img src='Fruit/watermelon.png'><br><font class='baseline'><strong>Watermelon Win$</strong><p>Choose number of points to bet.</font><div class='respPicDiv'><img src='img/responseButtonOffersNo0L.png' class='respPic'></div></div>","1","6","Watermelon Win$","Fruit/watermelon.png","Lost","0.2,0.65","11","0.2","97","17","",""
"","","","decisionFB","","63d40583fbdb78bfb9b0d3a4","bdp_rwlrn","Tue Mar 14 2023 20:36:28 GMT-0400 (Eastern Daylight Time)","390252","Trustworthy,Untrustworthy","html-keyboard-response","59","142092","0.0-11.0-2.16","","null","","<div class='trialDiv'><img src='Fruit/watermelon.png'><br><font class='baseline'><strong>Watermelon Win$</strong><p>Choose number of points to bet.</font><div class='respPicDiv'><img src='img/responseButtonOffersNo0L1.png' class='respPic'></div></div>","null","6","Watermelon Win$","Fruit/watermelon.png","Lost","0.2,0.65","11","0.2","96","17","",""
"","","","feedback","","63d40583fbdb78bfb9b0d3a4","bdp_rwlrn","Tue Mar 14 2023 20:36:28 GMT-0400 (Eastern Daylight Time)","390252","Trustworthy,Untrustworthy","html-keyboard-response","60","143107","0.0-11.0-3.16","","null","","<div class='respPicDiv'><img src='img/responseButtonOffersNo0_wht.png' class='respPic'></div><div class='trialDiv'><img src='Fruit/watermelon.png'><br><font class='baseline'><strong>Watermelon Win$</strong><p><strong><font class='negOutcome'>You LOST</font><p>You bet: 1</strong></font> &nbsp; &nbsp; &nbsp; &nbsp; &nbsp; &nbsp;<font class='negOutcome'>You receive: <strong>0</strong></font></div>","null","6","Watermelon Win$","Fruit/watermelon.png","Lost","0.2,0.65","11","0.2","96","17","",""
"","","","decision","","63d40583fbdb78bfb9b0d3a4","bdp_rwlrn","Tue Mar 14 2023 20:36:28 GMT-0400 (Eastern Daylight Time)","390252","Trustworthy,Untrustworthy","html-keyboard-response","61","143604","0.0-11.0-1.17","","497","","<div class='trialDiv'><img src='Fruit/pears.png'><br><font class='baseline'><strong>Pears Aplenty</strong><p>Choose number of points to bet.</font><div class='respPicDiv'><img src='img/responseButtonOffersNo0L.png' class='respPic'></div></div>","5","6","Pears Aplenty","Fruit/pears.png","Lost","0.35,0.65","10","0.35","101","18","",""
"","","","decisionFB","","63d40583fbdb78bfb9b0d3a4","bdp_rwlrn","Tue Mar 14 2023 20:36:28 GMT-0400 (Eastern Daylight Time)","390252","Trustworthy,Untrustworthy","html-keyboard-response","62","143861","0.0-11.0-2.17","","null","","<div class='trialDiv'><img src='Fruit/pears.png'><br><font class='baseline'><strong>Pears Aplenty</strong><p>Choose number of points to bet.</font><div class='respPicDiv'><img src='img/responseButtonOffersNo0L5.png' class='respPic'></div></div>","null","6","Pears Aplenty","Fruit/pears.png","Lost","0.35,0.65","10","0.35","96","18","",""
"","","","feedback","","63d40583fbdb78bfb9b0d3a4","bdp_rwlrn","Tue Mar 14 2023 20:36:28 GMT-0400 (Eastern Daylight Time)","390252","Trustworthy,Untrustworthy","html-keyboard-response","63","144876","0.0-11.0-3.17","","null","","<div class='respPicDiv'><img src='img/responseButtonOffersNo0_wht.png' class='respPic'></div><div class='trialDiv'><img src='Fruit/pears.png'><br><font class='baseline'><strong>Pears Aplenty</strong><p><strong><font class='negOutcome'>You LOST</font><p>You bet: 5</strong></font> &nbsp; &nbsp; &nbsp; &nbsp; &nbsp; &nbsp;<font class='negOutcome'>You receive: <strong>0</strong></font></div>","null","6","Pears Aplenty","Fruit/pears.png","Lost","0.35,0.65","10","0.35","96","18","",""
"","","","decision","","63d40583fbdb78bfb9b0d3a4","bdp_rwlrn","Tue Mar 14 2023 20:36:28 GMT-0400 (Eastern Daylight Time)","390252","Trustworthy,Untrustworthy","html-keyboard-response","64","145515","0.0-11.0-1.18","","639","","<div class='trialDiv'><img src='Fruit/watermelon.png'><br><font class='baseline'><strong>Watermelon Win$</strong><p>Choose number of points to bet.</font><div class='respPicDiv'><img src='img/responseButtonOffersNo0L.png' class='respPic'></div></div>","1","7","Watermelon Win$","Fruit/watermelon.png","Lost","0.2,0.65","11","0.2","101","19","",""
"","","","decisionFB","","63d40583fbdb78bfb9b0d3a4","bdp_rwlrn","Tue Mar 14 2023 20:36:28 GMT-0400 (Eastern Daylight Time)","390252","Trustworthy,Untrustworthy","html-keyboard-response","65","145769","0.0-11.0-2.18","","null","","<div class='trialDiv'><img src='Fruit/watermelon.png'><br><font class='baseline'><strong>Watermelon Win$</strong><p>Choose number of points to bet.</font><div class='respPicDiv'><img src='img/responseButtonOffersNo0L1.png' class='respPic'></div></div>","null","7","Watermelon Win$","Fruit/watermelon.png","Lost","0.2,0.65","11","0.2","100","19","",""
"","","","feedback","","63d40583fbdb78bfb9b0d3a4","bdp_rwlrn","Tue Mar 14 2023 20:36:28 GMT-0400 (Eastern Daylight Time)","390252","Trustworthy,Untrustworthy","html-keyboard-response","66","146782","0.0-11.0-3.18","","null","","<div class='respPicDiv'><img src='img/responseButtonOffersNo0_wht.png' class='respPic'></div><div class='trialDiv'><img src='Fruit/watermelon.png'><br><font class='baseline'><strong>Watermelon Win$</strong><p><strong><font class='negOutcome'>You LOST</font><p>You bet: 1</strong></font> &nbsp; &nbsp; &nbsp; &nbsp; &nbsp; &nbsp;<font class='negOutcome'>You receive: <strong>0</strong></font></div>","null","7","Watermelon Win$","Fruit/watermelon.png","Lost","0.2,0.65","11","0.2","100","19","",""
"","","","decision","","63d40583fbdb78bfb9b0d3a4","bdp_rwlrn","Tue Mar 14 2023 20:36:28 GMT-0400 (Eastern Daylight Time)","390252","Trustworthy,Untrustworthy","html-keyboard-response","67","147280","0.0-11.0-1.19","","498","","<div class='trialDiv'><img src='Fruit/mango.png'><br><font class='baseline'><strong>Mega Mangos</strong><p>Choose number of points to bet.</font><div class='respPicDiv'><img src='img/responseButtonOffersNo0L.png' class='respPic'></div></div>","5","7","Mega Mangos","Fruit/mango.png","Won","0.8,0.35","10","0.8","105","20","",""
"","","","decisionFB","","63d40583fbdb78bfb9b0d3a4","bdp_rwlrn","Tue Mar 14 2023 20:36:28 GMT-0400 (Eastern Daylight Time)","390252","Trustworthy,Untrustworthy","html-keyboard-response","68","147534","0.0-11.0-2.19","","null","","<div class='trialDiv'><img src='Fruit/mango.png'><br><font class='baseline'><strong>Mega Mangos</strong><p>Choose number of points to bet.</font><div class='respPicDiv'><img src='img/responseButtonOffersNo0L5.png' class='respPic'></div></div>","null","7","Mega Mangos","Fruit/mango.png","Won","0.8,0.35","10","0.8","100","20","",""
"","","","feedback","","63d40583fbdb78bfb9b0d3a4","bdp_rwlrn","Tue Mar 14 2023 20:36:28 GMT-0400 (Eastern Daylight Time)","390252","Trustworthy,Untrustworthy","html-keyboard-response","69","148549","0.0-11.0-3.19","","null","","<div class='respPicDiv'><img src='img/responseButtonOffersNo0_wht.png' class='respPic'></div><div class='trialDiv'><img src='Fruit/mango.png'><br><font class='baseline'><strong>Mega Mangos</strong><p><strong><font class='posOutcome'>You WON</font><p>You bet: 5</strong></font> &nbsp; &nbsp; &nbsp; &nbsp; &nbsp; &nbsp;<font class='posOutcome'>you receive: <strong>10</strong></font></div>","null","7","Mega Mangos","Fruit/mango.png","Won","0.8,0.35","10","0.8","110","20","",""
"","","","decision","","63d40583fbdb78bfb9b0d3a4","bdp_rwlrn","Tue Mar 14 2023 20:36:28 GMT-0400 (Eastern Daylight Time)","390252","Trustworthy,Untrustworthy","html-keyboard-response","70","150181","0.0-11.0-1.20","","1631","","<div class='trialDiv'><img src='Fruit/pears.png'><br><font class='baseline'><strong>Pears Aplenty</strong><p>Choose number of points to bet.</font><div class='respPicDiv'><img src='img/responseButtonOffersNo0L.png' class='respPic'></div></div>","1","7","Pears Aplenty","Fruit/pears.png","Lost","0.35,0.65","10","0.35","115","21","",""
"","","","decisionFB","","63d40583fbdb78bfb9b0d3a4","bdp_rwlrn","Tue Mar 14 2023 20:36:28 GMT-0400 (Eastern Daylight Time)","390252","Trustworthy,Untrustworthy","html-keyboard-response","71","150440","0.0-11.0-2.20","","null","","<div class='trialDiv'><img src='Fruit/pears.png'><br><font class='baseline'><strong>Pears Aplenty</strong><p>Choose number of points to bet.</font><div class='respPicDiv'><img src='img/responseButtonOffersNo0L1.png' class='respPic'></div></div>","null","7","Pears Aplenty","Fruit/pears.png","Lost","0.35,0.65","10","0.35","114","21","",""
"","","","feedback","","63d40583fbdb78bfb9b0d3a4","bdp_rwlrn","Tue Mar 14 2023 20:36:28 GMT-0400 (Eastern Daylight Time)","390252","Trustworthy,Untrustworthy","html-keyboard-response","72","151455","0.0-11.0-3.20","","null","","<div class='respPicDiv'><img src='img/responseButtonOffersNo0_wht.png' class='respPic'></div><div class='trialDiv'><img src='Fruit/pears.png'><br><font class='baseline'><strong>Pears Aplenty</strong><p><strong><font class='negOutcome'>You LOST</font><p>You bet: 1</strong></font> &nbsp; &nbsp; &nbsp; &nbsp; &nbsp; &nbsp;<font class='negOutcome'>You receive: <strong>0</strong></font></div>","null","7","Pears Aplenty","Fruit/pears.png","Lost","0.35,0.65","10","0.35","114","21","",""
"","","","decision","","63d40583fbdb78bfb9b0d3a4","bdp_rwlrn","Tue Mar 14 2023 20:36:28 GMT-0400 (Eastern Daylight Time)","390252","Trustworthy,Untrustworthy","html-keyboard-response","73","152378","0.0-11.0-1.21","","923","","<div class='trialDiv'><img src='Fruit/mango.png'><br><font class='baseline'><strong>Mega Mangos</strong><p>Choose number of points to bet.</font><div class='respPicDiv'><img src='img/responseButtonOffersNo0L.png' class='respPic'></div></div>","5","8","Mega Mangos","Fruit/mango.png","Lost","0.8,0.35","10","0.8","119","22","",""
"","","","decisionFB","","63d40583fbdb78bfb9b0d3a4","bdp_rwlrn","Tue Mar 14 2023 20:36:28 GMT-0400 (Eastern Daylight Time)","390252","Trustworthy,Untrustworthy","html-keyboard-response","74","152637","0.0-11.0-2.21","","null","","<div class='trialDiv'><img src='Fruit/mango.png'><br><font class='baseline'><strong>Mega Mangos</strong><p>Choose number of points to bet.</font><div class='respPicDiv'><img src='img/responseButtonOffersNo0L5.png' class='respPic'></div></div>","null","8","Mega Mangos","Fruit/mango.png","Lost","0.8,0.35","10","0.8","114","22","",""
"","","","feedback","","63d40583fbdb78bfb9b0d3a4","bdp_rwlrn","Tue Mar 14 2023 20:36:28 GMT-0400 (Eastern Daylight Time)","390252","Trustworthy,Untrustworthy","html-keyboard-response","75","153652","0.0-11.0-3.21","","null","","<div class='respPicDiv'><img src='img/responseButtonOffersNo0_wht.png' class='respPic'></div><div class='trialDiv'><img src='Fruit/mango.png'><br><font class='baseline'><strong>Mega Mangos</strong><p><strong><font class='negOutcome'>You LOST</font><p>You bet: 5</strong></font> &nbsp; &nbsp; &nbsp; &nbsp; &nbsp; &nbsp;<font class='negOutcome'>You receive: <strong>0</strong></font></div>","null","8","Mega Mangos","Fruit/mango.png","Lost","0.8,0.35","10","0.8","114","22","",""
"","","","decision","","63d40583fbdb78bfb9b0d3a4","bdp_rwlrn","Tue Mar 14 2023 20:36:28 GMT-0400 (Eastern Daylight Time)","390252","Trustworthy,Untrustworthy","html-keyboard-response","76","154245","0.0-11.0-1.22","","593","","<div class='trialDiv'><img src='Fruit/watermelon.png'><br><font class='baseline'><strong>Watermelon Win$</strong><p>Choose number of points to bet.</font><div class='respPicDiv'><img src='img/responseButtonOffersNo0L.png' class='respPic'></div></div>","1","8","Watermelon Win$","Fruit/watermelon.png","Lost","0.2,0.65","11","0.2","119","23","",""
"","","","decisionFB","","63d40583fbdb78bfb9b0d3a4","bdp_rwlrn","Tue Mar 14 2023 20:36:28 GMT-0400 (Eastern Daylight Time)","390252","Trustworthy,Untrustworthy","html-keyboard-response","77","154498","0.0-11.0-2.22","","null","","<div class='trialDiv'><img src='Fruit/watermelon.png'><br><font class='baseline'><strong>Watermelon Win$</strong><p>Choose number of points to bet.</font><div class='respPicDiv'><img src='img/responseButtonOffersNo0L1.png' class='respPic'></div></div>","null","8","Watermelon Win$","Fruit/watermelon.png","Lost","0.2,0.65","11","0.2","118","23","",""
"","","","feedback","","63d40583fbdb78bfb9b0d3a4","bdp_rwlrn","Tue Mar 14 2023 20:36:28 GMT-0400 (Eastern Daylight Time)","390252","Trustworthy,Untrustworthy","html-keyboard-response","78","155513","0.0-11.0-3.22","","null","","<div class='respPicDiv'><img src='img/responseButtonOffersNo0_wht.png' class='respPic'></div><div class='trialDiv'><img src='Fruit/watermelon.png'><br><font class='baseline'><strong>Watermelon Win$</strong><p><strong><font class='negOutcome'>You LOST</font><p>You bet: 1</strong></font> &nbsp; &nbsp; &nbsp; &nbsp; &nbsp; &nbsp;<font class='negOutcome'>You receive: <strong>0</strong></font></div>","null","8","Watermelon Win$","Fruit/watermelon.png","Lost","0.2,0.65","11","0.2","118","23","",""
"","","","decision","","63d40583fbdb78bfb9b0d3a4","bdp_rwlrn","Tue Mar 14 2023 20:36:28 GMT-0400 (Eastern Daylight Time)","390252","Trustworthy,Untrustworthy","html-keyboard-response","79","156525","0.0-11.0-1.23","","1012","","<div class='trialDiv'><img src='Fruit/pears.png'><br><font class='baseline'><strong>Pears Aplenty</strong><p>Choose number of points to bet.</font><div class='respPicDiv'><img src='img/responseButtonOffersNo0L.png' class='respPic'></div></div>","1","8","Pears Aplenty","Fruit/pears.png","Lost","0.35,0.65","10","0.35","123","24","",""
"","","","decisionFB","","63d40583fbdb78bfb9b0d3a4","bdp_rwlrn","Tue Mar 14 2023 20:36:28 GMT-0400 (Eastern Daylight Time)","390252","Trustworthy,Untrustworthy","html-keyboard-response","80","156787","0.0-11.0-2.23","","null","","<div class='trialDiv'><img src='Fruit/pears.png'><br><font class='baseline'><strong>Pears Aplenty</strong><p>Choose number of points to bet.</font><div class='respPicDiv'><img src='img/responseButtonOffersNo0L1.png' class='respPic'></div></div>","null","8","Pears Aplenty","Fruit/pears.png","Lost","0.35,0.65","10","0.35","122","24","",""
"","","","feedback","","63d40583fbdb78bfb9b0d3a4","bdp_rwlrn","Tue Mar 14 2023 20:36:28 GMT-0400 (Eastern Daylight Time)","390252","Trustworthy,Untrustworthy","html-keyboard-response","81","157801","0.0-11.0-3.23","","null","","<div class='respPicDiv'><img src='img/responseButtonOffersNo0_wht.png' class='respPic'></div><div class='trialDiv'><img src='Fruit/pears.png'><br><font class='baseline'><strong>Pears Aplenty</strong><p><strong><font class='negOutcome'>You LOST</font><p>You bet: 1</strong></font> &nbsp; &nbsp; &nbsp; &nbsp; &nbsp; &nbsp;<font class='negOutcome'>You receive: <strong>0</strong></font></div>","null","8","Pears Aplenty","Fruit/pears.png","Lost","0.35,0.65","10","0.35","122","24","",""
"","","","decision","","63d40583fbdb78bfb9b0d3a4","bdp_rwlrn","Tue Mar 14 2023 20:36:28 GMT-0400 (Eastern Daylight Time)","390252","Trustworthy,Untrustworthy","html-keyboard-response","82","158485","0.0-11.0-1.24","","683","","<div class='trialDiv'><img src='Fruit/mango.png'><br><font class='baseline'><strong>Mega Mangos</strong><p>Choose number of points to bet.</font><div class='respPicDiv'><img src='img/responseButtonOffersNo0L.png' class='respPic'></div></div>","5","9","Mega Mangos","Fruit/mango.png","Won","0.8,0.35","10","0.8","127","25","",""
"","","","decisionFB","","63d40583fbdb78bfb9b0d3a4","bdp_rwlrn","Tue Mar 14 2023 20:36:28 GMT-0400 (Eastern Daylight Time)","390252","Trustworthy,Untrustworthy","html-keyboard-response","83","158741","0.0-11.0-2.24","","null","","<div class='trialDiv'><img src='Fruit/mango.png'><br><font class='baseline'><strong>Mega Mangos</strong><p>Choose number of points to bet.</font><div class='respPicDiv'><img src='img/responseButtonOffersNo0L5.png' class='respPic'></div></div>","null","9","Mega Mangos","Fruit/mango.png","Won","0.8,0.35","10","0.8","122","25","",""
"","","","feedback","","63d40583fbdb78bfb9b0d3a4","bdp_rwlrn","Tue Mar 14 2023 20:36:28 GMT-0400 (Eastern Daylight Time)","390252","Trustworthy,Untrustworthy","html-keyboard-response","84","159753","0.0-11.0-3.24","","null","","<div class='respPicDiv'><img src='img/responseButtonOffersNo0_wht.png' class='respPic'></div><div class='trialDiv'><img src='Fruit/mango.png'><br><font class='baseline'><strong>Mega Mangos</strong><p><strong><font class='posOutcome'>You WON</font><p>You bet: 5</strong></font> &nbsp; &nbsp; &nbsp; &nbsp; &nbsp; &nbsp;<font class='posOutcome'>you receive: <strong>10</strong></font></div>","null","9","Mega Mangos","Fruit/mango.png","Won","0.8,0.35","10","0.8","132","25","",""
"","","","decision","","63d40583fbdb78bfb9b0d3a4","bdp_rwlrn","Tue Mar 14 2023 20:36:28 GMT-0400 (Eastern Daylight Time)","390252","Trustworthy,Untrustworthy","html-keyboard-response","85","160891","0.0-11.0-1.25","","1138","","<div class='trialDiv'><img src='Fruit/pears.png'><br><font class='baseline'><strong>Pears Aplenty</strong><p>Choose number of points to bet.</font><div class='respPicDiv'><img src='img/responseButtonOffersNo0L.png' class='respPic'></div></div>","1","9","Pears Aplenty","Fruit/pears.png","Lost","0.35,0.65","10","0.35","137","26","",""
"","","","decisionFB","","63d40583fbdb78bfb9b0d3a4","bdp_rwlrn","Tue Mar 14 2023 20:36:28 GMT-0400 (Eastern Daylight Time)","390252","Trustworthy,Untrustworthy","html-keyboard-response","86","161152","0.0-11.0-2.25","","null","","<div class='trialDiv'><img src='Fruit/pears.png'><br><font class='baseline'><strong>Pears Aplenty</strong><p>Choose number of points to bet.</font><div class='respPicDiv'><img src='img/responseButtonOffersNo0L1.png' class='respPic'></div></div>","null","9","Pears Aplenty","Fruit/pears.png","Lost","0.35,0.65","10","0.35","136","26","",""
"","","","feedback","","63d40583fbdb78bfb9b0d3a4","bdp_rwlrn","Tue Mar 14 2023 20:36:28 GMT-0400 (Eastern Daylight Time)","390252","Trustworthy,Untrustworthy","html-keyboard-response","87","162167","0.0-11.0-3.25","","null","","<div class='respPicDiv'><img src='img/responseButtonOffersNo0_wht.png' class='respPic'></div><div class='trialDiv'><img src='Fruit/pears.png'><br><font class='baseline'><strong>Pears Aplenty</strong><p><strong><font class='negOutcome'>You LOST</font><p>You bet: 1</strong></font> &nbsp; &nbsp; &nbsp; &nbsp; &nbsp; &nbsp;<font class='negOutcome'>You receive: <strong>0</strong></font></div>","null","9","Pears Aplenty","Fruit/pears.png","Lost","0.35,0.65","10","0.35","136","26","",""
"","","","decision","","63d40583fbdb78bfb9b0d3a4","bdp_rwlrn","Tue Mar 14 2023 20:36:28 GMT-0400 (Eastern Daylight Time)","390252","Trustworthy,Untrustworthy","html-keyboard-response","88","162970","0.0-11.0-1.26","","803","","<div class='trialDiv'><img src='Fruit/watermelon.png'><br><font class='baseline'><strong>Watermelon Win$</strong><p>Choose number of points to bet.</font><div class='respPicDiv'><img src='img/responseButtonOffersNo0L.png' class='respPic'></div></div>","1","9","Watermelon Win$","Fruit/watermelon.png","Lost","0.2,0.65","11","0.2","141","27","",""
"","","","decisionFB","","63d40583fbdb78bfb9b0d3a4","bdp_rwlrn","Tue Mar 14 2023 20:36:28 GMT-0400 (Eastern Daylight Time)","390252","Trustworthy,Untrustworthy","html-keyboard-response","89","163227","0.0-11.0-2.26","","null","","<div class='trialDiv'><img src='Fruit/watermelon.png'><br><font class='baseline'><strong>Watermelon Win$</strong><p>Choose number of points to bet.</font><div class='respPicDiv'><img src='img/responseButtonOffersNo0L1.png' class='respPic'></div></div>","null","9","Watermelon Win$","Fruit/watermelon.png","Lost","0.2,0.65","11","0.2","140","27","",""
"","","","feedback","","63d40583fbdb78bfb9b0d3a4","bdp_rwlrn","Tue Mar 14 2023 20:36:28 GMT-0400 (Eastern Daylight Time)","390252","Trustworthy,Untrustworthy","html-keyboard-response","90","164241","0.0-11.0-3.26","","null","","<div class='respPicDiv'><img src='img/responseButtonOffersNo0_wht.png' class='respPic'></div><div class='trialDiv'><img src='Fruit/watermelon.png'><br><font class='baseline'><strong>Watermelon Win$</strong><p><strong><font class='negOutcome'>You LOST</font><p>You bet: 1</strong></font> &nbsp; &nbsp; &nbsp; &nbsp; &nbsp; &nbsp;<font class='negOutcome'>You receive: <strong>0</strong></font></div>","null","9","Watermelon Win$","Fruit/watermelon.png","Lost","0.2,0.65","11","0.2","140","27","",""
"","","","decision","","63d40583fbdb78bfb9b0d3a4","bdp_rwlrn","Tue Mar 14 2023 20:36:28 GMT-0400 (Eastern Daylight Time)","390252","Trustworthy,Untrustworthy","html-keyboard-response","91","164738","0.0-11.0-1.27","","497","","<div class='trialDiv'><img src='Fruit/mango.png'><br><font class='baseline'><strong>Mega Mangos</strong><p>Choose number of points to bet.</font><div class='respPicDiv'><img src='img/responseButtonOffersNo0L.png' class='respPic'></div></div>","5","10","Mega Mangos","Fruit/mango.png","Lost","0.8,0.35","10","0.8","145","28","",""
"","","","decisionFB","","63d40583fbdb78bfb9b0d3a4","bdp_rwlrn","Tue Mar 14 2023 20:36:28 GMT-0400 (Eastern Daylight Time)","390252","Trustworthy,Untrustworthy","html-keyboard-response","92","164994","0.0-11.0-2.27","","null","","<div class='trialDiv'><img src='Fruit/mango.png'><br><font class='baseline'><strong>Mega Mangos</strong><p>Choose number of points to bet.</font><div class='respPicDiv'><img src='img/responseButtonOffersNo0L5.png' class='respPic'></div></div>","null","10","Mega Mangos","Fruit/mango.png","Lost","0.8,0.35","10","0.8","140","28","",""
"","","","feedback","","63d40583fbdb78bfb9b0d3a4","bdp_rwlrn","Tue Mar 14 2023 20:36:28 GMT-0400 (Eastern Daylight Time)","390252","Trustworthy,Untrustworthy","html-keyboard-response","93","166008","0.0-11.0-3.27","","null","","<div class='respPicDiv'><img src='img/responseButtonOffersNo0_wht.png' class='respPic'></div><div class='trialDiv'><img src='Fruit/mango.png'><br><font class='baseline'><strong>Mega Mangos</strong><p><strong><font class='negOutcome'>You LOST</font><p>You bet: 5</strong></font> &nbsp; &nbsp; &nbsp; &nbsp; &nbsp; &nbsp;<font class='negOutcome'>You receive: <strong>0</strong></font></div>","null","10","Mega Mangos","Fruit/mango.png","Lost","0.8,0.35","10","0.8","140","28","",""
"","","","decision","","63d40583fbdb78bfb9b0d3a4","bdp_rwlrn","Tue Mar 14 2023 20:36:28 GMT-0400 (Eastern Daylight Time)","390252","Trustworthy,Untrustworthy","html-keyboard-response","94","166611","0.0-11.0-1.28","","603","","<div class='trialDiv'><img src='Fruit/watermelon.png'><br><font class='baseline'><strong>Watermelon Win$</strong><p>Choose number of points to bet.</font><div class='respPicDiv'><img src='img/responseButtonOffersNo0L.png' class='respPic'></div></div>","1","10","Watermelon Win$","Fruit/watermelon.png","Lost","0.2,0.65","11","0.2","145","29","",""
"","","","decisionFB","","63d40583fbdb78bfb9b0d3a4","bdp_rwlrn","Tue Mar 14 2023 20:36:28 GMT-0400 (Eastern Daylight Time)","390252","Trustworthy,Untrustworthy","html-keyboard-response","95","166869","0.0-11.0-2.28","","null","","<div class='trialDiv'><img src='Fruit/watermelon.png'><br><font class='baseline'><strong>Watermelon Win$</strong><p>Choose number of points to bet.</font><div class='respPicDiv'><img src='img/responseButtonOffersNo0L1.png' class='respPic'></div></div>","null","10","Watermelon Win$","Fruit/watermelon.png","Lost","0.2,0.65","11","0.2","144","29","",""
"","","","feedback","","63d40583fbdb78bfb9b0d3a4","bdp_rwlrn","Tue Mar 14 2023 20:36:28 GMT-0400 (Eastern Daylight Time)","390252","Trustworthy,Untrustworthy","html-keyboard-response","96","167871","0.0-11.0-3.28","","null","","<div class='respPicDiv'><img src='img/responseButtonOffersNo0_wht.png' class='respPic'></div><div class='trialDiv'><img src='Fruit/watermelon.png'><br><font class='baseline'><strong>Watermelon Win$</strong><p><strong><font class='negOutcome'>You LOST</font><p>You bet: 1</strong></font> &nbsp; &nbsp; &nbsp; &nbsp; &nbsp; &nbsp;<font class='negOutcome'>You receive: <strong>0</strong></font></div>","null","10","Watermelon Win$","Fruit/watermelon.png","Lost","0.2,0.65","11","0.2","144","29","",""
"","","","decision","","63d40583fbdb78bfb9b0d3a4","bdp_rwlrn","Tue Mar 14 2023 20:36:28 GMT-0400 (Eastern Daylight Time)","390252","Trustworthy,Untrustworthy","html-keyboard-response","97","169071","0.0-11.0-1.29","","1199","","<div class='trialDiv'><img src='Fruit/pears.png'><br><font class='baseline'><strong>Pears Aplenty</strong><p>Choose number of points to bet.</font><div class='respPicDiv'><img src='img/responseButtonOffersNo0L.png' class='respPic'></div></div>","1","10","Pears Aplenty","Fruit/pears.png","Won","0.35,0.65","10","0.35","149","30","",""
"","","","decisionFB","","63d40583fbdb78bfb9b0d3a4","bdp_rwlrn","Tue Mar 14 2023 20:36:28 GMT-0400 (Eastern Daylight Time)","390252","Trustworthy,Untrustworthy","html-keyboard-response","98","169331","0.0-11.0-2.29","","null","","<div class='trialDiv'><img src='Fruit/pears.png'><br><font class='baseline'><strong>Pears Aplenty</strong><p>Choose number of points to bet.</font><div class='respPicDiv'><img src='img/responseButtonOffersNo0L1.png' class='respPic'></div></div>","null","10","Pears Aplenty","Fruit/pears.png","Won","0.35,0.65","10","0.35","148","30","",""
"","","","feedback","","63d40583fbdb78bfb9b0d3a4","bdp_rwlrn","Tue Mar 14 2023 20:36:28 GMT-0400 (Eastern Daylight Time)","390252","Trustworthy,Untrustworthy","html-keyboard-response","99","170345","0.0-11.0-3.29","","null","","<div class='respPicDiv'><img src='img/responseButtonOffersNo0_wht.png' class='respPic'></div><div class='trialDiv'><img src='Fruit/pears.png'><br><font class='baseline'><strong>Pears Aplenty</strong><p><strong><font class='posOutcome'>You WON</font><p>You bet: 1</strong></font> &nbsp; &nbsp; &nbsp; &nbsp; &nbsp; &nbsp;<font class='posOutcome'>you receive: <strong>2</strong></font></div>","null","10","Pears Aplenty","Fruit/pears.png","Won","0.35,0.65","10","0.35","150","30","",""
"","","","decision","","63d40583fbdb78bfb9b0d3a4","bdp_rwlrn","Tue Mar 14 2023 20:36:28 GMT-0400 (Eastern Daylight Time)","390252","Trustworthy,Untrustworthy","html-keyboard-response","100","170958","0.0-11.0-1.30","","613","","<div class='trialDiv'><img src='Fruit/mango.png'><br><font class='baseline'><strong>Mega Mangos</strong><p>Choose number of points to bet.</font><div class='respPicDiv'><img src='img/responseButtonOffersNo0L.png' class='respPic'></div></div>","5","11","Mega Mangos","Fruit/mango.png","Lost","0.8,0.35","10","0.8","155","31","",""
"","","","decisionFB","","63d40583fbdb78bfb9b0d3a4","bdp_rwlrn","Tue Mar 14 2023 20:36:28 GMT-0400 (Eastern Daylight Time)","390252","Trustworthy,Untrustworthy","html-keyboard-response","101","171224","0.0-11.0-2.30","","null","","<div class='trialDiv'><img src='Fruit/mango.png'><br><font class='baseline'><strong>Mega Mangos</strong><p>Choose number of points to bet.</font><div class='respPicDiv'><img src='img/responseButtonOffersNo0L5.png' class='respPic'></div></div>","null","11","Mega Mangos","Fruit/mango.png","Lost","0.8,0.35","10","0.8","150","31","",""
"","","","feedback","","63d40583fbdb78bfb9b0d3a4","bdp_rwlrn","Tue Mar 14 2023 20:36:28 GMT-0400 (Eastern Daylight Time)","390252","Trustworthy,Untrustworthy","html-keyboard-response","102","172240","0.0-11.0-3.30","","null","","<div class='respPicDiv'><img src='img/responseButtonOffersNo0_wht.png' class='respPic'></div><div class='trialDiv'><img src='Fruit/mango.png'><br><font class='baseline'><strong>Mega Mangos</strong><p><strong><font class='negOutcome'>You LOST</font><p>You bet: 5</strong></font> &nbsp; &nbsp; &nbsp; &nbsp; &nbsp; &nbsp;<font class='negOutcome'>You receive: <strong>0</strong></font></div>","null","11","Mega Mangos","Fruit/mango.png","Lost","0.8,0.35","10","0.8","150","31","",""
"","","","decision","","63d40583fbdb78bfb9b0d3a4","bdp_rwlrn","Tue Mar 14 2023 20:36:28 GMT-0400 (Eastern Daylight Time)","390252","Trustworthy,Untrustworthy","html-keyboard-response","103","172726","0.0-11.0-1.31","","486","","<div class='trialDiv'><img src='Fruit/watermelon.png'><br><font class='baseline'><strong>Watermelon Win$</strong><p>Choose number of points to bet.</font><div class='respPicDiv'><img src='img/responseButtonOffersNo0L.png' class='respPic'></div></div>","1","11","Watermelon Win$","Fruit/watermelon.png","Lost","0.2,0.65","11","0.2","155","32","",""
"","","","decisionFB","","63d40583fbdb78bfb9b0d3a4","bdp_rwlrn","Tue Mar 14 2023 20:36:28 GMT-0400 (Eastern Daylight Time)","390252","Trustworthy,Untrustworthy","html-keyboard-response","104","172980","0.0-11.0-2.31","","null","","<div class='trialDiv'><img src='Fruit/watermelon.png'><br><font class='baseline'><strong>Watermelon Win$</strong><p>Choose number of points to bet.</font><div class='respPicDiv'><img src='img/responseButtonOffersNo0L1.png' class='respPic'></div></div>","null","11","Watermelon Win$","Fruit/watermelon.png","Lost","0.2,0.65","11","0.2","154","32","",""
"","","","feedback","","63d40583fbdb78bfb9b0d3a4","bdp_rwlrn","Tue Mar 14 2023 20:36:28 GMT-0400 (Eastern Daylight Time)","390252","Trustworthy,Untrustworthy","html-keyboard-response","105","173997","0.0-11.0-3.31","","null","","<div class='respPicDiv'><img src='img/responseButtonOffersNo0_wht.png' class='respPic'></div><div class='trialDiv'><img src='Fruit/watermelon.png'><br><font class='baseline'><strong>Watermelon Win$</strong><p><strong><font class='negOutcome'>You LOST</font><p>You bet: 1</strong></font> &nbsp; &nbsp; &nbsp; &nbsp; &nbsp; &nbsp;<font class='negOutcome'>You receive: <strong>0</strong></font></div>","null","11","Watermelon Win$","Fruit/watermelon.png","Lost","0.2,0.65","11","0.2","154","32","",""
"","","","decision","","63d40583fbdb78bfb9b0d3a4","bdp_rwlrn","Tue Mar 14 2023 20:36:28 GMT-0400 (Eastern Daylight Time)","390252","Trustworthy,Untrustworthy","html-keyboard-response","106","174467","0.0-11.0-1.32","","469","","<div class='trialDiv'><img src='Fruit/pears.png'><br><font class='baseline'><strong>Pears Aplenty</strong><p>Choose number of points to bet.</font><div class='respPicDiv'><img src='img/responseButtonOffersNo0L.png' class='respPic'></div></div>","1","11","Pears Aplenty","Fruit/pears.png","Lost","0.35,0.65","10","0.35","159","33","",""
"","","","decisionFB","","63d40583fbdb78bfb9b0d3a4","bdp_rwlrn","Tue Mar 14 2023 20:36:28 GMT-0400 (Eastern Daylight Time)","390252","Trustworthy,Untrustworthy","html-keyboard-response","107","174720","0.0-11.0-2.32","","null","","<div class='trialDiv'><img src='Fruit/pears.png'><br><font class='baseline'><strong>Pears Aplenty</strong><p>Choose number of points to bet.</font><div class='respPicDiv'><img src='img/responseButtonOffersNo0L1.png' class='respPic'></div></div>","null","11","Pears Aplenty","Fruit/pears.png","Lost","0.35,0.65","10","0.35","158","33","",""
"","","","feedback","","63d40583fbdb78bfb9b0d3a4","bdp_rwlrn","Tue Mar 14 2023 20:36:28 GMT-0400 (Eastern Daylight Time)","390252","Trustworthy,Untrustworthy","html-keyboard-response","108","175736","0.0-11.0-3.32","","null","","<div class='respPicDiv'><img src='img/responseButtonOffersNo0_wht.png' class='respPic'></div><div class='trialDiv'><img src='Fruit/pears.png'><br><font class='baseline'><strong>Pears Aplenty</strong><p><strong><font class='negOutcome'>You LOST</font><p>You bet: 1</strong></font> &nbsp; &nbsp; &nbsp; &nbsp; &nbsp; &nbsp;<font class='negOutcome'>You receive: <strong>0</strong></font></div>","null","11","Pears Aplenty","Fruit/pears.png","Lost","0.35,0.65","10","0.35","158","33","",""
"","","","decision","","63d40583fbdb78bfb9b0d3a4","bdp_rwlrn","Tue Mar 14 2023 20:36:28 GMT-0400 (Eastern Daylight Time)","390252","Trustworthy,Untrustworthy","html-keyboard-response","109","176233","0.0-11.0-1.33","","496","","<div class='trialDiv'><img src='Fruit/watermelon.png'><br><font class='baseline'><strong>Watermelon Win$</strong><p>Choose number of points to bet.</font><div class='respPicDiv'><img src='img/responseButtonOffersNo0L.png' class='respPic'></div></div>","1","12","Watermelon Win$","Fruit/watermelon.png","Won","0.2,0.65","11","0.2","163","34","",""
"","","","decisionFB","","63d40583fbdb78bfb9b0d3a4","bdp_rwlrn","Tue Mar 14 2023 20:36:28 GMT-0400 (Eastern Daylight Time)","390252","Trustworthy,Untrustworthy","html-keyboard-response","110","176490","0.0-11.0-2.33","","null","","<div class='trialDiv'><img src='Fruit/watermelon.png'><br><font class='baseline'><strong>Watermelon Win$</strong><p>Choose number of points to bet.</font><div class='respPicDiv'><img src='img/responseButtonOffersNo0L1.png' class='respPic'></div></div>","null","12","Watermelon Win$","Fruit/watermelon.png","Won","0.2,0.65","11","0.2","162","34","",""
"","","","feedback","","63d40583fbdb78bfb9b0d3a4","bdp_rwlrn","Tue Mar 14 2023 20:36:28 GMT-0400 (Eastern Daylight Time)","390252","Trustworthy,Untrustworthy","html-keyboard-response","111","177506","0.0-11.0-3.33","","null","","<div class='respPicDiv'><img src='img/responseButtonOffersNo0_wht.png' class='respPic'></div><div class='trialDiv'><img src='Fruit/watermelon.png'><br><font class='baseline'><strong>Watermelon Win$</strong><p><strong><font class='posOutcome'>You WON</font><p>You bet: 1</strong></font> &nbsp; &nbsp; &nbsp; &nbsp; &nbsp; &nbsp;<font class='posOutcome'>you receive: <strong>2</strong></font></div>","null","12","Watermelon Win$","Fruit/watermelon.png","Won","0.2,0.65","11","0.2","164","34","",""
"","","","decision","","63d40583fbdb78bfb9b0d3a4","bdp_rwlrn","Tue Mar 14 2023 20:36:28 GMT-0400 (Eastern Daylight Time)","390252","Trustworthy,Untrustworthy","html-keyboard-response","112","178195","0.0-11.0-1.34","","689","","<div class='trialDiv'><img src='Fruit/pears.png'><br><font class='baseline'><strong>Pears Aplenty</strong><p>Choose number of points to bet.</font><div class='respPicDiv'><img src='img/responseButtonOffersNo0L.png' class='respPic'></div></div>","1","12","Pears Aplenty","Fruit/pears.png","Lost","0.35,0.65","10","0.35","169","35","",""
"","","","decisionFB","","63d40583fbdb78bfb9b0d3a4","bdp_rwlrn","Tue Mar 14 2023 20:36:28 GMT-0400 (Eastern Daylight Time)","390252","Trustworthy,Untrustworthy","html-keyboard-response","113","178459","0.0-11.0-2.34","","null","","<div class='trialDiv'><img src='Fruit/pears.png'><br><font class='baseline'><strong>Pears Aplenty</strong><p>Choose number of points to bet.</font><div class='respPicDiv'><img src='img/responseButtonOffersNo0L1.png' class='respPic'></div></div>","null","12","Pears Aplenty","Fruit/pears.png","Lost","0.35,0.65","10","0.35","168","35","",""
"","","","feedback","","63d40583fbdb78bfb9b0d3a4","bdp_rwlrn","Tue Mar 14 2023 20:36:28 GMT-0400 (Eastern Daylight Time)","390252","Trustworthy,Untrustworthy","html-keyboard-response","114","179472","0.0-11.0-3.34","","null","","<div class='respPicDiv'><img src='img/responseButtonOffersNo0_wht.png' class='respPic'></div><div class='trialDiv'><img src='Fruit/pears.png'><br><font class='baseline'><strong>Pears Aplenty</strong><p><strong><font class='negOutcome'>You LOST</font><p>You bet: 1</strong></font> &nbsp; &nbsp; &nbsp; &nbsp; &nbsp; &nbsp;<font class='negOutcome'>You receive: <strong>0</strong></font></div>","null","12","Pears Aplenty","Fruit/pears.png","Lost","0.35,0.65","10","0.35","168","35","",""
"","","","decision","","63d40583fbdb78bfb9b0d3a4","bdp_rwlrn","Tue Mar 14 2023 20:36:28 GMT-0400 (Eastern Daylight Time)","390252","Trustworthy,Untrustworthy","html-keyboard-response","115","180923","0.0-11.0-1.35","","1451","","<div class='trialDiv'><img src='Fruit/mango.png'><br><font class='baseline'><strong>Mega Mangos</strong><p>Choose number of points to bet.</font><div class='respPicDiv'><img src='img/responseButtonOffersNo0L.png' class='respPic'></div></div>","3","12","Mega Mangos","Fruit/mango.png","Lost","0.8,0.35","10","0.8","173","36","",""
"","","","decisionFB","","63d40583fbdb78bfb9b0d3a4","bdp_rwlrn","Tue Mar 14 2023 20:36:28 GMT-0400 (Eastern Daylight Time)","390252","Trustworthy,Untrustworthy","html-keyboard-response","116","181178","0.0-11.0-2.35","","null","","<div class='trialDiv'><img src='Fruit/mango.png'><br><font class='baseline'><strong>Mega Mangos</strong><p>Choose number of points to bet.</font><div class='respPicDiv'><img src='img/responseButtonOffersNo0L3.png' class='respPic'></div></div>","null","12","Mega Mangos","Fruit/mango.png","Lost","0.8,0.35","10","0.8","170","36","",""
"","","","feedback","","63d40583fbdb78bfb9b0d3a4","bdp_rwlrn","Tue Mar 14 2023 20:36:28 GMT-0400 (Eastern Daylight Time)","390252","Trustworthy,Untrustworthy","html-keyboard-response","117","182193","0.0-11.0-3.35","","null","","<div class='respPicDiv'><img src='img/responseButtonOffersNo0_wht.png' class='respPic'></div><div class='trialDiv'><img src='Fruit/mango.png'><br><font class='baseline'><strong>Mega Mangos</strong><p><strong><font class='negOutcome'>You LOST</font><p>You bet: 3</strong></font> &nbsp; &nbsp; &nbsp; &nbsp; &nbsp; &nbsp;<font class='negOutcome'>You receive: <strong>0</strong></font></div>","null","12","Mega Mangos","Fruit/mango.png","Lost","0.8,0.35","10","0.8","170","36","",""
"","","","decision","","63d40583fbdb78bfb9b0d3a4","bdp_rwlrn","Tue Mar 14 2023 20:36:28 GMT-0400 (Eastern Daylight Time)","390252","Trustworthy,Untrustworthy","html-keyboard-response","118","182738","0.0-11.0-1.36","","544","","<div class='trialDiv'><img src='Fruit/watermelon.png'><br><font class='baseline'><strong>Watermelon Win$</strong><p>Choose number of points to bet.</font><div class='respPicDiv'><img src='img/responseButtonOffersNo0L.png' class='respPic'></div></div>","1","13","Watermelon Win$","Fruit/watermelon.png","Lost","0.2,0.65","11","0.2","175","37","",""
"","","","decisionFB","","63d40583fbdb78bfb9b0d3a4","bdp_rwlrn","Tue Mar 14 2023 20:36:28 GMT-0400 (Eastern Daylight Time)","390252","Trustworthy,Untrustworthy","html-keyboard-response","119","182992","0.0-11.0-2.36","","null","","<div class='trialDiv'><img src='Fruit/watermelon.png'><br><font class='baseline'><strong>Watermelon Win$</strong><p>Choose number of points to bet.</font><div class='respPicDiv'><img src='img/responseButtonOffersNo0L1.png' class='respPic'></div></div>","null","13","Watermelon Win$","Fruit/watermelon.png","Lost","0.2,0.65","11","0.2","174","37","",""
"","","","feedback","","63d40583fbdb78bfb9b0d3a4","bdp_rwlrn","Tue Mar 14 2023 20:36:28 GMT-0400 (Eastern Daylight Time)","390252","Trustworthy,Untrustworthy","html-keyboard-response","120","184008","0.0-11.0-3.36","","null","","<div class='respPicDiv'><img src='img/responseButtonOffersNo0_wht.png' class='respPic'></div><div class='trialDiv'><img src='Fruit/watermelon.png'><br><font class='baseline'><strong>Watermelon Win$</strong><p><strong><font class='negOutcome'>You LOST</font><p>You bet: 1</strong></font> &nbsp; &nbsp; &nbsp; &nbsp; &nbsp; &nbsp;<font class='negOutcome'>You receive: <strong>0</strong></font></div>","null","13","Watermelon Win$","Fruit/watermelon.png","Lost","0.2,0.65","11","0.2","174","37","",""
"","","","decision","","63d40583fbdb78bfb9b0d3a4","bdp_rwlrn","Tue Mar 14 2023 20:36:28 GMT-0400 (Eastern Daylight Time)","390252","Trustworthy,Untrustworthy","html-keyboard-response","121","185239","0.0-11.0-1.37","","1229","","<div class='trialDiv'><img src='Fruit/mango.png'><br><font class='baseline'><strong>Mega Mangos</strong><p>Choose number of points to bet.</font><div class='respPicDiv'><img src='img/responseButtonOffersNo0L.png' class='respPic'></div></div>","3","13","Mega Mangos","Fruit/mango.png","Lost","0.8,0.35","10","0.8","179","38","",""
"","","","decisionFB","","63d40583fbdb78bfb9b0d3a4","bdp_rwlrn","Tue Mar 14 2023 20:36:28 GMT-0400 (Eastern Daylight Time)","390252","Trustworthy,Untrustworthy","html-keyboard-response","122","185498","0.0-11.0-2.37","","null","","<div class='trialDiv'><img src='Fruit/mango.png'><br><font class='baseline'><strong>Mega Mangos</strong><p>Choose number of points to bet.</font><div class='respPicDiv'><img src='img/responseButtonOffersNo0L3.png' class='respPic'></div></div>","null","13","Mega Mangos","Fruit/mango.png","Lost","0.8,0.35","10","0.8","176","38","",""
"","","","feedback","","63d40583fbdb78bfb9b0d3a4","bdp_rwlrn","Tue Mar 14 2023 20:36:28 GMT-0400 (Eastern Daylight Time)","390252","Trustworthy,Untrustworthy","html-keyboard-response","123","186512","0.0-11.0-3.37","","null","","<div class='respPicDiv'><img src='img/responseButtonOffersNo0_wht.png' class='respPic'></div><div class='trialDiv'><img src='Fruit/mango.png'><br><font class='baseline'><strong>Mega Mangos</strong><p><strong><font class='negOutcome'>You LOST</font><p>You bet: 3</strong></font> &nbsp; &nbsp; &nbsp; &nbsp; &nbsp; &nbsp;<font class='negOutcome'>You receive: <strong>0</strong></font></div>","null","13","Mega Mangos","Fruit/mango.png","Lost","0.8,0.35","10","0.8","176","38","",""
"","","","decision","","63d40583fbdb78bfb9b0d3a4","bdp_rwlrn","Tue Mar 14 2023 20:36:28 GMT-0400 (Eastern Daylight Time)","390252","Trustworthy,Untrustworthy","html-keyboard-response","124","187380","0.0-11.0-1.38","","867","","<div class='trialDiv'><img src='Fruit/pears.png'><br><font class='baseline'><strong>Pears Aplenty</strong><p>Choose number of points to bet.</font><div class='respPicDiv'><img src='img/responseButtonOffersNo0L.png' class='respPic'></div></div>","1","13","Pears Aplenty","Fruit/pears.png","Won","0.35,0.65","10","0.35","181","39","",""
"","","","decisionFB","","63d40583fbdb78bfb9b0d3a4","bdp_rwlrn","Tue Mar 14 2023 20:36:28 GMT-0400 (Eastern Daylight Time)","390252","Trustworthy,Untrustworthy","html-keyboard-response","125","187638","0.0-11.0-2.38","","null","","<div class='trialDiv'><img src='Fruit/pears.png'><br><font class='baseline'><strong>Pears Aplenty</strong><p>Choose number of points to bet.</font><div class='respPicDiv'><img src='img/responseButtonOffersNo0L1.png' class='respPic'></div></div>","null","13","Pears Aplenty","Fruit/pears.png","Won","0.35,0.65","10","0.35","180","39","",""
"","","","feedback","","63d40583fbdb78bfb9b0d3a4","bdp_rwlrn","Tue Mar 14 2023 20:36:28 GMT-0400 (Eastern Daylight Time)","390252","Trustworthy,Untrustworthy","html-keyboard-response","126","188640","0.0-11.0-3.38","","null","","<div class='respPicDiv'><img src='img/responseButtonOffersNo0_wht.png' class='respPic'></div><div class='trialDiv'><img src='Fruit/pears.png'><br><font class='baseline'><strong>Pears Aplenty</strong><p><strong><font class='posOutcome'>You WON</font><p>You bet: 1</strong></font> &nbsp; &nbsp; &nbsp; &nbsp; &nbsp; &nbsp;<font class='posOutcome'>you receive: <strong>2</strong></font></div>","null","13","Pears Aplenty","Fruit/pears.png","Won","0.35,0.65","10","0.35","182","39","",""
"","","","decision","","63d40583fbdb78bfb9b0d3a4","bdp_rwlrn","Tue Mar 14 2023 20:36:28 GMT-0400 (Eastern Daylight Time)","390252","Trustworthy,Untrustworthy","html-keyboard-response","127","189415","0.0-11.0-1.39","","775","","<div class='trialDiv'><img src='Fruit/mango.png'><br><font class='baseline'><strong>Mega Mangos</strong><p>Choose number of points to bet.</font><div class='respPicDiv'><img src='img/responseButtonOffersNo0L.png' class='respPic'></div></div>","1","14","Mega Mangos","Fruit/mango.png","Won","0.8,0.35","10","0.8","187","40","",""
"","","","decisionFB","","63d40583fbdb78bfb9b0d3a4","bdp_rwlrn","Tue Mar 14 2023 20:36:28 GMT-0400 (Eastern Daylight Time)","390252","Trustworthy,Untrustworthy","html-keyboard-response","128","189670","0.0-11.0-2.39","","null","","<div class='trialDiv'><img src='Fruit/mango.png'><br><font class='baseline'><strong>Mega Mangos</strong><p>Choose number of points to bet.</font><div class='respPicDiv'><img src='img/responseButtonOffersNo0L1.png' class='respPic'></div></div>","null","14","Mega Mangos","Fruit/mango.png","Won","0.8,0.35","10","0.8","186","40","",""
"","","","feedback","","63d40583fbdb78bfb9b0d3a4","bdp_rwlrn","Tue Mar 14 2023 20:36:28 GMT-0400 (Eastern Daylight Time)","390252","Trustworthy,Untrustworthy","html-keyboard-response","129","190684","0.0-11.0-3.39","","null","","<div class='respPicDiv'><img src='img/responseButtonOffersNo0_wht.png' class='respPic'></div><div class='trialDiv'><img src='Fruit/mango.png'><br><font class='baseline'><strong>Mega Mangos</strong><p><strong><font class='posOutcome'>You WON</font><p>You bet: 1</strong></font> &nbsp; &nbsp; &nbsp; &nbsp; &nbsp; &nbsp;<font class='posOutcome'>you receive: <strong>2</strong></font></div>","null","14","Mega Mangos","Fruit/mango.png","Won","0.8,0.35","10","0.8","188","40","",""
"","","","decision","","63d40583fbdb78bfb9b0d3a4","bdp_rwlrn","Tue Mar 14 2023 20:36:28 GMT-0400 (Eastern Daylight Time)","390252","Trustworthy,Untrustworthy","html-keyboard-response","130","191737","0.0-11.0-1.40","","1052","","<div class='trialDiv'><img src='Fruit/pears.png'><br><font class='baseline'><strong>Pears Aplenty</strong><p>Choose number of points to bet.</font><div class='respPicDiv'><img src='img/responseButtonOffersNo0L.png' class='respPic'></div></div>","5","14","Pears Aplenty","Fruit/pears.png","Won","0.35,0.65","10","0.35","193","41","",""
"","","","decisionFB","","63d40583fbdb78bfb9b0d3a4","bdp_rwlrn","Tue Mar 14 2023 20:36:28 GMT-0400 (Eastern Daylight Time)","390252","Trustworthy,Untrustworthy","html-keyboard-response","131","191991","0.0-11.0-2.40","","null","","<div class='trialDiv'><img src='Fruit/pears.png'><br><font class='baseline'><strong>Pears Aplenty</strong><p>Choose number of points to bet.</font><div class='respPicDiv'><img src='img/responseButtonOffersNo0L5.png' class='respPic'></div></div>","null","14","Pears Aplenty","Fruit/pears.png","Won","0.35,0.65","10","0.35","188","41","",""
"","","","feedback","","63d40583fbdb78bfb9b0d3a4","bdp_rwlrn","Tue Mar 14 2023 20:36:28 GMT-0400 (Eastern Daylight Time)","390252","Trustworthy,Untrustworthy","html-keyboard-response","132","192994","0.0-11.0-3.40","","null","","<div class='respPicDiv'><img src='img/responseButtonOffersNo0_wht.png' class='respPic'></div><div class='trialDiv'><img src='Fruit/pears.png'><br><font class='baseline'><strong>Pears Aplenty</strong><p><strong><font class='posOutcome'>You WON</font><p>You bet: 5</strong></font> &nbsp; &nbsp; &nbsp; &nbsp; &nbsp; &nbsp;<font class='posOutcome'>you receive: <strong>10</strong></font></div>","null","14","Pears Aplenty","Fruit/pears.png","Won","0.35,0.65","10","0.35","198","41","",""
"","","","decision","","63d40583fbdb78bfb9b0d3a4","bdp_rwlrn","Tue Mar 14 2023 20:36:28 GMT-0400 (Eastern Daylight Time)","390252","Trustworthy,Untrustworthy","html-keyboard-response","133","193598","0.0-11.0-1.41","","604","","<div class='trialDiv'><img src='Fruit/watermelon.png'><br><font class='baseline'><strong>Watermelon Win$</strong><p>Choose number of points to bet.</font><div class='respPicDiv'><img src='img/responseButtonOffersNo0L.png' class='respPic'></div></div>","1","14","Watermelon Win$","Fruit/watermelon.png","Won","0.2,0.65","11","0.2","203","42","",""
"","","","decisionFB","","63d40583fbdb78bfb9b0d3a4","bdp_rwlrn","Tue Mar 14 2023 20:36:28 GMT-0400 (Eastern Daylight Time)","390252","Trustworthy,Untrustworthy","html-keyboard-response","134","193857","0.0-11.0-2.41","","null","","<div class='trialDiv'><img src='Fruit/watermelon.png'><br><font class='baseline'><strong>Watermelon Win$</strong><p>Choose number of points to bet.</font><div class='respPicDiv'><img src='img/responseButtonOffersNo0L1.png' class='respPic'></div></div>","null","14","Watermelon Win$","Fruit/watermelon.png","Won","0.2,0.65","11","0.2","202","42","",""
"","","","feedback","","63d40583fbdb78bfb9b0d3a4","bdp_rwlrn","Tue Mar 14 2023 20:36:28 GMT-0400 (Eastern Daylight Time)","390252","Trustworthy,Untrustworthy","html-keyboard-response","135","194870","0.0-11.0-3.41","","null","","<div class='respPicDiv'><img src='img/responseButtonOffersNo0_wht.png' class='respPic'></div><div class='trialDiv'><img src='Fruit/watermelon.png'><br><font class='baseline'><strong>Watermelon Win$</strong><p><strong><font class='posOutcome'>You WON</font><p>You bet: 1</strong></font> &nbsp; &nbsp; &nbsp; &nbsp; &nbsp; &nbsp;<font class='posOutcome'>you receive: <strong>2</strong></font></div>","null","14","Watermelon Win$","Fruit/watermelon.png","Won","0.2,0.65","11","0.2","204","42","",""
"","","","decision","","63d40583fbdb78bfb9b0d3a4","bdp_rwlrn","Tue Mar 14 2023 20:36:28 GMT-0400 (Eastern Daylight Time)","390252","Trustworthy,Untrustworthy","html-keyboard-response","136","195687","0.0-11.0-1.42","","815","","<div class='trialDiv'><img src='Fruit/pears.png'><br><font class='baseline'><strong>Pears Aplenty</strong><p>Choose number of points to bet.</font><div class='respPicDiv'><img src='img/responseButtonOffersNo0L.png' class='respPic'></div></div>","5","15","Pears Aplenty","Fruit/pears.png","Won","0.35,0.65","10","0.35","209","43","",""
"","","","decisionFB","","63d40583fbdb78bfb9b0d3a4","bdp_rwlrn","Tue Mar 14 2023 20:36:28 GMT-0400 (Eastern Daylight Time)","390252","Trustworthy,Untrustworthy","html-keyboard-response","137","195945","0.0-11.0-2.42","","null","","<div class='trialDiv'><img src='Fruit/pears.png'><br><font class='baseline'><strong>Pears Aplenty</strong><p>Choose number of points to bet.</font><div class='respPicDiv'><img src='img/responseButtonOffersNo0L5.png' class='respPic'></div></div>","null","15","Pears Aplenty","Fruit/pears.png","Won","0.35,0.65","10","0.35","204","43","",""
"","","","feedback","","63d40583fbdb78bfb9b0d3a4","bdp_rwlrn","Tue Mar 14 2023 20:36:28 GMT-0400 (Eastern Daylight Time)","390252","Trustworthy,Untrustworthy","html-keyboard-response","138","196961","0.0-11.0-3.42","","null","","<div class='respPicDiv'><img src='img/responseButtonOffersNo0_wht.png' class='respPic'></div><div class='trialDiv'><img src='Fruit/pears.png'><br><font class='baseline'><strong>Pears Aplenty</strong><p><strong><font class='posOutcome'>You WON</font><p>You bet: 5</strong></font> &nbsp; &nbsp; &nbsp; &nbsp; &nbsp; &nbsp;<font class='posOutcome'>you receive: <strong>10</strong></font></div>","null","15","Pears Aplenty","Fruit/pears.png","Won","0.35,0.65","10","0.35","214","43","",""
"","","","decision","","63d40583fbdb78bfb9b0d3a4","bdp_rwlrn","Tue Mar 14 2023 20:36:28 GMT-0400 (Eastern Daylight Time)","390252","Trustworthy,Untrustworthy","html-keyboard-response","139","197711","0.0-11.0-1.43","","750","","<div class='trialDiv'><img src='Fruit/mango.png'><br><font class='baseline'><strong>Mega Mangos</strong><p>Choose number of points to bet.</font><div class='respPicDiv'><img src='img/responseButtonOffersNo0L.png' class='respPic'></div></div>","1","15","Mega Mangos","Fruit/mango.png","Lost","0.8,0.35","10","0.8","219","44","",""
"","","","decisionFB","","63d40583fbdb78bfb9b0d3a4","bdp_rwlrn","Tue Mar 14 2023 20:36:28 GMT-0400 (Eastern Daylight Time)","390252","Trustworthy,Untrustworthy","html-keyboard-response","140","197974","0.0-11.0-2.43","","null","","<div class='trialDiv'><img src='Fruit/mango.png'><br><font class='baseline'><strong>Mega Mangos</strong><p>Choose number of points to bet.</font><div class='respPicDiv'><img src='img/responseButtonOffersNo0L1.png' class='respPic'></div></div>","null","15","Mega Mangos","Fruit/mango.png","Lost","0.8,0.35","10","0.8","218","44","",""
"","","","feedback","","63d40583fbdb78bfb9b0d3a4","bdp_rwlrn","Tue Mar 14 2023 20:36:28 GMT-0400 (Eastern Daylight Time)","390252","Trustworthy,Untrustworthy","html-keyboard-response","141","198975","0.0-11.0-3.43","","null","","<div class='respPicDiv'><img src='img/responseButtonOffersNo0_wht.png' class='respPic'></div><div class='trialDiv'><img src='Fruit/mango.png'><br><font class='baseline'><strong>Mega Mangos</strong><p><strong><font class='negOutcome'>You LOST</font><p>You bet: 1</strong></font> &nbsp; &nbsp; &nbsp; &nbsp; &nbsp; &nbsp;<font class='negOutcome'>You receive: <strong>0</strong></font></div>","null","15","Mega Mangos","Fruit/mango.png","Lost","0.8,0.35","10","0.8","218","44","",""
"","","","decision","","63d40583fbdb78bfb9b0d3a4","bdp_rwlrn","Tue Mar 14 2023 20:36:28 GMT-0400 (Eastern Daylight Time)","390252","Trustworthy,Untrustworthy","html-keyboard-response","142","199479","0.0-11.0-1.44","","503","","<div class='trialDiv'><img src='Fruit/watermelon.png'><br><font class='baseline'><strong>Watermelon Win$</strong><p>Choose number of points to bet.</font><div class='respPicDiv'><img src='img/responseButtonOffersNo0L.png' class='respPic'></div></div>","1","15","Watermelon Win$","Fruit/watermelon.png","Won","0.2,0.65","11","0.2","223","45","",""
"","","","decisionFB","","63d40583fbdb78bfb9b0d3a4","bdp_rwlrn","Tue Mar 14 2023 20:36:28 GMT-0400 (Eastern Daylight Time)","390252","Trustworthy,Untrustworthy","html-keyboard-response","143","199744","0.0-11.0-2.44","","null","","<div class='trialDiv'><img src='Fruit/watermelon.png'><br><font class='baseline'><strong>Watermelon Win$</strong><p>Choose number of points to bet.</font><div class='respPicDiv'><img src='img/responseButtonOffersNo0L1.png' class='respPic'></div></div>","null","15","Watermelon Win$","Fruit/watermelon.png","Won","0.2,0.65","11","0.2","222","45","",""
"","","","feedback","","63d40583fbdb78bfb9b0d3a4","bdp_rwlrn","Tue Mar 14 2023 20:36:28 GMT-0400 (Eastern Daylight Time)","390252","Trustworthy,Untrustworthy","html-keyboard-response","144","200759","0.0-11.0-3.44","","null","","<div class='respPicDiv'><img src='img/responseButtonOffersNo0_wht.png' class='respPic'></div><div class='trialDiv'><img src='Fruit/watermelon.png'><br><font class='baseline'><strong>Watermelon Win$</strong><p><strong><font class='posOutcome'>You WON</font><p>You bet: 1</strong></font> &nbsp; &nbsp; &nbsp; &nbsp; &nbsp; &nbsp;<font class='posOutcome'>you receive: <strong>2</strong></font></div>","null","15","Watermelon Win$","Fruit/watermelon.png","Won","0.2,0.65","11","0.2","224","45","",""
"","","","decision","","63d40583fbdb78bfb9b0d3a4","bdp_rwlrn","Tue Mar 14 2023 20:36:28 GMT-0400 (Eastern Daylight Time)","390252","Trustworthy,Untrustworthy","html-keyboard-response","145","201574","0.0-11.0-1.45","","814","","<div class='trialDiv'><img src='Fruit/pears.png'><br><font class='baseline'><strong>Pears Aplenty</strong><p>Choose number of points to bet.</font><div class='respPicDiv'><img src='img/responseButtonOffersNo0L.png' class='respPic'></div></div>","5","16","Pears Aplenty","Fruit/pears.png","Won","0.35,0.65","10","0.35","229","46","",""
"","","","decisionFB","","63d40583fbdb78bfb9b0d3a4","bdp_rwlrn","Tue Mar 14 2023 20:36:28 GMT-0400 (Eastern Daylight Time)","390252","Trustworthy,Untrustworthy","html-keyboard-response","146","201825","0.0-11.0-2.45","","null","","<div class='trialDiv'><img src='Fruit/pears.png'><br><font class='baseline'><strong>Pears Aplenty</strong><p>Choose number of points to bet.</font><div class='respPicDiv'><img src='img/responseButtonOffersNo0L5.png' class='respPic'></div></div>","null","16","Pears Aplenty","Fruit/pears.png","Won","0.35,0.65","10","0.35","224","46","",""
"","","","feedback","","63d40583fbdb78bfb9b0d3a4","bdp_rwlrn","Tue Mar 14 2023 20:36:28 GMT-0400 (Eastern Daylight Time)","390252","Trustworthy,Untrustworthy","html-keyboard-response","147","202840","0.0-11.0-3.45","","null","","<div class='respPicDiv'><img src='img/responseButtonOffersNo0_wht.png' class='respPic'></div><div class='trialDiv'><img src='Fruit/pears.png'><br><font class='baseline'><strong>Pears Aplenty</strong><p><strong><font class='posOutcome'>You WON</font><p>You bet: 5</strong></font> &nbsp; &nbsp; &nbsp; &nbsp; &nbsp; &nbsp;<font class='posOutcome'>you receive: <strong>10</strong></font></div>","null","16","Pears Aplenty","Fruit/pears.png","Won","0.35,0.65","10","0.35","234","46","",""
"","","","decision","","63d40583fbdb78bfb9b0d3a4","bdp_rwlrn","Tue Mar 14 2023 20:36:28 GMT-0400 (Eastern Daylight Time)","390252","Trustworthy,Untrustworthy","html-keyboard-response","148","203452","0.0-11.0-1.46","","611","","<div class='trialDiv'><img src='Fruit/mango.png'><br><font class='baseline'><strong>Mega Mangos</strong><p>Choose number of points to bet.</font><div class='respPicDiv'><img src='img/responseButtonOffersNo0L.png' class='respPic'></div></div>","1","16","Mega Mangos","Fruit/mango.png","Won","0.8,0.35","10","0.8","239","47","",""
"","","","decisionFB","","63d40583fbdb78bfb9b0d3a4","bdp_rwlrn","Tue Mar 14 2023 20:36:28 GMT-0400 (Eastern Daylight Time)","390252","Trustworthy,Untrustworthy","html-keyboard-response","149","203715","0.0-11.0-2.46","","null","","<div class='trialDiv'><img src='Fruit/mango.png'><br><font class='baseline'><strong>Mega Mangos</strong><p>Choose number of points to bet.</font><div class='respPicDiv'><img src='img/responseButtonOffersNo0L1.png' class='respPic'></div></div>","null","16","Mega Mangos","Fruit/mango.png","Won","0.8,0.35","10","0.8","238","47","",""
"","","","feedback","","63d40583fbdb78bfb9b0d3a4","bdp_rwlrn","Tue Mar 14 2023 20:36:28 GMT-0400 (Eastern Daylight Time)","390252","Trustworthy,Untrustworthy","html-keyboard-response","150","204716","0.0-11.0-3.46","","null","","<div class='respPicDiv'><img src='img/responseButtonOffersNo0_wht.png' class='respPic'></div><div class='trialDiv'><img src='Fruit/mango.png'><br><font class='baseline'><strong>Mega Mangos</strong><p><strong><font class='posOutcome'>You WON</font><p>You bet: 1</strong></font> &nbsp; &nbsp; &nbsp; &nbsp; &nbsp; &nbsp;<font class='posOutcome'>you receive: <strong>2</strong></font></div>","null","16","Mega Mangos","Fruit/mango.png","Won","0.8,0.35","10","0.8","240","47","",""
"","","","decision","","63d40583fbdb78bfb9b0d3a4","bdp_rwlrn","Tue Mar 14 2023 20:36:28 GMT-0400 (Eastern Daylight Time)","390252","Trustworthy,Untrustworthy","html-keyboard-response","151","205330","0.0-11.0-1.47","","613","","<div class='trialDiv'><img src='Fruit/watermelon.png'><br><font class='baseline'><strong>Watermelon Win$</strong><p>Choose number of points to bet.</font><div class='respPicDiv'><img src='img/responseButtonOffersNo0L.png' class='respPic'></div></div>","1","16","Watermelon Win$","Fruit/watermelon.png","Lost","0.2,0.65","11","0.2","245","48","",""
"","","","decisionFB","","63d40583fbdb78bfb9b0d3a4","bdp_rwlrn","Tue Mar 14 2023 20:36:28 GMT-0400 (Eastern Daylight Time)","390252","Trustworthy,Untrustworthy","html-keyboard-response","152","205591","0.0-11.0-2.47","","null","","<div class='trialDiv'><img src='Fruit/watermelon.png'><br><font class='baseline'><strong>Watermelon Win$</strong><p>Choose number of points to bet.</font><div class='respPicDiv'><img src='img/responseButtonOffersNo0L1.png' class='respPic'></div></div>","null","16","Watermelon Win$","Fruit/watermelon.png","Lost","0.2,0.65","11","0.2","244","48","",""
"","","","feedback","","63d40583fbdb78bfb9b0d3a4","bdp_rwlrn","Tue Mar 14 2023 20:36:28 GMT-0400 (Eastern Daylight Time)","390252","Trustworthy,Untrustworthy","html-keyboard-response","153","206608","0.0-11.0-3.47","","null","","<div class='respPicDiv'><img src='img/responseButtonOffersNo0_wht.png' class='respPic'></div><div class='trialDiv'><img src='Fruit/watermelon.png'><br><font class='baseline'><strong>Watermelon Win$</strong><p><strong><font class='negOutcome'>You LOST</font><p>You bet: 1</strong></font> &nbsp; &nbsp; &nbsp; &nbsp; &nbsp; &nbsp;<font class='negOutcome'>You receive: <strong>0</strong></font></div>","null","16","Watermelon Win$","Fruit/watermelon.png","Lost","0.2,0.65","11","0.2","244","48","",""
"","","","decision","","63d40583fbdb78bfb9b0d3a4","bdp_rwlrn","Tue Mar 14 2023 20:36:28 GMT-0400 (Eastern Daylight Time)","390252","Trustworthy,Untrustworthy","html-keyboard-response","154","207330","0.0-11.0-1.48","","721","","<div class='trialDiv'><img src='Fruit/pears.png'><br><font class='baseline'><strong>Pears Aplenty</strong><p>Choose number of points to bet.</font><div class='respPicDiv'><img src='img/responseButtonOffersNo0L.png' class='respPic'></div></div>","5","17","Pears Aplenty","Fruit/pears.png","Won","0.35,0.65","10","0.35","249","49","",""
"","","","decisionFB","","63d40583fbdb78bfb9b0d3a4","bdp_rwlrn","Tue Mar 14 2023 20:36:28 GMT-0400 (Eastern Daylight Time)","390252","Trustworthy,Untrustworthy","html-keyboard-response","155","207592","0.0-11.0-2.48","","null","","<div class='trialDiv'><img src='Fruit/pears.png'><br><font class='baseline'><strong>Pears Aplenty</strong><p>Choose number of points to bet.</font><div class='respPicDiv'><img src='img/responseButtonOffersNo0L5.png' class='respPic'></div></div>","null","17","Pears Aplenty","Fruit/pears.png","Won","0.35,0.65","10","0.35","244","49","",""
"","","","feedback","","63d40583fbdb78bfb9b0d3a4","bdp_rwlrn","Tue Mar 14 2023 20:36:28 GMT-0400 (Eastern Daylight Time)","390252","Trustworthy,Untrustworthy","html-keyboard-response","156","208607","0.0-11.0-3.48","","null","","<div class='respPicDiv'><img src='img/responseButtonOffersNo0_wht.png' class='respPic'></div><div class='trialDiv'><img src='Fruit/pears.png'><br><font class='baseline'><strong>Pears Aplenty</strong><p><strong><font class='posOutcome'>You WON</font><p>You bet: 5</strong></font> &nbsp; &nbsp; &nbsp; &nbsp; &nbsp; &nbsp;<font class='posOutcome'>you receive: <strong>10</strong></font></div>","null","17","Pears Aplenty","Fruit/pears.png","Won","0.35,0.65","10","0.35","254","49","",""
"","","","decision","","63d40583fbdb78bfb9b0d3a4","bdp_rwlrn","Tue Mar 14 2023 20:36:28 GMT-0400 (Eastern Daylight Time)","390252","Trustworthy,Untrustworthy","html-keyboard-response","157","209192","0.0-11.0-1.49","","584","","<div class='trialDiv'><img src='Fruit/watermelon.png'><br><font class='baseline'><strong>Watermelon Win$</strong><p>Choose number of points to bet.</font><div class='respPicDiv'><img src='img/responseButtonOffersNo0L.png' class='respPic'></div></div>","1","17","Watermelon Win$","Fruit/watermelon.png","Lost","0.2,0.65","11","0.2","259","50","",""
"","","","decisionFB","","63d40583fbdb78bfb9b0d3a4","bdp_rwlrn","Tue Mar 14 2023 20:36:28 GMT-0400 (Eastern Daylight Time)","390252","Trustworthy,Untrustworthy","html-keyboard-response","158","209453","0.0-11.0-2.49","","null","","<div class='trialDiv'><img src='Fruit/watermelon.png'><br><font class='baseline'><strong>Watermelon Win$</strong><p>Choose number of points to bet.</font><div class='respPicDiv'><img src='img/responseButtonOffersNo0L1.png' class='respPic'></div></div>","null","17","Watermelon Win$","Fruit/watermelon.png","Lost","0.2,0.65","11","0.2","258","50","",""
"","","","feedback","","63d40583fbdb78bfb9b0d3a4","bdp_rwlrn","Tue Mar 14 2023 20:36:28 GMT-0400 (Eastern Daylight Time)","390252","Trustworthy,Untrustworthy","html-keyboard-response","159","210465","0.0-11.0-3.49","","null","","<div class='respPicDiv'><img src='img/responseButtonOffersNo0_wht.png' class='respPic'></div><div class='trialDiv'><img src='Fruit/watermelon.png'><br><font class='baseline'><strong>Watermelon Win$</strong><p><strong><font class='negOutcome'>You LOST</font><p>You bet: 1</strong></font> &nbsp; &nbsp; &nbsp; &nbsp; &nbsp; &nbsp;<font class='negOutcome'>You receive: <strong>0</strong></font></div>","null","17","Watermelon Win$","Fruit/watermelon.png","Lost","0.2,0.65","11","0.2","258","50","",""
"","","","decision","","63d40583fbdb78bfb9b0d3a4","bdp_rwlrn","Tue Mar 14 2023 20:36:28 GMT-0400 (Eastern Daylight Time)","390252","Trustworthy,Untrustworthy","html-keyboard-response","160","211188","0.0-11.0-1.50","","722","","<div class='trialDiv'><img src='Fruit/mango.png'><br><font class='baseline'><strong>Mega Mangos</strong><p>Choose number of points to bet.</font><div class='respPicDiv'><img src='img/responseButtonOffersNo0L.png' class='respPic'></div></div>","5","17","Mega Mangos","Fruit/mango.png","Lost","0.8,0.35","10","0.8","263","51","",""
"","","","decisionFB","","63d40583fbdb78bfb9b0d3a4","bdp_rwlrn","Tue Mar 14 2023 20:36:28 GMT-0400 (Eastern Daylight Time)","390252","Trustworthy,Untrustworthy","html-keyboard-response","161","211448","0.0-11.0-2.50","","null","","<div class='trialDiv'><img src='Fruit/mango.png'><br><font class='baseline'><strong>Mega Mangos</strong><p>Choose number of points to bet.</font><div class='respPicDiv'><img src='img/responseButtonOffersNo0L5.png' class='respPic'></div></div>","null","17","Mega Mangos","Fruit/mango.png","Lost","0.8,0.35","10","0.8","258","51","",""
