"trial_type","trial_index","time_elapsed","internal_node_id","subject_id","task","startTime","totalTime","labels","view_history","rt","event","trial","time","trialtype","success","stimulus","key_press","ltround","name","fileID","outcome","lottotype","lottoswpt","lottocurrpshare","point_total","round","faceID","face"
"pavlovia","0","2","0.0-0.0","6400de8f305c51d03c2a9a0e","bdp_rwlrn","Sun Mar 12 2023 17:03:21 GMT-0400 (Eastern Daylight Time)","380175","Untrustworthy,Trustworthy","","","","","","","","","","","","","","","","","","","",""
"instructions","1","3036","0.0-1.0","6400de8f305c51d03c2a9a0e","bdp_rwlrn","Sun Mar 12 2023 17:03:21 GMT-0400 (Eastern Daylight Time)","380175","Untrustworthy,Trustworthy","[{""page_index"":0,""viewing_time"":3034}]","3034","","","","","","","","","","","","","","","","","",""
"","","","","6400de8f305c51d03c2a9a0e","bdp_rwlrn","Sun Mar 12 2023 17:03:21 GMT-0400 (Eastern Daylight Time)","380175","Untrustworthy,Trustworthy","","","fullscreenenter","2","7763","fullscreenenter","","","","","","","","","","","","","",""
"fullscreen","2","8766","0.0-2.0","6400de8f305c51d03c2a9a0e","bdp_rwlrn","Sun Mar 12 2023 17:03:21 GMT-0400 (Eastern Daylight Time)","380175","Untrustworthy,Trustworthy","","","","","","","true","","","","","","","","","","","","",""
"instructions","3","60409","0.0-4.0","6400de8f305c51d03c2a9a0e","bdp_rwlrn","Sun Mar 12 2023 17:03:21 GMT-0400 (Eastern Daylight Time)","380175","Untrustworthy,Trustworthy","[{""page_index"":0,""viewing_time"":36805},{""page_index"":1,""viewing_time"":8650},{""page_index"":2,""viewing_time"":1445},{""page_index"":3,""viewing_time"":1439},{""page_index"":4,""viewing_time"":1929},{""page_index"":5,""viewing_time"":1373}]","51642","","","","","","","","","","","","","","","","","",""
"html-keyboard-response","4","63348","0.0-5.0","6400de8f305c51d03c2a9a0e","bdp_rwlrn","Sun Mar 12 2023 17:03:21 GMT-0400 (Eastern Daylight Time)","380175","Untrustworthy,Trustworthy","","2939","","","","","","<div class='header' style='text-align:left; position: absolute; top: 5%; left: 5%;'><small>Task 3 of 5</small></div><div class='instruxDiv'><p><strong>1) What is the maximum number of points you can choose to bet on a lottery?</strong></p><p>a) 0</p><p>b) 1</p><p>c) 5</p>","B","","","","","","","","","","",""
"html-keyboard-response","5","66566","0.0-6.0","6400de8f305c51d03c2a9a0e","bdp_rwlrn","Sun Mar 12 2023 17:03:21 GMT-0400 (Eastern Daylight Time)","380175","Untrustworthy,Trustworthy","","3117","","","","","","<div class='header' style='text-align:left; position: absolute; top: 5%; left: 5%;'><small>Task 3 of 5</small></div><div class='instruxDiv'><p><strong>1) What is the maximum number of points you can choose to bet on a lottery?</strong></p><p>a) 0</p><p style='color:#FF0000'>b) 1</p><p>c) 5</p><h3 style='color:#FF0000'>Incorrect!</h3><h3 class='center-content'>The correct response is c).</h3><h3 class='center-content'>The maximum number of points you can choose to bet on a lottery is 5 points.</h3><p><em>Press SPACEBAR to continue</em></p></div>"," ","","","","","","","","","","",""
"html-keyboard-response","6","78682","0.0-7.0","6400de8f305c51d03c2a9a0e","bdp_rwlrn","Sun Mar 12 2023 17:03:21 GMT-0400 (Eastern Daylight Time)","380175","Untrustworthy,Trustworthy","","12015","","","","","","<div class='header' style='text-align:left; position: absolute; top: 5%; left: 5%;'><small>Task 3 of 5</small></div><div class='instruxDiv'><p><strong>2) How many points can you win each round?</strong></p><p>a) 10 points</p><p>b) Double what you bet</p><p>c) Quadruple what you bet</p>","A","","","","","","","","","","",""
"html-keyboard-response","7","80970","0.0-8.0","6400de8f305c51d03c2a9a0e","bdp_rwlrn","Sun Mar 12 2023 17:03:21 GMT-0400 (Eastern Daylight Time)","380175","Untrustworthy,Trustworthy","","2187","","","","","","<div class='header' style='text-align:left; position: absolute; top: 5%; left: 5%;'><small>Task 3 of 5</small></div><div class='instruxDiv'><p><strong>2) How many points can you win each round?</strong></p><p style='color:#FF0000'>a) 10 points</p><p>b) Double what you bet</p><p>c) Quadruple what you bet</p><h3 style='color:#FF0000'>Incorrect!</h3><h3 class='center-content'>The correct response is b).</h3><h3 class='center-content'>You can win double the amount of points you bet.</h3><p><em>Press SPACEBAR to continue</em></p></div>"," ","","","","","","","","","","",""
"html-keyboard-response","8","86073","0.0-9.0","6400de8f305c51d03c2a9a0e","bdp_rwlrn","Sun Mar 12 2023 17:03:21 GMT-0400 (Eastern Daylight Time)","380175","Untrustworthy,Trustworthy","","null","","","","","","<div class='header' style='text-align:left; position: absolute; top: 5%; left: 5%;'><small>Task 3 of 5</small></div><div class='instruxDiv'><p>Thank you for completing the quiz<p>These are the actual lotteries you will be playing in the next block:<p><div class='tc' align='center'><img class='introPic' src='Fruit/Kiwi.png'><br><strong>Kiwi Kash</strong></div><div class='bl' align='center'><img class='introPic' src='Fruit/apple.png'><br><strong>Awesome Apples</strong></div><div class='br' align='center'><img class='introPic' src='Fruit/orange.png'><br><strong>Odds are Orange</strong></div></div><p>Across <strong>66 rounds</strong> you will play each lottery <strong>22 times</strong> (in random order).<p style='align:center; color:white'><font <em>Press SPACEBAR to continue</em></p>","null","","","","","","","","","","",""
"instructions","9","88008","0.0-10.0","6400de8f305c51d03c2a9a0e","bdp_rwlrn","Sun Mar 12 2023 17:03:21 GMT-0400 (Eastern Daylight Time)","380175","Untrustworthy,Trustworthy","[{""page_index"":0,""viewing_time"":827},{""page_index"":1,""viewing_time"":1108}]","1935","","","","","","","","","","","","","","","","","",""
"html-keyboard-response","10","90717","0.0-11.0-1.0","6400de8f305c51d03c2a9a0e","bdp_rwlrn","Sun Mar 12 2023 17:03:21 GMT-0400 (Eastern Daylight Time)","380175","Untrustworthy,Trustworthy","","2605","","","","decision","","<div class='trialDiv'><img src='Fruit/Kiwi.png'><br><font class='baseline'><strong>Kiwi Kash</strong><p>Choose number of points to bet.</font><div class='respPicDiv'><img src='img/responseButtonOffersNo0L.png' class='respPic'></div></div>","2","1","Kiwi Kash","Fruit/Kiwi.png","Lost","0.65,0.2","9","0.65","5","1","",""
"html-keyboard-response","11","90969","0.0-11.0-2.0","6400de8f305c51d03c2a9a0e","bdp_rwlrn","Sun Mar 12 2023 17:03:21 GMT-0400 (Eastern Daylight Time)","380175","Untrustworthy,Trustworthy","","null","","","","decisionFB","","<div class='trialDiv'><img src='Fruit/Kiwi.png'><br><font class='baseline'><strong>Kiwi Kash</strong><p>Choose number of points to bet.</font><div class='respPicDiv'><img src='img/responseButtonOffersNo0L2.png' class='respPic'></div></div>","null","1","Kiwi Kash","Fruit/Kiwi.png","Lost","0.65,0.2","9","0.65","3","1","",""
"html-keyboard-response","12","91971","0.0-11.0-3.0","6400de8f305c51d03c2a9a0e","bdp_rwlrn","Sun Mar 12 2023 17:03:21 GMT-0400 (Eastern Daylight Time)","380175","Untrustworthy,Trustworthy","","null","","","","feedback","","<div class='respPicDiv'><img src='img/responseButtonOffersNo0_wht.png' class='respPic'></div><div class='trialDiv'><img src='Fruit/Kiwi.png'><br><font class='baseline'><strong>Kiwi Kash</strong><p><strong><font class='negOutcome'>You LOST</font><p>You bet: 2</strong></font> &nbsp; &nbsp; &nbsp; &nbsp; &nbsp; &nbsp;<font class='negOutcome'>You receive: <strong>0</strong></font></div>","null","1","Kiwi Kash","Fruit/Kiwi.png","Lost","0.65,0.2","9","0.65","3","1","",""
"html-keyboard-response","13","92896","0.0-11.0-1.1","6400de8f305c51d03c2a9a0e","bdp_rwlrn","Sun Mar 12 2023 17:03:21 GMT-0400 (Eastern Daylight Time)","380175","Untrustworthy,Trustworthy","","924","","","","decision","","<div class='trialDiv'><img src='Fruit/orange.png'><br><font class='baseline'><strong>Odds are Orange</strong><p>Choose number of points to bet.</font><div class='respPicDiv'><img src='img/responseButtonOffersNo0L.png' class='respPic'></div></div>","3","1","Odds are Orange","Fruit/orange.png","Lost","0.35,0.8","12","0.35","8","2","",""
"html-keyboard-response","14","93147","0.0-11.0-2.1","6400de8f305c51d03c2a9a0e","bdp_rwlrn","Sun Mar 12 2023 17:03:21 GMT-0400 (Eastern Daylight Time)","380175","Untrustworthy,Trustworthy","","null","","","","decisionFB","","<div class='trialDiv'><img src='Fruit/orange.png'><br><font class='baseline'><strong>Odds are Orange</strong><p>Choose number of points to bet.</font><div class='respPicDiv'><img src='img/responseButtonOffersNo0L3.png' class='respPic'></div></div>","null","1","Odds are Orange","Fruit/orange.png","Lost","0.35,0.8","12","0.35","5","2","",""
"html-keyboard-response","15","94155","0.0-11.0-3.1","6400de8f305c51d03c2a9a0e","bdp_rwlrn","Sun Mar 12 2023 17:03:21 GMT-0400 (Eastern Daylight Time)","380175","Untrustworthy,Trustworthy","","null","","","","feedback","","<div class='respPicDiv'><img src='img/responseButtonOffersNo0_wht.png' class='respPic'></div><div class='trialDiv'><img src='Fruit/orange.png'><br><font class='baseline'><strong>Odds are Orange</strong><p><strong><font class='negOutcome'>You LOST</font><p>You bet: 3</strong></font> &nbsp; &nbsp; &nbsp; &nbsp; &nbsp; &nbsp;<font class='negOutcome'>You receive: <strong>0</strong></font></div>","null","1","Odds are Orange","Fruit/orange.png","Lost","0.35,0.8","12","0.35","5","2","",""
"html-keyboard-response","16","94600","0.0-11.0-1.2","6400de8f305c51d03c2a9a0e","bdp_rwlrn","Sun Mar 12 2023 17:03:21 GMT-0400 (Eastern Daylight Time)","380175","Untrustworthy,Trustworthy","","444","","","","decision","","<div class='trialDiv'><img src='Fruit/apple.png'><br><font class='baseline'><strong>Awesome Apples</strong><p>Choose number of points to bet.</font><div class='respPicDiv'><img src='img/responseButtonOffersNo0L.png' class='respPic'></div></div>","1","1","Awesome Apples","Fruit/apple.png","Lost","0.2,0.8","8","0.2","10","3","",""
"html-keyboard-response","17","94851","0.0-11.0-2.2","6400de8f305c51d03c2a9a0e","bdp_rwlrn","Sun Mar 12 2023 17:03:21 GMT-0400 (Eastern Daylight Time)","380175","Untrustworthy,Trustworthy","","null","","","","decisionFB","","<div class='trialDiv'><img src='Fruit/apple.png'><br><font class='baseline'><strong>Awesome Apples</strong><p>Choose number of points to bet.</font><div class='respPicDiv'><img src='img/responseButtonOffersNo0L1.png' class='respPic'></div></div>","null","1","Awesome Apples","Fruit/apple.png","Lost","0.2,0.8","8","0.2","9","3","",""
"html-keyboard-response","18","95853","0.0-11.0-3.2","6400de8f305c51d03c2a9a0e","bdp_rwlrn","Sun Mar 12 2023 17:03:21 GMT-0400 (Eastern Daylight Time)","380175","Untrustworthy,Trustworthy","","null","","","","feedback","","<div class='respPicDiv'><img src='img/responseButtonOffersNo0_wht.png' class='respPic'></div><div class='trialDiv'><img src='Fruit/apple.png'><br><font class='baseline'><strong>Awesome Apples</strong><p><strong><font class='negOutcome'>You LOST</font><p>You bet: 1</strong></font> &nbsp; &nbsp; &nbsp; &nbsp; &nbsp; &nbsp;<font class='negOutcome'>You receive: <strong>0</strong></font></div>","null","1","Awesome Apples","Fruit/apple.png","Lost","0.2,0.8","8","0.2","9","3","",""
"html-keyboard-response","19","96118","0.0-11.0-1.3","6400de8f305c51d03c2a9a0e","bdp_rwlrn","Sun Mar 12 2023 17:03:21 GMT-0400 (Eastern Daylight Time)","380175","Untrustworthy,Trustworthy","","262","","","","decision","","<div class='trialDiv'><img src='Fruit/Kiwi.png'><br><font class='baseline'><strong>Kiwi Kash</strong><p>Choose number of points to bet.</font><div class='respPicDiv'><img src='img/responseButtonOffersNo0L.png' class='respPic'></div></div>","1","2","Kiwi Kash","Fruit/Kiwi.png","Lost","0.65,0.2","9","0.65","14","4","",""
"html-keyboard-response","20","96369","0.0-11.0-2.3","6400de8f305c51d03c2a9a0e","bdp_rwlrn","Sun Mar 12 2023 17:03:21 GMT-0400 (Eastern Daylight Time)","380175","Untrustworthy,Trustworthy","","null","","","","decisionFB","","<div class='trialDiv'><img src='Fruit/Kiwi.png'><br><font class='baseline'><strong>Kiwi Kash</strong><p>Choose number of points to bet.</font><div class='respPicDiv'><img src='img/responseButtonOffersNo0L1.png' class='respPic'></div></div>","null","2","Kiwi Kash","Fruit/Kiwi.png","Lost","0.65,0.2","9","0.65","13","4","",""
"html-keyboard-response","21","97371","0.0-11.0-3.3","6400de8f305c51d03c2a9a0e","bdp_rwlrn","Sun Mar 12 2023 17:03:21 GMT-0400 (Eastern Daylight Time)","380175","Untrustworthy,Trustworthy","","null","","","","feedback","","<div class='respPicDiv'><img src='img/responseButtonOffersNo0_wht.png' class='respPic'></div><div class='trialDiv'><img src='Fruit/Kiwi.png'><br><font class='baseline'><strong>Kiwi Kash</strong><p><strong><font class='negOutcome'>You LOST</font><p>You bet: 1</strong></font> &nbsp; &nbsp; &nbsp; &nbsp; &nbsp; &nbsp;<font class='negOutcome'>You receive: <strong>0</strong></font></div>","null","2","Kiwi Kash","Fruit/Kiwi.png","Lost","0.65,0.2","9","0.65","13","4","",""
"html-keyboard-response","22","97657","0.0-11.0-1.4","6400de8f305c51d03c2a9a0e","bdp_rwlrn","Sun Mar 12 2023 17:03:21 GMT-0400 (Eastern Daylight Time)","380175","Untrustworthy,Trustworthy","","284","","","","decision","","<div class='trialDiv'><img src='Fruit/orange.png'><br><font class='baseline'><strong>Odds are Orange</strong><p>Choose number of points to bet.</font><div class='respPicDiv'><img src='img/responseButtonOffersNo0L.png' class='respPic'></div></div>","1","2","Odds are Orange","Fruit/orange.png","Lost","0.35,0.8","12","0.35","18","5","",""
"html-keyboard-response","23","97907","0.0-11.0-2.4","6400de8f305c51d03c2a9a0e","bdp_rwlrn","Sun Mar 12 2023 17:03:21 GMT-0400 (Eastern Daylight Time)","380175","Untrustworthy,Trustworthy","","null","","","","decisionFB","","<div class='trialDiv'><img src='Fruit/orange.png'><br><font class='baseline'><strong>Odds are Orange</strong><p>Choose number of points to bet.</font><div class='respPicDiv'><img src='img/responseButtonOffersNo0L1.png' class='respPic'></div></div>","null","2","Odds are Orange","Fruit/orange.png","Lost","0.35,0.8","12","0.35","17","5","",""
"html-keyboard-response","24","98910","0.0-11.0-3.4","6400de8f305c51d03c2a9a0e","bdp_rwlrn","Sun Mar 12 2023 17:03:21 GMT-0400 (Eastern Daylight Time)","380175","Untrustworthy,Trustworthy","","null","","","","feedback","","<div class='respPicDiv'><img src='img/responseButtonOffersNo0_wht.png' class='respPic'></div><div class='trialDiv'><img src='Fruit/orange.png'><br><font class='baseline'><strong>Odds are Orange</strong><p><strong><font class='negOutcome'>You LOST</font><p>You bet: 1</strong></font> &nbsp; &nbsp; &nbsp; &nbsp; &nbsp; &nbsp;<font class='negOutcome'>You receive: <strong>0</strong></font></div>","null","2","Odds are Orange","Fruit/orange.png","Lost","0.35,0.8","12","0.35","17","5","",""
"html-keyboard-response","25","99987","0.0-11.0-1.5","6400de8f305c51d03c2a9a0e","bdp_rwlrn","Sun Mar 12 2023 17:03:21 GMT-0400 (Eastern Daylight Time)","380175","Untrustworthy,Trustworthy","","1075","","","","decision","","<div class='trialDiv'><img src='Fruit/apple.png'><br><font class='baseline'><strong>Awesome Apples</strong><p>Choose number of points to bet.</font><div class='respPicDiv'><img src='img/responseButtonOffersNo0L.png' class='respPic'></div></div>","4","2","Awesome Apples","Fruit/apple.png","Won","0.2,0.8","8","0.2","22","6","",""
"html-keyboard-response","26","100238","0.0-11.0-2.5","6400de8f305c51d03c2a9a0e","bdp_rwlrn","Sun Mar 12 2023 17:03:21 GMT-0400 (Eastern Daylight Time)","380175","Untrustworthy,Trustworthy","","null","","","","decisionFB","","<div class='trialDiv'><img src='Fruit/apple.png'><br><font class='baseline'><strong>Awesome Apples</strong><p>Choose number of points to bet.</font><div class='respPicDiv'><img src='img/responseButtonOffersNo0L4.png' class='respPic'></div></div>","null","2","Awesome Apples","Fruit/apple.png","Won","0.2,0.8","8","0.2","18","6","",""
"html-keyboard-response","27","101240","0.0-11.0-3.5","6400de8f305c51d03c2a9a0e","bdp_rwlrn","Sun Mar 12 2023 17:03:21 GMT-0400 (Eastern Daylight Time)","380175","Untrustworthy,Trustworthy","","null","","","","feedback","","<div class='respPicDiv'><img src='img/responseButtonOffersNo0_wht.png' class='respPic'></div><div class='trialDiv'><img src='Fruit/apple.png'><br><font class='baseline'><strong>Awesome Apples</strong><p><strong><font class='posOutcome'>You WON</font><p>You bet: 4</strong></font> &nbsp; &nbsp; &nbsp; &nbsp; &nbsp; &nbsp;<font class='posOutcome'>you receive: <strong>8</strong></font></div>","null","2","Awesome Apples","Fruit/apple.png","Won","0.2,0.8","8","0.2","26","6","",""
"html-keyboard-response","28","101622","0.0-11.0-1.6","6400de8f305c51d03c2a9a0e","bdp_rwlrn","Sun Mar 12 2023 17:03:21 GMT-0400 (Eastern Daylight Time)","380175","Untrustworthy,Trustworthy","","381","","","","decision","","<div class='trialDiv'><img src='Fruit/Kiwi.png'><br><font class='baseline'><strong>Kiwi Kash</strong><p>Choose number of points to bet.</font><div class='respPicDiv'><img src='img/responseButtonOffersNo0L.png' class='respPic'></div></div>","3","3","Kiwi Kash","Fruit/Kiwi.png","Won","0.65,0.2","9","0.65","31","7","",""
"html-keyboard-response","29","101874","0.0-11.0-2.6","6400de8f305c51d03c2a9a0e","bdp_rwlrn","Sun Mar 12 2023 17:03:21 GMT-0400 (Eastern Daylight Time)","380175","Untrustworthy,Trustworthy","","null","","","","decisionFB","","<div class='trialDiv'><img src='Fruit/Kiwi.png'><br><font class='baseline'><strong>Kiwi Kash</strong><p>Choose number of points to bet.</font><div class='respPicDiv'><img src='img/responseButtonOffersNo0L3.png' class='respPic'></div></div>","null","3","Kiwi Kash","Fruit/Kiwi.png","Won","0.65,0.2","9","0.65","28","7","",""
"html-keyboard-response","30","102876","0.0-11.0-3.6","6400de8f305c51d03c2a9a0e","bdp_rwlrn","Sun Mar 12 2023 17:03:21 GMT-0400 (Eastern Daylight Time)","380175","Untrustworthy,Trustworthy","","null","","","","feedback","","<div class='respPicDiv'><img src='img/responseButtonOffersNo0_wht.png' class='respPic'></div><div class='trialDiv'><img src='Fruit/Kiwi.png'><br><font class='baseline'><strong>Kiwi Kash</strong><p><strong><font class='posOutcome'>You WON</font><p>You bet: 3</strong></font> &nbsp; &nbsp; &nbsp; &nbsp; &nbsp; &nbsp;<font class='posOutcome'>you receive: <strong>6</strong></font></div>","null","3","Kiwi Kash","Fruit/Kiwi.png","Won","0.65,0.2","9","0.65","34","7","",""
"html-keyboard-response","31","104172","0.0-11.0-1.7","6400de8f305c51d03c2a9a0e","bdp_rwlrn","Sun Mar 12 2023 17:03:21 GMT-0400 (Eastern Daylight Time)","380175","Untrustworthy,Trustworthy","","1295","","","","decision","","<div class='trialDiv'><img src='Fruit/orange.png'><br><font class='baseline'><strong>Odds are Orange</strong><p>Choose number of points to bet.</font><div class='respPicDiv'><img src='img/responseButtonOffersNo0L.png' class='respPic'></div></div>","5","3","Odds are Orange","Fruit/orange.png","Lost","0.35,0.8","12","0.35","39","8","",""
"html-keyboard-response","32","104424","0.0-11.0-2.7","6400de8f305c51d03c2a9a0e","bdp_rwlrn","Sun Mar 12 2023 17:03:21 GMT-0400 (Eastern Daylight Time)","380175","Untrustworthy,Trustworthy","","null","","","","decisionFB","","<div class='trialDiv'><img src='Fruit/orange.png'><br><font class='baseline'><strong>Odds are Orange</strong><p>Choose number of points to bet.</font><div class='respPicDiv'><img src='img/responseButtonOffersNo0L5.png' class='respPic'></div></div>","null","3","Odds are Orange","Fruit/orange.png","Lost","0.35,0.8","12","0.35","34","8","",""
"html-keyboard-response","33","105426","0.0-11.0-3.7","6400de8f305c51d03c2a9a0e","bdp_rwlrn","Sun Mar 12 2023 17:03:21 GMT-0400 (Eastern Daylight Time)","380175","Untrustworthy,Trustworthy","","null","","","","feedback","","<div class='respPicDiv'><img src='img/responseButtonOffersNo0_wht.png' class='respPic'></div><div class='trialDiv'><img src='Fruit/orange.png'><br><font class='baseline'><strong>Odds are Orange</strong><p><strong><font class='negOutcome'>You LOST</font><p>You bet: 5</strong></font> &nbsp; &nbsp; &nbsp; &nbsp; &nbsp; &nbsp;<font class='negOutcome'>You receive: <strong>0</strong></font></div>","null","3","Odds are Orange","Fruit/orange.png","Lost","0.35,0.8","12","0.35","34","8","",""
"html-keyboard-response","34","105587","0.0-11.0-1.8","6400de8f305c51d03c2a9a0e","bdp_rwlrn","Sun Mar 12 2023 17:03:21 GMT-0400 (Eastern Daylight Time)","380175","Untrustworthy,Trustworthy","","159","","","","decision","","<div class='trialDiv'><img src='Fruit/apple.png'><br><font class='baseline'><strong>Awesome Apples</strong><p>Choose number of points to bet.</font><div class='respPicDiv'><img src='img/responseButtonOffersNo0L.png' class='respPic'></div></div>","3","3","Awesome Apples","Fruit/apple.png","Lost","0.2,0.8","8","0.2","39","9","",""
"html-keyboard-response","35","105838","0.0-11.0-2.8","6400de8f305c51d03c2a9a0e","bdp_rwlrn","Sun Mar 12 2023 17:03:21 GMT-0400 (Eastern Daylight Time)","380175","Untrustworthy,Trustworthy","","null","","","","decisionFB","","<div class='trialDiv'><img src='Fruit/apple.png'><br><font class='baseline'><strong>Awesome Apples</strong><p>Choose number of points to bet.</font><div class='respPicDiv'><img src='img/responseButtonOffersNo0L3.png' class='respPic'></div></div>","null","3","Awesome Apples","Fruit/apple.png","Lost","0.2,0.8","8","0.2","36","9","",""
"html-keyboard-response","36","106840","0.0-11.0-3.8","6400de8f305c51d03c2a9a0e","bdp_rwlrn","Sun Mar 12 2023 17:03:21 GMT-0400 (Eastern Daylight Time)","380175","Untrustworthy,Trustworthy","","null","","","","feedback","","<div class='respPicDiv'><img src='img/responseButtonOffersNo0_wht.png' class='respPic'></div><div class='trialDiv'><img src='Fruit/apple.png'><br><font class='baseline'><strong>Awesome Apples</strong><p><strong><font class='negOutcome'>You LOST</font><p>You bet: 3</strong></font> &nbsp; &nbsp; &nbsp; &nbsp; &nbsp; &nbsp;<font class='negOutcome'>You receive: <strong>0</strong></font></div>","null","3","Awesome Apples","Fruit/apple.png","Lost","0.2,0.8","8","0.2","36","9","",""
"html-keyboard-response","37","107067","0.0-11.0-1.9","6400de8f305c51d03c2a9a0e","bdp_rwlrn","Sun Mar 12 2023 17:03:21 GMT-0400 (Eastern Daylight Time)","380175","Untrustworthy,Trustworthy","","225","","","","decision","","<div class='trialDiv'><img src='Fruit/Kiwi.png'><br><font class='baseline'><strong>Kiwi Kash</strong><p>Choose number of points to bet.</font><div class='respPicDiv'><img src='img/responseButtonOffersNo0L.png' class='respPic'></div></div>","2","4","Kiwi Kash","Fruit/Kiwi.png","Lost","0.65,0.2","9","0.65","41","10","",""
"html-keyboard-response","38","107318","0.0-11.0-2.9","6400de8f305c51d03c2a9a0e","bdp_rwlrn","Sun Mar 12 2023 17:03:21 GMT-0400 (Eastern Daylight Time)","380175","Untrustworthy,Trustworthy","","null","","","","decisionFB","","<div class='trialDiv'><img src='Fruit/Kiwi.png'><br><font class='baseline'><strong>Kiwi Kash</strong><p>Choose number of points to bet.</font><div class='respPicDiv'><img src='img/responseButtonOffersNo0L2.png' class='respPic'></div></div>","null","4","Kiwi Kash","Fruit/Kiwi.png","Lost","0.65,0.2","9","0.65","39","10","",""
"html-keyboard-response","39","108320","0.0-11.0-3.9","6400de8f305c51d03c2a9a0e","bdp_rwlrn","Sun Mar 12 2023 17:03:21 GMT-0400 (Eastern Daylight Time)","380175","Untrustworthy,Trustworthy","","null","","","","feedback","","<div class='respPicDiv'><img src='img/responseButtonOffersNo0_wht.png' class='respPic'></div><div class='trialDiv'><img src='Fruit/Kiwi.png'><br><font class='baseline'><strong>Kiwi Kash</strong><p><strong><font class='negOutcome'>You LOST</font><p>You bet: 2</strong></font> &nbsp; &nbsp; &nbsp; &nbsp; &nbsp; &nbsp;<font class='negOutcome'>You receive: <strong>0</strong></font></div>","null","4","Kiwi Kash","Fruit/Kiwi.png","Lost","0.65,0.2","9","0.65","39","10","",""
"html-keyboard-response","40","108562","0.0-11.0-1.10","6400de8f305c51d03c2a9a0e","bdp_rwlrn","Sun Mar 12 2023 17:03:21 GMT-0400 (Eastern Daylight Time)","380175","Untrustworthy,Trustworthy","","241","","","","decision","","<div class='trialDiv'><img src='Fruit/apple.png'><br><font class='baseline'><strong>Awesome Apples</strong><p>Choose number of points to bet.</font><div class='respPicDiv'><img src='img/responseButtonOffersNo0L.png' class='respPic'></div></div>","3","4","Awesome Apples","Fruit/apple.png","Won","0.2,0.8","8","0.2","44","11","",""
"html-keyboard-response","41","108815","0.0-11.0-2.10","6400de8f305c51d03c2a9a0e","bdp_rwlrn","Sun Mar 12 2023 17:03:21 GMT-0400 (Eastern Daylight Time)","380175","Untrustworthy,Trustworthy","","null","","","","decisionFB","","<div class='trialDiv'><img src='Fruit/apple.png'><br><font class='baseline'><strong>Awesome Apples</strong><p>Choose number of points to bet.</font><div class='respPicDiv'><img src='img/responseButtonOffersNo0L3.png' class='respPic'></div></div>","null","4","Awesome Apples","Fruit/apple.png","Won","0.2,0.8","8","0.2","41","11","",""
"html-keyboard-response","42","109818","0.0-11.0-3.10","6400de8f305c51d03c2a9a0e","bdp_rwlrn","Sun Mar 12 2023 17:03:21 GMT-0400 (Eastern Daylight Time)","380175","Untrustworthy,Trustworthy","","null","","","","feedback","","<div class='respPicDiv'><img src='img/responseButtonOffersNo0_wht.png' class='respPic'></div><div class='trialDiv'><img src='Fruit/apple.png'><br><font class='baseline'><strong>Awesome Apples</strong><p><strong><font class='posOutcome'>You WON</font><p>You bet: 3</strong></font> &nbsp; &nbsp; &nbsp; &nbsp; &nbsp; &nbsp;<font class='posOutcome'>you receive: <strong>6</strong></font></div>","null","4","Awesome Apples","Fruit/apple.png","Won","0.2,0.8","8","0.2","47","11","",""
"html-keyboard-response","43","110734","0.0-11.0-1.11","6400de8f305c51d03c2a9a0e","bdp_rwlrn","Sun Mar 12 2023 17:03:21 GMT-0400 (Eastern Daylight Time)","380175","Untrustworthy,Trustworthy","","915","","","","decision","","<div class='trialDiv'><img src='Fruit/orange.png'><br><font class='baseline'><strong>Odds are Orange</strong><p>Choose number of points to bet.</font><div class='respPicDiv'><img src='img/responseButtonOffersNo0L.png' class='respPic'></div></div>","3","4","Odds are Orange","Fruit/orange.png","Won","0.35,0.8","12","0.35","52","12","",""
"html-keyboard-response","44","110985","0.0-11.0-2.11","6400de8f305c51d03c2a9a0e","bdp_rwlrn","Sun Mar 12 2023 17:03:21 GMT-0400 (Eastern Daylight Time)","380175","Untrustworthy,Trustworthy","","null","","","","decisionFB","","<div class='trialDiv'><img src='Fruit/orange.png'><br><font class='baseline'><strong>Odds are Orange</strong><p>Choose number of points to bet.</font><div class='respPicDiv'><img src='img/responseButtonOffersNo0L3.png' class='respPic'></div></div>","null","4","Odds are Orange","Fruit/orange.png","Won","0.35,0.8","12","0.35","49","12","",""
"html-keyboard-response","45","111987","0.0-11.0-3.11","6400de8f305c51d03c2a9a0e","bdp_rwlrn","Sun Mar 12 2023 17:03:21 GMT-0400 (Eastern Daylight Time)","380175","Untrustworthy,Trustworthy","","null","","","","feedback","","<div class='respPicDiv'><img src='img/responseButtonOffersNo0_wht.png' class='respPic'></div><div class='trialDiv'><img src='Fruit/orange.png'><br><font class='baseline'><strong>Odds are Orange</strong><p><strong><font class='posOutcome'>You WON</font><p>You bet: 3</strong></font> &nbsp; &nbsp; &nbsp; &nbsp; &nbsp; &nbsp;<font class='posOutcome'>you receive: <strong>6</strong></font></div>","null","4","Odds are Orange","Fruit/orange.png","Won","0.35,0.8","12","0.35","55","12","",""
"html-keyboard-response","46","112237","0.0-11.0-1.12","6400de8f305c51d03c2a9a0e","bdp_rwlrn","Sun Mar 12 2023 17:03:21 GMT-0400 (Eastern Daylight Time)","380175","Untrustworthy,Trustworthy","","249","","","","decision","","<div class='trialDiv'><img src='Fruit/Kiwi.png'><br><font class='baseline'><strong>Kiwi Kash</strong><p>Choose number of points to bet.</font><div class='respPicDiv'><img src='img/responseButtonOffersNo0L.png' class='respPic'></div></div>","2","5","Kiwi Kash","Fruit/Kiwi.png","Lost","0.65,0.2","9","0.65","60","13","",""
"html-keyboard-response","47","112489","0.0-11.0-2.12","6400de8f305c51d03c2a9a0e","bdp_rwlrn","Sun Mar 12 2023 17:03:21 GMT-0400 (Eastern Daylight Time)","380175","Untrustworthy,Trustworthy","","null","","","","decisionFB","","<div class='trialDiv'><img src='Fruit/Kiwi.png'><br><font class='baseline'><strong>Kiwi Kash</strong><p>Choose number of points to bet.</font><div class='respPicDiv'><img src='img/responseButtonOffersNo0L2.png' class='respPic'></div></div>","null","5","Kiwi Kash","Fruit/Kiwi.png","Lost","0.65,0.2","9","0.65","58","13","",""
"html-keyboard-response","48","113491","0.0-11.0-3.12","6400de8f305c51d03c2a9a0e","bdp_rwlrn","Sun Mar 12 2023 17:03:21 GMT-0400 (Eastern Daylight Time)","380175","Untrustworthy,Trustworthy","","null","","","","feedback","","<div class='respPicDiv'><img src='img/responseButtonOffersNo0_wht.png' class='respPic'></div><div class='trialDiv'><img src='Fruit/Kiwi.png'><br><font class='baseline'><strong>Kiwi Kash</strong><p><strong><font class='negOutcome'>You LOST</font><p>You bet: 2</strong></font> &nbsp; &nbsp; &nbsp; &nbsp; &nbsp; &nbsp;<font class='negOutcome'>You receive: <strong>0</strong></font></div>","null","5","Kiwi Kash","Fruit/Kiwi.png","Lost","0.65,0.2","9","0.65","58","13","",""
"html-keyboard-response","49","113751","0.0-11.0-1.13","6400de8f305c51d03c2a9a0e","bdp_rwlrn","Sun Mar 12 2023 17:03:21 GMT-0400 (Eastern Daylight Time)","380175","Untrustworthy,Trustworthy","","258","","","","decision","","<div class='trialDiv'><img src='Fruit/apple.png'><br><font class='baseline'><strong>Awesome Apples</strong><p>Choose number of points to bet.</font><div class='respPicDiv'><img src='img/responseButtonOffersNo0L.png' class='respPic'></div></div>","4","5","Awesome Apples","Fruit/apple.png","Lost","0.2,0.8","8","0.2","63","14","",""
"html-keyboard-response","50","114002","0.0-11.0-2.13","6400de8f305c51d03c2a9a0e","bdp_rwlrn","Sun Mar 12 2023 17:03:21 GMT-0400 (Eastern Daylight Time)","380175","Untrustworthy,Trustworthy","","null","","","","decisionFB","","<div class='trialDiv'><img src='Fruit/apple.png'><br><font class='baseline'><strong>Awesome Apples</strong><p>Choose number of points to bet.</font><div class='respPicDiv'><img src='img/responseButtonOffersNo0L4.png' class='respPic'></div></div>","null","5","Awesome Apples","Fruit/apple.png","Lost","0.2,0.8","8","0.2","59","14","",""
"html-keyboard-response","51","115004","0.0-11.0-3.13","6400de8f305c51d03c2a9a0e","bdp_rwlrn","Sun Mar 12 2023 17:03:21 GMT-0400 (Eastern Daylight Time)","380175","Untrustworthy,Trustworthy","","null","","","","feedback","","<div class='respPicDiv'><img src='img/responseButtonOffersNo0_wht.png' class='respPic'></div><div class='trialDiv'><img src='Fruit/apple.png'><br><font class='baseline'><strong>Awesome Apples</strong><p><strong><font class='negOutcome'>You LOST</font><p>You bet: 4</strong></font> &nbsp; &nbsp; &nbsp; &nbsp; &nbsp; &nbsp;<font class='negOutcome'>You receive: <strong>0</strong></font></div>","null","5","Awesome Apples","Fruit/apple.png","Lost","0.2,0.8","8","0.2","59","14","",""
"html-keyboard-response","52","115211","0.0-11.0-1.14","6400de8f305c51d03c2a9a0e","bdp_rwlrn","Sun Mar 12 2023 17:03:21 GMT-0400 (Eastern Daylight Time)","380175","Untrustworthy,Trustworthy","","206","","","","decision","","<div class='trialDiv'><img src='Fruit/orange.png'><br><font class='baseline'><strong>Odds are Orange</strong><p>Choose number of points to bet.</font><div class='respPicDiv'><img src='img/responseButtonOffersNo0L.png' class='respPic'></div></div>","1","5","Odds are Orange","Fruit/orange.png","Lost","0.35,0.8","12","0.35","64","15","",""
"html-keyboard-response","53","115462","0.0-11.0-2.14","6400de8f305c51d03c2a9a0e","bdp_rwlrn","Sun Mar 12 2023 17:03:21 GMT-0400 (Eastern Daylight Time)","380175","Untrustworthy,Trustworthy","","null","","","","decisionFB","","<div class='trialDiv'><img src='Fruit/orange.png'><br><font class='baseline'><strong>Odds are Orange</strong><p>Choose number of points to bet.</font><div class='respPicDiv'><img src='img/responseButtonOffersNo0L1.png' class='respPic'></div></div>","null","5","Odds are Orange","Fruit/orange.png","Lost","0.35,0.8","12","0.35","63","15","",""
"html-keyboard-response","54","116464","0.0-11.0-3.14","6400de8f305c51d03c2a9a0e","bdp_rwlrn","Sun Mar 12 2023 17:03:21 GMT-0400 (Eastern Daylight Time)","380175","Untrustworthy,Trustworthy","","null","","","","feedback","","<div class='respPicDiv'><img src='img/responseButtonOffersNo0_wht.png' class='respPic'></div><div class='trialDiv'><img src='Fruit/orange.png'><br><font class='baseline'><strong>Odds are Orange</strong><p><strong><font class='negOutcome'>You LOST</font><p>You bet: 1</strong></font> &nbsp; &nbsp; &nbsp; &nbsp; &nbsp; &nbsp;<font class='negOutcome'>You receive: <strong>0</strong></font></div>","null","5","Odds are Orange","Fruit/orange.png","Lost","0.35,0.8","12","0.35","63","15","",""
"html-keyboard-response","55","116466","0.0-11.0-1.15","6400de8f305c51d03c2a9a0e","bdp_rwlrn","Sun Mar 12 2023 17:03:21 GMT-0400 (Eastern Daylight Time)","380175","Untrustworthy,Trustworthy","","2","","","","decision","","<div class='trialDiv'><img src='Fruit/Kiwi.png'><br><font class='baseline'><strong>Kiwi Kash</strong><p>Choose number of points to bet.</font><div class='respPicDiv'><img src='img/responseButtonOffersNo0L.png' class='respPic'></div></div>","3","6","Kiwi Kash","Fruit/Kiwi.png","Won","0.65,0.2","9","0.65","68","16","",""
"html-keyboard-response","56","116717","0.0-11.0-2.15","6400de8f305c51d03c2a9a0e","bdp_rwlrn","Sun Mar 12 2023 17:03:21 GMT-0400 (Eastern Daylight Time)","380175","Untrustworthy,Trustworthy","","null","","","","decisionFB","","<div class='trialDiv'><img src='Fruit/Kiwi.png'><br><font class='baseline'><strong>Kiwi Kash</strong><p>Choose number of points to bet.</font><div class='respPicDiv'><img src='img/responseButtonOffersNo0L3.png' class='respPic'></div></div>","null","6","Kiwi Kash","Fruit/Kiwi.png","Won","0.65,0.2","9","0.65","65","16","",""
"html-keyboard-response","57","117719","0.0-11.0-3.15","6400de8f305c51d03c2a9a0e","bdp_rwlrn","Sun Mar 12 2023 17:03:21 GMT-0400 (Eastern Daylight Time)","380175","Untrustworthy,Trustworthy","","null","","","","feedback","","<div class='respPicDiv'><img src='img/responseButtonOffersNo0_wht.png' class='respPic'></div><div class='trialDiv'><img src='Fruit/Kiwi.png'><br><font class='baseline'><strong>Kiwi Kash</strong><p><strong><font class='posOutcome'>You WON</font><p>You bet: 3</strong></font> &nbsp; &nbsp; &nbsp; &nbsp; &nbsp; &nbsp;<font class='posOutcome'>you receive: <strong>6</strong></font></div>","null","6","Kiwi Kash","Fruit/Kiwi.png","Won","0.65,0.2","9","0.65","71","16","",""
"html-keyboard-response","58","118245","0.0-11.0-1.16","6400de8f305c51d03c2a9a0e","bdp_rwlrn","Sun Mar 12 2023 17:03:21 GMT-0400 (Eastern Daylight Time)","380175","Untrustworthy,Trustworthy","","525","","","","decision","","<div class='trialDiv'><img src='Fruit/apple.png'><br><font class='baseline'><strong>Awesome Apples</strong><p>Choose number of points to bet.</font><div class='respPicDiv'><img src='img/responseButtonOffersNo0L.png' class='respPic'></div></div>","2","6","Awesome Apples","Fruit/apple.png","Lost","0.2,0.8","8","0.2","76","17","",""
"html-keyboard-response","59","118500","0.0-11.0-2.16","6400de8f305c51d03c2a9a0e","bdp_rwlrn","Sun Mar 12 2023 17:03:21 GMT-0400 (Eastern Daylight Time)","380175","Untrustworthy,Trustworthy","","null","","","","decisionFB","","<div class='trialDiv'><img src='Fruit/apple.png'><br><font class='baseline'><strong>Awesome Apples</strong><p>Choose number of points to bet.</font><div class='respPicDiv'><img src='img/responseButtonOffersNo0L2.png' class='respPic'></div></div>","null","6","Awesome Apples","Fruit/apple.png","Lost","0.2,0.8","8","0.2","74","17","",""
"html-keyboard-response","60","119501","0.0-11.0-3.16","6400de8f305c51d03c2a9a0e","bdp_rwlrn","Sun Mar 12 2023 17:03:21 GMT-0400 (Eastern Daylight Time)","380175","Untrustworthy,Trustworthy","","null","","","","feedback","","<div class='respPicDiv'><img src='img/responseButtonOffersNo0_wht.png' class='respPic'></div><div class='trialDiv'><img src='Fruit/apple.png'><br><font class='baseline'><strong>Awesome Apples</strong><p><strong><font class='negOutcome'>You LOST</font><p>You bet: 2</strong></font> &nbsp; &nbsp; &nbsp; &nbsp; &nbsp; &nbsp;<font class='negOutcome'>You receive: <strong>0</strong></font></div>","null","6","Awesome Apples","Fruit/apple.png","Lost","0.2,0.8","8","0.2","74","17","",""
"html-keyboard-response","61","119722","0.0-11.0-1.17","6400de8f305c51d03c2a9a0e","bdp_rwlrn","Sun Mar 12 2023 17:03:21 GMT-0400 (Eastern Daylight Time)","380175","Untrustworthy,Trustworthy","","220","","","","decision","","<div class='trialDiv'><img src='Fruit/orange.png'><br><font class='baseline'><strong>Odds are Orange</strong><p>Choose number of points to bet.</font><div class='respPicDiv'><img src='img/responseButtonOffersNo0L.png' class='respPic'></div></div>","3","6","Odds are Orange","Fruit/orange.png","Lost","0.35,0.8","12","0.35","79","18","",""
"html-keyboard-response","62","119975","0.0-11.0-2.17","6400de8f305c51d03c2a9a0e","bdp_rwlrn","Sun Mar 12 2023 17:03:21 GMT-0400 (Eastern Daylight Time)","380175","Untrustworthy,Trustworthy","","null","","","","decisionFB","","<div class='trialDiv'><img src='Fruit/orange.png'><br><font class='baseline'><strong>Odds are Orange</strong><p>Choose number of points to bet.</font><div class='respPicDiv'><img src='img/responseButtonOffersNo0L3.png' class='respPic'></div></div>","null","6","Odds are Orange","Fruit/orange.png","Lost","0.35,0.8","12","0.35","76","18","",""
"html-keyboard-response","63","120977","0.0-11.0-3.17","6400de8f305c51d03c2a9a0e","bdp_rwlrn","Sun Mar 12 2023 17:03:21 GMT-0400 (Eastern Daylight Time)","380175","Untrustworthy,Trustworthy","","null","","","","feedback","","<div class='respPicDiv'><img src='img/responseButtonOffersNo0_wht.png' class='respPic'></div><div class='trialDiv'><img src='Fruit/orange.png'><br><font class='baseline'><strong>Odds are Orange</strong><p><strong><font class='negOutcome'>You LOST</font><p>You bet: 3</strong></font> &nbsp; &nbsp; &nbsp; &nbsp; &nbsp; &nbsp;<font class='negOutcome'>You receive: <strong>0</strong></font></div>","null","6","Odds are Orange","Fruit/orange.png","Lost","0.35,0.8","12","0.35","76","18","",""
"html-keyboard-response","64","121143","0.0-11.0-1.18","6400de8f305c51d03c2a9a0e","bdp_rwlrn","Sun Mar 12 2023 17:03:21 GMT-0400 (Eastern Daylight Time)","380175","Untrustworthy,Trustworthy","","164","","","","decision","","<div class='trialDiv'><img src='Fruit/apple.png'><br><font class='baseline'><strong>Awesome Apples</strong><p>Choose number of points to bet.</font><div class='respPicDiv'><img src='img/responseButtonOffersNo0L.png' class='respPic'></div></div>","1","7","Awesome Apples","Fruit/apple.png","Lost","0.2,0.8","8","0.2","81","19","",""
"html-keyboard-response","65","121394","0.0-11.0-2.18","6400de8f305c51d03c2a9a0e","bdp_rwlrn","Sun Mar 12 2023 17:03:21 GMT-0400 (Eastern Daylight Time)","380175","Untrustworthy,Trustworthy","","null","","","","decisionFB","","<div class='trialDiv'><img src='Fruit/apple.png'><br><font class='baseline'><strong>Awesome Apples</strong><p>Choose number of points to bet.</font><div class='respPicDiv'><img src='img/responseButtonOffersNo0L1.png' class='respPic'></div></div>","null","7","Awesome Apples","Fruit/apple.png","Lost","0.2,0.8","8","0.2","80","19","",""
"html-keyboard-response","66","122396","0.0-11.0-3.18","6400de8f305c51d03c2a9a0e","bdp_rwlrn","Sun Mar 12 2023 17:03:21 GMT-0400 (Eastern Daylight Time)","380175","Untrustworthy,Trustworthy","","null","","","","feedback","","<div class='respPicDiv'><img src='img/responseButtonOffersNo0_wht.png' class='respPic'></div><div class='trialDiv'><img src='Fruit/apple.png'><br><font class='baseline'><strong>Awesome Apples</strong><p><strong><font class='negOutcome'>You LOST</font><p>You bet: 1</strong></font> &nbsp; &nbsp; &nbsp; &nbsp; &nbsp; &nbsp;<font class='negOutcome'>You receive: <strong>0</strong></font></div>","null","7","Awesome Apples","Fruit/apple.png","Lost","0.2,0.8","8","0.2","80","19","",""
"html-keyboard-response","67","122657","0.0-11.0-1.19","6400de8f305c51d03c2a9a0e","bdp_rwlrn","Sun Mar 12 2023 17:03:21 GMT-0400 (Eastern Daylight Time)","380175","Untrustworthy,Trustworthy","","260","","","","decision","","<div class='trialDiv'><img src='Fruit/Kiwi.png'><br><font class='baseline'><strong>Kiwi Kash</strong><p>Choose number of points to bet.</font><div class='respPicDiv'><img src='img/responseButtonOffersNo0L.png' class='respPic'></div></div>","2","7","Kiwi Kash","Fruit/Kiwi.png","Won","0.65,0.2","9","0.65","85","20","",""
"html-keyboard-response","68","122908","0.0-11.0-2.19","6400de8f305c51d03c2a9a0e","bdp_rwlrn","Sun Mar 12 2023 17:03:21 GMT-0400 (Eastern Daylight Time)","380175","Untrustworthy,Trustworthy","","null","","","","decisionFB","","<div class='trialDiv'><img src='Fruit/Kiwi.png'><br><font class='baseline'><strong>Kiwi Kash</strong><p>Choose number of points to bet.</font><div class='respPicDiv'><img src='img/responseButtonOffersNo0L2.png' class='respPic'></div></div>","null","7","Kiwi Kash","Fruit/Kiwi.png","Won","0.65,0.2","9","0.65","83","20","",""
"html-keyboard-response","69","123911","0.0-11.0-3.19","6400de8f305c51d03c2a9a0e","bdp_rwlrn","Sun Mar 12 2023 17:03:21 GMT-0400 (Eastern Daylight Time)","380175","Untrustworthy,Trustworthy","","null","","","","feedback","","<div class='respPicDiv'><img src='img/responseButtonOffersNo0_wht.png' class='respPic'></div><div class='trialDiv'><img src='Fruit/Kiwi.png'><br><font class='baseline'><strong>Kiwi Kash</strong><p><strong><font class='posOutcome'>You WON</font><p>You bet: 2</strong></font> &nbsp; &nbsp; &nbsp; &nbsp; &nbsp; &nbsp;<font class='posOutcome'>you receive: <strong>4</strong></font></div>","null","7","Kiwi Kash","Fruit/Kiwi.png","Won","0.65,0.2","9","0.65","87","20","",""
"html-keyboard-response","70","124115","0.0-11.0-1.20","6400de8f305c51d03c2a9a0e","bdp_rwlrn","Sun Mar 12 2023 17:03:21 GMT-0400 (Eastern Daylight Time)","380175","Untrustworthy,Trustworthy","","203","","","","decision","","<div class='trialDiv'><img src='Fruit/orange.png'><br><font class='baseline'><strong>Odds are Orange</strong><p>Choose number of points to bet.</font><div class='respPicDiv'><img src='img/responseButtonOffersNo0L.png' class='respPic'></div></div>","4","7","Odds are Orange","Fruit/orange.png","Won","0.35,0.8","12","0.35","92","21","",""
"html-keyboard-response","71","124366","0.0-11.0-2.20","6400de8f305c51d03c2a9a0e","bdp_rwlrn","Sun Mar 12 2023 17:03:21 GMT-0400 (Eastern Daylight Time)","380175","Untrustworthy,Trustworthy","","null","","","","decisionFB","","<div class='trialDiv'><img src='Fruit/orange.png'><br><font class='baseline'><strong>Odds are Orange</strong><p>Choose number of points to bet.</font><div class='respPicDiv'><img src='img/responseButtonOffersNo0L4.png' class='respPic'></div></div>","null","7","Odds are Orange","Fruit/orange.png","Won","0.35,0.8","12","0.35","88","21","",""
"html-keyboard-response","72","125369","0.0-11.0-3.20","6400de8f305c51d03c2a9a0e","bdp_rwlrn","Sun Mar 12 2023 17:03:21 GMT-0400 (Eastern Daylight Time)","380175","Untrustworthy,Trustworthy","","null","","","","feedback","","<div class='respPicDiv'><img src='img/responseButtonOffersNo0_wht.png' class='respPic'></div><div class='trialDiv'><img src='Fruit/orange.png'><br><font class='baseline'><strong>Odds are Orange</strong><p><strong><font class='posOutcome'>You WON</font><p>You bet: 4</strong></font> &nbsp; &nbsp; &nbsp; &nbsp; &nbsp; &nbsp;<font class='posOutcome'>you receive: <strong>8</strong></font></div>","null","7","Odds are Orange","Fruit/orange.png","Won","0.35,0.8","12","0.35","96","21","",""
"html-keyboard-response","73","125640","0.0-11.0-1.21","6400de8f305c51d03c2a9a0e","bdp_rwlrn","Sun Mar 12 2023 17:03:21 GMT-0400 (Eastern Daylight Time)","380175","Untrustworthy,Trustworthy","","270","","","","decision","","<div class='trialDiv'><img src='Fruit/Kiwi.png'><br><font class='baseline'><strong>Kiwi Kash</strong><p>Choose number of points to bet.</font><div class='respPicDiv'><img src='img/responseButtonOffersNo0L.png' class='respPic'></div></div>","5","8","Kiwi Kash","Fruit/Kiwi.png","Won","0.65,0.2","9","0.65","101","22","",""
"html-keyboard-response","74","125892","0.0-11.0-2.21","6400de8f305c51d03c2a9a0e","bdp_rwlrn","Sun Mar 12 2023 17:03:21 GMT-0400 (Eastern Daylight Time)","380175","Untrustworthy,Trustworthy","","null","","","","decisionFB","","<div class='trialDiv'><img src='Fruit/Kiwi.png'><br><font class='baseline'><strong>Kiwi Kash</strong><p>Choose number of points to bet.</font><div class='respPicDiv'><img src='img/responseButtonOffersNo0L5.png' class='respPic'></div></div>","null","8","Kiwi Kash","Fruit/Kiwi.png","Won","0.65,0.2","9","0.65","96","22","",""
"html-keyboard-response","75","126894","0.0-11.0-3.21","6400de8f305c51d03c2a9a0e","bdp_rwlrn","Sun Mar 12 2023 17:03:21 GMT-0400 (Eastern Daylight Time)","380175","Untrustworthy,Trustworthy","","null","","","","feedback","","<div class='respPicDiv'><img src='img/responseButtonOffersNo0_wht.png' class='respPic'></div><div class='trialDiv'><img src='Fruit/Kiwi.png'><br><font class='baseline'><strong>Kiwi Kash</strong><p><strong><font class='posOutcome'>You WON</font><p>You bet: 5</strong></font> &nbsp; &nbsp; &nbsp; &nbsp; &nbsp; &nbsp;<font class='posOutcome'>you receive: <strong>10</strong></font></div>","null","8","Kiwi Kash","Fruit/Kiwi.png","Won","0.65,0.2","9","0.65","106","22","",""
"html-keyboard-response","76","127757","0.0-11.0-1.22","6400de8f305c51d03c2a9a0e","bdp_rwlrn","Sun Mar 12 2023 17:03:21 GMT-0400 (Eastern Daylight Time)","380175","Untrustworthy,Trustworthy","","862","","","","decision","","<div class='trialDiv'><img src='Fruit/orange.png'><br><font class='baseline'><strong>Odds are Orange</strong><p>Choose number of points to bet.</font><div class='respPicDiv'><img src='img/responseButtonOffersNo0L.png' class='respPic'></div></div>","3","8","Odds are Orange","Fruit/orange.png","Lost","0.35,0.8","12","0.35","111","23","",""
"html-keyboard-response","77","128008","0.0-11.0-2.22","6400de8f305c51d03c2a9a0e","bdp_rwlrn","Sun Mar 12 2023 17:03:21 GMT-0400 (Eastern Daylight Time)","380175","Untrustworthy,Trustworthy","","null","","","","decisionFB","","<div class='trialDiv'><img src='Fruit/orange.png'><br><font class='baseline'><strong>Odds are Orange</strong><p>Choose number of points to bet.</font><div class='respPicDiv'><img src='img/responseButtonOffersNo0L3.png' class='respPic'></div></div>","null","8","Odds are Orange","Fruit/orange.png","Lost","0.35,0.8","12","0.35","108","23","",""
"html-keyboard-response","78","129010","0.0-11.0-3.22","6400de8f305c51d03c2a9a0e","bdp_rwlrn","Sun Mar 12 2023 17:03:21 GMT-0400 (Eastern Daylight Time)","380175","Untrustworthy,Trustworthy","","null","","","","feedback","","<div class='respPicDiv'><img src='img/responseButtonOffersNo0_wht.png' class='respPic'></div><div class='trialDiv'><img src='Fruit/orange.png'><br><font class='baseline'><strong>Odds are Orange</strong><p><strong><font class='negOutcome'>You LOST</font><p>You bet: 3</strong></font> &nbsp; &nbsp; &nbsp; &nbsp; &nbsp; &nbsp;<font class='negOutcome'>You receive: <strong>0</strong></font></div>","null","8","Odds are Orange","Fruit/orange.png","Lost","0.35,0.8","12","0.35","108","23","",""
"html-keyboard-response","79","129718","0.0-11.0-1.23","6400de8f305c51d03c2a9a0e","bdp_rwlrn","Sun Mar 12 2023 17:03:21 GMT-0400 (Eastern Daylight Time)","380175","Untrustworthy,Trustworthy","","706","","","","decision","","<div class='trialDiv'><img src='Fruit/apple.png'><br><font class='baseline'><strong>Awesome Apples</strong><p>Choose number of points to bet.</font><div class='respPicDiv'><img src='img/responseButtonOffersNo0L.png' class='respPic'></div></div>","2","8","Awesome Apples","Fruit/apple.png","Lost","0.2,0.8","8","0.2","113","24","",""
"html-keyboard-response","80","129969","0.0-11.0-2.23","6400de8f305c51d03c2a9a0e","bdp_rwlrn","Sun Mar 12 2023 17:03:21 GMT-0400 (Eastern Daylight Time)","380175","Untrustworthy,Trustworthy","","null","","","","decisionFB","","<div class='trialDiv'><img src='Fruit/apple.png'><br><font class='baseline'><strong>Awesome Apples</strong><p>Choose number of points to bet.</font><div class='respPicDiv'><img src='img/responseButtonOffersNo0L2.png' class='respPic'></div></div>","null","8","Awesome Apples","Fruit/apple.png","Lost","0.2,0.8","8","0.2","111","24","",""
"html-keyboard-response","81","130970","0.0-11.0-3.23","6400de8f305c51d03c2a9a0e","bdp_rwlrn","Sun Mar 12 2023 17:03:21 GMT-0400 (Eastern Daylight Time)","380175","Untrustworthy,Trustworthy","","null","","","","feedback","","<div class='respPicDiv'><img src='img/responseButtonOffersNo0_wht.png' class='respPic'></div><div class='trialDiv'><img src='Fruit/apple.png'><br><font class='baseline'><strong>Awesome Apples</strong><p><strong><font class='negOutcome'>You LOST</font><p>You bet: 2</strong></font> &nbsp; &nbsp; &nbsp; &nbsp; &nbsp; &nbsp;<font class='negOutcome'>You receive: <strong>0</strong></font></div>","null","8","Awesome Apples","Fruit/apple.png","Lost","0.2,0.8","8","0.2","111","24","",""
"html-keyboard-response","82","131497","0.0-11.0-1.24","6400de8f305c51d03c2a9a0e","bdp_rwlrn","Sun Mar 12 2023 17:03:21 GMT-0400 (Eastern Daylight Time)","380175","Untrustworthy,Trustworthy","","526","","","","decision","","<div class='trialDiv'><img src='Fruit/Kiwi.png'><br><font class='baseline'><strong>Kiwi Kash</strong><p>Choose number of points to bet.</font><div class='respPicDiv'><img src='img/responseButtonOffersNo0L.png' class='respPic'></div></div>","5","9","Kiwi Kash","Fruit/Kiwi.png","Lost","0.65,0.2","9","0.65","116","25","",""
"html-keyboard-response","83","131749","0.0-11.0-2.24","6400de8f305c51d03c2a9a0e","bdp_rwlrn","Sun Mar 12 2023 17:03:21 GMT-0400 (Eastern Daylight Time)","380175","Untrustworthy,Trustworthy","","null","","","","decisionFB","","<div class='trialDiv'><img src='Fruit/Kiwi.png'><br><font class='baseline'><strong>Kiwi Kash</strong><p>Choose number of points to bet.</font><div class='respPicDiv'><img src='img/responseButtonOffersNo0L5.png' class='respPic'></div></div>","null","9","Kiwi Kash","Fruit/Kiwi.png","Lost","0.65,0.2","9","0.65","111","25","",""
"html-keyboard-response","84","132752","0.0-11.0-3.24","6400de8f305c51d03c2a9a0e","bdp_rwlrn","Sun Mar 12 2023 17:03:21 GMT-0400 (Eastern Daylight Time)","380175","Untrustworthy,Trustworthy","","null","","","","feedback","","<div class='respPicDiv'><img src='img/responseButtonOffersNo0_wht.png' class='respPic'></div><div class='trialDiv'><img src='Fruit/Kiwi.png'><br><font class='baseline'><strong>Kiwi Kash</strong><p><strong><font class='negOutcome'>You LOST</font><p>You bet: 5</strong></font> &nbsp; &nbsp; &nbsp; &nbsp; &nbsp; &nbsp;<font class='negOutcome'>You receive: <strong>0</strong></font></div>","null","9","Kiwi Kash","Fruit/Kiwi.png","Lost","0.65,0.2","9","0.65","111","25","",""
"html-keyboard-response","85","133525","0.0-11.0-1.25","6400de8f305c51d03c2a9a0e","bdp_rwlrn","Sun Mar 12 2023 17:03:21 GMT-0400 (Eastern Daylight Time)","380175","Untrustworthy,Trustworthy","","772","","","","decision","","<div class='trialDiv'><img src='Fruit/orange.png'><br><font class='baseline'><strong>Odds are Orange</strong><p>Choose number of points to bet.</font><div class='respPicDiv'><img src='img/responseButtonOffersNo0L.png' class='respPic'></div></div>","3","9","Odds are Orange","Fruit/orange.png","Won","0.35,0.8","12","0.35","116","26","",""
"html-keyboard-response","86","133777","0.0-11.0-2.25","6400de8f305c51d03c2a9a0e","bdp_rwlrn","Sun Mar 12 2023 17:03:21 GMT-0400 (Eastern Daylight Time)","380175","Untrustworthy,Trustworthy","","null","","","","decisionFB","","<div class='trialDiv'><img src='Fruit/orange.png'><br><font class='baseline'><strong>Odds are Orange</strong><p>Choose number of points to bet.</font><div class='respPicDiv'><img src='img/responseButtonOffersNo0L3.png' class='respPic'></div></div>","null","9","Odds are Orange","Fruit/orange.png","Won","0.35,0.8","12","0.35","113","26","",""
"html-keyboard-response","87","134779","0.0-11.0-3.25","6400de8f305c51d03c2a9a0e","bdp_rwlrn","Sun Mar 12 2023 17:03:21 GMT-0400 (Eastern Daylight Time)","380175","Untrustworthy,Trustworthy","","null","","","","feedback","","<div class='respPicDiv'><img src='img/responseButtonOffersNo0_wht.png' class='respPic'></div><div class='trialDiv'><img src='Fruit/orange.png'><br><font class='baseline'><strong>Odds are Orange</strong><p><strong><font class='posOutcome'>You WON</font><p>You bet: 3</strong></font> &nbsp; &nbsp; &nbsp; &nbsp; &nbsp; &nbsp;<font class='posOutcome'>you receive: <strong>6</strong></font></div>","null","9","Odds are Orange","Fruit/orange.png","Won","0.35,0.8","12","0.35","119","26","",""
"html-keyboard-response","88","136154","0.0-11.0-1.26","6400de8f305c51d03c2a9a0e","bdp_rwlrn","Sun Mar 12 2023 17:03:21 GMT-0400 (Eastern Daylight Time)","380175","Untrustworthy,Trustworthy","","1374","","","","decision","","<div class='trialDiv'><img src='Fruit/apple.png'><br><font class='baseline'><strong>Awesome Apples</strong><p>Choose number of points to bet.</font><div class='respPicDiv'><img src='img/responseButtonOffersNo0L.png' class='respPic'></div></div>","4","9","Awesome Apples","Fruit/apple.png","Lost","0.2,0.8","8","0.2","124","27","",""
"html-keyboard-response","89","136406","0.0-11.0-2.26","6400de8f305c51d03c2a9a0e","bdp_rwlrn","Sun Mar 12 2023 17:03:21 GMT-0400 (Eastern Daylight Time)","380175","Untrustworthy,Trustworthy","","null","","","","decisionFB","","<div class='trialDiv'><img src='Fruit/apple.png'><br><font class='baseline'><strong>Awesome Apples</strong><p>Choose number of points to bet.</font><div class='respPicDiv'><img src='img/responseButtonOffersNo0L4.png' class='respPic'></div></div>","null","9","Awesome Apples","Fruit/apple.png","Lost","0.2,0.8","8","0.2","120","27","",""
"html-keyboard-response","90","137407","0.0-11.0-3.26","6400de8f305c51d03c2a9a0e","bdp_rwlrn","Sun Mar 12 2023 17:03:21 GMT-0400 (Eastern Daylight Time)","380175","Untrustworthy,Trustworthy","","null","","","","feedback","","<div class='respPicDiv'><img src='img/responseButtonOffersNo0_wht.png' class='respPic'></div><div class='trialDiv'><img src='Fruit/apple.png'><br><font class='baseline'><strong>Awesome Apples</strong><p><strong><font class='negOutcome'>You LOST</font><p>You bet: 4</strong></font> &nbsp; &nbsp; &nbsp; &nbsp; &nbsp; &nbsp;<font class='negOutcome'>You receive: <strong>0</strong></font></div>","null","9","Awesome Apples","Fruit/apple.png","Lost","0.2,0.8","8","0.2","120","27","",""
"html-keyboard-response","91","138313","0.0-11.0-1.27","6400de8f305c51d03c2a9a0e","bdp_rwlrn","Sun Mar 12 2023 17:03:21 GMT-0400 (Eastern Daylight Time)","380175","Untrustworthy,Trustworthy","","904","","","","decision","","<div class='trialDiv'><img src='Fruit/Kiwi.png'><br><font class='baseline'><strong>Kiwi Kash</strong><p>Choose number of points to bet.</font><div class='respPicDiv'><img src='img/responseButtonOffersNo0L.png' class='respPic'></div></div>","3","10","Kiwi Kash","Fruit/Kiwi.png","Lost","0.65,0.2","9","0.65","125","28","",""
"html-keyboard-response","92","138564","0.0-11.0-2.27","6400de8f305c51d03c2a9a0e","bdp_rwlrn","Sun Mar 12 2023 17:03:21 GMT-0400 (Eastern Daylight Time)","380175","Untrustworthy,Trustworthy","","null","","","","decisionFB","","<div class='trialDiv'><img src='Fruit/Kiwi.png'><br><font class='baseline'><strong>Kiwi Kash</strong><p>Choose number of points to bet.</font><div class='respPicDiv'><img src='img/responseButtonOffersNo0L3.png' class='respPic'></div></div>","null","10","Kiwi Kash","Fruit/Kiwi.png","Lost","0.65,0.2","9","0.65","122","28","",""
"html-keyboard-response","93","139565","0.0-11.0-3.27","6400de8f305c51d03c2a9a0e","bdp_rwlrn","Sun Mar 12 2023 17:03:21 GMT-0400 (Eastern Daylight Time)","380175","Untrustworthy,Trustworthy","","null","","","","feedback","","<div class='respPicDiv'><img src='img/responseButtonOffersNo0_wht.png' class='respPic'></div><div class='trialDiv'><img src='Fruit/Kiwi.png'><br><font class='baseline'><strong>Kiwi Kash</strong><p><strong><font class='negOutcome'>You LOST</font><p>You bet: 3</strong></font> &nbsp; &nbsp; &nbsp; &nbsp; &nbsp; &nbsp;<font class='negOutcome'>You receive: <strong>0</strong></font></div>","null","10","Kiwi Kash","Fruit/Kiwi.png","Lost","0.65,0.2","9","0.65","122","28","",""
"html-keyboard-response","94","140028","0.0-11.0-1.28","6400de8f305c51d03c2a9a0e","bdp_rwlrn","Sun Mar 12 2023 17:03:21 GMT-0400 (Eastern Daylight Time)","380175","Untrustworthy,Trustworthy","","463","","","","decision","","<div class='trialDiv'><img src='Fruit/orange.png'><br><font class='baseline'><strong>Odds are Orange</strong><p>Choose number of points to bet.</font><div class='respPicDiv'><img src='img/responseButtonOffersNo0L.png' class='respPic'></div></div>","2","10","Odds are Orange","Fruit/orange.png","Won","0.35,0.8","12","0.35","127","29","",""
"html-keyboard-response","95","140279","0.0-11.0-2.28","6400de8f305c51d03c2a9a0e","bdp_rwlrn","Sun Mar 12 2023 17:03:21 GMT-0400 (Eastern Daylight Time)","380175","Untrustworthy,Trustworthy","","null","","","","decisionFB","","<div class='trialDiv'><img src='Fruit/orange.png'><br><font class='baseline'><strong>Odds are Orange</strong><p>Choose number of points to bet.</font><div class='respPicDiv'><img src='img/responseButtonOffersNo0L2.png' class='respPic'></div></div>","null","10","Odds are Orange","Fruit/orange.png","Won","0.35,0.8","12","0.35","125","29","",""
"html-keyboard-response","96","141281","0.0-11.0-3.28","6400de8f305c51d03c2a9a0e","bdp_rwlrn","Sun Mar 12 2023 17:03:21 GMT-0400 (Eastern Daylight Time)","380175","Untrustworthy,Trustworthy","","null","","","","feedback","","<div class='respPicDiv'><img src='img/responseButtonOffersNo0_wht.png' class='respPic'></div><div class='trialDiv'><img src='Fruit/orange.png'><br><font class='baseline'><strong>Odds are Orange</strong><p><strong><font class='posOutcome'>You WON</font><p>You bet: 2</strong></font> &nbsp; &nbsp; &nbsp; &nbsp; &nbsp; &nbsp;<font class='posOutcome'>you receive: <strong>4</strong></font></div>","null","10","Odds are Orange","Fruit/orange.png","Won","0.35,0.8","12","0.35","129","29","",""
"html-keyboard-response","97","142320","0.0-11.0-1.29","6400de8f305c51d03c2a9a0e","bdp_rwlrn","Sun Mar 12 2023 17:03:21 GMT-0400 (Eastern Daylight Time)","380175","Untrustworthy,Trustworthy","","1037","","","","decision","","<div class='trialDiv'><img src='Fruit/apple.png'><br><font class='baseline'><strong>Awesome Apples</strong><p>Choose number of points to bet.</font><div class='respPicDiv'><img src='img/responseButtonOffersNo0L.png' class='respPic'></div></div>","4","10","Awesome Apples","Fruit/apple.png","Lost","0.2,0.8","8","0.2","134","30","",""
"html-keyboard-response","98","142571","0.0-11.0-2.29","6400de8f305c51d03c2a9a0e","bdp_rwlrn","Sun Mar 12 2023 17:03:21 GMT-0400 (Eastern Daylight Time)","380175","Untrustworthy,Trustworthy","","null","","","","decisionFB","","<div class='trialDiv'><img src='Fruit/apple.png'><br><font class='baseline'><strong>Awesome Apples</strong><p>Choose number of points to bet.</font><div class='respPicDiv'><img src='img/responseButtonOffersNo0L4.png' class='respPic'></div></div>","null","10","Awesome Apples","Fruit/apple.png","Lost","0.2,0.8","8","0.2","130","30","",""
"html-keyboard-response","99","143574","0.0-11.0-3.29","6400de8f305c51d03c2a9a0e","bdp_rwlrn","Sun Mar 12 2023 17:03:21 GMT-0400 (Eastern Daylight Time)","380175","Untrustworthy,Trustworthy","","null","","","","feedback","","<div class='respPicDiv'><img src='img/responseButtonOffersNo0_wht.png' class='respPic'></div><div class='trialDiv'><img src='Fruit/apple.png'><br><font class='baseline'><strong>Awesome Apples</strong><p><strong><font class='negOutcome'>You LOST</font><p>You bet: 4</strong></font> &nbsp; &nbsp; &nbsp; &nbsp; &nbsp; &nbsp;<font class='negOutcome'>You receive: <strong>0</strong></font></div>","null","10","Awesome Apples","Fruit/apple.png","Lost","0.2,0.8","8","0.2","130","30","",""
"html-keyboard-response","100","144007","0.0-11.0-1.30","6400de8f305c51d03c2a9a0e","bdp_rwlrn","Sun Mar 12 2023 17:03:21 GMT-0400 (Eastern Daylight Time)","380175","Untrustworthy,Trustworthy","","432","","","","decision","","<div class='trialDiv'><img src='Fruit/Kiwi.png'><br><font class='baseline'><strong>Kiwi Kash</strong><p>Choose number of points to bet.</font><div class='respPicDiv'><img src='img/responseButtonOffersNo0L.png' class='respPic'></div></div>","5","11","Kiwi Kash","Fruit/Kiwi.png","Lost","0.65,0.2","9","0.65","135","31","",""
"html-keyboard-response","101","144258","0.0-11.0-2.30","6400de8f305c51d03c2a9a0e","bdp_rwlrn","Sun Mar 12 2023 17:03:21 GMT-0400 (Eastern Daylight Time)","380175","Untrustworthy,Trustworthy","","null","","","","decisionFB","","<div class='trialDiv'><img src='Fruit/Kiwi.png'><br><font class='baseline'><strong>Kiwi Kash</strong><p>Choose number of points to bet.</font><div class='respPicDiv'><img src='img/responseButtonOffersNo0L5.png' class='respPic'></div></div>","null","11","Kiwi Kash","Fruit/Kiwi.png","Lost","0.65,0.2","9","0.65","130","31","",""
"html-keyboard-response","102","145259","0.0-11.0-3.30","6400de8f305c51d03c2a9a0e","bdp_rwlrn","Sun Mar 12 2023 17:03:21 GMT-0400 (Eastern Daylight Time)","380175","Untrustworthy,Trustworthy","","null","","","","feedback","","<div class='respPicDiv'><img src='img/responseButtonOffersNo0_wht.png' class='respPic'></div><div class='trialDiv'><img src='Fruit/Kiwi.png'><br><font class='baseline'><strong>Kiwi Kash</strong><p><strong><font class='negOutcome'>You LOST</font><p>You bet: 5</strong></font> &nbsp; &nbsp; &nbsp; &nbsp; &nbsp; &nbsp;<font class='negOutcome'>You receive: <strong>0</strong></font></div>","null","11","Kiwi Kash","Fruit/Kiwi.png","Lost","0.65,0.2","9","0.65","130","31","",""
"html-keyboard-response","103","146020","0.0-11.0-1.31","6400de8f305c51d03c2a9a0e","bdp_rwlrn","Sun Mar 12 2023 17:03:21 GMT-0400 (Eastern Daylight Time)","380175","Untrustworthy,Trustworthy","","761","","","","decision","","<div class='trialDiv'><img src='Fruit/orange.png'><br><font class='baseline'><strong>Odds are Orange</strong><p>Choose number of points to bet.</font><div class='respPicDiv'><img src='img/responseButtonOffersNo0L.png' class='respPic'></div></div>","3","11","Odds are Orange","Fruit/orange.png","Lost","0.35,0.8","12","0.35","135","32","",""
"html-keyboard-response","104","146271","0.0-11.0-2.31","6400de8f305c51d03c2a9a0e","bdp_rwlrn","Sun Mar 12 2023 17:03:21 GMT-0400 (Eastern Daylight Time)","380175","Untrustworthy,Trustworthy","","null","","","","decisionFB","","<div class='trialDiv'><img src='Fruit/orange.png'><br><font class='baseline'><strong>Odds are Orange</strong><p>Choose number of points to bet.</font><div class='respPicDiv'><img src='img/responseButtonOffersNo0L3.png' class='respPic'></div></div>","null","11","Odds are Orange","Fruit/orange.png","Lost","0.35,0.8","12","0.35","132","32","",""
"html-keyboard-response","105","147273","0.0-11.0-3.31","6400de8f305c51d03c2a9a0e","bdp_rwlrn","Sun Mar 12 2023 17:03:21 GMT-0400 (Eastern Daylight Time)","380175","Untrustworthy,Trustworthy","","null","","","","feedback","","<div class='respPicDiv'><img src='img/responseButtonOffersNo0_wht.png' class='respPic'></div><div class='trialDiv'><img src='Fruit/orange.png'><br><font class='baseline'><strong>Odds are Orange</strong><p><strong><font class='negOutcome'>You LOST</font><p>You bet: 3</strong></font> &nbsp; &nbsp; &nbsp; &nbsp; &nbsp; &nbsp;<font class='negOutcome'>You receive: <strong>0</strong></font></div>","null","11","Odds are Orange","Fruit/orange.png","Lost","0.35,0.8","12","0.35","132","32","",""
"html-keyboard-response","106","148093","0.0-11.0-1.32","6400de8f305c51d03c2a9a0e","bdp_rwlrn","Sun Mar 12 2023 17:03:21 GMT-0400 (Eastern Daylight Time)","380175","Untrustworthy,Trustworthy","","819","","","","decision","","<div class='trialDiv'><img src='Fruit/apple.png'><br><font class='baseline'><strong>Awesome Apples</strong><p>Choose number of points to bet.</font><div class='respPicDiv'><img src='img/responseButtonOffersNo0L.png' class='respPic'></div></div>","2","11","Awesome Apples","Fruit/apple.png","Won","0.2,0.8","8","0.2","137","33","",""
"html-keyboard-response","107","148344","0.0-11.0-2.32","6400de8f305c51d03c2a9a0e","bdp_rwlrn","Sun Mar 12 2023 17:03:21 GMT-0400 (Eastern Daylight Time)","380175","Untrustworthy,Trustworthy","","null","","","","decisionFB","","<div class='trialDiv'><img src='Fruit/apple.png'><br><font class='baseline'><strong>Awesome Apples</strong><p>Choose number of points to bet.</font><div class='respPicDiv'><img src='img/responseButtonOffersNo0L2.png' class='respPic'></div></div>","null","11","Awesome Apples","Fruit/apple.png","Won","0.2,0.8","8","0.2","135","33","",""
"html-keyboard-response","108","149345","0.0-11.0-3.32","6400de8f305c51d03c2a9a0e","bdp_rwlrn","Sun Mar 12 2023 17:03:21 GMT-0400 (Eastern Daylight Time)","380175","Untrustworthy,Trustworthy","","null","","","","feedback","","<div class='respPicDiv'><img src='img/responseButtonOffersNo0_wht.png' class='respPic'></div><div class='trialDiv'><img src='Fruit/apple.png'><br><font class='baseline'><strong>Awesome Apples</strong><p><strong><font class='posOutcome'>You WON</font><p>You bet: 2</strong></font> &nbsp; &nbsp; &nbsp; &nbsp; &nbsp; &nbsp;<font class='posOutcome'>you receive: <strong>4</strong></font></div>","null","11","Awesome Apples","Fruit/apple.png","Won","0.2,0.8","8","0.2","139","33","",""
"html-keyboard-response","109","150298","0.0-11.0-1.33","6400de8f305c51d03c2a9a0e","bdp_rwlrn","Sun Mar 12 2023 17:03:21 GMT-0400 (Eastern Daylight Time)","380175","Untrustworthy,Trustworthy","","952","","","","decision","","<div class='trialDiv'><img src='Fruit/Kiwi.png'><br><font class='baseline'><strong>Kiwi Kash</strong><p>Choose number of points to bet.</font><div class='respPicDiv'><img src='img/responseButtonOffersNo0L.png' class='respPic'></div></div>","4","12","Kiwi Kash","Fruit/Kiwi.png","Won","0.65,0.2","9","0.65","144","34","",""
"html-keyboard-response","110","150549","0.0-11.0-2.33","6400de8f305c51d03c2a9a0e","bdp_rwlrn","Sun Mar 12 2023 17:03:21 GMT-0400 (Eastern Daylight Time)","380175","Untrustworthy,Trustworthy","","null","","","","decisionFB","","<div class='trialDiv'><img src='Fruit/Kiwi.png'><br><font class='baseline'><strong>Kiwi Kash</strong><p>Choose number of points to bet.</font><div class='respPicDiv'><img src='img/responseButtonOffersNo0L4.png' class='respPic'></div></div>","null","12","Kiwi Kash","Fruit/Kiwi.png","Won","0.65,0.2","9","0.65","140","34","",""
"html-keyboard-response","111","151551","0.0-11.0-3.33","6400de8f305c51d03c2a9a0e","bdp_rwlrn","Sun Mar 12 2023 17:03:21 GMT-0400 (Eastern Daylight Time)","380175","Untrustworthy,Trustworthy","","null","","","","feedback","","<div class='respPicDiv'><img src='img/responseButtonOffersNo0_wht.png' class='respPic'></div><div class='trialDiv'><img src='Fruit/Kiwi.png'><br><font class='baseline'><strong>Kiwi Kash</strong><p><strong><font class='posOutcome'>You WON</font><p>You bet: 4</strong></font> &nbsp; &nbsp; &nbsp; &nbsp; &nbsp; &nbsp;<font class='posOutcome'>you receive: <strong>8</strong></font></div>","null","12","Kiwi Kash","Fruit/Kiwi.png","Won","0.65,0.2","9","0.65","148","34","",""
"html-keyboard-response","112","152344","0.0-11.0-1.34","6400de8f305c51d03c2a9a0e","bdp_rwlrn","Sun Mar 12 2023 17:03:21 GMT-0400 (Eastern Daylight Time)","380175","Untrustworthy,Trustworthy","","792","","","","decision","","<div class='trialDiv'><img src='Fruit/orange.png'><br><font class='baseline'><strong>Odds are Orange</strong><p>Choose number of points to bet.</font><div class='respPicDiv'><img src='img/responseButtonOffersNo0L.png' class='respPic'></div></div>","3","12","Odds are Orange","Fruit/orange.png","Won","0.35,0.8","12","0.35","153","35","",""
"html-keyboard-response","113","152595","0.0-11.0-2.34","6400de8f305c51d03c2a9a0e","bdp_rwlrn","Sun Mar 12 2023 17:03:21 GMT-0400 (Eastern Daylight Time)","380175","Untrustworthy,Trustworthy","","null","","","","decisionFB","","<div class='trialDiv'><img src='Fruit/orange.png'><br><font class='baseline'><strong>Odds are Orange</strong><p>Choose number of points to bet.</font><div class='respPicDiv'><img src='img/responseButtonOffersNo0L3.png' class='respPic'></div></div>","null","12","Odds are Orange","Fruit/orange.png","Won","0.35,0.8","12","0.35","150","35","",""
"html-keyboard-response","114","153598","0.0-11.0-3.34","6400de8f305c51d03c2a9a0e","bdp_rwlrn","Sun Mar 12 2023 17:03:21 GMT-0400 (Eastern Daylight Time)","380175","Untrustworthy,Trustworthy","","null","","","","feedback","","<div class='respPicDiv'><img src='img/responseButtonOffersNo0_wht.png' class='respPic'></div><div class='trialDiv'><img src='Fruit/orange.png'><br><font class='baseline'><strong>Odds are Orange</strong><p><strong><font class='posOutcome'>You WON</font><p>You bet: 3</strong></font> &nbsp; &nbsp; &nbsp; &nbsp; &nbsp; &nbsp;<font class='posOutcome'>you receive: <strong>6</strong></font></div>","null","12","Odds are Orange","Fruit/orange.png","Won","0.35,0.8","12","0.35","156","35","",""
"html-keyboard-response","115","154261","0.0-11.0-1.35","6400de8f305c51d03c2a9a0e","bdp_rwlrn","Sun Mar 12 2023 17:03:21 GMT-0400 (Eastern Daylight Time)","380175","Untrustworthy,Trustworthy","","662","","","","decision","","<div class='trialDiv'><img src='Fruit/apple.png'><br><font class='baseline'><strong>Awesome Apples</strong><p>Choose number of points to bet.</font><div class='respPicDiv'><img src='img/responseButtonOffersNo0L.png' class='respPic'></div></div>","5","12","Awesome Apples","Fruit/apple.png","Won","0.2,0.8","8","0.2","161","36","",""
"html-keyboard-response","116","154513","0.0-11.0-2.35","6400de8f305c51d03c2a9a0e","bdp_rwlrn","Sun Mar 12 2023 17:03:21 GMT-0400 (Eastern Daylight Time)","380175","Untrustworthy,Trustworthy","","null","","","","decisionFB","","<div class='trialDiv'><img src='Fruit/apple.png'><br><font class='baseline'><strong>Awesome Apples</strong><p>Choose number of points to bet.</font><div class='respPicDiv'><img src='img/responseButtonOffersNo0L5.png' class='respPic'></div></div>","null","12","Awesome Apples","Fruit/apple.png","Won","0.2,0.8","8","0.2","156","36","",""
"html-keyboard-response","117","155514","0.0-11.0-3.35","6400de8f305c51d03c2a9a0e","bdp_rwlrn","Sun Mar 12 2023 17:03:21 GMT-0400 (Eastern Daylight Time)","380175","Untrustworthy,Trustworthy","","null","","","","feedback","","<div class='respPicDiv'><img src='img/responseButtonOffersNo0_wht.png' class='respPic'></div><div class='trialDiv'><img src='Fruit/apple.png'><br><font class='baseline'><strong>Awesome Apples</strong><p><strong><font class='posOutcome'>You WON</font><p>You bet: 5</strong></font> &nbsp; &nbsp; &nbsp; &nbsp; &nbsp; &nbsp;<font class='posOutcome'>you receive: <strong>10</strong></font></div>","null","12","Awesome Apples","Fruit/apple.png","Won","0.2,0.8","8","0.2","166","36","",""
"html-keyboard-response","118","156160","0.0-11.0-1.36","6400de8f305c51d03c2a9a0e","bdp_rwlrn","Sun Mar 12 2023 17:03:21 GMT-0400 (Eastern Daylight Time)","380175","Untrustworthy,Trustworthy","","645","","","","decision","","<div class='trialDiv'><img src='Fruit/orange.png'><br><font class='baseline'><strong>Odds are Orange</strong><p>Choose number of points to bet.</font><div class='respPicDiv'><img src='img/responseButtonOffersNo0L.png' class='respPic'></div></div>","2","13","Odds are Orange","Fruit/orange.png","Won","0.35,0.8","12","0.35","171","37","",""
"html-keyboard-response","119","156411","0.0-11.0-2.36","6400de8f305c51d03c2a9a0e","bdp_rwlrn","Sun Mar 12 2023 17:03:21 GMT-0400 (Eastern Daylight Time)","380175","Untrustworthy,Trustworthy","","null","","","","decisionFB","","<div class='trialDiv'><img src='Fruit/orange.png'><br><font class='baseline'><strong>Odds are Orange</strong><p>Choose number of points to bet.</font><div class='respPicDiv'><img src='img/responseButtonOffersNo0L2.png' class='respPic'></div></div>","null","13","Odds are Orange","Fruit/orange.png","Won","0.35,0.8","12","0.35","169","37","",""
"html-keyboard-response","120","157413","0.0-11.0-3.36","6400de8f305c51d03c2a9a0e","bdp_rwlrn","Sun Mar 12 2023 17:03:21 GMT-0400 (Eastern Daylight Time)","380175","Untrustworthy,Trustworthy","","null","","","","feedback","","<div class='respPicDiv'><img src='img/responseButtonOffersNo0_wht.png' class='respPic'></div><div class='trialDiv'><img src='Fruit/orange.png'><br><font class='baseline'><strong>Odds are Orange</strong><p><strong><font class='posOutcome'>You WON</font><p>You bet: 2</strong></font> &nbsp; &nbsp; &nbsp; &nbsp; &nbsp; &nbsp;<font class='posOutcome'>you receive: <strong>4</strong></font></div>","null","13","Odds are Orange","Fruit/orange.png","Won","0.35,0.8","12","0.35","173","37","",""
"html-keyboard-response","121","158169","0.0-11.0-1.37","6400de8f305c51d03c2a9a0e","bdp_rwlrn","Sun Mar 12 2023 17:03:21 GMT-0400 (Eastern Daylight Time)","380175","Untrustworthy,Trustworthy","","754","","","","decision","","<div class='trialDiv'><img src='Fruit/apple.png'><br><font class='baseline'><strong>Awesome Apples</strong><p>Choose number of points to bet.</font><div class='respPicDiv'><img src='img/responseButtonOffersNo0L.png' class='respPic'></div></div>","3","13","Awesome Apples","Fruit/apple.png","Won","0.2,0.8","8","0.2","178","38","",""
"html-keyboard-response","122","158420","0.0-11.0-2.37","6400de8f305c51d03c2a9a0e","bdp_rwlrn","Sun Mar 12 2023 17:03:21 GMT-0400 (Eastern Daylight Time)","380175","Untrustworthy,Trustworthy","","null","","","","decisionFB","","<div class='trialDiv'><img src='Fruit/apple.png'><br><font class='baseline'><strong>Awesome Apples</strong><p>Choose number of points to bet.</font><div class='respPicDiv'><img src='img/responseButtonOffersNo0L3.png' class='respPic'></div></div>","null","13","Awesome Apples","Fruit/apple.png","Won","0.2,0.8","8","0.2","175","38","",""
"html-keyboard-response","123","159422","0.0-11.0-3.37","6400de8f305c51d03c2a9a0e","bdp_rwlrn","Sun Mar 12 2023 17:03:21 GMT-0400 (Eastern Daylight Time)","380175","Untrustworthy,Trustworthy","","null","","","","feedback","","<div class='respPicDiv'><img src='img/responseButtonOffersNo0_wht.png' class='respPic'></div><div class='trialDiv'><img src='Fruit/apple.png'><br><font class='baseline'><strong>Awesome Apples</strong><p><strong><font class='posOutcome'>You WON</font><p>You bet: 3</strong></font> &nbsp; &nbsp; &nbsp; &nbsp; &nbsp; &nbsp;<font class='posOutcome'>you receive: <strong>6</strong></font></div>","null","13","Awesome Apples","Fruit/apple.png","Won","0.2,0.8","8","0.2","181","38","",""
"html-keyboard-response","124","159981","0.0-11.0-1.38","6400de8f305c51d03c2a9a0e","bdp_rwlrn","Sun Mar 12 2023 17:03:21 GMT-0400 (Eastern Daylight Time)","380175","Untrustworthy,Trustworthy","","557","","","","decision","","<div class='trialDiv'><img src='Fruit/Kiwi.png'><br><font class='baseline'><strong>Kiwi Kash</strong><p>Choose number of points to bet.</font><div class='respPicDiv'><img src='img/responseButtonOffersNo0L.png' class='respPic'></div></div>","1","13","Kiwi Kash","Fruit/Kiwi.png","Won","0.65,0.2","9","0.65","186","39","",""
"html-keyboard-response","125","160232","0.0-11.0-2.38","6400de8f305c51d03c2a9a0e","bdp_rwlrn","Sun Mar 12 2023 17:03:21 GMT-0400 (Eastern Daylight Time)","380175","Untrustworthy,Trustworthy","","null","","","","decisionFB","","<div class='trialDiv'><img src='Fruit/Kiwi.png'><br><font class='baseline'><strong>Kiwi Kash</strong><p>Choose number of points to bet.</font><div class='respPicDiv'><img src='img/responseButtonOffersNo0L1.png' class='respPic'></div></div>","null","13","Kiwi Kash","Fruit/Kiwi.png","Won","0.65,0.2","9","0.65","185","39","",""
"html-keyboard-response","126","161234","0.0-11.0-3.38","6400de8f305c51d03c2a9a0e","bdp_rwlrn","Sun Mar 12 2023 17:03:21 GMT-0400 (Eastern Daylight Time)","380175","Untrustworthy,Trustworthy","","null","","","","feedback","","<div class='respPicDiv'><img src='img/responseButtonOffersNo0_wht.png' class='respPic'></div><div class='trialDiv'><img src='Fruit/Kiwi.png'><br><font class='baseline'><strong>Kiwi Kash</strong><p><strong><font class='posOutcome'>You WON</font><p>You bet: 1</strong></font> &nbsp; &nbsp; &nbsp; &nbsp; &nbsp; &nbsp;<font class='posOutcome'>you receive: <strong>2</strong></font></div>","null","13","Kiwi Kash","Fruit/Kiwi.png","Won","0.65,0.2","9","0.65","187","39","",""
"html-keyboard-response","127","161928","0.0-11.0-1.39","6400de8f305c51d03c2a9a0e","bdp_rwlrn","Sun Mar 12 2023 17:03:21 GMT-0400 (Eastern Daylight Time)","380175","Untrustworthy,Trustworthy","","693","","","","decision","","<div class='trialDiv'><img src='Fruit/apple.png'><br><font class='baseline'><strong>Awesome Apples</strong><p>Choose number of points to bet.</font><div class='respPicDiv'><img src='img/responseButtonOffersNo0L.png' class='respPic'></div></div>","5","14","Awesome Apples","Fruit/apple.png","Won","0.2,0.8","8","0.2","192","40","",""
"html-keyboard-response","128","162179","0.0-11.0-2.39","6400de8f305c51d03c2a9a0e","bdp_rwlrn","Sun Mar 12 2023 17:03:21 GMT-0400 (Eastern Daylight Time)","380175","Untrustworthy,Trustworthy","","null","","","","decisionFB","","<div class='trialDiv'><img src='Fruit/apple.png'><br><font class='baseline'><strong>Awesome Apples</strong><p>Choose number of points to bet.</font><div class='respPicDiv'><img src='img/responseButtonOffersNo0L5.png' class='respPic'></div></div>","null","14","Awesome Apples","Fruit/apple.png","Won","0.2,0.8","8","0.2","187","40","",""
"html-keyboard-response","129","163181","0.0-11.0-3.39","6400de8f305c51d03c2a9a0e","bdp_rwlrn","Sun Mar 12 2023 17:03:21 GMT-0400 (Eastern Daylight Time)","380175","Untrustworthy,Trustworthy","","null","","","","feedback","","<div class='respPicDiv'><img src='img/responseButtonOffersNo0_wht.png' class='respPic'></div><div class='trialDiv'><img src='Fruit/apple.png'><br><font class='baseline'><strong>Awesome Apples</strong><p><strong><font class='posOutcome'>You WON</font><p>You bet: 5</strong></font> &nbsp; &nbsp; &nbsp; &nbsp; &nbsp; &nbsp;<font class='posOutcome'>you receive: <strong>10</strong></font></div>","null","14","Awesome Apples","Fruit/apple.png","Won","0.2,0.8","8","0.2","197","40","",""
"html-keyboard-response","130","163492","0.0-11.0-1.40","6400de8f305c51d03c2a9a0e","bdp_rwlrn","Sun Mar 12 2023 17:03:21 GMT-0400 (Eastern Daylight Time)","380175","Untrustworthy,Trustworthy","","309","","","","decision","","<div class='trialDiv'><img src='Fruit/Kiwi.png'><br><font class='baseline'><strong>Kiwi Kash</strong><p>Choose number of points to bet.</font><div class='respPicDiv'><img src='img/responseButtonOffersNo0L.png' class='respPic'></div></div>","3","14","Kiwi Kash","Fruit/Kiwi.png","Lost","0.65,0.2","9","0.65","202","41","",""
"html-keyboard-response","131","163743","0.0-11.0-2.40","6400de8f305c51d03c2a9a0e","bdp_rwlrn","Sun Mar 12 2023 17:03:21 GMT-0400 (Eastern Daylight Time)","380175","Untrustworthy,Trustworthy","","null","","","","decisionFB","","<div class='trialDiv'><img src='Fruit/Kiwi.png'><br><font class='baseline'><strong>Kiwi Kash</strong><p>Choose number of points to bet.</font><div class='respPicDiv'><img src='img/responseButtonOffersNo0L3.png' class='respPic'></div></div>","null","14","Kiwi Kash","Fruit/Kiwi.png","Lost","0.65,0.2","9","0.65","199","41","",""
"html-keyboard-response","132","164745","0.0-11.0-3.40","6400de8f305c51d03c2a9a0e","bdp_rwlrn","Sun Mar 12 2023 17:03:21 GMT-0400 (Eastern Daylight Time)","380175","Untrustworthy,Trustworthy","","null","","","","feedback","","<div class='respPicDiv'><img src='img/responseButtonOffersNo0_wht.png' class='respPic'></div><div class='trialDiv'><img src='Fruit/Kiwi.png'><br><font class='baseline'><strong>Kiwi Kash</strong><p><strong><font class='negOutcome'>You LOST</font><p>You bet: 3</strong></font> &nbsp; &nbsp; &nbsp; &nbsp; &nbsp; &nbsp;<font class='negOutcome'>You receive: <strong>0</strong></font></div>","null","14","Kiwi Kash","Fruit/Kiwi.png","Lost","0.65,0.2","9","0.65","199","41","",""
"html-keyboard-response","133","165931","0.0-11.0-1.41","6400de8f305c51d03c2a9a0e","bdp_rwlrn","Sun Mar 12 2023 17:03:21 GMT-0400 (Eastern Daylight Time)","380175","Untrustworthy,Trustworthy","","1186","","","","decision","","<div class='trialDiv'><img src='Fruit/orange.png'><br><font class='baseline'><strong>Odds are Orange</strong><p>Choose number of points to bet.</font><div class='respPicDiv'><img src='img/responseButtonOffersNo0L.png' class='respPic'></div></div>","4","14","Odds are Orange","Fruit/orange.png","Won","0.35,0.8","12","0.35","204","42","",""
"html-keyboard-response","134","166183","0.0-11.0-2.41","6400de8f305c51d03c2a9a0e","bdp_rwlrn","Sun Mar 12 2023 17:03:21 GMT-0400 (Eastern Daylight Time)","380175","Untrustworthy,Trustworthy","","null","","","","decisionFB","","<div class='trialDiv'><img src='Fruit/orange.png'><br><font class='baseline'><strong>Odds are Orange</strong><p>Choose number of points to bet.</font><div class='respPicDiv'><img src='img/responseButtonOffersNo0L4.png' class='respPic'></div></div>","null","14","Odds are Orange","Fruit/orange.png","Won","0.35,0.8","12","0.35","200","42","",""
"html-keyboard-response","135","167185","0.0-11.0-3.41","6400de8f305c51d03c2a9a0e","bdp_rwlrn","Sun Mar 12 2023 17:03:21 GMT-0400 (Eastern Daylight Time)","380175","Untrustworthy,Trustworthy","","null","","","","feedback","","<div class='respPicDiv'><img src='img/responseButtonOffersNo0_wht.png' class='respPic'></div><div class='trialDiv'><img src='Fruit/orange.png'><br><font class='baseline'><strong>Odds are Orange</strong><p><strong><font class='posOutcome'>You WON</font><p>You bet: 4</strong></font> &nbsp; &nbsp; &nbsp; &nbsp; &nbsp; &nbsp;<font class='posOutcome'>you receive: <strong>8</strong></font></div>","null","14","Odds are Orange","Fruit/orange.png","Won","0.35,0.8","12","0.35","208","42","",""
"html-keyboard-response","136","168286","0.0-11.0-1.42","6400de8f305c51d03c2a9a0e","bdp_rwlrn","Sun Mar 12 2023 17:03:21 GMT-0400 (Eastern Daylight Time)","380175","Untrustworthy,Trustworthy","","1100","","","","decision","","<div class='trialDiv'><img src='Fruit/Kiwi.png'><br><font class='baseline'><strong>Kiwi Kash</strong><p>Choose number of points to bet.</font><div class='respPicDiv'><img src='img/responseButtonOffersNo0L.png' class='respPic'></div></div>","2","15","Kiwi Kash","Fruit/Kiwi.png","Lost","0.65,0.2","9","0.65","213","43","",""
"html-keyboard-response","137","168538","0.0-11.0-2.42","6400de8f305c51d03c2a9a0e","bdp_rwlrn","Sun Mar 12 2023 17:03:21 GMT-0400 (Eastern Daylight Time)","380175","Untrustworthy,Trustworthy","","null","","","","decisionFB","","<div class='trialDiv'><img src='Fruit/Kiwi.png'><br><font class='baseline'><strong>Kiwi Kash</strong><p>Choose number of points to bet.</font><div class='respPicDiv'><img src='img/responseButtonOffersNo0L2.png' class='respPic'></div></div>","null","15","Kiwi Kash","Fruit/Kiwi.png","Lost","0.65,0.2","9","0.65","211","43","",""
"html-keyboard-response","138","169540","0.0-11.0-3.42","6400de8f305c51d03c2a9a0e","bdp_rwlrn","Sun Mar 12 2023 17:03:21 GMT-0400 (Eastern Daylight Time)","380175","Untrustworthy,Trustworthy","","null","","","","feedback","","<div class='respPicDiv'><img src='img/responseButtonOffersNo0_wht.png' class='respPic'></div><div class='trialDiv'><img src='Fruit/Kiwi.png'><br><font class='baseline'><strong>Kiwi Kash</strong><p><strong><font class='negOutcome'>You LOST</font><p>You bet: 2</strong></font> &nbsp; &nbsp; &nbsp; &nbsp; &nbsp; &nbsp;<font class='negOutcome'>You receive: <strong>0</strong></font></div>","null","15","Kiwi Kash","Fruit/Kiwi.png","Lost","0.65,0.2","9","0.65","211","43","",""
"html-keyboard-response","139","170374","0.0-11.0-1.43","6400de8f305c51d03c2a9a0e","bdp_rwlrn","Sun Mar 12 2023 17:03:21 GMT-0400 (Eastern Daylight Time)","380175","Untrustworthy,Trustworthy","","833","","","","decision","","<div class='trialDiv'><img src='Fruit/apple.png'><br><font class='baseline'><strong>Awesome Apples</strong><p>Choose number of points to bet.</font><div class='respPicDiv'><img src='img/responseButtonOffersNo0L.png' class='respPic'></div></div>","5","15","Awesome Apples","Fruit/apple.png","Lost","0.2,0.8","8","0.2","216","44","",""
"html-keyboard-response","140","170625","0.0-11.0-2.43","6400de8f305c51d03c2a9a0e","bdp_rwlrn","Sun Mar 12 2023 17:03:21 GMT-0400 (Eastern Daylight Time)","380175","Untrustworthy,Trustworthy","","null","","","","decisionFB","","<div class='trialDiv'><img src='Fruit/apple.png'><br><font class='baseline'><strong>Awesome Apples</strong><p>Choose number of points to bet.</font><div class='respPicDiv'><img src='img/responseButtonOffersNo0L5.png' class='respPic'></div></div>","null","15","Awesome Apples","Fruit/apple.png","Lost","0.2,0.8","8","0.2","211","44","",""
"html-keyboard-response","141","171627","0.0-11.0-3.43","6400de8f305c51d03c2a9a0e","bdp_rwlrn","Sun Mar 12 2023 17:03:21 GMT-0400 (Eastern Daylight Time)","380175","Untrustworthy,Trustworthy","","null","","","","feedback","","<div class='respPicDiv'><img src='img/responseButtonOffersNo0_wht.png' class='respPic'></div><div class='trialDiv'><img src='Fruit/apple.png'><br><font class='baseline'><strong>Awesome Apples</strong><p><strong><font class='negOutcome'>You LOST</font><p>You bet: 5</strong></font> &nbsp; &nbsp; &nbsp; &nbsp; &nbsp; &nbsp;<font class='negOutcome'>You receive: <strong>0</strong></font></div>","null","15","Awesome Apples","Fruit/apple.png","Lost","0.2,0.8","8","0.2","211","44","",""
"html-keyboard-response","142","172428","0.0-11.0-1.44","6400de8f305c51d03c2a9a0e","bdp_rwlrn","Sun Mar 12 2023 17:03:21 GMT-0400 (Eastern Daylight Time)","380175","Untrustworthy,Trustworthy","","800","","","","decision","","<div class='trialDiv'><img src='Fruit/orange.png'><br><font class='baseline'><strong>Odds are Orange</strong><p>Choose number of points to bet.</font><div class='respPicDiv'><img src='img/responseButtonOffersNo0L.png' class='respPic'></div></div>","3","15","Odds are Orange","Fruit/orange.png","Won","0.35,0.8","12","0.35","216","45","",""
"html-keyboard-response","143","172680","0.0-11.0-2.44","6400de8f305c51d03c2a9a0e","bdp_rwlrn","Sun Mar 12 2023 17:03:21 GMT-0400 (Eastern Daylight Time)","380175","Untrustworthy,Trustworthy","","null","","","","decisionFB","","<div class='trialDiv'><img src='Fruit/orange.png'><br><font class='baseline'><strong>Odds are Orange</strong><p>Choose number of points to bet.</font><div class='respPicDiv'><img src='img/responseButtonOffersNo0L3.png' class='respPic'></div></div>","null","15","Odds are Orange","Fruit/orange.png","Won","0.35,0.8","12","0.35","213","45","",""
"html-keyboard-response","144","173683","0.0-11.0-3.44","6400de8f305c51d03c2a9a0e","bdp_rwlrn","Sun Mar 12 2023 17:03:21 GMT-0400 (Eastern Daylight Time)","380175","Untrustworthy,Trustworthy","","null","","","","feedback","","<div class='respPicDiv'><img src='img/responseButtonOffersNo0_wht.png' class='respPic'></div><div class='trialDiv'><img src='Fruit/orange.png'><br><font class='baseline'><strong>Odds are Orange</strong><p><strong><font class='posOutcome'>You WON</font><p>You bet: 3</strong></font> &nbsp; &nbsp; &nbsp; &nbsp; &nbsp; &nbsp;<font class='posOutcome'>you receive: <strong>6</strong></font></div>","null","15","Odds are Orange","Fruit/orange.png","Won","0.35,0.8","12","0.35","219","45","",""
"html-keyboard-response","145","174622","0.0-11.0-1.45","6400de8f305c51d03c2a9a0e","bdp_rwlrn","Sun Mar 12 2023 17:03:21 GMT-0400 (Eastern Daylight Time)","380175","Untrustworthy,Trustworthy","","938","","","","decision","","<div class='trialDiv'><img src='Fruit/Kiwi.png'><br><font class='baseline'><strong>Kiwi Kash</strong><p>Choose number of points to bet.</font><div class='respPicDiv'><img src='img/responseButtonOffersNo0L.png' class='respPic'></div></div>","4","16","Kiwi Kash","Fruit/Kiwi.png","Lost","0.65,0.2","9","0.65","224","46","",""
"html-keyboard-response","146","174874","0.0-11.0-2.45","6400de8f305c51d03c2a9a0e","bdp_rwlrn","Sun Mar 12 2023 17:03:21 GMT-0400 (Eastern Daylight Time)","380175","Untrustworthy,Trustworthy","","null","","","","decisionFB","","<div class='trialDiv'><img src='Fruit/Kiwi.png'><br><font class='baseline'><strong>Kiwi Kash</strong><p>Choose number of points to bet.</font><div class='respPicDiv'><img src='img/responseButtonOffersNo0L4.png' class='respPic'></div></div>","null","16","Kiwi Kash","Fruit/Kiwi.png","Lost","0.65,0.2","9","0.65","220","46","",""
"html-keyboard-response","147","175876","0.0-11.0-3.45","6400de8f305c51d03c2a9a0e","bdp_rwlrn","Sun Mar 12 2023 17:03:21 GMT-0400 (Eastern Daylight Time)","380175","Untrustworthy,Trustworthy","","null","","","","feedback","","<div class='respPicDiv'><img src='img/responseButtonOffersNo0_wht.png' class='respPic'></div><div class='trialDiv'><img src='Fruit/Kiwi.png'><br><font class='baseline'><strong>Kiwi Kash</strong><p><strong><font class='negOutcome'>You LOST</font><p>You bet: 4</strong></font> &nbsp; &nbsp; &nbsp; &nbsp; &nbsp; &nbsp;<font class='negOutcome'>You receive: <strong>0</strong></font></div>","null","16","Kiwi Kash","Fruit/Kiwi.png","Lost","0.65,0.2","9","0.65","220","46","",""
"html-keyboard-response","148","176471","0.0-11.0-1.46","6400de8f305c51d03c2a9a0e","bdp_rwlrn","Sun Mar 12 2023 17:03:21 GMT-0400 (Eastern Daylight Time)","380175","Untrustworthy,Trustworthy","","594","","","","decision","","<div class='trialDiv'><img src='Fruit/orange.png'><br><font class='baseline'><strong>Odds are Orange</strong><p>Choose number of points to bet.</font><div class='respPicDiv'><img src='img/responseButtonOffersNo0L.png' class='respPic'></div></div>","2","16","Odds are Orange","Fruit/orange.png","Won","0.35,0.8","12","0.35","225","47","",""
"html-keyboard-response","149","176722","0.0-11.0-2.46","6400de8f305c51d03c2a9a0e","bdp_rwlrn","Sun Mar 12 2023 17:03:21 GMT-0400 (Eastern Daylight Time)","380175","Untrustworthy,Trustworthy","","null","","","","decisionFB","","<div class='trialDiv'><img src='Fruit/orange.png'><br><font class='baseline'><strong>Odds are Orange</strong><p>Choose number of points to bet.</font><div class='respPicDiv'><img src='img/responseButtonOffersNo0L2.png' class='respPic'></div></div>","null","16","Odds are Orange","Fruit/orange.png","Won","0.35,0.8","12","0.35","223","47","",""
"html-keyboard-response","150","177724","0.0-11.0-3.46","6400de8f305c51d03c2a9a0e","bdp_rwlrn","Sun Mar 12 2023 17:03:21 GMT-0400 (Eastern Daylight Time)","380175","Untrustworthy,Trustworthy","","null","","","","feedback","","<div class='respPicDiv'><img src='img/responseButtonOffersNo0_wht.png' class='respPic'></div><div class='trialDiv'><img src='Fruit/orange.png'><br><font class='baseline'><strong>Odds are Orange</strong><p><strong><font class='posOutcome'>You WON</font><p>You bet: 2</strong></font> &nbsp; &nbsp; &nbsp; &nbsp; &nbsp; &nbsp;<font class='posOutcome'>you receive: <strong>4</strong></font></div>","null","16","Odds are Orange","Fruit/orange.png","Won","0.35,0.8","12","0.35","227","47","",""
"html-keyboard-response","151","178357","0.0-11.0-1.47","6400de8f305c51d03c2a9a0e","bdp_rwlrn","Sun Mar 12 2023 17:03:21 GMT-0400 (Eastern Daylight Time)","380175","Untrustworthy,Trustworthy","","632","","","","decision","","<div class='trialDiv'><img src='Fruit/apple.png'><br><font class='baseline'><strong>Awesome Apples</strong><p>Choose number of points to bet.</font><div class='respPicDiv'><img src='img/responseButtonOffersNo0L.png' class='respPic'></div></div>","3","16","Awesome Apples","Fruit/apple.png","Lost","0.2,0.8","8","0.2","232","48","",""
"html-keyboard-response","152","178609","0.0-11.0-2.47","6400de8f305c51d03c2a9a0e","bdp_rwlrn","Sun Mar 12 2023 17:03:21 GMT-0400 (Eastern Daylight Time)","380175","Untrustworthy,Trustworthy","","null","","","","decisionFB","","<div class='trialDiv'><img src='Fruit/apple.png'><br><font class='baseline'><strong>Awesome Apples</strong><p>Choose number of points to bet.</font><div class='respPicDiv'><img src='img/responseButtonOffersNo0L3.png' class='respPic'></div></div>","null","16","Awesome Apples","Fruit/apple.png","Lost","0.2,0.8","8","0.2","229","48","",""
"html-keyboard-response","153","179610","0.0-11.0-3.47","6400de8f305c51d03c2a9a0e","bdp_rwlrn","Sun Mar 12 2023 17:03:21 GMT-0400 (Eastern Daylight Time)","380175","Untrustworthy,Trustworthy","","null","","","","feedback","","<div class='respPicDiv'><img src='img/responseButtonOffersNo0_wht.png' class='respPic'></div><div class='trialDiv'><img src='Fruit/apple.png'><br><font class='baseline'><strong>Awesome Apples</strong><p><strong><font class='negOutcome'>You LOST</font><p>You bet: 3</strong></font> &nbsp; &nbsp; &nbsp; &nbsp; &nbsp; &nbsp;<font class='negOutcome'>You receive: <strong>0</strong></font></div>","null","16","Awesome Apples","Fruit/apple.png","Lost","0.2,0.8","8","0.2","229","48","",""
"html-keyboard-response","154","180336","0.0-11.0-1.48","6400de8f305c51d03c2a9a0e","bdp_rwlrn","Sun Mar 12 2023 17:03:21 GMT-0400 (Eastern Daylight Time)","380175","Untrustworthy,Trustworthy","","725","","","","decision","","<div class='trialDiv'><img src='Fruit/orange.png'><br><font class='baseline'><strong>Odds are Orange</strong><p>Choose number of points to bet.</font><div class='respPicDiv'><img src='img/responseButtonOffersNo0L.png' class='respPic'></div></div>","2","17","Odds are Orange","Fruit/orange.png","Won","0.35,0.8","12","0.35","234","49","",""
"html-keyboard-response","155","180587","0.0-11.0-2.48","6400de8f305c51d03c2a9a0e","bdp_rwlrn","Sun Mar 12 2023 17:03:21 GMT-0400 (Eastern Daylight Time)","380175","Untrustworthy,Trustworthy","","null","","","","decisionFB","","<div class='trialDiv'><img src='Fruit/orange.png'><br><font class='baseline'><strong>Odds are Orange</strong><p>Choose number of points to bet.</font><div class='respPicDiv'><img src='img/responseButtonOffersNo0L2.png' class='respPic'></div></div>","null","17","Odds are Orange","Fruit/orange.png","Won","0.35,0.8","12","0.35","232","49","",""
"html-keyboard-response","156","181590","0.0-11.0-3.48","6400de8f305c51d03c2a9a0e","bdp_rwlrn","Sun Mar 12 2023 17:03:21 GMT-0400 (Eastern Daylight Time)","380175","Untrustworthy,Trustworthy","","null","","","","feedback","","<div class='respPicDiv'><img src='img/responseButtonOffersNo0_wht.png' class='respPic'></div><div class='trialDiv'><img src='Fruit/orange.png'><br><font class='baseline'><strong>Odds are Orange</strong><p><strong><font class='posOutcome'>You WON</font><p>You bet: 2</strong></font> &nbsp; &nbsp; &nbsp; &nbsp; &nbsp; &nbsp;<font class='posOutcome'>you receive: <strong>4</strong></font></div>","null","17","Odds are Orange","Fruit/orange.png","Won","0.35,0.8","12","0.35","236","49","",""
"html-keyboard-response","157","184302","0.0-11.0-1.49","6400de8f305c51d03c2a9a0e","bdp_rwlrn","Sun Mar 12 2023 17:03:21 GMT-0400 (Eastern Daylight Time)","380175","Untrustworthy,Trustworthy","","2710","","","","decision","","<div class='trialDiv'><img src='Fruit/Kiwi.png'><br><font class='baseline'><strong>Kiwi Kash</strong><p>Choose number of points to bet.</font><div class='respPicDiv'><img src='img/responseButtonOffersNo0L.png' class='respPic'></div></div>","1","17","Kiwi Kash","Fruit/Kiwi.png","Won","0.65,0.2","9","0.65","241","50","",""
"html-keyboard-response","158","184553","0.0-11.0-2.49","6400de8f305c51d03c2a9a0e","bdp_rwlrn","Sun Mar 12 2023 17:03:21 GMT-0400 (Eastern Daylight Time)","380175","Untrustworthy,Trustworthy","","null","","","","decisionFB","","<div class='trialDiv'><img src='Fruit/Kiwi.png'><br><font class='baseline'><strong>Kiwi Kash</strong><p>Choose number of points to bet.</font><div class='respPicDiv'><img src='img/responseButtonOffersNo0L1.png' class='respPic'></div></div>","null","17","Kiwi Kash","Fruit/Kiwi.png","Won","0.65,0.2","9","0.65","240","50","",""
"html-keyboard-response","159","185555","0.0-11.0-3.49","6400de8f305c51d03c2a9a0e","bdp_rwlrn","Sun Mar 12 2023 17:03:21 GMT-0400 (Eastern Daylight Time)","380175","Untrustworthy,Trustworthy","","null","","","","feedback","","<div class='respPicDiv'><img src='img/responseButtonOffersNo0_wht.png' class='respPic'></div><div class='trialDiv'><img src='Fruit/Kiwi.png'><br><font class='baseline'><strong>Kiwi Kash</strong><p><strong><font class='posOutcome'>You WON</font><p>You bet: 1</strong></font> &nbsp; &nbsp; &nbsp; &nbsp; &nbsp; &nbsp;<font class='posOutcome'>you receive: <strong>2</strong></font></div>","null","17","Kiwi Kash","Fruit/Kiwi.png","Won","0.65,0.2","9","0.65","242","50","",""
"html-keyboard-response","160","186105","0.0-11.0-1.50","6400de8f305c51d03c2a9a0e","bdp_rwlrn","Sun Mar 12 2023 17:03:21 GMT-0400 (Eastern Daylight Time)","380175","Untrustworthy,Trustworthy","","549","","","","decision","","<div class='trialDiv'><img src='Fruit/apple.png'><br><font class='baseline'><strong>Awesome Apples</strong><p>Choose number of points to bet.</font><div class='respPicDiv'><img src='img/responseButtonOffersNo0L.png' class='respPic'></div></div>","2","17","Awesome Apples","Fruit/apple.png","Lost","0.2,0.8","8","0.2","247","51","",""
"html-keyboard-response","161","186356","0.0-11.0-2.50","6400de8f305c51d03c2a9a0e","bdp_rwlrn","Sun Mar 12 2023 17:03:21 GMT-0400 (Eastern Daylight Time)","380175","Untrustworthy,Trustworthy","","null","","","","decisionFB","","<div class='trialDiv'><img src='Fruit/apple.png'><br><font class='baseline'><strong>Awesome Apples</strong><p>Choose number of points to bet.</font><div class='respPicDiv'><img src='img/responseButtonOffersNo0L2.png' class='respPic'></div></div>","null","17","Awesome Apples","Fruit/apple.png","Lost","0.2,0.8","8","0.2","245","51","",""
"html-keyboard-response","162","187359","0.0-11.0-3.50","6400de8f305c51d03c2a9a0e","bdp_rwlrn","Sun Mar 12 2023 17:03:21 GMT-0400 (Eastern Daylight Time)","380175","Untrustworthy,Trustworthy","","null","","","","feedback","","<div class='respPicDiv'><img src='img/responseButtonOffersNo0_wht.png' class='respPic'></div><div class='trialDiv'><img src='Fruit/apple.png'><br><font class='baseline'><strong>Awesome Apples</strong><p><strong><font class='negOutcome'>You LOST</font><p>You bet: 2</strong></font> &nbsp; &nbsp; &nbsp; &nbsp; &nbsp; &nbsp;<font class='negOutcome'>You receive: <strong>0</strong></font></div>","null","17","Awesome Apples","Fruit/apple.png","Lost","0.2,0.8","8","0.2","245","51","",""
"html-keyboard-response","163","187709","0.0-11.0-1.51","6400de8f305c51d03c2a9a0e","bdp_rwlrn","Sun Mar 12 2023 17:03:21 GMT-0400 (Eastern Daylight Time)","380175","Untrustworthy,Trustworthy","","349","","","","decision","","<div class='trialDiv'><img src='Fruit/orange.png'><br><font class='baseline'><strong>Odds are Orange</strong><p>Choose number of points to bet.</font><div class='respPicDiv'><img src='img/responseButtonOffersNo0L.png' class='respPic'></div></div>","3","18","Odds are Orange","Fruit/orange.png","Won","0.35,0.8","12","0.35","250","52","",""
"html-keyboard-response","164","187960","0.0-11.0-2.51","6400de8f305c51d03c2a9a0e","bdp_rwlrn","Sun Mar 12 2023 17:03:21 GMT-0400 (Eastern Daylight Time)","380175","Untrustworthy,Trustworthy","","null","","","","decisionFB","","<div class='trialDiv'><img src='Fruit/orange.png'><br><font class='baseline'><strong>Odds are Orange</strong><p>Choose number of points to bet.</font><div class='respPicDiv'><img src='img/responseButtonOffersNo0L3.png' class='respPic'></div></div>","null","18","Odds are Orange","Fruit/orange.png","Won","0.35,0.8","12","0.35","247","52","",""
