"trial_type","trial_index","time_elapsed","internal_node_id","subject_id","task","startTime","totalTime","labels","view_history","rt","event","trial","time","trialtype","success","stimulus","key_press","ltround","name","fileID","outcome","lottotype","lottoswpt","lottocurrpshare","point_total","round","faceID","face"
"pavlovia","0","2","0.0-0.0","62c5e680e4a4b4648606d756","bdp_rwlrn","Tue Mar 14 2023 12:55:57 GMT-0500 (Central Daylight Time)","401176","Untrustworthy,Trustworthy","","","","","","","","","","","","","","","","","","","",""
"instructions","1","3565","0.0-1.0","62c5e680e4a4b4648606d756","bdp_rwlrn","Tue Mar 14 2023 12:55:57 GMT-0500 (Central Daylight Time)","401176","Untrustworthy,Trustworthy","[{""page_index"":0,""viewing_time"":3563}]","3563","","","","","","","","","","","","","","","","","",""
"","","","","62c5e680e4a4b4648606d756","bdp_rwlrn","Tue Mar 14 2023 12:55:57 GMT-0500 (Central Daylight Time)","401176","Untrustworthy,Trustworthy","","","fullscreenenter","2","5781","fullscreenenter","","","","","","","","","","","","","",""
"fullscreen","2","6777","0.0-2.0","62c5e680e4a4b4648606d756","bdp_rwlrn","Tue Mar 14 2023 12:55:57 GMT-0500 (Central Daylight Time)","401176","Untrustworthy,Trustworthy","","","","","","","true","","","","","","","","","","","","",""
"instructions","3","49842","0.0-4.0","62c5e680e4a4b4648606d756","bdp_rwlrn","Tue Mar 14 2023 12:55:57 GMT-0500 (Central Daylight Time)","401176","Untrustworthy,Trustworthy","[{""page_index"":0,""viewing_time"":12873},{""page_index"":1,""viewing_time"":6339},{""page_index"":2,""viewing_time"":3381},{""page_index"":3,""viewing_time"":5875},{""page_index"":4,""viewing_time"":13017},{""page_index"":5,""viewing_time"":1579}]","43064","","","","","","","","","","","","","","","","","",""
"html-keyboard-response","4","52923","0.0-5.0","62c5e680e4a4b4648606d756","bdp_rwlrn","Tue Mar 14 2023 12:55:57 GMT-0500 (Central Daylight Time)","401176","Untrustworthy,Trustworthy","","3081","","","","","","<div class='header' style='text-align:left; position: absolute; top: 5%; left: 5%;'><small>Task 3 of 5</small></div><div class='instruxDiv'><p><strong>1) What is the maximum number of points you can choose to bet on a lottery?</strong></p><p>a) 0</p><p>b) 1</p><p>c) 5</p>","B","","","","","","","","","","",""
"html-keyboard-response","5","59954","0.0-6.0","62c5e680e4a4b4648606d756","bdp_rwlrn","Tue Mar 14 2023 12:55:57 GMT-0500 (Central Daylight Time)","401176","Untrustworthy,Trustworthy","","6929","","","","","","<div class='header' style='text-align:left; position: absolute; top: 5%; left: 5%;'><small>Task 3 of 5</small></div><div class='instruxDiv'><p><strong>1) What is the maximum number of points you can choose to bet on a lottery?</strong></p><p>a) 0</p><p style='color:#FF0000'>b) 1</p><p>c) 5</p><h3 style='color:#FF0000'>Incorrect!</h3><h3 class='center-content'>The correct response is c).</h3><h3 class='center-content'>The maximum number of points you can choose to bet on a lottery is 5 points.</h3><p><em>Press SPACEBAR to continue</em></p></div>"," ","","","","","","","","","","",""
"html-keyboard-response","6","67374","0.0-7.0","62c5e680e4a4b4648606d756","bdp_rwlrn","Tue Mar 14 2023 12:55:57 GMT-0500 (Central Daylight Time)","401176","Untrustworthy,Trustworthy","","7318","","","","","","<div class='header' style='text-align:left; position: absolute; top: 5%; left: 5%;'><small>Task 3 of 5</small></div><div class='instruxDiv'><p><strong>2) How many points can you win each round?</strong></p><p>a) 10 points</p><p>b) Double what you bet</p><p>c) Quadruple what you bet</p>","C","","","","","","","","","","",""
"html-keyboard-response","7","68840","0.0-8.0","62c5e680e4a4b4648606d756","bdp_rwlrn","Tue Mar 14 2023 12:55:57 GMT-0500 (Central Daylight Time)","401176","Untrustworthy,Trustworthy","","1364","","","","","","<div class='header' style='text-align:left; position: absolute; top: 5%; left: 5%;'><small>Task 3 of 5</small></div><div class='instruxDiv'><p><strong>2) How many points can you win each round?</strong></p><p>a) 10 points</p><p>b) Double what you bet</p><p style='color:#FF0000'>c) Quadruple what you bet</p><h3 style='color:#FF0000'>Incorrect!</h3><h3 class='center-content'>The correct response is b).</h3><h3 class='center-content'>You can win double the amount of points you bet.</h3><p><em>Press SPACEBAR to continue</em></p></div>"," ","","","","","","","","","","",""
"html-keyboard-response","8","73944","0.0-9.0","62c5e680e4a4b4648606d756","bdp_rwlrn","Tue Mar 14 2023 12:55:57 GMT-0500 (Central Daylight Time)","401176","Untrustworthy,Trustworthy","","null","","","","","","<div class='header' style='text-align:left; position: absolute; top: 5%; left: 5%;'><small>Task 3 of 5</small></div><div class='instruxDiv'><p>Thank you for completing the quiz<p>These are the actual lotteries you will be playing in the next block:<p><div class='tc' align='center'><img class='introPic' src='Fruit/grapes.png'><br><strong>Great Grapes</strong></div><div class='bl' align='center'><img class='introPic' src='Fruit/watermelon.png'><br><strong>Watermelon Win$</strong></div><div class='br' align='center'><img class='introPic' src='Fruit/lemon.png'><br><strong>Lucky Lemons</strong></div></div><p>Across <strong>66 rounds</strong> you will play each lottery <strong>22 times</strong> (in random order).<p style='align:center; color:white'><font <em>Press SPACEBAR to continue</em></p>","null","","","","","","","","","","",""
"instructions","9","81940","0.0-10.0","62c5e680e4a4b4648606d756","bdp_rwlrn","Tue Mar 14 2023 12:55:57 GMT-0500 (Central Daylight Time)","401176","Untrustworthy,Trustworthy","[{""page_index"":0,""viewing_time"":5816},{""page_index"":1,""viewing_time"":2180}]","7996","","","","","","","","","","","","","","","","","",""
"html-keyboard-response","10","83974","0.0-11.0-1.0","62c5e680e4a4b4648606d756","bdp_rwlrn","Tue Mar 14 2023 12:55:57 GMT-0500 (Central Daylight Time)","401176","Untrustworthy,Trustworthy","","1933","","","","decision","","<div class='trialDiv'><img src='Fruit/lemon.png'><br><font class='baseline'><strong>Lucky Lemons</strong><p>Choose number of points to bet.</font><div class='respPicDiv'><img src='img/responseButtonOffersNo0L.png' class='respPic'></div></div>","1","1","Lucky Lemons","Fruit/lemon.png","Won","0.2,0.65","11","0.2","5","1","",""
"html-keyboard-response","11","84226","0.0-11.0-2.0","62c5e680e4a4b4648606d756","bdp_rwlrn","Tue Mar 14 2023 12:55:57 GMT-0500 (Central Daylight Time)","401176","Untrustworthy,Trustworthy","","null","","","","decisionFB","","<div class='trialDiv'><img src='Fruit/lemon.png'><br><font class='baseline'><strong>Lucky Lemons</strong><p>Choose number of points to bet.</font><div class='respPicDiv'><img src='img/responseButtonOffersNo0L1.png' class='respPic'></div></div>","null","1","Lucky Lemons","Fruit/lemon.png","Won","0.2,0.65","11","0.2","4","1","",""
"html-keyboard-response","12","85228","0.0-11.0-3.0","62c5e680e4a4b4648606d756","bdp_rwlrn","Tue Mar 14 2023 12:55:57 GMT-0500 (Central Daylight Time)","401176","Untrustworthy,Trustworthy","","null","","","","feedback","","<div class='respPicDiv'><img src='img/responseButtonOffersNo0_wht.png' class='respPic'></div><div class='trialDiv'><img src='Fruit/lemon.png'><br><font class='baseline'><strong>Lucky Lemons</strong><p><strong><font class='posOutcome'>You WON</font><p>You bet: 1</strong></font> &nbsp; &nbsp; &nbsp; &nbsp; &nbsp; &nbsp;<font class='posOutcome'>you receive: <strong>2</strong></font></div>","null","1","Lucky Lemons","Fruit/lemon.png","Won","0.2,0.65","11","0.2","6","1","",""
"html-keyboard-response","13","86478","0.0-11.0-1.1","62c5e680e4a4b4648606d756","bdp_rwlrn","Tue Mar 14 2023 12:55:57 GMT-0500 (Central Daylight Time)","401176","Untrustworthy,Trustworthy","","1249","","","","decision","","<div class='trialDiv'><img src='Fruit/grapes.png'><br><font class='baseline'><strong>Great Grapes</strong><p>Choose number of points to bet.</font><div class='respPicDiv'><img src='img/responseButtonOffersNo0L.png' class='respPic'></div></div>","1","1","Great Grapes","Fruit/grapes.png","Won","0.65,0.35","14","0.65","11","2","",""
"html-keyboard-response","14","86730","0.0-11.0-2.1","62c5e680e4a4b4648606d756","bdp_rwlrn","Tue Mar 14 2023 12:55:57 GMT-0500 (Central Daylight Time)","401176","Untrustworthy,Trustworthy","","null","","","","decisionFB","","<div class='trialDiv'><img src='Fruit/grapes.png'><br><font class='baseline'><strong>Great Grapes</strong><p>Choose number of points to bet.</font><div class='respPicDiv'><img src='img/responseButtonOffersNo0L1.png' class='respPic'></div></div>","null","1","Great Grapes","Fruit/grapes.png","Won","0.65,0.35","14","0.65","10","2","",""
"html-keyboard-response","15","87733","0.0-11.0-3.1","62c5e680e4a4b4648606d756","bdp_rwlrn","Tue Mar 14 2023 12:55:57 GMT-0500 (Central Daylight Time)","401176","Untrustworthy,Trustworthy","","null","","","","feedback","","<div class='respPicDiv'><img src='img/responseButtonOffersNo0_wht.png' class='respPic'></div><div class='trialDiv'><img src='Fruit/grapes.png'><br><font class='baseline'><strong>Great Grapes</strong><p><strong><font class='posOutcome'>You WON</font><p>You bet: 1</strong></font> &nbsp; &nbsp; &nbsp; &nbsp; &nbsp; &nbsp;<font class='posOutcome'>you receive: <strong>2</strong></font></div>","null","1","Great Grapes","Fruit/grapes.png","Won","0.65,0.35","14","0.65","12","2","",""
"html-keyboard-response","16","88335","0.0-11.0-1.2","62c5e680e4a4b4648606d756","bdp_rwlrn","Tue Mar 14 2023 12:55:57 GMT-0500 (Central Daylight Time)","401176","Untrustworthy,Trustworthy","","602","","","","decision","","<div class='trialDiv'><img src='Fruit/watermelon.png'><br><font class='baseline'><strong>Watermelon Win$</strong><p>Choose number of points to bet.</font><div class='respPicDiv'><img src='img/responseButtonOffersNo0L.png' class='respPic'></div></div>","1","1","Watermelon Win$","Fruit/watermelon.png","Lost","0.8,0.35","14","0.8","17","3","",""
"html-keyboard-response","17","88587","0.0-11.0-2.2","62c5e680e4a4b4648606d756","bdp_rwlrn","Tue Mar 14 2023 12:55:57 GMT-0500 (Central Daylight Time)","401176","Untrustworthy,Trustworthy","","null","","","","decisionFB","","<div class='trialDiv'><img src='Fruit/watermelon.png'><br><font class='baseline'><strong>Watermelon Win$</strong><p>Choose number of points to bet.</font><div class='respPicDiv'><img src='img/responseButtonOffersNo0L1.png' class='respPic'></div></div>","null","1","Watermelon Win$","Fruit/watermelon.png","Lost","0.8,0.35","14","0.8","16","3","",""
"html-keyboard-response","18","89589","0.0-11.0-3.2","62c5e680e4a4b4648606d756","bdp_rwlrn","Tue Mar 14 2023 12:55:57 GMT-0500 (Central Daylight Time)","401176","Untrustworthy,Trustworthy","","null","","","","feedback","","<div class='respPicDiv'><img src='img/responseButtonOffersNo0_wht.png' class='respPic'></div><div class='trialDiv'><img src='Fruit/watermelon.png'><br><font class='baseline'><strong>Watermelon Win$</strong><p><strong><font class='negOutcome'>You LOST</font><p>You bet: 1</strong></font> &nbsp; &nbsp; &nbsp; &nbsp; &nbsp; &nbsp;<font class='negOutcome'>You receive: <strong>0</strong></font></div>","null","1","Watermelon Win$","Fruit/watermelon.png","Lost","0.8,0.35","14","0.8","16","3","",""
"html-keyboard-response","19","91164","0.0-11.0-1.3","62c5e680e4a4b4648606d756","bdp_rwlrn","Tue Mar 14 2023 12:55:57 GMT-0500 (Central Daylight Time)","401176","Untrustworthy,Trustworthy","","1575","","","","decision","","<div class='trialDiv'><img src='Fruit/grapes.png'><br><font class='baseline'><strong>Great Grapes</strong><p>Choose number of points to bet.</font><div class='respPicDiv'><img src='img/responseButtonOffersNo0L.png' class='respPic'></div></div>","2","2","Great Grapes","Fruit/grapes.png","Lost","0.65,0.35","14","0.65","21","4","",""
"html-keyboard-response","20","91416","0.0-11.0-2.3","62c5e680e4a4b4648606d756","bdp_rwlrn","Tue Mar 14 2023 12:55:57 GMT-0500 (Central Daylight Time)","401176","Untrustworthy,Trustworthy","","null","","","","decisionFB","","<div class='trialDiv'><img src='Fruit/grapes.png'><br><font class='baseline'><strong>Great Grapes</strong><p>Choose number of points to bet.</font><div class='respPicDiv'><img src='img/responseButtonOffersNo0L2.png' class='respPic'></div></div>","null","2","Great Grapes","Fruit/grapes.png","Lost","0.65,0.35","14","0.65","19","4","",""
"html-keyboard-response","21","92417","0.0-11.0-3.3","62c5e680e4a4b4648606d756","bdp_rwlrn","Tue Mar 14 2023 12:55:57 GMT-0500 (Central Daylight Time)","401176","Untrustworthy,Trustworthy","","null","","","","feedback","","<div class='respPicDiv'><img src='img/responseButtonOffersNo0_wht.png' class='respPic'></div><div class='trialDiv'><img src='Fruit/grapes.png'><br><font class='baseline'><strong>Great Grapes</strong><p><strong><font class='negOutcome'>You LOST</font><p>You bet: 2</strong></font> &nbsp; &nbsp; &nbsp; &nbsp; &nbsp; &nbsp;<font class='negOutcome'>You receive: <strong>0</strong></font></div>","null","2","Great Grapes","Fruit/grapes.png","Lost","0.65,0.35","14","0.65","19","4","",""
"html-keyboard-response","22","93412","0.0-11.0-1.4","62c5e680e4a4b4648606d756","bdp_rwlrn","Tue Mar 14 2023 12:55:57 GMT-0500 (Central Daylight Time)","401176","Untrustworthy,Trustworthy","","995","","","","decision","","<div class='trialDiv'><img src='Fruit/lemon.png'><br><font class='baseline'><strong>Lucky Lemons</strong><p>Choose number of points to bet.</font><div class='respPicDiv'><img src='img/responseButtonOffersNo0L.png' class='respPic'></div></div>","2","2","Lucky Lemons","Fruit/lemon.png","Lost","0.2,0.65","11","0.2","24","5","",""
"html-keyboard-response","23","93666","0.0-11.0-2.4","62c5e680e4a4b4648606d756","bdp_rwlrn","Tue Mar 14 2023 12:55:57 GMT-0500 (Central Daylight Time)","401176","Untrustworthy,Trustworthy","","null","","","","decisionFB","","<div class='trialDiv'><img src='Fruit/lemon.png'><br><font class='baseline'><strong>Lucky Lemons</strong><p>Choose number of points to bet.</font><div class='respPicDiv'><img src='img/responseButtonOffersNo0L2.png' class='respPic'></div></div>","null","2","Lucky Lemons","Fruit/lemon.png","Lost","0.2,0.65","11","0.2","22","5","",""
"html-keyboard-response","24","94667","0.0-11.0-3.4","62c5e680e4a4b4648606d756","bdp_rwlrn","Tue Mar 14 2023 12:55:57 GMT-0500 (Central Daylight Time)","401176","Untrustworthy,Trustworthy","","null","","","","feedback","","<div class='respPicDiv'><img src='img/responseButtonOffersNo0_wht.png' class='respPic'></div><div class='trialDiv'><img src='Fruit/lemon.png'><br><font class='baseline'><strong>Lucky Lemons</strong><p><strong><font class='negOutcome'>You LOST</font><p>You bet: 2</strong></font> &nbsp; &nbsp; &nbsp; &nbsp; &nbsp; &nbsp;<font class='negOutcome'>You receive: <strong>0</strong></font></div>","null","2","Lucky Lemons","Fruit/lemon.png","Lost","0.2,0.65","11","0.2","22","5","",""
"html-keyboard-response","25","95337","0.0-11.0-1.5","62c5e680e4a4b4648606d756","bdp_rwlrn","Tue Mar 14 2023 12:55:57 GMT-0500 (Central Daylight Time)","401176","Untrustworthy,Trustworthy","","670","","","","decision","","<div class='trialDiv'><img src='Fruit/watermelon.png'><br><font class='baseline'><strong>Watermelon Win$</strong><p>Choose number of points to bet.</font><div class='respPicDiv'><img src='img/responseButtonOffersNo0L.png' class='respPic'></div></div>","1","2","Watermelon Win$","Fruit/watermelon.png","Won","0.8,0.35","14","0.8","27","6","",""
"html-keyboard-response","26","95589","0.0-11.0-2.5","62c5e680e4a4b4648606d756","bdp_rwlrn","Tue Mar 14 2023 12:55:57 GMT-0500 (Central Daylight Time)","401176","Untrustworthy,Trustworthy","","null","","","","decisionFB","","<div class='trialDiv'><img src='Fruit/watermelon.png'><br><font class='baseline'><strong>Watermelon Win$</strong><p>Choose number of points to bet.</font><div class='respPicDiv'><img src='img/responseButtonOffersNo0L1.png' class='respPic'></div></div>","null","2","Watermelon Win$","Fruit/watermelon.png","Won","0.8,0.35","14","0.8","26","6","",""
"html-keyboard-response","27","96590","0.0-11.0-3.5","62c5e680e4a4b4648606d756","bdp_rwlrn","Tue Mar 14 2023 12:55:57 GMT-0500 (Central Daylight Time)","401176","Untrustworthy,Trustworthy","","null","","","","feedback","","<div class='respPicDiv'><img src='img/responseButtonOffersNo0_wht.png' class='respPic'></div><div class='trialDiv'><img src='Fruit/watermelon.png'><br><font class='baseline'><strong>Watermelon Win$</strong><p><strong><font class='posOutcome'>You WON</font><p>You bet: 1</strong></font> &nbsp; &nbsp; &nbsp; &nbsp; &nbsp; &nbsp;<font class='posOutcome'>you receive: <strong>2</strong></font></div>","null","2","Watermelon Win$","Fruit/watermelon.png","Won","0.8,0.35","14","0.8","28","6","",""
"html-keyboard-response","28","99157","0.0-11.0-1.6","62c5e680e4a4b4648606d756","bdp_rwlrn","Tue Mar 14 2023 12:55:57 GMT-0500 (Central Daylight Time)","401176","Untrustworthy,Trustworthy","","2567","","","","decision","","<div class='trialDiv'><img src='Fruit/grapes.png'><br><font class='baseline'><strong>Great Grapes</strong><p>Choose number of points to bet.</font><div class='respPicDiv'><img src='img/responseButtonOffersNo0L.png' class='respPic'></div></div>","1","3","Great Grapes","Fruit/grapes.png","Won","0.65,0.35","14","0.65","33","7","",""
"html-keyboard-response","29","99408","0.0-11.0-2.6","62c5e680e4a4b4648606d756","bdp_rwlrn","Tue Mar 14 2023 12:55:57 GMT-0500 (Central Daylight Time)","401176","Untrustworthy,Trustworthy","","null","","","","decisionFB","","<div class='trialDiv'><img src='Fruit/grapes.png'><br><font class='baseline'><strong>Great Grapes</strong><p>Choose number of points to bet.</font><div class='respPicDiv'><img src='img/responseButtonOffersNo0L1.png' class='respPic'></div></div>","null","3","Great Grapes","Fruit/grapes.png","Won","0.65,0.35","14","0.65","32","7","",""
"html-keyboard-response","30","100410","0.0-11.0-3.6","62c5e680e4a4b4648606d756","bdp_rwlrn","Tue Mar 14 2023 12:55:57 GMT-0500 (Central Daylight Time)","401176","Untrustworthy,Trustworthy","","null","","","","feedback","","<div class='respPicDiv'><img src='img/responseButtonOffersNo0_wht.png' class='respPic'></div><div class='trialDiv'><img src='Fruit/grapes.png'><br><font class='baseline'><strong>Great Grapes</strong><p><strong><font class='posOutcome'>You WON</font><p>You bet: 1</strong></font> &nbsp; &nbsp; &nbsp; &nbsp; &nbsp; &nbsp;<font class='posOutcome'>you receive: <strong>2</strong></font></div>","null","3","Great Grapes","Fruit/grapes.png","Won","0.65,0.35","14","0.65","34","7","",""
"html-keyboard-response","31","101222","0.0-11.0-1.7","62c5e680e4a4b4648606d756","bdp_rwlrn","Tue Mar 14 2023 12:55:57 GMT-0500 (Central Daylight Time)","401176","Untrustworthy,Trustworthy","","812","","","","decision","","<div class='trialDiv'><img src='Fruit/lemon.png'><br><font class='baseline'><strong>Lucky Lemons</strong><p>Choose number of points to bet.</font><div class='respPicDiv'><img src='img/responseButtonOffersNo0L.png' class='respPic'></div></div>","1","3","Lucky Lemons","Fruit/lemon.png","Lost","0.2,0.65","11","0.2","39","8","",""
"html-keyboard-response","32","101474","0.0-11.0-2.7","62c5e680e4a4b4648606d756","bdp_rwlrn","Tue Mar 14 2023 12:55:57 GMT-0500 (Central Daylight Time)","401176","Untrustworthy,Trustworthy","","null","","","","decisionFB","","<div class='trialDiv'><img src='Fruit/lemon.png'><br><font class='baseline'><strong>Lucky Lemons</strong><p>Choose number of points to bet.</font><div class='respPicDiv'><img src='img/responseButtonOffersNo0L1.png' class='respPic'></div></div>","null","3","Lucky Lemons","Fruit/lemon.png","Lost","0.2,0.65","11","0.2","38","8","",""
"html-keyboard-response","33","102475","0.0-11.0-3.7","62c5e680e4a4b4648606d756","bdp_rwlrn","Tue Mar 14 2023 12:55:57 GMT-0500 (Central Daylight Time)","401176","Untrustworthy,Trustworthy","","null","","","","feedback","","<div class='respPicDiv'><img src='img/responseButtonOffersNo0_wht.png' class='respPic'></div><div class='trialDiv'><img src='Fruit/lemon.png'><br><font class='baseline'><strong>Lucky Lemons</strong><p><strong><font class='negOutcome'>You LOST</font><p>You bet: 1</strong></font> &nbsp; &nbsp; &nbsp; &nbsp; &nbsp; &nbsp;<font class='negOutcome'>You receive: <strong>0</strong></font></div>","null","3","Lucky Lemons","Fruit/lemon.png","Lost","0.2,0.65","11","0.2","38","8","",""
"html-keyboard-response","34","103148","0.0-11.0-1.8","62c5e680e4a4b4648606d756","bdp_rwlrn","Tue Mar 14 2023 12:55:57 GMT-0500 (Central Daylight Time)","401176","Untrustworthy,Trustworthy","","672","","","","decision","","<div class='trialDiv'><img src='Fruit/watermelon.png'><br><font class='baseline'><strong>Watermelon Win$</strong><p>Choose number of points to bet.</font><div class='respPicDiv'><img src='img/responseButtonOffersNo0L.png' class='respPic'></div></div>","1","3","Watermelon Win$","Fruit/watermelon.png","Lost","0.8,0.35","14","0.8","43","9","",""
"html-keyboard-response","35","103400","0.0-11.0-2.8","62c5e680e4a4b4648606d756","bdp_rwlrn","Tue Mar 14 2023 12:55:57 GMT-0500 (Central Daylight Time)","401176","Untrustworthy,Trustworthy","","null","","","","decisionFB","","<div class='trialDiv'><img src='Fruit/watermelon.png'><br><font class='baseline'><strong>Watermelon Win$</strong><p>Choose number of points to bet.</font><div class='respPicDiv'><img src='img/responseButtonOffersNo0L1.png' class='respPic'></div></div>","null","3","Watermelon Win$","Fruit/watermelon.png","Lost","0.8,0.35","14","0.8","42","9","",""
"html-keyboard-response","36","104401","0.0-11.0-3.8","62c5e680e4a4b4648606d756","bdp_rwlrn","Tue Mar 14 2023 12:55:57 GMT-0500 (Central Daylight Time)","401176","Untrustworthy,Trustworthy","","null","","","","feedback","","<div class='respPicDiv'><img src='img/responseButtonOffersNo0_wht.png' class='respPic'></div><div class='trialDiv'><img src='Fruit/watermelon.png'><br><font class='baseline'><strong>Watermelon Win$</strong><p><strong><font class='negOutcome'>You LOST</font><p>You bet: 1</strong></font> &nbsp; &nbsp; &nbsp; &nbsp; &nbsp; &nbsp;<font class='negOutcome'>You receive: <strong>0</strong></font></div>","null","3","Watermelon Win$","Fruit/watermelon.png","Lost","0.8,0.35","14","0.8","42","9","",""
"html-keyboard-response","37","105931","0.0-11.0-1.9","62c5e680e4a4b4648606d756","bdp_rwlrn","Tue Mar 14 2023 12:55:57 GMT-0500 (Central Daylight Time)","401176","Untrustworthy,Trustworthy","","1530","","","","decision","","<div class='trialDiv'><img src='Fruit/grapes.png'><br><font class='baseline'><strong>Great Grapes</strong><p>Choose number of points to bet.</font><div class='respPicDiv'><img src='img/responseButtonOffersNo0L.png' class='respPic'></div></div>","3","4","Great Grapes","Fruit/grapes.png","Lost","0.65,0.35","14","0.65","47","10","",""
"html-keyboard-response","38","106183","0.0-11.0-2.9","62c5e680e4a4b4648606d756","bdp_rwlrn","Tue Mar 14 2023 12:55:57 GMT-0500 (Central Daylight Time)","401176","Untrustworthy,Trustworthy","","null","","","","decisionFB","","<div class='trialDiv'><img src='Fruit/grapes.png'><br><font class='baseline'><strong>Great Grapes</strong><p>Choose number of points to bet.</font><div class='respPicDiv'><img src='img/responseButtonOffersNo0L3.png' class='respPic'></div></div>","null","4","Great Grapes","Fruit/grapes.png","Lost","0.65,0.35","14","0.65","44","10","",""
"html-keyboard-response","39","107186","0.0-11.0-3.9","62c5e680e4a4b4648606d756","bdp_rwlrn","Tue Mar 14 2023 12:55:57 GMT-0500 (Central Daylight Time)","401176","Untrustworthy,Trustworthy","","null","","","","feedback","","<div class='respPicDiv'><img src='img/responseButtonOffersNo0_wht.png' class='respPic'></div><div class='trialDiv'><img src='Fruit/grapes.png'><br><font class='baseline'><strong>Great Grapes</strong><p><strong><font class='negOutcome'>You LOST</font><p>You bet: 3</strong></font> &nbsp; &nbsp; &nbsp; &nbsp; &nbsp; &nbsp;<font class='negOutcome'>You receive: <strong>0</strong></font></div>","null","4","Great Grapes","Fruit/grapes.png","Lost","0.65,0.35","14","0.65","44","10","",""
"html-keyboard-response","40","108111","0.0-11.0-1.10","62c5e680e4a4b4648606d756","bdp_rwlrn","Tue Mar 14 2023 12:55:57 GMT-0500 (Central Daylight Time)","401176","Untrustworthy,Trustworthy","","925","","","","decision","","<div class='trialDiv'><img src='Fruit/watermelon.png'><br><font class='baseline'><strong>Watermelon Win$</strong><p>Choose number of points to bet.</font><div class='respPicDiv'><img src='img/responseButtonOffersNo0L.png' class='respPic'></div></div>","3","4","Watermelon Win$","Fruit/watermelon.png","Won","0.8,0.35","14","0.8","49","11","",""
"html-keyboard-response","41","108362","0.0-11.0-2.10","62c5e680e4a4b4648606d756","bdp_rwlrn","Tue Mar 14 2023 12:55:57 GMT-0500 (Central Daylight Time)","401176","Untrustworthy,Trustworthy","","null","","","","decisionFB","","<div class='trialDiv'><img src='Fruit/watermelon.png'><br><font class='baseline'><strong>Watermelon Win$</strong><p>Choose number of points to bet.</font><div class='respPicDiv'><img src='img/responseButtonOffersNo0L3.png' class='respPic'></div></div>","null","4","Watermelon Win$","Fruit/watermelon.png","Won","0.8,0.35","14","0.8","46","11","",""
"html-keyboard-response","42","109365","0.0-11.0-3.10","62c5e680e4a4b4648606d756","bdp_rwlrn","Tue Mar 14 2023 12:55:57 GMT-0500 (Central Daylight Time)","401176","Untrustworthy,Trustworthy","","null","","","","feedback","","<div class='respPicDiv'><img src='img/responseButtonOffersNo0_wht.png' class='respPic'></div><div class='trialDiv'><img src='Fruit/watermelon.png'><br><font class='baseline'><strong>Watermelon Win$</strong><p><strong><font class='posOutcome'>You WON</font><p>You bet: 3</strong></font> &nbsp; &nbsp; &nbsp; &nbsp; &nbsp; &nbsp;<font class='posOutcome'>you receive: <strong>6</strong></font></div>","null","4","Watermelon Win$","Fruit/watermelon.png","Won","0.8,0.35","14","0.8","52","11","",""
"html-keyboard-response","43","110033","0.0-11.0-1.11","62c5e680e4a4b4648606d756","bdp_rwlrn","Tue Mar 14 2023 12:55:57 GMT-0500 (Central Daylight Time)","401176","Untrustworthy,Trustworthy","","668","","","","decision","","<div class='trialDiv'><img src='Fruit/lemon.png'><br><font class='baseline'><strong>Lucky Lemons</strong><p>Choose number of points to bet.</font><div class='respPicDiv'><img src='img/responseButtonOffersNo0L.png' class='respPic'></div></div>","1","4","Lucky Lemons","Fruit/lemon.png","Won","0.2,0.65","11","0.2","57","12","",""
"html-keyboard-response","44","110284","0.0-11.0-2.11","62c5e680e4a4b4648606d756","bdp_rwlrn","Tue Mar 14 2023 12:55:57 GMT-0500 (Central Daylight Time)","401176","Untrustworthy,Trustworthy","","null","","","","decisionFB","","<div class='trialDiv'><img src='Fruit/lemon.png'><br><font class='baseline'><strong>Lucky Lemons</strong><p>Choose number of points to bet.</font><div class='respPicDiv'><img src='img/responseButtonOffersNo0L1.png' class='respPic'></div></div>","null","4","Lucky Lemons","Fruit/lemon.png","Won","0.2,0.65","11","0.2","56","12","",""
"html-keyboard-response","45","111287","0.0-11.0-3.11","62c5e680e4a4b4648606d756","bdp_rwlrn","Tue Mar 14 2023 12:55:57 GMT-0500 (Central Daylight Time)","401176","Untrustworthy,Trustworthy","","null","","","","feedback","","<div class='respPicDiv'><img src='img/responseButtonOffersNo0_wht.png' class='respPic'></div><div class='trialDiv'><img src='Fruit/lemon.png'><br><font class='baseline'><strong>Lucky Lemons</strong><p><strong><font class='posOutcome'>You WON</font><p>You bet: 1</strong></font> &nbsp; &nbsp; &nbsp; &nbsp; &nbsp; &nbsp;<font class='posOutcome'>you receive: <strong>2</strong></font></div>","null","4","Lucky Lemons","Fruit/lemon.png","Won","0.2,0.65","11","0.2","58","12","",""
"html-keyboard-response","46","112494","0.0-11.0-1.12","62c5e680e4a4b4648606d756","bdp_rwlrn","Tue Mar 14 2023 12:55:57 GMT-0500 (Central Daylight Time)","401176","Untrustworthy,Trustworthy","","1207","","","","decision","","<div class='trialDiv'><img src='Fruit/watermelon.png'><br><font class='baseline'><strong>Watermelon Win$</strong><p>Choose number of points to bet.</font><div class='respPicDiv'><img src='img/responseButtonOffersNo0L.png' class='respPic'></div></div>","3","5","Watermelon Win$","Fruit/watermelon.png","Won","0.8,0.35","14","0.8","63","13","",""
"html-keyboard-response","47","112746","0.0-11.0-2.12","62c5e680e4a4b4648606d756","bdp_rwlrn","Tue Mar 14 2023 12:55:57 GMT-0500 (Central Daylight Time)","401176","Untrustworthy,Trustworthy","","null","","","","decisionFB","","<div class='trialDiv'><img src='Fruit/watermelon.png'><br><font class='baseline'><strong>Watermelon Win$</strong><p>Choose number of points to bet.</font><div class='respPicDiv'><img src='img/responseButtonOffersNo0L3.png' class='respPic'></div></div>","null","5","Watermelon Win$","Fruit/watermelon.png","Won","0.8,0.35","14","0.8","60","13","",""
"html-keyboard-response","48","113748","0.0-11.0-3.12","62c5e680e4a4b4648606d756","bdp_rwlrn","Tue Mar 14 2023 12:55:57 GMT-0500 (Central Daylight Time)","401176","Untrustworthy,Trustworthy","","null","","","","feedback","","<div class='respPicDiv'><img src='img/responseButtonOffersNo0_wht.png' class='respPic'></div><div class='trialDiv'><img src='Fruit/watermelon.png'><br><font class='baseline'><strong>Watermelon Win$</strong><p><strong><font class='posOutcome'>You WON</font><p>You bet: 3</strong></font> &nbsp; &nbsp; &nbsp; &nbsp; &nbsp; &nbsp;<font class='posOutcome'>you receive: <strong>6</strong></font></div>","null","5","Watermelon Win$","Fruit/watermelon.png","Won","0.8,0.35","14","0.8","66","13","",""
"html-keyboard-response","49","114417","0.0-11.0-1.13","62c5e680e4a4b4648606d756","bdp_rwlrn","Tue Mar 14 2023 12:55:57 GMT-0500 (Central Daylight Time)","401176","Untrustworthy,Trustworthy","","669","","","","decision","","<div class='trialDiv'><img src='Fruit/grapes.png'><br><font class='baseline'><strong>Great Grapes</strong><p>Choose number of points to bet.</font><div class='respPicDiv'><img src='img/responseButtonOffersNo0L.png' class='respPic'></div></div>","1","5","Great Grapes","Fruit/grapes.png","Won","0.65,0.35","14","0.65","71","14","",""
"html-keyboard-response","50","114669","0.0-11.0-2.13","62c5e680e4a4b4648606d756","bdp_rwlrn","Tue Mar 14 2023 12:55:57 GMT-0500 (Central Daylight Time)","401176","Untrustworthy,Trustworthy","","null","","","","decisionFB","","<div class='trialDiv'><img src='Fruit/grapes.png'><br><font class='baseline'><strong>Great Grapes</strong><p>Choose number of points to bet.</font><div class='respPicDiv'><img src='img/responseButtonOffersNo0L1.png' class='respPic'></div></div>","null","5","Great Grapes","Fruit/grapes.png","Won","0.65,0.35","14","0.65","70","14","",""
"html-keyboard-response","51","115670","0.0-11.0-3.13","62c5e680e4a4b4648606d756","bdp_rwlrn","Tue Mar 14 2023 12:55:57 GMT-0500 (Central Daylight Time)","401176","Untrustworthy,Trustworthy","","null","","","","feedback","","<div class='respPicDiv'><img src='img/responseButtonOffersNo0_wht.png' class='respPic'></div><div class='trialDiv'><img src='Fruit/grapes.png'><br><font class='baseline'><strong>Great Grapes</strong><p><strong><font class='posOutcome'>You WON</font><p>You bet: 1</strong></font> &nbsp; &nbsp; &nbsp; &nbsp; &nbsp; &nbsp;<font class='posOutcome'>you receive: <strong>2</strong></font></div>","null","5","Great Grapes","Fruit/grapes.png","Won","0.65,0.35","14","0.65","72","14","",""
"html-keyboard-response","52","116320","0.0-11.0-1.14","62c5e680e4a4b4648606d756","bdp_rwlrn","Tue Mar 14 2023 12:55:57 GMT-0500 (Central Daylight Time)","401176","Untrustworthy,Trustworthy","","650","","","","decision","","<div class='trialDiv'><img src='Fruit/lemon.png'><br><font class='baseline'><strong>Lucky Lemons</strong><p>Choose number of points to bet.</font><div class='respPicDiv'><img src='img/responseButtonOffersNo0L.png' class='respPic'></div></div>","1","5","Lucky Lemons","Fruit/lemon.png","Lost","0.2,0.65","11","0.2","77","15","",""
"html-keyboard-response","53","116572","0.0-11.0-2.14","62c5e680e4a4b4648606d756","bdp_rwlrn","Tue Mar 14 2023 12:55:57 GMT-0500 (Central Daylight Time)","401176","Untrustworthy,Trustworthy","","null","","","","decisionFB","","<div class='trialDiv'><img src='Fruit/lemon.png'><br><font class='baseline'><strong>Lucky Lemons</strong><p>Choose number of points to bet.</font><div class='respPicDiv'><img src='img/responseButtonOffersNo0L1.png' class='respPic'></div></div>","null","5","Lucky Lemons","Fruit/lemon.png","Lost","0.2,0.65","11","0.2","76","15","",""
"html-keyboard-response","54","117573","0.0-11.0-3.14","62c5e680e4a4b4648606d756","bdp_rwlrn","Tue Mar 14 2023 12:55:57 GMT-0500 (Central Daylight Time)","401176","Untrustworthy,Trustworthy","","null","","","","feedback","","<div class='respPicDiv'><img src='img/responseButtonOffersNo0_wht.png' class='respPic'></div><div class='trialDiv'><img src='Fruit/lemon.png'><br><font class='baseline'><strong>Lucky Lemons</strong><p><strong><font class='negOutcome'>You LOST</font><p>You bet: 1</strong></font> &nbsp; &nbsp; &nbsp; &nbsp; &nbsp; &nbsp;<font class='negOutcome'>You receive: <strong>0</strong></font></div>","null","5","Lucky Lemons","Fruit/lemon.png","Lost","0.2,0.65","11","0.2","76","15","",""
"html-keyboard-response","55","117945","0.0-11.0-1.15","62c5e680e4a4b4648606d756","bdp_rwlrn","Tue Mar 14 2023 12:55:57 GMT-0500 (Central Daylight Time)","401176","Untrustworthy,Trustworthy","","372","","","","decision","","<div class='trialDiv'><img src='Fruit/grapes.png'><br><font class='baseline'><strong>Great Grapes</strong><p>Choose number of points to bet.</font><div class='respPicDiv'><img src='img/responseButtonOffersNo0L.png' class='respPic'></div></div>","1","6","Great Grapes","Fruit/grapes.png","Lost","0.65,0.35","14","0.65","81","16","",""
"html-keyboard-response","56","118196","0.0-11.0-2.15","62c5e680e4a4b4648606d756","bdp_rwlrn","Tue Mar 14 2023 12:55:57 GMT-0500 (Central Daylight Time)","401176","Untrustworthy,Trustworthy","","null","","","","decisionFB","","<div class='trialDiv'><img src='Fruit/grapes.png'><br><font class='baseline'><strong>Great Grapes</strong><p>Choose number of points to bet.</font><div class='respPicDiv'><img src='img/responseButtonOffersNo0L1.png' class='respPic'></div></div>","null","6","Great Grapes","Fruit/grapes.png","Lost","0.65,0.35","14","0.65","80","16","",""
"html-keyboard-response","57","119197","0.0-11.0-3.15","62c5e680e4a4b4648606d756","bdp_rwlrn","Tue Mar 14 2023 12:55:57 GMT-0500 (Central Daylight Time)","401176","Untrustworthy,Trustworthy","","null","","","","feedback","","<div class='respPicDiv'><img src='img/responseButtonOffersNo0_wht.png' class='respPic'></div><div class='trialDiv'><img src='Fruit/grapes.png'><br><font class='baseline'><strong>Great Grapes</strong><p><strong><font class='negOutcome'>You LOST</font><p>You bet: 1</strong></font> &nbsp; &nbsp; &nbsp; &nbsp; &nbsp; &nbsp;<font class='negOutcome'>You receive: <strong>0</strong></font></div>","null","6","Great Grapes","Fruit/grapes.png","Lost","0.65,0.35","14","0.65","80","16","",""
"html-keyboard-response","58","120469","0.0-11.0-1.16","62c5e680e4a4b4648606d756","bdp_rwlrn","Tue Mar 14 2023 12:55:57 GMT-0500 (Central Daylight Time)","401176","Untrustworthy,Trustworthy","","1271","","","","decision","","<div class='trialDiv'><img src='Fruit/watermelon.png'><br><font class='baseline'><strong>Watermelon Win$</strong><p>Choose number of points to bet.</font><div class='respPicDiv'><img src='img/responseButtonOffersNo0L.png' class='respPic'></div></div>","5","6","Watermelon Win$","Fruit/watermelon.png","Won","0.8,0.35","14","0.8","85","17","",""
"html-keyboard-response","59","120720","0.0-11.0-2.16","62c5e680e4a4b4648606d756","bdp_rwlrn","Tue Mar 14 2023 12:55:57 GMT-0500 (Central Daylight Time)","401176","Untrustworthy,Trustworthy","","null","","","","decisionFB","","<div class='trialDiv'><img src='Fruit/watermelon.png'><br><font class='baseline'><strong>Watermelon Win$</strong><p>Choose number of points to bet.</font><div class='respPicDiv'><img src='img/responseButtonOffersNo0L5.png' class='respPic'></div></div>","null","6","Watermelon Win$","Fruit/watermelon.png","Won","0.8,0.35","14","0.8","80","17","",""
"html-keyboard-response","60","121723","0.0-11.0-3.16","62c5e680e4a4b4648606d756","bdp_rwlrn","Tue Mar 14 2023 12:55:57 GMT-0500 (Central Daylight Time)","401176","Untrustworthy,Trustworthy","","null","","","","feedback","","<div class='respPicDiv'><img src='img/responseButtonOffersNo0_wht.png' class='respPic'></div><div class='trialDiv'><img src='Fruit/watermelon.png'><br><font class='baseline'><strong>Watermelon Win$</strong><p><strong><font class='posOutcome'>You WON</font><p>You bet: 5</strong></font> &nbsp; &nbsp; &nbsp; &nbsp; &nbsp; &nbsp;<font class='posOutcome'>you receive: <strong>10</strong></font></div>","null","6","Watermelon Win$","Fruit/watermelon.png","Won","0.8,0.35","14","0.8","90","17","",""
"html-keyboard-response","61","122971","0.0-11.0-1.17","62c5e680e4a4b4648606d756","bdp_rwlrn","Tue Mar 14 2023 12:55:57 GMT-0500 (Central Daylight Time)","401176","Untrustworthy,Trustworthy","","1248","","","","decision","","<div class='trialDiv'><img src='Fruit/lemon.png'><br><font class='baseline'><strong>Lucky Lemons</strong><p>Choose number of points to bet.</font><div class='respPicDiv'><img src='img/responseButtonOffersNo0L.png' class='respPic'></div></div>","2","6","Lucky Lemons","Fruit/lemon.png","Won","0.2,0.65","11","0.2","95","18","",""
"html-keyboard-response","62","123223","0.0-11.0-2.17","62c5e680e4a4b4648606d756","bdp_rwlrn","Tue Mar 14 2023 12:55:57 GMT-0500 (Central Daylight Time)","401176","Untrustworthy,Trustworthy","","null","","","","decisionFB","","<div class='trialDiv'><img src='Fruit/lemon.png'><br><font class='baseline'><strong>Lucky Lemons</strong><p>Choose number of points to bet.</font><div class='respPicDiv'><img src='img/responseButtonOffersNo0L2.png' class='respPic'></div></div>","null","6","Lucky Lemons","Fruit/lemon.png","Won","0.2,0.65","11","0.2","93","18","",""
"html-keyboard-response","63","124224","0.0-11.0-3.17","62c5e680e4a4b4648606d756","bdp_rwlrn","Tue Mar 14 2023 12:55:57 GMT-0500 (Central Daylight Time)","401176","Untrustworthy,Trustworthy","","null","","","","feedback","","<div class='respPicDiv'><img src='img/responseButtonOffersNo0_wht.png' class='respPic'></div><div class='trialDiv'><img src='Fruit/lemon.png'><br><font class='baseline'><strong>Lucky Lemons</strong><p><strong><font class='posOutcome'>You WON</font><p>You bet: 2</strong></font> &nbsp; &nbsp; &nbsp; &nbsp; &nbsp; &nbsp;<font class='posOutcome'>you receive: <strong>4</strong></font></div>","null","6","Lucky Lemons","Fruit/lemon.png","Won","0.2,0.65","11","0.2","97","18","",""
"html-keyboard-response","64","125866","0.0-11.0-1.18","62c5e680e4a4b4648606d756","bdp_rwlrn","Tue Mar 14 2023 12:55:57 GMT-0500 (Central Daylight Time)","401176","Untrustworthy,Trustworthy","","1642","","","","decision","","<div class='trialDiv'><img src='Fruit/watermelon.png'><br><font class='baseline'><strong>Watermelon Win$</strong><p>Choose number of points to bet.</font><div class='respPicDiv'><img src='img/responseButtonOffersNo0L.png' class='respPic'></div></div>","1","7","Watermelon Win$","Fruit/watermelon.png","Won","0.8,0.35","14","0.8","102","19","",""
"html-keyboard-response","65","126118","0.0-11.0-2.18","62c5e680e4a4b4648606d756","bdp_rwlrn","Tue Mar 14 2023 12:55:57 GMT-0500 (Central Daylight Time)","401176","Untrustworthy,Trustworthy","","null","","","","decisionFB","","<div class='trialDiv'><img src='Fruit/watermelon.png'><br><font class='baseline'><strong>Watermelon Win$</strong><p>Choose number of points to bet.</font><div class='respPicDiv'><img src='img/responseButtonOffersNo0L1.png' class='respPic'></div></div>","null","7","Watermelon Win$","Fruit/watermelon.png","Won","0.8,0.35","14","0.8","101","19","",""
"html-keyboard-response","66","127119","0.0-11.0-3.18","62c5e680e4a4b4648606d756","bdp_rwlrn","Tue Mar 14 2023 12:55:57 GMT-0500 (Central Daylight Time)","401176","Untrustworthy,Trustworthy","","null","","","","feedback","","<div class='respPicDiv'><img src='img/responseButtonOffersNo0_wht.png' class='respPic'></div><div class='trialDiv'><img src='Fruit/watermelon.png'><br><font class='baseline'><strong>Watermelon Win$</strong><p><strong><font class='posOutcome'>You WON</font><p>You bet: 1</strong></font> &nbsp; &nbsp; &nbsp; &nbsp; &nbsp; &nbsp;<font class='posOutcome'>you receive: <strong>2</strong></font></div>","null","7","Watermelon Win$","Fruit/watermelon.png","Won","0.8,0.35","14","0.8","103","19","",""
"html-keyboard-response","67","127978","0.0-11.0-1.19","62c5e680e4a4b4648606d756","bdp_rwlrn","Tue Mar 14 2023 12:55:57 GMT-0500 (Central Daylight Time)","401176","Untrustworthy,Trustworthy","","858","","","","decision","","<div class='trialDiv'><img src='Fruit/grapes.png'><br><font class='baseline'><strong>Great Grapes</strong><p>Choose number of points to bet.</font><div class='respPicDiv'><img src='img/responseButtonOffersNo0L.png' class='respPic'></div></div>","1","7","Great Grapes","Fruit/grapes.png","Lost","0.65,0.35","14","0.65","108","20","",""
"html-keyboard-response","68","128230","0.0-11.0-2.19","62c5e680e4a4b4648606d756","bdp_rwlrn","Tue Mar 14 2023 12:55:57 GMT-0500 (Central Daylight Time)","401176","Untrustworthy,Trustworthy","","null","","","","decisionFB","","<div class='trialDiv'><img src='Fruit/grapes.png'><br><font class='baseline'><strong>Great Grapes</strong><p>Choose number of points to bet.</font><div class='respPicDiv'><img src='img/responseButtonOffersNo0L1.png' class='respPic'></div></div>","null","7","Great Grapes","Fruit/grapes.png","Lost","0.65,0.35","14","0.65","107","20","",""
"html-keyboard-response","69","129233","0.0-11.0-3.19","62c5e680e4a4b4648606d756","bdp_rwlrn","Tue Mar 14 2023 12:55:57 GMT-0500 (Central Daylight Time)","401176","Untrustworthy,Trustworthy","","null","","","","feedback","","<div class='respPicDiv'><img src='img/responseButtonOffersNo0_wht.png' class='respPic'></div><div class='trialDiv'><img src='Fruit/grapes.png'><br><font class='baseline'><strong>Great Grapes</strong><p><strong><font class='negOutcome'>You LOST</font><p>You bet: 1</strong></font> &nbsp; &nbsp; &nbsp; &nbsp; &nbsp; &nbsp;<font class='negOutcome'>You receive: <strong>0</strong></font></div>","null","7","Great Grapes","Fruit/grapes.png","Lost","0.65,0.35","14","0.65","107","20","",""
"html-keyboard-response","70","129742","0.0-11.0-1.20","62c5e680e4a4b4648606d756","bdp_rwlrn","Tue Mar 14 2023 12:55:57 GMT-0500 (Central Daylight Time)","401176","Untrustworthy,Trustworthy","","509","","","","decision","","<div class='trialDiv'><img src='Fruit/lemon.png'><br><font class='baseline'><strong>Lucky Lemons</strong><p>Choose number of points to bet.</font><div class='respPicDiv'><img src='img/responseButtonOffersNo0L.png' class='respPic'></div></div>","1","7","Lucky Lemons","Fruit/lemon.png","Won","0.2,0.65","11","0.2","112","21","",""
"html-keyboard-response","71","129994","0.0-11.0-2.20","62c5e680e4a4b4648606d756","bdp_rwlrn","Tue Mar 14 2023 12:55:57 GMT-0500 (Central Daylight Time)","401176","Untrustworthy,Trustworthy","","null","","","","decisionFB","","<div class='trialDiv'><img src='Fruit/lemon.png'><br><font class='baseline'><strong>Lucky Lemons</strong><p>Choose number of points to bet.</font><div class='respPicDiv'><img src='img/responseButtonOffersNo0L1.png' class='respPic'></div></div>","null","7","Lucky Lemons","Fruit/lemon.png","Won","0.2,0.65","11","0.2","111","21","",""
"html-keyboard-response","72","130995","0.0-11.0-3.20","62c5e680e4a4b4648606d756","bdp_rwlrn","Tue Mar 14 2023 12:55:57 GMT-0500 (Central Daylight Time)","401176","Untrustworthy,Trustworthy","","null","","","","feedback","","<div class='respPicDiv'><img src='img/responseButtonOffersNo0_wht.png' class='respPic'></div><div class='trialDiv'><img src='Fruit/lemon.png'><br><font class='baseline'><strong>Lucky Lemons</strong><p><strong><font class='posOutcome'>You WON</font><p>You bet: 1</strong></font> &nbsp; &nbsp; &nbsp; &nbsp; &nbsp; &nbsp;<font class='posOutcome'>you receive: <strong>2</strong></font></div>","null","7","Lucky Lemons","Fruit/lemon.png","Won","0.2,0.65","11","0.2","113","21","",""
"html-keyboard-response","73","131414","0.0-11.0-1.21","62c5e680e4a4b4648606d756","bdp_rwlrn","Tue Mar 14 2023 12:55:57 GMT-0500 (Central Daylight Time)","401176","Untrustworthy,Trustworthy","","419","","","","decision","","<div class='trialDiv'><img src='Fruit/grapes.png'><br><font class='baseline'><strong>Great Grapes</strong><p>Choose number of points to bet.</font><div class='respPicDiv'><img src='img/responseButtonOffersNo0L.png' class='respPic'></div></div>","1","8","Great Grapes","Fruit/grapes.png","Won","0.65,0.35","14","0.65","118","22","",""
"html-keyboard-response","74","131665","0.0-11.0-2.21","62c5e680e4a4b4648606d756","bdp_rwlrn","Tue Mar 14 2023 12:55:57 GMT-0500 (Central Daylight Time)","401176","Untrustworthy,Trustworthy","","null","","","","decisionFB","","<div class='trialDiv'><img src='Fruit/grapes.png'><br><font class='baseline'><strong>Great Grapes</strong><p>Choose number of points to bet.</font><div class='respPicDiv'><img src='img/responseButtonOffersNo0L1.png' class='respPic'></div></div>","null","8","Great Grapes","Fruit/grapes.png","Won","0.65,0.35","14","0.65","117","22","",""
"html-keyboard-response","75","132666","0.0-11.0-3.21","62c5e680e4a4b4648606d756","bdp_rwlrn","Tue Mar 14 2023 12:55:57 GMT-0500 (Central Daylight Time)","401176","Untrustworthy,Trustworthy","","null","","","","feedback","","<div class='respPicDiv'><img src='img/responseButtonOffersNo0_wht.png' class='respPic'></div><div class='trialDiv'><img src='Fruit/grapes.png'><br><font class='baseline'><strong>Great Grapes</strong><p><strong><font class='posOutcome'>You WON</font><p>You bet: 1</strong></font> &nbsp; &nbsp; &nbsp; &nbsp; &nbsp; &nbsp;<font class='posOutcome'>you receive: <strong>2</strong></font></div>","null","8","Great Grapes","Fruit/grapes.png","Won","0.65,0.35","14","0.65","119","22","",""
"html-keyboard-response","76","133850","0.0-11.0-1.22","62c5e680e4a4b4648606d756","bdp_rwlrn","Tue Mar 14 2023 12:55:57 GMT-0500 (Central Daylight Time)","401176","Untrustworthy,Trustworthy","","1183","","","","decision","","<div class='trialDiv'><img src='Fruit/lemon.png'><br><font class='baseline'><strong>Lucky Lemons</strong><p>Choose number of points to bet.</font><div class='respPicDiv'><img src='img/responseButtonOffersNo0L.png' class='respPic'></div></div>","3","8","Lucky Lemons","Fruit/lemon.png","Lost","0.2,0.65","11","0.2","124","23","",""
"html-keyboard-response","77","134102","0.0-11.0-2.22","62c5e680e4a4b4648606d756","bdp_rwlrn","Tue Mar 14 2023 12:55:57 GMT-0500 (Central Daylight Time)","401176","Untrustworthy,Trustworthy","","null","","","","decisionFB","","<div class='trialDiv'><img src='Fruit/lemon.png'><br><font class='baseline'><strong>Lucky Lemons</strong><p>Choose number of points to bet.</font><div class='respPicDiv'><img src='img/responseButtonOffersNo0L3.png' class='respPic'></div></div>","null","8","Lucky Lemons","Fruit/lemon.png","Lost","0.2,0.65","11","0.2","121","23","",""
"html-keyboard-response","78","135104","0.0-11.0-3.22","62c5e680e4a4b4648606d756","bdp_rwlrn","Tue Mar 14 2023 12:55:57 GMT-0500 (Central Daylight Time)","401176","Untrustworthy,Trustworthy","","null","","","","feedback","","<div class='respPicDiv'><img src='img/responseButtonOffersNo0_wht.png' class='respPic'></div><div class='trialDiv'><img src='Fruit/lemon.png'><br><font class='baseline'><strong>Lucky Lemons</strong><p><strong><font class='negOutcome'>You LOST</font><p>You bet: 3</strong></font> &nbsp; &nbsp; &nbsp; &nbsp; &nbsp; &nbsp;<font class='negOutcome'>You receive: <strong>0</strong></font></div>","null","8","Lucky Lemons","Fruit/lemon.png","Lost","0.2,0.65","11","0.2","121","23","",""
"html-keyboard-response","79","136350","0.0-11.0-1.23","62c5e680e4a4b4648606d756","bdp_rwlrn","Tue Mar 14 2023 12:55:57 GMT-0500 (Central Daylight Time)","401176","Untrustworthy,Trustworthy","","1246","","","","decision","","<div class='trialDiv'><img src='Fruit/watermelon.png'><br><font class='baseline'><strong>Watermelon Win$</strong><p>Choose number of points to bet.</font><div class='respPicDiv'><img src='img/responseButtonOffersNo0L.png' class='respPic'></div></div>","1","8","Watermelon Win$","Fruit/watermelon.png","Won","0.8,0.35","14","0.8","126","24","",""
"html-keyboard-response","80","136601","0.0-11.0-2.23","62c5e680e4a4b4648606d756","bdp_rwlrn","Tue Mar 14 2023 12:55:57 GMT-0500 (Central Daylight Time)","401176","Untrustworthy,Trustworthy","","null","","","","decisionFB","","<div class='trialDiv'><img src='Fruit/watermelon.png'><br><font class='baseline'><strong>Watermelon Win$</strong><p>Choose number of points to bet.</font><div class='respPicDiv'><img src='img/responseButtonOffersNo0L1.png' class='respPic'></div></div>","null","8","Watermelon Win$","Fruit/watermelon.png","Won","0.8,0.35","14","0.8","125","24","",""
"html-keyboard-response","81","137603","0.0-11.0-3.23","62c5e680e4a4b4648606d756","bdp_rwlrn","Tue Mar 14 2023 12:55:57 GMT-0500 (Central Daylight Time)","401176","Untrustworthy,Trustworthy","","null","","","","feedback","","<div class='respPicDiv'><img src='img/responseButtonOffersNo0_wht.png' class='respPic'></div><div class='trialDiv'><img src='Fruit/watermelon.png'><br><font class='baseline'><strong>Watermelon Win$</strong><p><strong><font class='posOutcome'>You WON</font><p>You bet: 1</strong></font> &nbsp; &nbsp; &nbsp; &nbsp; &nbsp; &nbsp;<font class='posOutcome'>you receive: <strong>2</strong></font></div>","null","8","Watermelon Win$","Fruit/watermelon.png","Won","0.8,0.35","14","0.8","127","24","",""
"html-keyboard-response","82","138346","0.0-11.0-1.24","62c5e680e4a4b4648606d756","bdp_rwlrn","Tue Mar 14 2023 12:55:57 GMT-0500 (Central Daylight Time)","401176","Untrustworthy,Trustworthy","","742","","","","decision","","<div class='trialDiv'><img src='Fruit/lemon.png'><br><font class='baseline'><strong>Lucky Lemons</strong><p>Choose number of points to bet.</font><div class='respPicDiv'><img src='img/responseButtonOffersNo0L.png' class='respPic'></div></div>","1","9","Lucky Lemons","Fruit/lemon.png","Lost","0.2,0.65","11","0.2","132","25","",""
"html-keyboard-response","83","138598","0.0-11.0-2.24","62c5e680e4a4b4648606d756","bdp_rwlrn","Tue Mar 14 2023 12:55:57 GMT-0500 (Central Daylight Time)","401176","Untrustworthy,Trustworthy","","null","","","","decisionFB","","<div class='trialDiv'><img src='Fruit/lemon.png'><br><font class='baseline'><strong>Lucky Lemons</strong><p>Choose number of points to bet.</font><div class='respPicDiv'><img src='img/responseButtonOffersNo0L1.png' class='respPic'></div></div>","null","9","Lucky Lemons","Fruit/lemon.png","Lost","0.2,0.65","11","0.2","131","25","",""
"html-keyboard-response","84","139600","0.0-11.0-3.24","62c5e680e4a4b4648606d756","bdp_rwlrn","Tue Mar 14 2023 12:55:57 GMT-0500 (Central Daylight Time)","401176","Untrustworthy,Trustworthy","","null","","","","feedback","","<div class='respPicDiv'><img src='img/responseButtonOffersNo0_wht.png' class='respPic'></div><div class='trialDiv'><img src='Fruit/lemon.png'><br><font class='baseline'><strong>Lucky Lemons</strong><p><strong><font class='negOutcome'>You LOST</font><p>You bet: 1</strong></font> &nbsp; &nbsp; &nbsp; &nbsp; &nbsp; &nbsp;<font class='negOutcome'>You receive: <strong>0</strong></font></div>","null","9","Lucky Lemons","Fruit/lemon.png","Lost","0.2,0.65","11","0.2","131","25","",""
"html-keyboard-response","85","140064","0.0-11.0-1.25","62c5e680e4a4b4648606d756","bdp_rwlrn","Tue Mar 14 2023 12:55:57 GMT-0500 (Central Daylight Time)","401176","Untrustworthy,Trustworthy","","464","","","","decision","","<div class='trialDiv'><img src='Fruit/grapes.png'><br><font class='baseline'><strong>Great Grapes</strong><p>Choose number of points to bet.</font><div class='respPicDiv'><img src='img/responseButtonOffersNo0L.png' class='respPic'></div></div>","1","9","Great Grapes","Fruit/grapes.png","Lost","0.65,0.35","14","0.65","136","26","",""
"html-keyboard-response","86","140316","0.0-11.0-2.25","62c5e680e4a4b4648606d756","bdp_rwlrn","Tue Mar 14 2023 12:55:57 GMT-0500 (Central Daylight Time)","401176","Untrustworthy,Trustworthy","","null","","","","decisionFB","","<div class='trialDiv'><img src='Fruit/grapes.png'><br><font class='baseline'><strong>Great Grapes</strong><p>Choose number of points to bet.</font><div class='respPicDiv'><img src='img/responseButtonOffersNo0L1.png' class='respPic'></div></div>","null","9","Great Grapes","Fruit/grapes.png","Lost","0.65,0.35","14","0.65","135","26","",""
"html-keyboard-response","87","141318","0.0-11.0-3.25","62c5e680e4a4b4648606d756","bdp_rwlrn","Tue Mar 14 2023 12:55:57 GMT-0500 (Central Daylight Time)","401176","Untrustworthy,Trustworthy","","null","","","","feedback","","<div class='respPicDiv'><img src='img/responseButtonOffersNo0_wht.png' class='respPic'></div><div class='trialDiv'><img src='Fruit/grapes.png'><br><font class='baseline'><strong>Great Grapes</strong><p><strong><font class='negOutcome'>You LOST</font><p>You bet: 1</strong></font> &nbsp; &nbsp; &nbsp; &nbsp; &nbsp; &nbsp;<font class='negOutcome'>You receive: <strong>0</strong></font></div>","null","9","Great Grapes","Fruit/grapes.png","Lost","0.65,0.35","14","0.65","135","26","",""
"html-keyboard-response","88","141832","0.0-11.0-1.26","62c5e680e4a4b4648606d756","bdp_rwlrn","Tue Mar 14 2023 12:55:57 GMT-0500 (Central Daylight Time)","401176","Untrustworthy,Trustworthy","","513","","","","decision","","<div class='trialDiv'><img src='Fruit/watermelon.png'><br><font class='baseline'><strong>Watermelon Win$</strong><p>Choose number of points to bet.</font><div class='respPicDiv'><img src='img/responseButtonOffersNo0L.png' class='respPic'></div></div>","4","9","Watermelon Win$","Fruit/watermelon.png","Won","0.8,0.35","14","0.8","140","27","",""
"html-keyboard-response","89","142084","0.0-11.0-2.26","62c5e680e4a4b4648606d756","bdp_rwlrn","Tue Mar 14 2023 12:55:57 GMT-0500 (Central Daylight Time)","401176","Untrustworthy,Trustworthy","","null","","","","decisionFB","","<div class='trialDiv'><img src='Fruit/watermelon.png'><br><font class='baseline'><strong>Watermelon Win$</strong><p>Choose number of points to bet.</font><div class='respPicDiv'><img src='img/responseButtonOffersNo0L4.png' class='respPic'></div></div>","null","9","Watermelon Win$","Fruit/watermelon.png","Won","0.8,0.35","14","0.8","136","27","",""
"html-keyboard-response","90","143087","0.0-11.0-3.26","62c5e680e4a4b4648606d756","bdp_rwlrn","Tue Mar 14 2023 12:55:57 GMT-0500 (Central Daylight Time)","401176","Untrustworthy,Trustworthy","","null","","","","feedback","","<div class='respPicDiv'><img src='img/responseButtonOffersNo0_wht.png' class='respPic'></div><div class='trialDiv'><img src='Fruit/watermelon.png'><br><font class='baseline'><strong>Watermelon Win$</strong><p><strong><font class='posOutcome'>You WON</font><p>You bet: 4</strong></font> &nbsp; &nbsp; &nbsp; &nbsp; &nbsp; &nbsp;<font class='posOutcome'>you receive: <strong>8</strong></font></div>","null","9","Watermelon Win$","Fruit/watermelon.png","Won","0.8,0.35","14","0.8","144","27","",""
"html-keyboard-response","91","143915","0.0-11.0-1.27","62c5e680e4a4b4648606d756","bdp_rwlrn","Tue Mar 14 2023 12:55:57 GMT-0500 (Central Daylight Time)","401176","Untrustworthy,Trustworthy","","828","","","","decision","","<div class='trialDiv'><img src='Fruit/lemon.png'><br><font class='baseline'><strong>Lucky Lemons</strong><p>Choose number of points to bet.</font><div class='respPicDiv'><img src='img/responseButtonOffersNo0L.png' class='respPic'></div></div>","1","10","Lucky Lemons","Fruit/lemon.png","Lost","0.2,0.65","11","0.2","149","28","",""
"html-keyboard-response","92","144167","0.0-11.0-2.27","62c5e680e4a4b4648606d756","bdp_rwlrn","Tue Mar 14 2023 12:55:57 GMT-0500 (Central Daylight Time)","401176","Untrustworthy,Trustworthy","","null","","","","decisionFB","","<div class='trialDiv'><img src='Fruit/lemon.png'><br><font class='baseline'><strong>Lucky Lemons</strong><p>Choose number of points to bet.</font><div class='respPicDiv'><img src='img/responseButtonOffersNo0L1.png' class='respPic'></div></div>","null","10","Lucky Lemons","Fruit/lemon.png","Lost","0.2,0.65","11","0.2","148","28","",""
"html-keyboard-response","93","145172","0.0-11.0-3.27","62c5e680e4a4b4648606d756","bdp_rwlrn","Tue Mar 14 2023 12:55:57 GMT-0500 (Central Daylight Time)","401176","Untrustworthy,Trustworthy","","null","","","","feedback","","<div class='respPicDiv'><img src='img/responseButtonOffersNo0_wht.png' class='respPic'></div><div class='trialDiv'><img src='Fruit/lemon.png'><br><font class='baseline'><strong>Lucky Lemons</strong><p><strong><font class='negOutcome'>You LOST</font><p>You bet: 1</strong></font> &nbsp; &nbsp; &nbsp; &nbsp; &nbsp; &nbsp;<font class='negOutcome'>You receive: <strong>0</strong></font></div>","null","10","Lucky Lemons","Fruit/lemon.png","Lost","0.2,0.65","11","0.2","148","28","",""
"html-keyboard-response","94","146672","0.0-11.0-1.28","62c5e680e4a4b4648606d756","bdp_rwlrn","Tue Mar 14 2023 12:55:57 GMT-0500 (Central Daylight Time)","401176","Untrustworthy,Trustworthy","","1500","","","","decision","","<div class='trialDiv'><img src='Fruit/grapes.png'><br><font class='baseline'><strong>Great Grapes</strong><p>Choose number of points to bet.</font><div class='respPicDiv'><img src='img/responseButtonOffersNo0L.png' class='respPic'></div></div>","1","10","Great Grapes","Fruit/grapes.png","Lost","0.65,0.35","14","0.65","153","29","",""
"html-keyboard-response","95","146923","0.0-11.0-2.28","62c5e680e4a4b4648606d756","bdp_rwlrn","Tue Mar 14 2023 12:55:57 GMT-0500 (Central Daylight Time)","401176","Untrustworthy,Trustworthy","","null","","","","decisionFB","","<div class='trialDiv'><img src='Fruit/grapes.png'><br><font class='baseline'><strong>Great Grapes</strong><p>Choose number of points to bet.</font><div class='respPicDiv'><img src='img/responseButtonOffersNo0L1.png' class='respPic'></div></div>","null","10","Great Grapes","Fruit/grapes.png","Lost","0.65,0.35","14","0.65","152","29","",""
"html-keyboard-response","96","147925","0.0-11.0-3.28","62c5e680e4a4b4648606d756","bdp_rwlrn","Tue Mar 14 2023 12:55:57 GMT-0500 (Central Daylight Time)","401176","Untrustworthy,Trustworthy","","null","","","","feedback","","<div class='respPicDiv'><img src='img/responseButtonOffersNo0_wht.png' class='respPic'></div><div class='trialDiv'><img src='Fruit/grapes.png'><br><font class='baseline'><strong>Great Grapes</strong><p><strong><font class='negOutcome'>You LOST</font><p>You bet: 1</strong></font> &nbsp; &nbsp; &nbsp; &nbsp; &nbsp; &nbsp;<font class='negOutcome'>You receive: <strong>0</strong></font></div>","null","10","Great Grapes","Fruit/grapes.png","Lost","0.65,0.35","14","0.65","152","29","",""
"html-keyboard-response","97","149177","0.0-11.0-1.29","62c5e680e4a4b4648606d756","bdp_rwlrn","Tue Mar 14 2023 12:55:57 GMT-0500 (Central Daylight Time)","401176","Untrustworthy,Trustworthy","","1252","","","","decision","","<div class='trialDiv'><img src='Fruit/watermelon.png'><br><font class='baseline'><strong>Watermelon Win$</strong><p>Choose number of points to bet.</font><div class='respPicDiv'><img src='img/responseButtonOffersNo0L.png' class='respPic'></div></div>","2","10","Watermelon Win$","Fruit/watermelon.png","Won","0.8,0.35","14","0.8","157","30","",""
"html-keyboard-response","98","149429","0.0-11.0-2.29","62c5e680e4a4b4648606d756","bdp_rwlrn","Tue Mar 14 2023 12:55:57 GMT-0500 (Central Daylight Time)","401176","Untrustworthy,Trustworthy","","null","","","","decisionFB","","<div class='trialDiv'><img src='Fruit/watermelon.png'><br><font class='baseline'><strong>Watermelon Win$</strong><p>Choose number of points to bet.</font><div class='respPicDiv'><img src='img/responseButtonOffersNo0L2.png' class='respPic'></div></div>","null","10","Watermelon Win$","Fruit/watermelon.png","Won","0.8,0.35","14","0.8","155","30","",""
"html-keyboard-response","99","150430","0.0-11.0-3.29","62c5e680e4a4b4648606d756","bdp_rwlrn","Tue Mar 14 2023 12:55:57 GMT-0500 (Central Daylight Time)","401176","Untrustworthy,Trustworthy","","null","","","","feedback","","<div class='respPicDiv'><img src='img/responseButtonOffersNo0_wht.png' class='respPic'></div><div class='trialDiv'><img src='Fruit/watermelon.png'><br><font class='baseline'><strong>Watermelon Win$</strong><p><strong><font class='posOutcome'>You WON</font><p>You bet: 2</strong></font> &nbsp; &nbsp; &nbsp; &nbsp; &nbsp; &nbsp;<font class='posOutcome'>you receive: <strong>4</strong></font></div>","null","10","Watermelon Win$","Fruit/watermelon.png","Won","0.8,0.35","14","0.8","159","30","",""
"html-keyboard-response","100","150870","0.0-11.0-1.30","62c5e680e4a4b4648606d756","bdp_rwlrn","Tue Mar 14 2023 12:55:57 GMT-0500 (Central Daylight Time)","401176","Untrustworthy,Trustworthy","","440","","","","decision","","<div class='trialDiv'><img src='Fruit/lemon.png'><br><font class='baseline'><strong>Lucky Lemons</strong><p>Choose number of points to bet.</font><div class='respPicDiv'><img src='img/responseButtonOffersNo0L.png' class='respPic'></div></div>","1","11","Lucky Lemons","Fruit/lemon.png","Won","0.2,0.65","11","0.2","164","31","",""
"html-keyboard-response","101","151121","0.0-11.0-2.30","62c5e680e4a4b4648606d756","bdp_rwlrn","Tue Mar 14 2023 12:55:57 GMT-0500 (Central Daylight Time)","401176","Untrustworthy,Trustworthy","","null","","","","decisionFB","","<div class='trialDiv'><img src='Fruit/lemon.png'><br><font class='baseline'><strong>Lucky Lemons</strong><p>Choose number of points to bet.</font><div class='respPicDiv'><img src='img/responseButtonOffersNo0L1.png' class='respPic'></div></div>","null","11","Lucky Lemons","Fruit/lemon.png","Won","0.2,0.65","11","0.2","163","31","",""
"html-keyboard-response","102","152122","0.0-11.0-3.30","62c5e680e4a4b4648606d756","bdp_rwlrn","Tue Mar 14 2023 12:55:57 GMT-0500 (Central Daylight Time)","401176","Untrustworthy,Trustworthy","","null","","","","feedback","","<div class='respPicDiv'><img src='img/responseButtonOffersNo0_wht.png' class='respPic'></div><div class='trialDiv'><img src='Fruit/lemon.png'><br><font class='baseline'><strong>Lucky Lemons</strong><p><strong><font class='posOutcome'>You WON</font><p>You bet: 1</strong></font> &nbsp; &nbsp; &nbsp; &nbsp; &nbsp; &nbsp;<font class='posOutcome'>you receive: <strong>2</strong></font></div>","null","11","Lucky Lemons","Fruit/lemon.png","Won","0.2,0.65","11","0.2","165","31","",""
"html-keyboard-response","103","152727","0.0-11.0-1.31","62c5e680e4a4b4648606d756","bdp_rwlrn","Tue Mar 14 2023 12:55:57 GMT-0500 (Central Daylight Time)","401176","Untrustworthy,Trustworthy","","604","","","","decision","","<div class='trialDiv'><img src='Fruit/grapes.png'><br><font class='baseline'><strong>Great Grapes</strong><p>Choose number of points to bet.</font><div class='respPicDiv'><img src='img/responseButtonOffersNo0L.png' class='respPic'></div></div>","1","11","Great Grapes","Fruit/grapes.png","Won","0.65,0.35","14","0.65","170","32","",""
"html-keyboard-response","104","152978","0.0-11.0-2.31","62c5e680e4a4b4648606d756","bdp_rwlrn","Tue Mar 14 2023 12:55:57 GMT-0500 (Central Daylight Time)","401176","Untrustworthy,Trustworthy","","null","","","","decisionFB","","<div class='trialDiv'><img src='Fruit/grapes.png'><br><font class='baseline'><strong>Great Grapes</strong><p>Choose number of points to bet.</font><div class='respPicDiv'><img src='img/responseButtonOffersNo0L1.png' class='respPic'></div></div>","null","11","Great Grapes","Fruit/grapes.png","Won","0.65,0.35","14","0.65","169","32","",""
"html-keyboard-response","105","153979","0.0-11.0-3.31","62c5e680e4a4b4648606d756","bdp_rwlrn","Tue Mar 14 2023 12:55:57 GMT-0500 (Central Daylight Time)","401176","Untrustworthy,Trustworthy","","null","","","","feedback","","<div class='respPicDiv'><img src='img/responseButtonOffersNo0_wht.png' class='respPic'></div><div class='trialDiv'><img src='Fruit/grapes.png'><br><font class='baseline'><strong>Great Grapes</strong><p><strong><font class='posOutcome'>You WON</font><p>You bet: 1</strong></font> &nbsp; &nbsp; &nbsp; &nbsp; &nbsp; &nbsp;<font class='posOutcome'>you receive: <strong>2</strong></font></div>","null","11","Great Grapes","Fruit/grapes.png","Won","0.65,0.35","14","0.65","171","32","",""
"html-keyboard-response","106","154382","0.0-11.0-1.32","62c5e680e4a4b4648606d756","bdp_rwlrn","Tue Mar 14 2023 12:55:57 GMT-0500 (Central Daylight Time)","401176","Untrustworthy,Trustworthy","","402","","","","decision","","<div class='trialDiv'><img src='Fruit/watermelon.png'><br><font class='baseline'><strong>Watermelon Win$</strong><p>Choose number of points to bet.</font><div class='respPicDiv'><img src='img/responseButtonOffersNo0L.png' class='respPic'></div></div>","5","11","Watermelon Win$","Fruit/watermelon.png","Won","0.8,0.35","14","0.8","176","33","",""
"html-keyboard-response","107","154634","0.0-11.0-2.32","62c5e680e4a4b4648606d756","bdp_rwlrn","Tue Mar 14 2023 12:55:57 GMT-0500 (Central Daylight Time)","401176","Untrustworthy,Trustworthy","","null","","","","decisionFB","","<div class='trialDiv'><img src='Fruit/watermelon.png'><br><font class='baseline'><strong>Watermelon Win$</strong><p>Choose number of points to bet.</font><div class='respPicDiv'><img src='img/responseButtonOffersNo0L5.png' class='respPic'></div></div>","null","11","Watermelon Win$","Fruit/watermelon.png","Won","0.8,0.35","14","0.8","171","33","",""
"html-keyboard-response","108","155635","0.0-11.0-3.32","62c5e680e4a4b4648606d756","bdp_rwlrn","Tue Mar 14 2023 12:55:57 GMT-0500 (Central Daylight Time)","401176","Untrustworthy,Trustworthy","","null","","","","feedback","","<div class='respPicDiv'><img src='img/responseButtonOffersNo0_wht.png' class='respPic'></div><div class='trialDiv'><img src='Fruit/watermelon.png'><br><font class='baseline'><strong>Watermelon Win$</strong><p><strong><font class='posOutcome'>You WON</font><p>You bet: 5</strong></font> &nbsp; &nbsp; &nbsp; &nbsp; &nbsp; &nbsp;<font class='posOutcome'>you receive: <strong>10</strong></font></div>","null","11","Watermelon Win$","Fruit/watermelon.png","Won","0.8,0.35","14","0.8","181","33","",""
"html-keyboard-response","109","156787","0.0-11.0-1.33","62c5e680e4a4b4648606d756","bdp_rwlrn","Tue Mar 14 2023 12:55:57 GMT-0500 (Central Daylight Time)","401176","Untrustworthy,Trustworthy","","1152","","","","decision","","<div class='trialDiv'><img src='Fruit/lemon.png'><br><font class='baseline'><strong>Lucky Lemons</strong><p>Choose number of points to bet.</font><div class='respPicDiv'><img src='img/responseButtonOffersNo0L.png' class='respPic'></div></div>","2","12","Lucky Lemons","Fruit/lemon.png","Won","0.2,0.65","11","0.2","186","34","",""
"html-keyboard-response","110","157038","0.0-11.0-2.33","62c5e680e4a4b4648606d756","bdp_rwlrn","Tue Mar 14 2023 12:55:57 GMT-0500 (Central Daylight Time)","401176","Untrustworthy,Trustworthy","","null","","","","decisionFB","","<div class='trialDiv'><img src='Fruit/lemon.png'><br><font class='baseline'><strong>Lucky Lemons</strong><p>Choose number of points to bet.</font><div class='respPicDiv'><img src='img/responseButtonOffersNo0L2.png' class='respPic'></div></div>","null","12","Lucky Lemons","Fruit/lemon.png","Won","0.2,0.65","11","0.2","184","34","",""
"html-keyboard-response","111","158040","0.0-11.0-3.33","62c5e680e4a4b4648606d756","bdp_rwlrn","Tue Mar 14 2023 12:55:57 GMT-0500 (Central Daylight Time)","401176","Untrustworthy,Trustworthy","","null","","","","feedback","","<div class='respPicDiv'><img src='img/responseButtonOffersNo0_wht.png' class='respPic'></div><div class='trialDiv'><img src='Fruit/lemon.png'><br><font class='baseline'><strong>Lucky Lemons</strong><p><strong><font class='posOutcome'>You WON</font><p>You bet: 2</strong></font> &nbsp; &nbsp; &nbsp; &nbsp; &nbsp; &nbsp;<font class='posOutcome'>you receive: <strong>4</strong></font></div>","null","12","Lucky Lemons","Fruit/lemon.png","Won","0.2,0.65","11","0.2","188","34","",""
"html-keyboard-response","112","158804","0.0-11.0-1.34","62c5e680e4a4b4648606d756","bdp_rwlrn","Tue Mar 14 2023 12:55:57 GMT-0500 (Central Daylight Time)","401176","Untrustworthy,Trustworthy","","764","","","","decision","","<div class='trialDiv'><img src='Fruit/grapes.png'><br><font class='baseline'><strong>Great Grapes</strong><p>Choose number of points to bet.</font><div class='respPicDiv'><img src='img/responseButtonOffersNo0L.png' class='respPic'></div></div>","1","12","Great Grapes","Fruit/grapes.png","Won","0.65,0.35","14","0.65","193","35","",""
"html-keyboard-response","113","159056","0.0-11.0-2.34","62c5e680e4a4b4648606d756","bdp_rwlrn","Tue Mar 14 2023 12:55:57 GMT-0500 (Central Daylight Time)","401176","Untrustworthy,Trustworthy","","null","","","","decisionFB","","<div class='trialDiv'><img src='Fruit/grapes.png'><br><font class='baseline'><strong>Great Grapes</strong><p>Choose number of points to bet.</font><div class='respPicDiv'><img src='img/responseButtonOffersNo0L1.png' class='respPic'></div></div>","null","12","Great Grapes","Fruit/grapes.png","Won","0.65,0.35","14","0.65","192","35","",""
"html-keyboard-response","114","160057","0.0-11.0-3.34","62c5e680e4a4b4648606d756","bdp_rwlrn","Tue Mar 14 2023 12:55:57 GMT-0500 (Central Daylight Time)","401176","Untrustworthy,Trustworthy","","null","","","","feedback","","<div class='respPicDiv'><img src='img/responseButtonOffersNo0_wht.png' class='respPic'></div><div class='trialDiv'><img src='Fruit/grapes.png'><br><font class='baseline'><strong>Great Grapes</strong><p><strong><font class='posOutcome'>You WON</font><p>You bet: 1</strong></font> &nbsp; &nbsp; &nbsp; &nbsp; &nbsp; &nbsp;<font class='posOutcome'>you receive: <strong>2</strong></font></div>","null","12","Great Grapes","Fruit/grapes.png","Won","0.65,0.35","14","0.65","194","35","",""
"html-keyboard-response","115","160661","0.0-11.0-1.35","62c5e680e4a4b4648606d756","bdp_rwlrn","Tue Mar 14 2023 12:55:57 GMT-0500 (Central Daylight Time)","401176","Untrustworthy,Trustworthy","","603","","","","decision","","<div class='trialDiv'><img src='Fruit/watermelon.png'><br><font class='baseline'><strong>Watermelon Win$</strong><p>Choose number of points to bet.</font><div class='respPicDiv'><img src='img/responseButtonOffersNo0L.png' class='respPic'></div></div>","1","12","Watermelon Win$","Fruit/watermelon.png","Lost","0.8,0.35","14","0.8","199","36","",""
"html-keyboard-response","116","160913","0.0-11.0-2.35","62c5e680e4a4b4648606d756","bdp_rwlrn","Tue Mar 14 2023 12:55:57 GMT-0500 (Central Daylight Time)","401176","Untrustworthy,Trustworthy","","null","","","","decisionFB","","<div class='trialDiv'><img src='Fruit/watermelon.png'><br><font class='baseline'><strong>Watermelon Win$</strong><p>Choose number of points to bet.</font><div class='respPicDiv'><img src='img/responseButtonOffersNo0L1.png' class='respPic'></div></div>","null","12","Watermelon Win$","Fruit/watermelon.png","Lost","0.8,0.35","14","0.8","198","36","",""
"html-keyboard-response","117","161914","0.0-11.0-3.35","62c5e680e4a4b4648606d756","bdp_rwlrn","Tue Mar 14 2023 12:55:57 GMT-0500 (Central Daylight Time)","401176","Untrustworthy,Trustworthy","","null","","","","feedback","","<div class='respPicDiv'><img src='img/responseButtonOffersNo0_wht.png' class='respPic'></div><div class='trialDiv'><img src='Fruit/watermelon.png'><br><font class='baseline'><strong>Watermelon Win$</strong><p><strong><font class='negOutcome'>You LOST</font><p>You bet: 1</strong></font> &nbsp; &nbsp; &nbsp; &nbsp; &nbsp; &nbsp;<font class='negOutcome'>You receive: <strong>0</strong></font></div>","null","12","Watermelon Win$","Fruit/watermelon.png","Lost","0.8,0.35","14","0.8","198","36","",""
"html-keyboard-response","118","162751","0.0-11.0-1.36","62c5e680e4a4b4648606d756","bdp_rwlrn","Tue Mar 14 2023 12:55:57 GMT-0500 (Central Daylight Time)","401176","Untrustworthy,Trustworthy","","836","","","","decision","","<div class='trialDiv'><img src='Fruit/lemon.png'><br><font class='baseline'><strong>Lucky Lemons</strong><p>Choose number of points to bet.</font><div class='respPicDiv'><img src='img/responseButtonOffersNo0L.png' class='respPic'></div></div>","3","13","Lucky Lemons","Fruit/lemon.png","Lost","0.2,0.65","11","0.2","203","37","",""
"html-keyboard-response","119","163002","0.0-11.0-2.36","62c5e680e4a4b4648606d756","bdp_rwlrn","Tue Mar 14 2023 12:55:57 GMT-0500 (Central Daylight Time)","401176","Untrustworthy,Trustworthy","","null","","","","decisionFB","","<div class='trialDiv'><img src='Fruit/lemon.png'><br><font class='baseline'><strong>Lucky Lemons</strong><p>Choose number of points to bet.</font><div class='respPicDiv'><img src='img/responseButtonOffersNo0L3.png' class='respPic'></div></div>","null","13","Lucky Lemons","Fruit/lemon.png","Lost","0.2,0.65","11","0.2","200","37","",""
"html-keyboard-response","120","164004","0.0-11.0-3.36","62c5e680e4a4b4648606d756","bdp_rwlrn","Tue Mar 14 2023 12:55:57 GMT-0500 (Central Daylight Time)","401176","Untrustworthy,Trustworthy","","null","","","","feedback","","<div class='respPicDiv'><img src='img/responseButtonOffersNo0_wht.png' class='respPic'></div><div class='trialDiv'><img src='Fruit/lemon.png'><br><font class='baseline'><strong>Lucky Lemons</strong><p><strong><font class='negOutcome'>You LOST</font><p>You bet: 3</strong></font> &nbsp; &nbsp; &nbsp; &nbsp; &nbsp; &nbsp;<font class='negOutcome'>You receive: <strong>0</strong></font></div>","null","13","Lucky Lemons","Fruit/lemon.png","Lost","0.2,0.65","11","0.2","200","37","",""
"html-keyboard-response","121","164261","0.0-11.0-1.37","62c5e680e4a4b4648606d756","bdp_rwlrn","Tue Mar 14 2023 12:55:57 GMT-0500 (Central Daylight Time)","401176","Untrustworthy,Trustworthy","","257","","","","decision","","<div class='trialDiv'><img src='Fruit/watermelon.png'><br><font class='baseline'><strong>Watermelon Win$</strong><p>Choose number of points to bet.</font><div class='respPicDiv'><img src='img/responseButtonOffersNo0L.png' class='respPic'></div></div>","3","13","Watermelon Win$","Fruit/watermelon.png","Won","0.8,0.35","14","0.8","205","38","",""
"html-keyboard-response","122","164512","0.0-11.0-2.37","62c5e680e4a4b4648606d756","bdp_rwlrn","Tue Mar 14 2023 12:55:57 GMT-0500 (Central Daylight Time)","401176","Untrustworthy,Trustworthy","","null","","","","decisionFB","","<div class='trialDiv'><img src='Fruit/watermelon.png'><br><font class='baseline'><strong>Watermelon Win$</strong><p>Choose number of points to bet.</font><div class='respPicDiv'><img src='img/responseButtonOffersNo0L3.png' class='respPic'></div></div>","null","13","Watermelon Win$","Fruit/watermelon.png","Won","0.8,0.35","14","0.8","202","38","",""
"html-keyboard-response","123","165514","0.0-11.0-3.37","62c5e680e4a4b4648606d756","bdp_rwlrn","Tue Mar 14 2023 12:55:57 GMT-0500 (Central Daylight Time)","401176","Untrustworthy,Trustworthy","","null","","","","feedback","","<div class='respPicDiv'><img src='img/responseButtonOffersNo0_wht.png' class='respPic'></div><div class='trialDiv'><img src='Fruit/watermelon.png'><br><font class='baseline'><strong>Watermelon Win$</strong><p><strong><font class='posOutcome'>You WON</font><p>You bet: 3</strong></font> &nbsp; &nbsp; &nbsp; &nbsp; &nbsp; &nbsp;<font class='posOutcome'>you receive: <strong>6</strong></font></div>","null","13","Watermelon Win$","Fruit/watermelon.png","Won","0.8,0.35","14","0.8","208","38","",""
"html-keyboard-response","124","166187","0.0-11.0-1.38","62c5e680e4a4b4648606d756","bdp_rwlrn","Tue Mar 14 2023 12:55:57 GMT-0500 (Central Daylight Time)","401176","Untrustworthy,Trustworthy","","673","","","","decision","","<div class='trialDiv'><img src='Fruit/grapes.png'><br><font class='baseline'><strong>Great Grapes</strong><p>Choose number of points to bet.</font><div class='respPicDiv'><img src='img/responseButtonOffersNo0L.png' class='respPic'></div></div>","3","13","Great Grapes","Fruit/grapes.png","Lost","0.65,0.35","14","0.65","213","39","",""
"html-keyboard-response","125","166438","0.0-11.0-2.38","62c5e680e4a4b4648606d756","bdp_rwlrn","Tue Mar 14 2023 12:55:57 GMT-0500 (Central Daylight Time)","401176","Untrustworthy,Trustworthy","","null","","","","decisionFB","","<div class='trialDiv'><img src='Fruit/grapes.png'><br><font class='baseline'><strong>Great Grapes</strong><p>Choose number of points to bet.</font><div class='respPicDiv'><img src='img/responseButtonOffersNo0L3.png' class='respPic'></div></div>","null","13","Great Grapes","Fruit/grapes.png","Lost","0.65,0.35","14","0.65","210","39","",""
"html-keyboard-response","126","167440","0.0-11.0-3.38","62c5e680e4a4b4648606d756","bdp_rwlrn","Tue Mar 14 2023 12:55:57 GMT-0500 (Central Daylight Time)","401176","Untrustworthy,Trustworthy","","null","","","","feedback","","<div class='respPicDiv'><img src='img/responseButtonOffersNo0_wht.png' class='respPic'></div><div class='trialDiv'><img src='Fruit/grapes.png'><br><font class='baseline'><strong>Great Grapes</strong><p><strong><font class='negOutcome'>You LOST</font><p>You bet: 3</strong></font> &nbsp; &nbsp; &nbsp; &nbsp; &nbsp; &nbsp;<font class='negOutcome'>You receive: <strong>0</strong></font></div>","null","13","Great Grapes","Fruit/grapes.png","Lost","0.65,0.35","14","0.65","210","39","",""
"html-keyboard-response","127","167995","0.0-11.0-1.39","62c5e680e4a4b4648606d756","bdp_rwlrn","Tue Mar 14 2023 12:55:57 GMT-0500 (Central Daylight Time)","401176","Untrustworthy,Trustworthy","","554","","","","decision","","<div class='trialDiv'><img src='Fruit/lemon.png'><br><font class='baseline'><strong>Lucky Lemons</strong><p>Choose number of points to bet.</font><div class='respPicDiv'><img src='img/responseButtonOffersNo0L.png' class='respPic'></div></div>","1","14","Lucky Lemons","Fruit/lemon.png","Lost","0.2,0.65","11","0.2","215","40","",""
"html-keyboard-response","128","168246","0.0-11.0-2.39","62c5e680e4a4b4648606d756","bdp_rwlrn","Tue Mar 14 2023 12:55:57 GMT-0500 (Central Daylight Time)","401176","Untrustworthy,Trustworthy","","null","","","","decisionFB","","<div class='trialDiv'><img src='Fruit/lemon.png'><br><font class='baseline'><strong>Lucky Lemons</strong><p>Choose number of points to bet.</font><div class='respPicDiv'><img src='img/responseButtonOffersNo0L1.png' class='respPic'></div></div>","null","14","Lucky Lemons","Fruit/lemon.png","Lost","0.2,0.65","11","0.2","214","40","",""
"html-keyboard-response","129","169249","0.0-11.0-3.39","62c5e680e4a4b4648606d756","bdp_rwlrn","Tue Mar 14 2023 12:55:57 GMT-0500 (Central Daylight Time)","401176","Untrustworthy,Trustworthy","","null","","","","feedback","","<div class='respPicDiv'><img src='img/responseButtonOffersNo0_wht.png' class='respPic'></div><div class='trialDiv'><img src='Fruit/lemon.png'><br><font class='baseline'><strong>Lucky Lemons</strong><p><strong><font class='negOutcome'>You LOST</font><p>You bet: 1</strong></font> &nbsp; &nbsp; &nbsp; &nbsp; &nbsp; &nbsp;<font class='negOutcome'>You receive: <strong>0</strong></font></div>","null","14","Lucky Lemons","Fruit/lemon.png","Lost","0.2,0.65","11","0.2","214","40","",""
"html-keyboard-response","130","169921","0.0-11.0-1.40","62c5e680e4a4b4648606d756","bdp_rwlrn","Tue Mar 14 2023 12:55:57 GMT-0500 (Central Daylight Time)","401176","Untrustworthy,Trustworthy","","672","","","","decision","","<div class='trialDiv'><img src='Fruit/grapes.png'><br><font class='baseline'><strong>Great Grapes</strong><p>Choose number of points to bet.</font><div class='respPicDiv'><img src='img/responseButtonOffersNo0L.png' class='respPic'></div></div>","1","14","Great Grapes","Fruit/grapes.png","Lost","0.65,0.35","14","0.65","219","41","",""
"html-keyboard-response","131","170172","0.0-11.0-2.40","62c5e680e4a4b4648606d756","bdp_rwlrn","Tue Mar 14 2023 12:55:57 GMT-0500 (Central Daylight Time)","401176","Untrustworthy,Trustworthy","","null","","","","decisionFB","","<div class='trialDiv'><img src='Fruit/grapes.png'><br><font class='baseline'><strong>Great Grapes</strong><p>Choose number of points to bet.</font><div class='respPicDiv'><img src='img/responseButtonOffersNo0L1.png' class='respPic'></div></div>","null","14","Great Grapes","Fruit/grapes.png","Lost","0.65,0.35","14","0.65","218","41","",""
"html-keyboard-response","132","171174","0.0-11.0-3.40","62c5e680e4a4b4648606d756","bdp_rwlrn","Tue Mar 14 2023 12:55:57 GMT-0500 (Central Daylight Time)","401176","Untrustworthy,Trustworthy","","null","","","","feedback","","<div class='respPicDiv'><img src='img/responseButtonOffersNo0_wht.png' class='respPic'></div><div class='trialDiv'><img src='Fruit/grapes.png'><br><font class='baseline'><strong>Great Grapes</strong><p><strong><font class='negOutcome'>You LOST</font><p>You bet: 1</strong></font> &nbsp; &nbsp; &nbsp; &nbsp; &nbsp; &nbsp;<font class='negOutcome'>You receive: <strong>0</strong></font></div>","null","14","Great Grapes","Fruit/grapes.png","Lost","0.65,0.35","14","0.65","218","41","",""
"html-keyboard-response","133","171484","0.0-11.0-1.41","62c5e680e4a4b4648606d756","bdp_rwlrn","Tue Mar 14 2023 12:55:57 GMT-0500 (Central Daylight Time)","401176","Untrustworthy,Trustworthy","","309","","","","decision","","<div class='trialDiv'><img src='Fruit/watermelon.png'><br><font class='baseline'><strong>Watermelon Win$</strong><p>Choose number of points to bet.</font><div class='respPicDiv'><img src='img/responseButtonOffersNo0L.png' class='respPic'></div></div>","5","14","Watermelon Win$","Fruit/watermelon.png","Won","0.8,0.35","14","0.8","223","42","",""
"html-keyboard-response","134","171736","0.0-11.0-2.41","62c5e680e4a4b4648606d756","bdp_rwlrn","Tue Mar 14 2023 12:55:57 GMT-0500 (Central Daylight Time)","401176","Untrustworthy,Trustworthy","","null","","","","decisionFB","","<div class='trialDiv'><img src='Fruit/watermelon.png'><br><font class='baseline'><strong>Watermelon Win$</strong><p>Choose number of points to bet.</font><div class='respPicDiv'><img src='img/responseButtonOffersNo0L5.png' class='respPic'></div></div>","null","14","Watermelon Win$","Fruit/watermelon.png","Won","0.8,0.35","14","0.8","218","42","",""
"html-keyboard-response","135","172737","0.0-11.0-3.41","62c5e680e4a4b4648606d756","bdp_rwlrn","Tue Mar 14 2023 12:55:57 GMT-0500 (Central Daylight Time)","401176","Untrustworthy,Trustworthy","","null","","","","feedback","","<div class='respPicDiv'><img src='img/responseButtonOffersNo0_wht.png' class='respPic'></div><div class='trialDiv'><img src='Fruit/watermelon.png'><br><font class='baseline'><strong>Watermelon Win$</strong><p><strong><font class='posOutcome'>You WON</font><p>You bet: 5</strong></font> &nbsp; &nbsp; &nbsp; &nbsp; &nbsp; &nbsp;<font class='posOutcome'>you receive: <strong>10</strong></font></div>","null","14","Watermelon Win$","Fruit/watermelon.png","Won","0.8,0.35","14","0.8","228","42","",""
"html-keyboard-response","136","173729","0.0-11.0-1.42","62c5e680e4a4b4648606d756","bdp_rwlrn","Tue Mar 14 2023 12:55:57 GMT-0500 (Central Daylight Time)","401176","Untrustworthy,Trustworthy","","991","","","","decision","","<div class='trialDiv'><img src='Fruit/lemon.png'><br><font class='baseline'><strong>Lucky Lemons</strong><p>Choose number of points to bet.</font><div class='respPicDiv'><img src='img/responseButtonOffersNo0L.png' class='respPic'></div></div>","2","15","Lucky Lemons","Fruit/lemon.png","Lost","0.2,0.65","11","0.2","233","43","",""
"html-keyboard-response","137","173981","0.0-11.0-2.42","62c5e680e4a4b4648606d756","bdp_rwlrn","Tue Mar 14 2023 12:55:57 GMT-0500 (Central Daylight Time)","401176","Untrustworthy,Trustworthy","","null","","","","decisionFB","","<div class='trialDiv'><img src='Fruit/lemon.png'><br><font class='baseline'><strong>Lucky Lemons</strong><p>Choose number of points to bet.</font><div class='respPicDiv'><img src='img/responseButtonOffersNo0L2.png' class='respPic'></div></div>","null","15","Lucky Lemons","Fruit/lemon.png","Lost","0.2,0.65","11","0.2","231","43","",""
"html-keyboard-response","138","174983","0.0-11.0-3.42","62c5e680e4a4b4648606d756","bdp_rwlrn","Tue Mar 14 2023 12:55:57 GMT-0500 (Central Daylight Time)","401176","Untrustworthy,Trustworthy","","null","","","","feedback","","<div class='respPicDiv'><img src='img/responseButtonOffersNo0_wht.png' class='respPic'></div><div class='trialDiv'><img src='Fruit/lemon.png'><br><font class='baseline'><strong>Lucky Lemons</strong><p><strong><font class='negOutcome'>You LOST</font><p>You bet: 2</strong></font> &nbsp; &nbsp; &nbsp; &nbsp; &nbsp; &nbsp;<font class='negOutcome'>You receive: <strong>0</strong></font></div>","null","15","Lucky Lemons","Fruit/lemon.png","Lost","0.2,0.65","11","0.2","231","43","",""
"html-keyboard-response","139","175122","0.0-11.0-1.43","62c5e680e4a4b4648606d756","bdp_rwlrn","Tue Mar 14 2023 12:55:57 GMT-0500 (Central Daylight Time)","401176","Untrustworthy,Trustworthy","","138","","","","decision","","<div class='trialDiv'><img src='Fruit/grapes.png'><br><font class='baseline'><strong>Great Grapes</strong><p>Choose number of points to bet.</font><div class='respPicDiv'><img src='img/responseButtonOffersNo0L.png' class='respPic'></div></div>","1","15","Great Grapes","Fruit/grapes.png","Won","0.65,0.35","14","0.65","236","44","",""
"html-keyboard-response","140","175373","0.0-11.0-2.43","62c5e680e4a4b4648606d756","bdp_rwlrn","Tue Mar 14 2023 12:55:57 GMT-0500 (Central Daylight Time)","401176","Untrustworthy,Trustworthy","","null","","","","decisionFB","","<div class='trialDiv'><img src='Fruit/grapes.png'><br><font class='baseline'><strong>Great Grapes</strong><p>Choose number of points to bet.</font><div class='respPicDiv'><img src='img/responseButtonOffersNo0L1.png' class='respPic'></div></div>","null","15","Great Grapes","Fruit/grapes.png","Won","0.65,0.35","14","0.65","235","44","",""
"html-keyboard-response","141","176375","0.0-11.0-3.43","62c5e680e4a4b4648606d756","bdp_rwlrn","Tue Mar 14 2023 12:55:57 GMT-0500 (Central Daylight Time)","401176","Untrustworthy,Trustworthy","","null","","","","feedback","","<div class='respPicDiv'><img src='img/responseButtonOffersNo0_wht.png' class='respPic'></div><div class='trialDiv'><img src='Fruit/grapes.png'><br><font class='baseline'><strong>Great Grapes</strong><p><strong><font class='posOutcome'>You WON</font><p>You bet: 1</strong></font> &nbsp; &nbsp; &nbsp; &nbsp; &nbsp; &nbsp;<font class='posOutcome'>you receive: <strong>2</strong></font></div>","null","15","Great Grapes","Fruit/grapes.png","Won","0.65,0.35","14","0.65","237","44","",""
"html-keyboard-response","142","176801","0.0-11.0-1.44","62c5e680e4a4b4648606d756","bdp_rwlrn","Tue Mar 14 2023 12:55:57 GMT-0500 (Central Daylight Time)","401176","Untrustworthy,Trustworthy","","426","","","","decision","","<div class='trialDiv'><img src='Fruit/watermelon.png'><br><font class='baseline'><strong>Watermelon Win$</strong><p>Choose number of points to bet.</font><div class='respPicDiv'><img src='img/responseButtonOffersNo0L.png' class='respPic'></div></div>","5","15","Watermelon Win$","Fruit/watermelon.png","Won","0.8,0.35","14","0.8","242","45","",""
"html-keyboard-response","143","177053","0.0-11.0-2.44","62c5e680e4a4b4648606d756","bdp_rwlrn","Tue Mar 14 2023 12:55:57 GMT-0500 (Central Daylight Time)","401176","Untrustworthy,Trustworthy","","null","","","","decisionFB","","<div class='trialDiv'><img src='Fruit/watermelon.png'><br><font class='baseline'><strong>Watermelon Win$</strong><p>Choose number of points to bet.</font><div class='respPicDiv'><img src='img/responseButtonOffersNo0L5.png' class='respPic'></div></div>","null","15","Watermelon Win$","Fruit/watermelon.png","Won","0.8,0.35","14","0.8","237","45","",""
"html-keyboard-response","144","178055","0.0-11.0-3.44","62c5e680e4a4b4648606d756","bdp_rwlrn","Tue Mar 14 2023 12:55:57 GMT-0500 (Central Daylight Time)","401176","Untrustworthy,Trustworthy","","null","","","","feedback","","<div class='respPicDiv'><img src='img/responseButtonOffersNo0_wht.png' class='respPic'></div><div class='trialDiv'><img src='Fruit/watermelon.png'><br><font class='baseline'><strong>Watermelon Win$</strong><p><strong><font class='posOutcome'>You WON</font><p>You bet: 5</strong></font> &nbsp; &nbsp; &nbsp; &nbsp; &nbsp; &nbsp;<font class='posOutcome'>you receive: <strong>10</strong></font></div>","null","15","Watermelon Win$","Fruit/watermelon.png","Won","0.8,0.35","14","0.8","247","45","",""
"html-keyboard-response","145","179970","0.0-11.0-1.45","62c5e680e4a4b4648606d756","bdp_rwlrn","Tue Mar 14 2023 12:55:57 GMT-0500 (Central Daylight Time)","401176","Untrustworthy,Trustworthy","","1915","","","","decision","","<div class='trialDiv'><img src='Fruit/grapes.png'><br><font class='baseline'><strong>Great Grapes</strong><p>Choose number of points to bet.</font><div class='respPicDiv'><img src='img/responseButtonOffersNo0L.png' class='respPic'></div></div>","2","16","Great Grapes","Fruit/grapes.png","Won","0.65,0.35","14","0.65","252","46","",""
"html-keyboard-response","146","180221","0.0-11.0-2.45","62c5e680e4a4b4648606d756","bdp_rwlrn","Tue Mar 14 2023 12:55:57 GMT-0500 (Central Daylight Time)","401176","Untrustworthy,Trustworthy","","null","","","","decisionFB","","<div class='trialDiv'><img src='Fruit/grapes.png'><br><font class='baseline'><strong>Great Grapes</strong><p>Choose number of points to bet.</font><div class='respPicDiv'><img src='img/responseButtonOffersNo0L2.png' class='respPic'></div></div>","null","16","Great Grapes","Fruit/grapes.png","Won","0.65,0.35","14","0.65","250","46","",""
"html-keyboard-response","147","181224","0.0-11.0-3.45","62c5e680e4a4b4648606d756","bdp_rwlrn","Tue Mar 14 2023 12:55:57 GMT-0500 (Central Daylight Time)","401176","Untrustworthy,Trustworthy","","null","","","","feedback","","<div class='respPicDiv'><img src='img/responseButtonOffersNo0_wht.png' class='respPic'></div><div class='trialDiv'><img src='Fruit/grapes.png'><br><font class='baseline'><strong>Great Grapes</strong><p><strong><font class='posOutcome'>You WON</font><p>You bet: 2</strong></font> &nbsp; &nbsp; &nbsp; &nbsp; &nbsp; &nbsp;<font class='posOutcome'>you receive: <strong>4</strong></font></div>","null","16","Great Grapes","Fruit/grapes.png","Won","0.65,0.35","14","0.65","254","46","",""
"html-keyboard-response","148","181780","0.0-11.0-1.46","62c5e680e4a4b4648606d756","bdp_rwlrn","Tue Mar 14 2023 12:55:57 GMT-0500 (Central Daylight Time)","401176","Untrustworthy,Trustworthy","","556","","","","decision","","<div class='trialDiv'><img src='Fruit/watermelon.png'><br><font class='baseline'><strong>Watermelon Win$</strong><p>Choose number of points to bet.</font><div class='respPicDiv'><img src='img/responseButtonOffersNo0L.png' class='respPic'></div></div>","2","16","Watermelon Win$","Fruit/watermelon.png","Lost","0.8,0.35","14","0.8","259","47","",""
"html-keyboard-response","149","182032","0.0-11.0-2.46","62c5e680e4a4b4648606d756","bdp_rwlrn","Tue Mar 14 2023 12:55:57 GMT-0500 (Central Daylight Time)","401176","Untrustworthy,Trustworthy","","null","","","","decisionFB","","<div class='trialDiv'><img src='Fruit/watermelon.png'><br><font class='baseline'><strong>Watermelon Win$</strong><p>Choose number of points to bet.</font><div class='respPicDiv'><img src='img/responseButtonOffersNo0L2.png' class='respPic'></div></div>","null","16","Watermelon Win$","Fruit/watermelon.png","Lost","0.8,0.35","14","0.8","257","47","",""
"html-keyboard-response","150","183034","0.0-11.0-3.46","62c5e680e4a4b4648606d756","bdp_rwlrn","Tue Mar 14 2023 12:55:57 GMT-0500 (Central Daylight Time)","401176","Untrustworthy,Trustworthy","","null","","","","feedback","","<div class='respPicDiv'><img src='img/responseButtonOffersNo0_wht.png' class='respPic'></div><div class='trialDiv'><img src='Fruit/watermelon.png'><br><font class='baseline'><strong>Watermelon Win$</strong><p><strong><font class='negOutcome'>You LOST</font><p>You bet: 2</strong></font> &nbsp; &nbsp; &nbsp; &nbsp; &nbsp; &nbsp;<font class='negOutcome'>You receive: <strong>0</strong></font></div>","null","16","Watermelon Win$","Fruit/watermelon.png","Lost","0.8,0.35","14","0.8","257","47","",""
"html-keyboard-response","151","183752","0.0-11.0-1.47","62c5e680e4a4b4648606d756","bdp_rwlrn","Tue Mar 14 2023 12:55:57 GMT-0500 (Central Daylight Time)","401176","Untrustworthy,Trustworthy","","718","","","","decision","","<div class='trialDiv'><img src='Fruit/lemon.png'><br><font class='baseline'><strong>Lucky Lemons</strong><p>Choose number of points to bet.</font><div class='respPicDiv'><img src='img/responseButtonOffersNo0L.png' class='respPic'></div></div>","2","16","Lucky Lemons","Fruit/lemon.png","Won","0.2,0.65","11","0.2","262","48","",""
"html-keyboard-response","152","184003","0.0-11.0-2.47","62c5e680e4a4b4648606d756","bdp_rwlrn","Tue Mar 14 2023 12:55:57 GMT-0500 (Central Daylight Time)","401176","Untrustworthy,Trustworthy","","null","","","","decisionFB","","<div class='trialDiv'><img src='Fruit/lemon.png'><br><font class='baseline'><strong>Lucky Lemons</strong><p>Choose number of points to bet.</font><div class='respPicDiv'><img src='img/responseButtonOffersNo0L2.png' class='respPic'></div></div>","null","16","Lucky Lemons","Fruit/lemon.png","Won","0.2,0.65","11","0.2","260","48","",""
"html-keyboard-response","153","185004","0.0-11.0-3.47","62c5e680e4a4b4648606d756","bdp_rwlrn","Tue Mar 14 2023 12:55:57 GMT-0500 (Central Daylight Time)","401176","Untrustworthy,Trustworthy","","null","","","","feedback","","<div class='respPicDiv'><img src='img/responseButtonOffersNo0_wht.png' class='respPic'></div><div class='trialDiv'><img src='Fruit/lemon.png'><br><font class='baseline'><strong>Lucky Lemons</strong><p><strong><font class='posOutcome'>You WON</font><p>You bet: 2</strong></font> &nbsp; &nbsp; &nbsp; &nbsp; &nbsp; &nbsp;<font class='posOutcome'>you receive: <strong>4</strong></font></div>","null","16","Lucky Lemons","Fruit/lemon.png","Won","0.2,0.65","11","0.2","264","48","",""
"html-keyboard-response","154","185469","0.0-11.0-1.48","62c5e680e4a4b4648606d756","bdp_rwlrn","Tue Mar 14 2023 12:55:57 GMT-0500 (Central Daylight Time)","401176","Untrustworthy,Trustworthy","","464","","","","decision","","<div class='trialDiv'><img src='Fruit/watermelon.png'><br><font class='baseline'><strong>Watermelon Win$</strong><p>Choose number of points to bet.</font><div class='respPicDiv'><img src='img/responseButtonOffersNo0L.png' class='respPic'></div></div>","1","17","Watermelon Win$","Fruit/watermelon.png","Lost","0.8,0.35","14","0.8","269","49","",""
"html-keyboard-response","155","185721","0.0-11.0-2.48","62c5e680e4a4b4648606d756","bdp_rwlrn","Tue Mar 14 2023 12:55:57 GMT-0500 (Central Daylight Time)","401176","Untrustworthy,Trustworthy","","null","","","","decisionFB","","<div class='trialDiv'><img src='Fruit/watermelon.png'><br><font class='baseline'><strong>Watermelon Win$</strong><p>Choose number of points to bet.</font><div class='respPicDiv'><img src='img/responseButtonOffersNo0L1.png' class='respPic'></div></div>","null","17","Watermelon Win$","Fruit/watermelon.png","Lost","0.8,0.35","14","0.8","268","49","",""
"html-keyboard-response","156","186722","0.0-11.0-3.48","62c5e680e4a4b4648606d756","bdp_rwlrn","Tue Mar 14 2023 12:55:57 GMT-0500 (Central Daylight Time)","401176","Untrustworthy,Trustworthy","","null","","","","feedback","","<div class='respPicDiv'><img src='img/responseButtonOffersNo0_wht.png' class='respPic'></div><div class='trialDiv'><img src='Fruit/watermelon.png'><br><font class='baseline'><strong>Watermelon Win$</strong><p><strong><font class='negOutcome'>You LOST</font><p>You bet: 1</strong></font> &nbsp; &nbsp; &nbsp; &nbsp; &nbsp; &nbsp;<font class='negOutcome'>You receive: <strong>0</strong></font></div>","null","17","Watermelon Win$","Fruit/watermelon.png","Lost","0.8,0.35","14","0.8","268","49","",""
"html-keyboard-response","157","187721","0.0-11.0-1.49","62c5e680e4a4b4648606d756","bdp_rwlrn","Tue Mar 14 2023 12:55:57 GMT-0500 (Central Daylight Time)","401176","Untrustworthy,Trustworthy","","999","","","","decision","","<div class='trialDiv'><img src='Fruit/grapes.png'><br><font class='baseline'><strong>Great Grapes</strong><p>Choose number of points to bet.</font><div class='respPicDiv'><img src='img/responseButtonOffersNo0L.png' class='respPic'></div></div>","3","17","Great Grapes","Fruit/grapes.png","Lost","0.65,0.35","14","0.65","273","50","",""
"html-keyboard-response","158","187972","0.0-11.0-2.49","62c5e680e4a4b4648606d756","bdp_rwlrn","Tue Mar 14 2023 12:55:57 GMT-0500 (Central Daylight Time)","401176","Untrustworthy,Trustworthy","","null","","","","decisionFB","","<div class='trialDiv'><img src='Fruit/grapes.png'><br><font class='baseline'><strong>Great Grapes</strong><p>Choose number of points to bet.</font><div class='respPicDiv'><img src='img/responseButtonOffersNo0L3.png' class='respPic'></div></div>","null","17","Great Grapes","Fruit/grapes.png","Lost","0.65,0.35","14","0.65","270","50","",""
"html-keyboard-response","159","188974","0.0-11.0-3.49","62c5e680e4a4b4648606d756","bdp_rwlrn","Tue Mar 14 2023 12:55:57 GMT-0500 (Central Daylight Time)","401176","Untrustworthy,Trustworthy","","null","","","","feedback","","<div class='respPicDiv'><img src='img/responseButtonOffersNo0_wht.png' class='respPic'></div><div class='trialDiv'><img src='Fruit/grapes.png'><br><font class='baseline'><strong>Great Grapes</strong><p><strong><font class='negOutcome'>You LOST</font><p>You bet: 3</strong></font> &nbsp; &nbsp; &nbsp; &nbsp; &nbsp; &nbsp;<font class='negOutcome'>You receive: <strong>0</strong></font></div>","null","17","Great Grapes","Fruit/grapes.png","Lost","0.65,0.35","14","0.65","270","50","",""
"html-keyboard-response","160","189185","0.0-11.0-1.50","62c5e680e4a4b4648606d756","bdp_rwlrn","Tue Mar 14 2023 12:55:57 GMT-0500 (Central Daylight Time)","401176","Untrustworthy,Trustworthy","","211","","","","decision","","<div class='trialDiv'><img src='Fruit/lemon.png'><br><font class='baseline'><strong>Lucky Lemons</strong><p>Choose number of points to bet.</font><div class='respPicDiv'><img src='img/responseButtonOffersNo0L.png' class='respPic'></div></div>","3","17","Lucky Lemons","Fruit/lemon.png","Won","0.2,0.65","11","0.2","275","51","",""
"html-keyboard-response","161","189437","0.0-11.0-2.50","62c5e680e4a4b4648606d756","bdp_rwlrn","Tue Mar 14 2023 12:55:57 GMT-0500 (Central Daylight Time)","401176","Untrustworthy,Trustworthy","","null","","","","decisionFB","","<div class='trialDiv'><img src='Fruit/lemon.png'><br><font class='baseline'><strong>Lucky Lemons</strong><p>Choose number of points to bet.</font><div class='respPicDiv'><img src='img/responseButtonOffersNo0L3.png' class='respPic'></div></div>","null","17","Lucky Lemons","Fruit/lemon.png","Won","0.2,0.65","11","0.2","272","51","",""
"html-keyboard-response","162","190439","0.0-11.0-3.50","62c5e680e4a4b4648606d756","bdp_rwlrn","Tue Mar 14 2023 12:55:57 GMT-0500 (Central Daylight Time)","401176","Untrustworthy,Trustworthy","","null","","","","feedback","","<div class='respPicDiv'><img src='img/responseButtonOffersNo0_wht.png' class='respPic'></div><div class='trialDiv'><img src='Fruit/lemon.png'><br><font class='baseline'><strong>Lucky Lemons</strong><p><strong><font class='posOutcome'>You WON</font><p>You bet: 3</strong></font> &nbsp; &nbsp; &nbsp; &nbsp; &nbsp; &nbsp;<font class='posOutcome'>you receive: <strong>6</strong></font></div>","null","17","Lucky Lemons","Fruit/lemon.png","Won","0.2,0.65","11","0.2","278","51","",""
