"trial_type","trial_index","time_elapsed","internal_node_id","subject_id","task","startTime","totalTime","labels","view_history","rt","event","trial","time","trialtype","success","stimulus","key_press","ltround","name","fileID","outcome","lottotype","lottoswpt","lottocurrpshare","point_total","round","faceID","face"
"pavlovia","0","16","0.0-0.0","63b7005d59a418f740ecfa0d","bdp_rwlrn","Fri Mar 10 2023 13:25:26 GMT-0600 (Central Standard Time)","583490","Trustworthy,Untrustworthy","","","","","","","","","","","","","","","","","","","",""
"instructions","1","4689","0.0-1.0","63b7005d59a418f740ecfa0d","bdp_rwlrn","Fri Mar 10 2023 13:25:26 GMT-0600 (Central Standard Time)","583490","Trustworthy,Untrustworthy","[{""page_index"":0,""viewing_time"":4670}]","4671","","","","","","","","","","","","","","","","","",""
"","","","","63b7005d59a418f740ecfa0d","bdp_rwlrn","Fri Mar 10 2023 13:25:26 GMT-0600 (Central Standard Time)","583490","Trustworthy,Untrustworthy","","","fullscreenenter","2","7708","fullscreenenter","","","","","","","","","","","","","",""
"fullscreen","2","8645","0.0-2.0","63b7005d59a418f740ecfa0d","bdp_rwlrn","Fri Mar 10 2023 13:25:26 GMT-0600 (Central Standard Time)","583490","Trustworthy,Untrustworthy","","","","","","","true","","","","","","","","","","","","",""
"instructions","3","73206","0.0-4.0","63b7005d59a418f740ecfa0d","bdp_rwlrn","Fri Mar 10 2023 13:25:26 GMT-0600 (Central Standard Time)","583490","Trustworthy,Untrustworthy","[{""page_index"":0,""viewing_time"":10204},{""page_index"":1,""viewing_time"":13879},{""page_index"":2,""viewing_time"":10551},{""page_index"":3,""viewing_time"":6668},{""page_index"":4,""viewing_time"":17585},{""page_index"":5,""viewing_time"":5669}]","64556","","","","","","","","","","","","","","","","","",""
"html-keyboard-response","4","76730","0.0-5.0","63b7005d59a418f740ecfa0d","bdp_rwlrn","Fri Mar 10 2023 13:25:26 GMT-0600 (Central Standard Time)","583490","Trustworthy,Untrustworthy","","3519","","","","","","<div class='header' style='text-align:left; position: absolute; top: 5%; left: 5%;'><small>Task 1 of 5</small></div><div class='instruxDiv'><p><strong>1) What is the maximum number of points you can choose to bet on a lottery?</strong></p><p>a) 0</p><p>b) 1</p><p>c) 5</p>","C","","","","","","","","","","",""
"html-keyboard-response","5","79164","0.0-6.0","63b7005d59a418f740ecfa0d","bdp_rwlrn","Fri Mar 10 2023 13:25:26 GMT-0600 (Central Standard Time)","583490","Trustworthy,Untrustworthy","","2328","","","","","","<div class='header' style='text-align:left; position: absolute; top: 5%; left: 5%;'><small>Task 1 of 5</small></div><div class='instruxDiv'><p><strong>1) What is the maximum number of points you can choose to bet on a lottery?</strong></p><p>a) 1</p><p>b) 1</p><p style='color:#00FF00'>c) 5</p><h3 style='color:#00FF00'>Correct!</h3><h3 class='center-content'>The correct response is c).</h3><h3 class='center-content'>The maximum number of points you can choose to bet on a lottery is 5 points.</h3><p><em>Press SPACEBAR to continue</em></p></div>"," ","","","","","","","","","","",""
"html-keyboard-response","6","82311","0.0-7.0","63b7005d59a418f740ecfa0d","bdp_rwlrn","Fri Mar 10 2023 13:25:26 GMT-0600 (Central Standard Time)","583490","Trustworthy,Untrustworthy","","3041","","","","","","<div class='header' style='text-align:left; position: absolute; top: 5%; left: 5%;'><small>Task 1 of 5</small></div><div class='instruxDiv'><p><strong>2) How many points can you win each round?</strong></p><p>a) 10 points</p><p>b) Double what you bet</p><p>c) Quadruple what you bet</p>","B","","","","","","","","","","",""
"html-keyboard-response","7","83965","0.0-8.0","63b7005d59a418f740ecfa0d","bdp_rwlrn","Fri Mar 10 2023 13:25:26 GMT-0600 (Central Standard Time)","583490","Trustworthy,Untrustworthy","","1544","","","","","","<div class='header' style='text-align:left; position: absolute; top: 5%; left: 5%;'><small>Task 1 of 5</small></div><div class='instruxDiv'><p><strong>2) How many points can you win each round?</strong></p><p>a) 10 points</p><p style='color:#00FF00'>b) Double what you bet</p><p>c) Quadruple what you bet</p><h3 style='color:#00FF00'>Correct!</h3><h3 class='center-content'>The correct response is b).</h3><h3 class='center-content'>You can win double the amount of points you bet.</h3><p><em>Press SPACEBAR to continue</em></p></div>"," ","","","","","","","","","","",""
"html-keyboard-response","8","89076","0.0-9.0","63b7005d59a418f740ecfa0d","bdp_rwlrn","Fri Mar 10 2023 13:25:26 GMT-0600 (Central Standard Time)","583490","Trustworthy,Untrustworthy","","null","","","","","","<div class='header' style='text-align:left; position: absolute; top: 5%; left: 5%;'><small>Task 1 of 5</small></div><div class='instruxDiv'><p>Thank you for completing the quiz<p>These are the actual lotteries you will be playing in the next block:<p><div class='tc' align='center'><img class='introPic' src='Fruit/orange.png'><br><strong>Odds are Orange</strong></div><div class='bl' align='center'><img class='introPic' src='Fruit/mixed-berries2.png'><br><strong>Berry Bla$t</strong></div><div class='br' align='center'><img class='introPic' src='Fruit/plums1.png'><br><strong>Plum Powerball</strong></div></div><p>Across <strong>66 rounds</strong> you will play each lottery <strong>22 times</strong> (in random order).<p style='align:center; color:white'><font <em>Press SPACEBAR to continue</em></p>","null","","","","","","","","","","",""
"instructions","9","96020","0.0-10.0","63b7005d59a418f740ecfa0d","bdp_rwlrn","Fri Mar 10 2023 13:25:26 GMT-0600 (Central Standard Time)","583490","Trustworthy,Untrustworthy","[{""page_index"":0,""viewing_time"":2643},{""page_index"":1,""viewing_time"":4299}]","6942","","","","","","","","","","","","","","","","","",""
"html-keyboard-response","10","98055","0.0-11.0-1.0","63b7005d59a418f740ecfa0d","bdp_rwlrn","Fri Mar 10 2023 13:25:26 GMT-0600 (Central Standard Time)","583490","Trustworthy,Untrustworthy","","1914","","","","decision","","<div class='trialDiv'><img src='Fruit/orange.png'><br><font class='baseline'><strong>Odds are Orange</strong><p>Choose number of points to bet.</font><div class='respPicDiv'><img src='img/responseButtonOffersNo0L.png' class='respPic'></div></div>","2","1","Odds are Orange","Fruit/orange.png","Lost","0.65,0.2","14","0.65","5","1","",""
"html-keyboard-response","11","98310","0.0-11.0-2.0","63b7005d59a418f740ecfa0d","bdp_rwlrn","Fri Mar 10 2023 13:25:26 GMT-0600 (Central Standard Time)","583490","Trustworthy,Untrustworthy","","null","","","","decisionFB","","<div class='trialDiv'><img src='Fruit/orange.png'><br><font class='baseline'><strong>Odds are Orange</strong><p>Choose number of points to bet.</font><div class='respPicDiv'><img src='img/responseButtonOffersNo0L2.png' class='respPic'></div></div>","null","1","Odds are Orange","Fruit/orange.png","Lost","0.65,0.2","14","0.65","3","1","",""
"html-keyboard-response","12","99314","0.0-11.0-3.0","63b7005d59a418f740ecfa0d","bdp_rwlrn","Fri Mar 10 2023 13:25:26 GMT-0600 (Central Standard Time)","583490","Trustworthy,Untrustworthy","","null","","","","feedback","","<div class='respPicDiv'><img src='img/responseButtonOffersNo0_wht.png' class='respPic'></div><div class='trialDiv'><img src='Fruit/orange.png'><br><font class='baseline'><strong>Odds are Orange</strong><p><strong><font class='negOutcome'>You LOST</font><p>You bet: 2</strong></font> &nbsp; &nbsp; &nbsp; &nbsp; &nbsp; &nbsp;<font class='negOutcome'>You receive: <strong>0</strong></font></div>","null","1","Odds are Orange","Fruit/orange.png","Lost","0.65,0.2","14","0.65","3","1","",""
"html-keyboard-response","13","102688","0.0-11.0-1.1","63b7005d59a418f740ecfa0d","bdp_rwlrn","Fri Mar 10 2023 13:25:26 GMT-0600 (Central Standard Time)","583490","Trustworthy,Untrustworthy","","3372","","","","decision","","<div class='trialDiv'><img src='Fruit/plums1.png'><br><font class='baseline'><strong>Plum Powerball</strong><p>Choose number of points to bet.</font><div class='respPicDiv'><img src='img/responseButtonOffersNo0L.png' class='respPic'></div></div>","2","1","Plum Powerball","Fruit/plums1.png","Won","0.8,0.2","12","0.8","8","2","",""
"html-keyboard-response","14","102955","0.0-11.0-2.1","63b7005d59a418f740ecfa0d","bdp_rwlrn","Fri Mar 10 2023 13:25:26 GMT-0600 (Central Standard Time)","583490","Trustworthy,Untrustworthy","","null","","","","decisionFB","","<div class='trialDiv'><img src='Fruit/plums1.png'><br><font class='baseline'><strong>Plum Powerball</strong><p>Choose number of points to bet.</font><div class='respPicDiv'><img src='img/responseButtonOffersNo0L2.png' class='respPic'></div></div>","null","1","Plum Powerball","Fruit/plums1.png","Won","0.8,0.2","12","0.8","6","2","",""
"html-keyboard-response","15","103969","0.0-11.0-3.1","63b7005d59a418f740ecfa0d","bdp_rwlrn","Fri Mar 10 2023 13:25:26 GMT-0600 (Central Standard Time)","583490","Trustworthy,Untrustworthy","","null","","","","feedback","","<div class='respPicDiv'><img src='img/responseButtonOffersNo0_wht.png' class='respPic'></div><div class='trialDiv'><img src='Fruit/plums1.png'><br><font class='baseline'><strong>Plum Powerball</strong><p><strong><font class='posOutcome'>You WON</font><p>You bet: 2</strong></font> &nbsp; &nbsp; &nbsp; &nbsp; &nbsp; &nbsp;<font class='posOutcome'>you receive: <strong>4</strong></font></div>","null","1","Plum Powerball","Fruit/plums1.png","Won","0.8,0.2","12","0.8","10","2","",""
"html-keyboard-response","16","105220","0.0-11.0-1.2","63b7005d59a418f740ecfa0d","bdp_rwlrn","Fri Mar 10 2023 13:25:26 GMT-0600 (Central Standard Time)","583490","Trustworthy,Untrustworthy","","1248","","","","decision","","<div class='trialDiv'><img src='Fruit/mixed-berries2.png'><br><font class='baseline'><strong>Berry Bla$t</strong><p>Choose number of points to bet.</font><div class='respPicDiv'><img src='img/responseButtonOffersNo0L.png' class='respPic'></div></div>","2","1","Berry Bla$t","Fruit/mixed-berries2.png","Won","0.2,0.65","9","0.2","15","3","",""
"html-keyboard-response","17","105480","0.0-11.0-2.2","63b7005d59a418f740ecfa0d","bdp_rwlrn","Fri Mar 10 2023 13:25:26 GMT-0600 (Central Standard Time)","583490","Trustworthy,Untrustworthy","","null","","","","decisionFB","","<div class='trialDiv'><img src='Fruit/mixed-berries2.png'><br><font class='baseline'><strong>Berry Bla$t</strong><p>Choose number of points to bet.</font><div class='respPicDiv'><img src='img/responseButtonOffersNo0L2.png' class='respPic'></div></div>","null","1","Berry Bla$t","Fruit/mixed-berries2.png","Won","0.2,0.65","9","0.2","13","3","",""
"html-keyboard-response","18","106497","0.0-11.0-3.2","63b7005d59a418f740ecfa0d","bdp_rwlrn","Fri Mar 10 2023 13:25:26 GMT-0600 (Central Standard Time)","583490","Trustworthy,Untrustworthy","","null","","","","feedback","","<div class='respPicDiv'><img src='img/responseButtonOffersNo0_wht.png' class='respPic'></div><div class='trialDiv'><img src='Fruit/mixed-berries2.png'><br><font class='baseline'><strong>Berry Bla$t</strong><p><strong><font class='posOutcome'>You WON</font><p>You bet: 2</strong></font> &nbsp; &nbsp; &nbsp; &nbsp; &nbsp; &nbsp;<font class='posOutcome'>you receive: <strong>4</strong></font></div>","null","1","Berry Bla$t","Fruit/mixed-berries2.png","Won","0.2,0.65","9","0.2","17","3","",""
"html-keyboard-response","19","108257","0.0-11.0-1.3","63b7005d59a418f740ecfa0d","bdp_rwlrn","Fri Mar 10 2023 13:25:26 GMT-0600 (Central Standard Time)","583490","Trustworthy,Untrustworthy","","1757","","","","decision","","<div class='trialDiv'><img src='Fruit/orange.png'><br><font class='baseline'><strong>Odds are Orange</strong><p>Choose number of points to bet.</font><div class='respPicDiv'><img src='img/responseButtonOffersNo0L.png' class='respPic'></div></div>","1","2","Odds are Orange","Fruit/orange.png","Lost","0.65,0.2","14","0.65","22","4","",""
"html-keyboard-response","20","108514","0.0-11.0-2.3","63b7005d59a418f740ecfa0d","bdp_rwlrn","Fri Mar 10 2023 13:25:26 GMT-0600 (Central Standard Time)","583490","Trustworthy,Untrustworthy","","null","","","","decisionFB","","<div class='trialDiv'><img src='Fruit/orange.png'><br><font class='baseline'><strong>Odds are Orange</strong><p>Choose number of points to bet.</font><div class='respPicDiv'><img src='img/responseButtonOffersNo0L1.png' class='respPic'></div></div>","null","2","Odds are Orange","Fruit/orange.png","Lost","0.65,0.2","14","0.65","21","4","",""
"html-keyboard-response","21","109531","0.0-11.0-3.3","63b7005d59a418f740ecfa0d","bdp_rwlrn","Fri Mar 10 2023 13:25:26 GMT-0600 (Central Standard Time)","583490","Trustworthy,Untrustworthy","","null","","","","feedback","","<div class='respPicDiv'><img src='img/responseButtonOffersNo0_wht.png' class='respPic'></div><div class='trialDiv'><img src='Fruit/orange.png'><br><font class='baseline'><strong>Odds are Orange</strong><p><strong><font class='negOutcome'>You LOST</font><p>You bet: 1</strong></font> &nbsp; &nbsp; &nbsp; &nbsp; &nbsp; &nbsp;<font class='negOutcome'>You receive: <strong>0</strong></font></div>","null","2","Odds are Orange","Fruit/orange.png","Lost","0.65,0.2","14","0.65","21","4","",""
"html-keyboard-response","22","111898","0.0-11.0-1.4","63b7005d59a418f740ecfa0d","bdp_rwlrn","Fri Mar 10 2023 13:25:26 GMT-0600 (Central Standard Time)","583490","Trustworthy,Untrustworthy","","2364","","","","decision","","<div class='trialDiv'><img src='Fruit/mixed-berries2.png'><br><font class='baseline'><strong>Berry Bla$t</strong><p>Choose number of points to bet.</font><div class='respPicDiv'><img src='img/responseButtonOffersNo0L.png' class='respPic'></div></div>","3","2","Berry Bla$t","Fruit/mixed-berries2.png","Lost","0.2,0.65","9","0.2","26","5","",""
"html-keyboard-response","23","112164","0.0-11.0-2.4","63b7005d59a418f740ecfa0d","bdp_rwlrn","Fri Mar 10 2023 13:25:26 GMT-0600 (Central Standard Time)","583490","Trustworthy,Untrustworthy","","null","","","","decisionFB","","<div class='trialDiv'><img src='Fruit/mixed-berries2.png'><br><font class='baseline'><strong>Berry Bla$t</strong><p>Choose number of points to bet.</font><div class='respPicDiv'><img src='img/responseButtonOffersNo0L3.png' class='respPic'></div></div>","null","2","Berry Bla$t","Fruit/mixed-berries2.png","Lost","0.2,0.65","9","0.2","23","5","",""
"html-keyboard-response","24","113168","0.0-11.0-3.4","63b7005d59a418f740ecfa0d","bdp_rwlrn","Fri Mar 10 2023 13:25:26 GMT-0600 (Central Standard Time)","583490","Trustworthy,Untrustworthy","","null","","","","feedback","","<div class='respPicDiv'><img src='img/responseButtonOffersNo0_wht.png' class='respPic'></div><div class='trialDiv'><img src='Fruit/mixed-berries2.png'><br><font class='baseline'><strong>Berry Bla$t</strong><p><strong><font class='negOutcome'>You LOST</font><p>You bet: 3</strong></font> &nbsp; &nbsp; &nbsp; &nbsp; &nbsp; &nbsp;<font class='negOutcome'>You receive: <strong>0</strong></font></div>","null","2","Berry Bla$t","Fruit/mixed-berries2.png","Lost","0.2,0.65","9","0.2","23","5","",""
"html-keyboard-response","25","114835","0.0-11.0-1.5","63b7005d59a418f740ecfa0d","bdp_rwlrn","Fri Mar 10 2023 13:25:26 GMT-0600 (Central Standard Time)","583490","Trustworthy,Untrustworthy","","1664","","","","decision","","<div class='trialDiv'><img src='Fruit/plums1.png'><br><font class='baseline'><strong>Plum Powerball</strong><p>Choose number of points to bet.</font><div class='respPicDiv'><img src='img/responseButtonOffersNo0L.png' class='respPic'></div></div>","3","2","Plum Powerball","Fruit/plums1.png","Won","0.8,0.2","12","0.8","28","6","",""
"html-keyboard-response","26","115089","0.0-11.0-2.5","63b7005d59a418f740ecfa0d","bdp_rwlrn","Fri Mar 10 2023 13:25:26 GMT-0600 (Central Standard Time)","583490","Trustworthy,Untrustworthy","","null","","","","decisionFB","","<div class='trialDiv'><img src='Fruit/plums1.png'><br><font class='baseline'><strong>Plum Powerball</strong><p>Choose number of points to bet.</font><div class='respPicDiv'><img src='img/responseButtonOffersNo0L3.png' class='respPic'></div></div>","null","2","Plum Powerball","Fruit/plums1.png","Won","0.8,0.2","12","0.8","25","6","",""
"html-keyboard-response","27","116097","0.0-11.0-3.5","63b7005d59a418f740ecfa0d","bdp_rwlrn","Fri Mar 10 2023 13:25:26 GMT-0600 (Central Standard Time)","583490","Trustworthy,Untrustworthy","","null","","","","feedback","","<div class='respPicDiv'><img src='img/responseButtonOffersNo0_wht.png' class='respPic'></div><div class='trialDiv'><img src='Fruit/plums1.png'><br><font class='baseline'><strong>Plum Powerball</strong><p><strong><font class='posOutcome'>You WON</font><p>You bet: 3</strong></font> &nbsp; &nbsp; &nbsp; &nbsp; &nbsp; &nbsp;<font class='posOutcome'>you receive: <strong>6</strong></font></div>","null","2","Plum Powerball","Fruit/plums1.png","Won","0.8,0.2","12","0.8","31","6","",""
"html-keyboard-response","28","120421","0.0-11.0-1.6","63b7005d59a418f740ecfa0d","bdp_rwlrn","Fri Mar 10 2023 13:25:26 GMT-0600 (Central Standard Time)","583490","Trustworthy,Untrustworthy","","4322","","","","decision","","<div class='trialDiv'><img src='Fruit/mixed-berries2.png'><br><font class='baseline'><strong>Berry Bla$t</strong><p>Choose number of points to bet.</font><div class='respPicDiv'><img src='img/responseButtonOffersNo0L.png' class='respPic'></div></div>","2","3","Berry Bla$t","Fruit/mixed-berries2.png","Lost","0.2,0.65","9","0.2","36","7","",""
"html-keyboard-response","29","120685","0.0-11.0-2.6","63b7005d59a418f740ecfa0d","bdp_rwlrn","Fri Mar 10 2023 13:25:26 GMT-0600 (Central Standard Time)","583490","Trustworthy,Untrustworthy","","null","","","","decisionFB","","<div class='trialDiv'><img src='Fruit/mixed-berries2.png'><br><font class='baseline'><strong>Berry Bla$t</strong><p>Choose number of points to bet.</font><div class='respPicDiv'><img src='img/responseButtonOffersNo0L2.png' class='respPic'></div></div>","null","3","Berry Bla$t","Fruit/mixed-berries2.png","Lost","0.2,0.65","9","0.2","34","7","",""
"html-keyboard-response","30","121690","0.0-11.0-3.6","63b7005d59a418f740ecfa0d","bdp_rwlrn","Fri Mar 10 2023 13:25:26 GMT-0600 (Central Standard Time)","583490","Trustworthy,Untrustworthy","","null","","","","feedback","","<div class='respPicDiv'><img src='img/responseButtonOffersNo0_wht.png' class='respPic'></div><div class='trialDiv'><img src='Fruit/mixed-berries2.png'><br><font class='baseline'><strong>Berry Bla$t</strong><p><strong><font class='negOutcome'>You LOST</font><p>You bet: 2</strong></font> &nbsp; &nbsp; &nbsp; &nbsp; &nbsp; &nbsp;<font class='negOutcome'>You receive: <strong>0</strong></font></div>","null","3","Berry Bla$t","Fruit/mixed-berries2.png","Lost","0.2,0.65","9","0.2","34","7","",""
"html-keyboard-response","31","126000","0.0-11.0-1.7","63b7005d59a418f740ecfa0d","bdp_rwlrn","Fri Mar 10 2023 13:25:26 GMT-0600 (Central Standard Time)","583490","Trustworthy,Untrustworthy","","4308","","","","decision","","<div class='trialDiv'><img src='Fruit/plums1.png'><br><font class='baseline'><strong>Plum Powerball</strong><p>Choose number of points to bet.</font><div class='respPicDiv'><img src='img/responseButtonOffersNo0L.png' class='respPic'></div></div>","5","3","Plum Powerball","Fruit/plums1.png","Won","0.8,0.2","12","0.8","39","8","",""
"html-keyboard-response","32","126266","0.0-11.0-2.7","63b7005d59a418f740ecfa0d","bdp_rwlrn","Fri Mar 10 2023 13:25:26 GMT-0600 (Central Standard Time)","583490","Trustworthy,Untrustworthy","","null","","","","decisionFB","","<div class='trialDiv'><img src='Fruit/plums1.png'><br><font class='baseline'><strong>Plum Powerball</strong><p>Choose number of points to bet.</font><div class='respPicDiv'><img src='img/responseButtonOffersNo0L5.png' class='respPic'></div></div>","null","3","Plum Powerball","Fruit/plums1.png","Won","0.8,0.2","12","0.8","34","8","",""
"html-keyboard-response","33","127281","0.0-11.0-3.7","63b7005d59a418f740ecfa0d","bdp_rwlrn","Fri Mar 10 2023 13:25:26 GMT-0600 (Central Standard Time)","583490","Trustworthy,Untrustworthy","","null","","","","feedback","","<div class='respPicDiv'><img src='img/responseButtonOffersNo0_wht.png' class='respPic'></div><div class='trialDiv'><img src='Fruit/plums1.png'><br><font class='baseline'><strong>Plum Powerball</strong><p><strong><font class='posOutcome'>You WON</font><p>You bet: 5</strong></font> &nbsp; &nbsp; &nbsp; &nbsp; &nbsp; &nbsp;<font class='posOutcome'>you receive: <strong>10</strong></font></div>","null","3","Plum Powerball","Fruit/plums1.png","Won","0.8,0.2","12","0.8","44","8","",""
"html-keyboard-response","34","130034","0.0-11.0-1.8","63b7005d59a418f740ecfa0d","bdp_rwlrn","Fri Mar 10 2023 13:25:26 GMT-0600 (Central Standard Time)","583490","Trustworthy,Untrustworthy","","2750","","","","decision","","<div class='trialDiv'><img src='Fruit/orange.png'><br><font class='baseline'><strong>Odds are Orange</strong><p>Choose number of points to bet.</font><div class='respPicDiv'><img src='img/responseButtonOffersNo0L.png' class='respPic'></div></div>","1","3","Odds are Orange","Fruit/orange.png","Won","0.65,0.2","14","0.65","49","9","",""
"html-keyboard-response","35","130299","0.0-11.0-2.8","63b7005d59a418f740ecfa0d","bdp_rwlrn","Fri Mar 10 2023 13:25:26 GMT-0600 (Central Standard Time)","583490","Trustworthy,Untrustworthy","","null","","","","decisionFB","","<div class='trialDiv'><img src='Fruit/orange.png'><br><font class='baseline'><strong>Odds are Orange</strong><p>Choose number of points to bet.</font><div class='respPicDiv'><img src='img/responseButtonOffersNo0L1.png' class='respPic'></div></div>","null","3","Odds are Orange","Fruit/orange.png","Won","0.65,0.2","14","0.65","48","9","",""
"html-keyboard-response","36","131307","0.0-11.0-3.8","63b7005d59a418f740ecfa0d","bdp_rwlrn","Fri Mar 10 2023 13:25:26 GMT-0600 (Central Standard Time)","583490","Trustworthy,Untrustworthy","","null","","","","feedback","","<div class='respPicDiv'><img src='img/responseButtonOffersNo0_wht.png' class='respPic'></div><div class='trialDiv'><img src='Fruit/orange.png'><br><font class='baseline'><strong>Odds are Orange</strong><p><strong><font class='posOutcome'>You WON</font><p>You bet: 1</strong></font> &nbsp; &nbsp; &nbsp; &nbsp; &nbsp; &nbsp;<font class='posOutcome'>you receive: <strong>2</strong></font></div>","null","3","Odds are Orange","Fruit/orange.png","Won","0.65,0.2","14","0.65","50","9","",""
"html-keyboard-response","37","134483","0.0-11.0-1.9","63b7005d59a418f740ecfa0d","bdp_rwlrn","Fri Mar 10 2023 13:25:26 GMT-0600 (Central Standard Time)","583490","Trustworthy,Untrustworthy","","3173","","","","decision","","<div class='trialDiv'><img src='Fruit/mixed-berries2.png'><br><font class='baseline'><strong>Berry Bla$t</strong><p>Choose number of points to bet.</font><div class='respPicDiv'><img src='img/responseButtonOffersNo0L.png' class='respPic'></div></div>","2","4","Berry Bla$t","Fruit/mixed-berries2.png","Lost","0.2,0.65","9","0.2","55","10","",""
"html-keyboard-response","38","134744","0.0-11.0-2.9","63b7005d59a418f740ecfa0d","bdp_rwlrn","Fri Mar 10 2023 13:25:26 GMT-0600 (Central Standard Time)","583490","Trustworthy,Untrustworthy","","null","","","","decisionFB","","<div class='trialDiv'><img src='Fruit/mixed-berries2.png'><br><font class='baseline'><strong>Berry Bla$t</strong><p>Choose number of points to bet.</font><div class='respPicDiv'><img src='img/responseButtonOffersNo0L2.png' class='respPic'></div></div>","null","4","Berry Bla$t","Fruit/mixed-berries2.png","Lost","0.2,0.65","9","0.2","53","10","",""
"html-keyboard-response","39","135761","0.0-11.0-3.9","63b7005d59a418f740ecfa0d","bdp_rwlrn","Fri Mar 10 2023 13:25:26 GMT-0600 (Central Standard Time)","583490","Trustworthy,Untrustworthy","","null","","","","feedback","","<div class='respPicDiv'><img src='img/responseButtonOffersNo0_wht.png' class='respPic'></div><div class='trialDiv'><img src='Fruit/mixed-berries2.png'><br><font class='baseline'><strong>Berry Bla$t</strong><p><strong><font class='negOutcome'>You LOST</font><p>You bet: 2</strong></font> &nbsp; &nbsp; &nbsp; &nbsp; &nbsp; &nbsp;<font class='negOutcome'>You receive: <strong>0</strong></font></div>","null","4","Berry Bla$t","Fruit/mixed-berries2.png","Lost","0.2,0.65","9","0.2","53","10","",""
"html-keyboard-response","40","137169","0.0-11.0-1.10","63b7005d59a418f740ecfa0d","bdp_rwlrn","Fri Mar 10 2023 13:25:26 GMT-0600 (Central Standard Time)","583490","Trustworthy,Untrustworthy","","1404","","","","decision","","<div class='trialDiv'><img src='Fruit/plums1.png'><br><font class='baseline'><strong>Plum Powerball</strong><p>Choose number of points to bet.</font><div class='respPicDiv'><img src='img/responseButtonOffersNo0L.png' class='respPic'></div></div>","5","4","Plum Powerball","Fruit/plums1.png","Won","0.8,0.2","12","0.8","58","11","",""
"html-keyboard-response","41","137428","0.0-11.0-2.10","63b7005d59a418f740ecfa0d","bdp_rwlrn","Fri Mar 10 2023 13:25:26 GMT-0600 (Central Standard Time)","583490","Trustworthy,Untrustworthy","","null","","","","decisionFB","","<div class='trialDiv'><img src='Fruit/plums1.png'><br><font class='baseline'><strong>Plum Powerball</strong><p>Choose number of points to bet.</font><div class='respPicDiv'><img src='img/responseButtonOffersNo0L5.png' class='respPic'></div></div>","null","4","Plum Powerball","Fruit/plums1.png","Won","0.8,0.2","12","0.8","53","11","",""
"html-keyboard-response","42","138438","0.0-11.0-3.10","63b7005d59a418f740ecfa0d","bdp_rwlrn","Fri Mar 10 2023 13:25:26 GMT-0600 (Central Standard Time)","583490","Trustworthy,Untrustworthy","","null","","","","feedback","","<div class='respPicDiv'><img src='img/responseButtonOffersNo0_wht.png' class='respPic'></div><div class='trialDiv'><img src='Fruit/plums1.png'><br><font class='baseline'><strong>Plum Powerball</strong><p><strong><font class='posOutcome'>You WON</font><p>You bet: 5</strong></font> &nbsp; &nbsp; &nbsp; &nbsp; &nbsp; &nbsp;<font class='posOutcome'>you receive: <strong>10</strong></font></div>","null","4","Plum Powerball","Fruit/plums1.png","Won","0.8,0.2","12","0.8","63","11","",""
"html-keyboard-response","43","141297","0.0-11.0-1.11","63b7005d59a418f740ecfa0d","bdp_rwlrn","Fri Mar 10 2023 13:25:26 GMT-0600 (Central Standard Time)","583490","Trustworthy,Untrustworthy","","2857","","","","decision","","<div class='trialDiv'><img src='Fruit/orange.png'><br><font class='baseline'><strong>Odds are Orange</strong><p>Choose number of points to bet.</font><div class='respPicDiv'><img src='img/responseButtonOffersNo0L.png' class='respPic'></div></div>","1","4","Odds are Orange","Fruit/orange.png","Won","0.65,0.2","14","0.65","68","12","",""
"html-keyboard-response","44","141560","0.0-11.0-2.11","63b7005d59a418f740ecfa0d","bdp_rwlrn","Fri Mar 10 2023 13:25:26 GMT-0600 (Central Standard Time)","583490","Trustworthy,Untrustworthy","","null","","","","decisionFB","","<div class='trialDiv'><img src='Fruit/orange.png'><br><font class='baseline'><strong>Odds are Orange</strong><p>Choose number of points to bet.</font><div class='respPicDiv'><img src='img/responseButtonOffersNo0L1.png' class='respPic'></div></div>","null","4","Odds are Orange","Fruit/orange.png","Won","0.65,0.2","14","0.65","67","12","",""
"html-keyboard-response","45","142575","0.0-11.0-3.11","63b7005d59a418f740ecfa0d","bdp_rwlrn","Fri Mar 10 2023 13:25:26 GMT-0600 (Central Standard Time)","583490","Trustworthy,Untrustworthy","","null","","","","feedback","","<div class='respPicDiv'><img src='img/responseButtonOffersNo0_wht.png' class='respPic'></div><div class='trialDiv'><img src='Fruit/orange.png'><br><font class='baseline'><strong>Odds are Orange</strong><p><strong><font class='posOutcome'>You WON</font><p>You bet: 1</strong></font> &nbsp; &nbsp; &nbsp; &nbsp; &nbsp; &nbsp;<font class='posOutcome'>you receive: <strong>2</strong></font></div>","null","4","Odds are Orange","Fruit/orange.png","Won","0.65,0.2","14","0.65","69","12","",""
"html-keyboard-response","46","143409","0.0-11.0-1.12","63b7005d59a418f740ecfa0d","bdp_rwlrn","Fri Mar 10 2023 13:25:26 GMT-0600 (Central Standard Time)","583490","Trustworthy,Untrustworthy","","831","","","","decision","","<div class='trialDiv'><img src='Fruit/mixed-berries2.png'><br><font class='baseline'><strong>Berry Bla$t</strong><p>Choose number of points to bet.</font><div class='respPicDiv'><img src='img/responseButtonOffersNo0L.png' class='respPic'></div></div>","1","5","Berry Bla$t","Fruit/mixed-berries2.png","Lost","0.2,0.65","9","0.2","74","13","",""
"html-keyboard-response","47","143667","0.0-11.0-2.12","63b7005d59a418f740ecfa0d","bdp_rwlrn","Fri Mar 10 2023 13:25:26 GMT-0600 (Central Standard Time)","583490","Trustworthy,Untrustworthy","","null","","","","decisionFB","","<div class='trialDiv'><img src='Fruit/mixed-berries2.png'><br><font class='baseline'><strong>Berry Bla$t</strong><p>Choose number of points to bet.</font><div class='respPicDiv'><img src='img/responseButtonOffersNo0L1.png' class='respPic'></div></div>","null","5","Berry Bla$t","Fruit/mixed-berries2.png","Lost","0.2,0.65","9","0.2","73","13","",""
"html-keyboard-response","48","144682","0.0-11.0-3.12","63b7005d59a418f740ecfa0d","bdp_rwlrn","Fri Mar 10 2023 13:25:26 GMT-0600 (Central Standard Time)","583490","Trustworthy,Untrustworthy","","null","","","","feedback","","<div class='respPicDiv'><img src='img/responseButtonOffersNo0_wht.png' class='respPic'></div><div class='trialDiv'><img src='Fruit/mixed-berries2.png'><br><font class='baseline'><strong>Berry Bla$t</strong><p><strong><font class='negOutcome'>You LOST</font><p>You bet: 1</strong></font> &nbsp; &nbsp; &nbsp; &nbsp; &nbsp; &nbsp;<font class='negOutcome'>You receive: <strong>0</strong></font></div>","null","5","Berry Bla$t","Fruit/mixed-berries2.png","Lost","0.2,0.65","9","0.2","73","13","",""
"html-keyboard-response","49","147871","0.0-11.0-1.13","63b7005d59a418f740ecfa0d","bdp_rwlrn","Fri Mar 10 2023 13:25:26 GMT-0600 (Central Standard Time)","583490","Trustworthy,Untrustworthy","","3187","","","","decision","","<div class='trialDiv'><img src='Fruit/plums1.png'><br><font class='baseline'><strong>Plum Powerball</strong><p>Choose number of points to bet.</font><div class='respPicDiv'><img src='img/responseButtonOffersNo0L.png' class='respPic'></div></div>","5","5","Plum Powerball","Fruit/plums1.png","Won","0.8,0.2","12","0.8","78","14","",""
"html-keyboard-response","50","148141","0.0-11.0-2.13","63b7005d59a418f740ecfa0d","bdp_rwlrn","Fri Mar 10 2023 13:25:26 GMT-0600 (Central Standard Time)","583490","Trustworthy,Untrustworthy","","null","","","","decisionFB","","<div class='trialDiv'><img src='Fruit/plums1.png'><br><font class='baseline'><strong>Plum Powerball</strong><p>Choose number of points to bet.</font><div class='respPicDiv'><img src='img/responseButtonOffersNo0L5.png' class='respPic'></div></div>","null","5","Plum Powerball","Fruit/plums1.png","Won","0.8,0.2","12","0.8","73","14","",""
"html-keyboard-response","51","149143","0.0-11.0-3.13","63b7005d59a418f740ecfa0d","bdp_rwlrn","Fri Mar 10 2023 13:25:26 GMT-0600 (Central Standard Time)","583490","Trustworthy,Untrustworthy","","null","","","","feedback","","<div class='respPicDiv'><img src='img/responseButtonOffersNo0_wht.png' class='respPic'></div><div class='trialDiv'><img src='Fruit/plums1.png'><br><font class='baseline'><strong>Plum Powerball</strong><p><strong><font class='posOutcome'>You WON</font><p>You bet: 5</strong></font> &nbsp; &nbsp; &nbsp; &nbsp; &nbsp; &nbsp;<font class='posOutcome'>you receive: <strong>10</strong></font></div>","null","5","Plum Powerball","Fruit/plums1.png","Won","0.8,0.2","12","0.8","83","14","",""
"html-keyboard-response","52","152631","0.0-11.0-1.14","63b7005d59a418f740ecfa0d","bdp_rwlrn","Fri Mar 10 2023 13:25:26 GMT-0600 (Central Standard Time)","583490","Trustworthy,Untrustworthy","","3485","","","","decision","","<div class='trialDiv'><img src='Fruit/orange.png'><br><font class='baseline'><strong>Odds are Orange</strong><p>Choose number of points to bet.</font><div class='respPicDiv'><img src='img/responseButtonOffersNo0L.png' class='respPic'></div></div>","1","5","Odds are Orange","Fruit/orange.png","Won","0.65,0.2","14","0.65","88","15","",""
"html-keyboard-response","53","152902","0.0-11.0-2.14","63b7005d59a418f740ecfa0d","bdp_rwlrn","Fri Mar 10 2023 13:25:26 GMT-0600 (Central Standard Time)","583490","Trustworthy,Untrustworthy","","null","","","","decisionFB","","<div class='trialDiv'><img src='Fruit/orange.png'><br><font class='baseline'><strong>Odds are Orange</strong><p>Choose number of points to bet.</font><div class='respPicDiv'><img src='img/responseButtonOffersNo0L1.png' class='respPic'></div></div>","null","5","Odds are Orange","Fruit/orange.png","Won","0.65,0.2","14","0.65","87","15","",""
"html-keyboard-response","54","153906","0.0-11.0-3.14","63b7005d59a418f740ecfa0d","bdp_rwlrn","Fri Mar 10 2023 13:25:26 GMT-0600 (Central Standard Time)","583490","Trustworthy,Untrustworthy","","null","","","","feedback","","<div class='respPicDiv'><img src='img/responseButtonOffersNo0_wht.png' class='respPic'></div><div class='trialDiv'><img src='Fruit/orange.png'><br><font class='baseline'><strong>Odds are Orange</strong><p><strong><font class='posOutcome'>You WON</font><p>You bet: 1</strong></font> &nbsp; &nbsp; &nbsp; &nbsp; &nbsp; &nbsp;<font class='posOutcome'>you receive: <strong>2</strong></font></div>","null","5","Odds are Orange","Fruit/orange.png","Won","0.65,0.2","14","0.65","89","15","",""
"html-keyboard-response","55","156043","0.0-11.0-1.15","63b7005d59a418f740ecfa0d","bdp_rwlrn","Fri Mar 10 2023 13:25:26 GMT-0600 (Central Standard Time)","583490","Trustworthy,Untrustworthy","","2132","","","","decision","","<div class='trialDiv'><img src='Fruit/mixed-berries2.png'><br><font class='baseline'><strong>Berry Bla$t</strong><p>Choose number of points to bet.</font><div class='respPicDiv'><img src='img/responseButtonOffersNo0L.png' class='respPic'></div></div>","1","6","Berry Bla$t","Fruit/mixed-berries2.png","Lost","0.2,0.65","9","0.2","94","16","",""
"html-keyboard-response","56","156297","0.0-11.0-2.15","63b7005d59a418f740ecfa0d","bdp_rwlrn","Fri Mar 10 2023 13:25:26 GMT-0600 (Central Standard Time)","583490","Trustworthy,Untrustworthy","","null","","","","decisionFB","","<div class='trialDiv'><img src='Fruit/mixed-berries2.png'><br><font class='baseline'><strong>Berry Bla$t</strong><p>Choose number of points to bet.</font><div class='respPicDiv'><img src='img/responseButtonOffersNo0L1.png' class='respPic'></div></div>","null","6","Berry Bla$t","Fruit/mixed-berries2.png","Lost","0.2,0.65","9","0.2","93","16","",""
"html-keyboard-response","57","157314","0.0-11.0-3.15","63b7005d59a418f740ecfa0d","bdp_rwlrn","Fri Mar 10 2023 13:25:26 GMT-0600 (Central Standard Time)","583490","Trustworthy,Untrustworthy","","null","","","","feedback","","<div class='respPicDiv'><img src='img/responseButtonOffersNo0_wht.png' class='respPic'></div><div class='trialDiv'><img src='Fruit/mixed-berries2.png'><br><font class='baseline'><strong>Berry Bla$t</strong><p><strong><font class='negOutcome'>You LOST</font><p>You bet: 1</strong></font> &nbsp; &nbsp; &nbsp; &nbsp; &nbsp; &nbsp;<font class='negOutcome'>You receive: <strong>0</strong></font></div>","null","6","Berry Bla$t","Fruit/mixed-berries2.png","Lost","0.2,0.65","9","0.2","93","16","",""
"html-keyboard-response","58","162341","0.0-11.0-1.16","63b7005d59a418f740ecfa0d","bdp_rwlrn","Fri Mar 10 2023 13:25:26 GMT-0600 (Central Standard Time)","583490","Trustworthy,Untrustworthy","","5023","","","","decision","","<div class='trialDiv'><img src='Fruit/orange.png'><br><font class='baseline'><strong>Odds are Orange</strong><p>Choose number of points to bet.</font><div class='respPicDiv'><img src='img/responseButtonOffersNo0L.png' class='respPic'></div></div>","3","6","Odds are Orange","Fruit/orange.png","Lost","0.65,0.2","14","0.65","98","17","",""
"html-keyboard-response","59","162607","0.0-11.0-2.16","63b7005d59a418f740ecfa0d","bdp_rwlrn","Fri Mar 10 2023 13:25:26 GMT-0600 (Central Standard Time)","583490","Trustworthy,Untrustworthy","","null","","","","decisionFB","","<div class='trialDiv'><img src='Fruit/orange.png'><br><font class='baseline'><strong>Odds are Orange</strong><p>Choose number of points to bet.</font><div class='respPicDiv'><img src='img/responseButtonOffersNo0L3.png' class='respPic'></div></div>","null","6","Odds are Orange","Fruit/orange.png","Lost","0.65,0.2","14","0.65","95","17","",""
"html-keyboard-response","60","163621","0.0-11.0-3.16","63b7005d59a418f740ecfa0d","bdp_rwlrn","Fri Mar 10 2023 13:25:26 GMT-0600 (Central Standard Time)","583490","Trustworthy,Untrustworthy","","null","","","","feedback","","<div class='respPicDiv'><img src='img/responseButtonOffersNo0_wht.png' class='respPic'></div><div class='trialDiv'><img src='Fruit/orange.png'><br><font class='baseline'><strong>Odds are Orange</strong><p><strong><font class='negOutcome'>You LOST</font><p>You bet: 3</strong></font> &nbsp; &nbsp; &nbsp; &nbsp; &nbsp; &nbsp;<font class='negOutcome'>You receive: <strong>0</strong></font></div>","null","6","Odds are Orange","Fruit/orange.png","Lost","0.65,0.2","14","0.65","95","17","",""
"html-keyboard-response","61","164739","0.0-11.0-1.17","63b7005d59a418f740ecfa0d","bdp_rwlrn","Fri Mar 10 2023 13:25:26 GMT-0600 (Central Standard Time)","583490","Trustworthy,Untrustworthy","","1116","","","","decision","","<div class='trialDiv'><img src='Fruit/plums1.png'><br><font class='baseline'><strong>Plum Powerball</strong><p>Choose number of points to bet.</font><div class='respPicDiv'><img src='img/responseButtonOffersNo0L.png' class='respPic'></div></div>","5","6","Plum Powerball","Fruit/plums1.png","Won","0.8,0.2","12","0.8","100","18","",""
"html-keyboard-response","62","164991","0.0-11.0-2.17","63b7005d59a418f740ecfa0d","bdp_rwlrn","Fri Mar 10 2023 13:25:26 GMT-0600 (Central Standard Time)","583490","Trustworthy,Untrustworthy","","null","","","","decisionFB","","<div class='trialDiv'><img src='Fruit/plums1.png'><br><font class='baseline'><strong>Plum Powerball</strong><p>Choose number of points to bet.</font><div class='respPicDiv'><img src='img/responseButtonOffersNo0L5.png' class='respPic'></div></div>","null","6","Plum Powerball","Fruit/plums1.png","Won","0.8,0.2","12","0.8","95","18","",""
"html-keyboard-response","63","165996","0.0-11.0-3.17","63b7005d59a418f740ecfa0d","bdp_rwlrn","Fri Mar 10 2023 13:25:26 GMT-0600 (Central Standard Time)","583490","Trustworthy,Untrustworthy","","null","","","","feedback","","<div class='respPicDiv'><img src='img/responseButtonOffersNo0_wht.png' class='respPic'></div><div class='trialDiv'><img src='Fruit/plums1.png'><br><font class='baseline'><strong>Plum Powerball</strong><p><strong><font class='posOutcome'>You WON</font><p>You bet: 5</strong></font> &nbsp; &nbsp; &nbsp; &nbsp; &nbsp; &nbsp;<font class='posOutcome'>you receive: <strong>10</strong></font></div>","null","6","Plum Powerball","Fruit/plums1.png","Won","0.8,0.2","12","0.8","105","18","",""
"html-keyboard-response","64","168065","0.0-11.0-1.18","63b7005d59a418f740ecfa0d","bdp_rwlrn","Fri Mar 10 2023 13:25:26 GMT-0600 (Central Standard Time)","583490","Trustworthy,Untrustworthy","","2066","","","","decision","","<div class='trialDiv'><img src='Fruit/orange.png'><br><font class='baseline'><strong>Odds are Orange</strong><p>Choose number of points to bet.</font><div class='respPicDiv'><img src='img/responseButtonOffersNo0L.png' class='respPic'></div></div>","3","7","Odds are Orange","Fruit/orange.png","Won","0.65,0.2","14","0.65","110","19","",""
"html-keyboard-response","65","168318","0.0-11.0-2.18","63b7005d59a418f740ecfa0d","bdp_rwlrn","Fri Mar 10 2023 13:25:26 GMT-0600 (Central Standard Time)","583490","Trustworthy,Untrustworthy","","null","","","","decisionFB","","<div class='trialDiv'><img src='Fruit/orange.png'><br><font class='baseline'><strong>Odds are Orange</strong><p>Choose number of points to bet.</font><div class='respPicDiv'><img src='img/responseButtonOffersNo0L3.png' class='respPic'></div></div>","null","7","Odds are Orange","Fruit/orange.png","Won","0.65,0.2","14","0.65","107","19","",""
"html-keyboard-response","66","169336","0.0-11.0-3.18","63b7005d59a418f740ecfa0d","bdp_rwlrn","Fri Mar 10 2023 13:25:26 GMT-0600 (Central Standard Time)","583490","Trustworthy,Untrustworthy","","null","","","","feedback","","<div class='respPicDiv'><img src='img/responseButtonOffersNo0_wht.png' class='respPic'></div><div class='trialDiv'><img src='Fruit/orange.png'><br><font class='baseline'><strong>Odds are Orange</strong><p><strong><font class='posOutcome'>You WON</font><p>You bet: 3</strong></font> &nbsp; &nbsp; &nbsp; &nbsp; &nbsp; &nbsp;<font class='posOutcome'>you receive: <strong>6</strong></font></div>","null","7","Odds are Orange","Fruit/orange.png","Won","0.65,0.2","14","0.65","113","19","",""
"html-keyboard-response","67","170537","0.0-11.0-1.19","63b7005d59a418f740ecfa0d","bdp_rwlrn","Fri Mar 10 2023 13:25:26 GMT-0600 (Central Standard Time)","583490","Trustworthy,Untrustworthy","","1197","","","","decision","","<div class='trialDiv'><img src='Fruit/plums1.png'><br><font class='baseline'><strong>Plum Powerball</strong><p>Choose number of points to bet.</font><div class='respPicDiv'><img src='img/responseButtonOffersNo0L.png' class='respPic'></div></div>","5","7","Plum Powerball","Fruit/plums1.png","Won","0.8,0.2","12","0.8","118","20","",""
"html-keyboard-response","68","170793","0.0-11.0-2.19","63b7005d59a418f740ecfa0d","bdp_rwlrn","Fri Mar 10 2023 13:25:26 GMT-0600 (Central Standard Time)","583490","Trustworthy,Untrustworthy","","null","","","","decisionFB","","<div class='trialDiv'><img src='Fruit/plums1.png'><br><font class='baseline'><strong>Plum Powerball</strong><p>Choose number of points to bet.</font><div class='respPicDiv'><img src='img/responseButtonOffersNo0L5.png' class='respPic'></div></div>","null","7","Plum Powerball","Fruit/plums1.png","Won","0.8,0.2","12","0.8","113","20","",""
"html-keyboard-response","69","171813","0.0-11.0-3.19","63b7005d59a418f740ecfa0d","bdp_rwlrn","Fri Mar 10 2023 13:25:26 GMT-0600 (Central Standard Time)","583490","Trustworthy,Untrustworthy","","null","","","","feedback","","<div class='respPicDiv'><img src='img/responseButtonOffersNo0_wht.png' class='respPic'></div><div class='trialDiv'><img src='Fruit/plums1.png'><br><font class='baseline'><strong>Plum Powerball</strong><p><strong><font class='posOutcome'>You WON</font><p>You bet: 5</strong></font> &nbsp; &nbsp; &nbsp; &nbsp; &nbsp; &nbsp;<font class='posOutcome'>you receive: <strong>10</strong></font></div>","null","7","Plum Powerball","Fruit/plums1.png","Won","0.8,0.2","12","0.8","123","20","",""
"html-keyboard-response","70","173096","0.0-11.0-1.20","63b7005d59a418f740ecfa0d","bdp_rwlrn","Fri Mar 10 2023 13:25:26 GMT-0600 (Central Standard Time)","583490","Trustworthy,Untrustworthy","","1281","","","","decision","","<div class='trialDiv'><img src='Fruit/mixed-berries2.png'><br><font class='baseline'><strong>Berry Bla$t</strong><p>Choose number of points to bet.</font><div class='respPicDiv'><img src='img/responseButtonOffersNo0L.png' class='respPic'></div></div>","1","7","Berry Bla$t","Fruit/mixed-berries2.png","Won","0.2,0.65","9","0.2","128","21","",""
"html-keyboard-response","71","173359","0.0-11.0-2.20","63b7005d59a418f740ecfa0d","bdp_rwlrn","Fri Mar 10 2023 13:25:26 GMT-0600 (Central Standard Time)","583490","Trustworthy,Untrustworthy","","null","","","","decisionFB","","<div class='trialDiv'><img src='Fruit/mixed-berries2.png'><br><font class='baseline'><strong>Berry Bla$t</strong><p>Choose number of points to bet.</font><div class='respPicDiv'><img src='img/responseButtonOffersNo0L1.png' class='respPic'></div></div>","null","7","Berry Bla$t","Fruit/mixed-berries2.png","Won","0.2,0.65","9","0.2","127","21","",""
"html-keyboard-response","72","174364","0.0-11.0-3.20","63b7005d59a418f740ecfa0d","bdp_rwlrn","Fri Mar 10 2023 13:25:26 GMT-0600 (Central Standard Time)","583490","Trustworthy,Untrustworthy","","null","","","","feedback","","<div class='respPicDiv'><img src='img/responseButtonOffersNo0_wht.png' class='respPic'></div><div class='trialDiv'><img src='Fruit/mixed-berries2.png'><br><font class='baseline'><strong>Berry Bla$t</strong><p><strong><font class='posOutcome'>You WON</font><p>You bet: 1</strong></font> &nbsp; &nbsp; &nbsp; &nbsp; &nbsp; &nbsp;<font class='posOutcome'>you receive: <strong>2</strong></font></div>","null","7","Berry Bla$t","Fruit/mixed-berries2.png","Won","0.2,0.65","9","0.2","129","21","",""
"html-keyboard-response","73","176524","0.0-11.0-1.21","63b7005d59a418f740ecfa0d","bdp_rwlrn","Fri Mar 10 2023 13:25:26 GMT-0600 (Central Standard Time)","583490","Trustworthy,Untrustworthy","","2157","","","","decision","","<div class='trialDiv'><img src='Fruit/plums1.png'><br><font class='baseline'><strong>Plum Powerball</strong><p>Choose number of points to bet.</font><div class='respPicDiv'><img src='img/responseButtonOffersNo0L.png' class='respPic'></div></div>","5","8","Plum Powerball","Fruit/plums1.png","Won","0.8,0.2","12","0.8","134","22","",""
"html-keyboard-response","74","176782","0.0-11.0-2.21","63b7005d59a418f740ecfa0d","bdp_rwlrn","Fri Mar 10 2023 13:25:26 GMT-0600 (Central Standard Time)","583490","Trustworthy,Untrustworthy","","null","","","","decisionFB","","<div class='trialDiv'><img src='Fruit/plums1.png'><br><font class='baseline'><strong>Plum Powerball</strong><p>Choose number of points to bet.</font><div class='respPicDiv'><img src='img/responseButtonOffersNo0L5.png' class='respPic'></div></div>","null","8","Plum Powerball","Fruit/plums1.png","Won","0.8,0.2","12","0.8","129","22","",""
"html-keyboard-response","75","177795","0.0-11.0-3.21","63b7005d59a418f740ecfa0d","bdp_rwlrn","Fri Mar 10 2023 13:25:26 GMT-0600 (Central Standard Time)","583490","Trustworthy,Untrustworthy","","null","","","","feedback","","<div class='respPicDiv'><img src='img/responseButtonOffersNo0_wht.png' class='respPic'></div><div class='trialDiv'><img src='Fruit/plums1.png'><br><font class='baseline'><strong>Plum Powerball</strong><p><strong><font class='posOutcome'>You WON</font><p>You bet: 5</strong></font> &nbsp; &nbsp; &nbsp; &nbsp; &nbsp; &nbsp;<font class='posOutcome'>you receive: <strong>10</strong></font></div>","null","8","Plum Powerball","Fruit/plums1.png","Won","0.8,0.2","12","0.8","139","22","",""
"html-keyboard-response","76","180903","0.0-11.0-1.22","63b7005d59a418f740ecfa0d","bdp_rwlrn","Fri Mar 10 2023 13:25:26 GMT-0600 (Central Standard Time)","583490","Trustworthy,Untrustworthy","","3105","","","","decision","","<div class='trialDiv'><img src='Fruit/mixed-berries2.png'><br><font class='baseline'><strong>Berry Bla$t</strong><p>Choose number of points to bet.</font><div class='respPicDiv'><img src='img/responseButtonOffersNo0L.png' class='respPic'></div></div>","1","8","Berry Bla$t","Fruit/mixed-berries2.png","Lost","0.2,0.65","9","0.2","144","23","",""
"html-keyboard-response","77","181157","0.0-11.0-2.22","63b7005d59a418f740ecfa0d","bdp_rwlrn","Fri Mar 10 2023 13:25:26 GMT-0600 (Central Standard Time)","583490","Trustworthy,Untrustworthy","","null","","","","decisionFB","","<div class='trialDiv'><img src='Fruit/mixed-berries2.png'><br><font class='baseline'><strong>Berry Bla$t</strong><p>Choose number of points to bet.</font><div class='respPicDiv'><img src='img/responseButtonOffersNo0L1.png' class='respPic'></div></div>","null","8","Berry Bla$t","Fruit/mixed-berries2.png","Lost","0.2,0.65","9","0.2","143","23","",""
"html-keyboard-response","78","182167","0.0-11.0-3.22","63b7005d59a418f740ecfa0d","bdp_rwlrn","Fri Mar 10 2023 13:25:26 GMT-0600 (Central Standard Time)","583490","Trustworthy,Untrustworthy","","null","","","","feedback","","<div class='respPicDiv'><img src='img/responseButtonOffersNo0_wht.png' class='respPic'></div><div class='trialDiv'><img src='Fruit/mixed-berries2.png'><br><font class='baseline'><strong>Berry Bla$t</strong><p><strong><font class='negOutcome'>You LOST</font><p>You bet: 1</strong></font> &nbsp; &nbsp; &nbsp; &nbsp; &nbsp; &nbsp;<font class='negOutcome'>You receive: <strong>0</strong></font></div>","null","8","Berry Bla$t","Fruit/mixed-berries2.png","Lost","0.2,0.65","9","0.2","143","23","",""
"html-keyboard-response","79","183638","0.0-11.0-1.23","63b7005d59a418f740ecfa0d","bdp_rwlrn","Fri Mar 10 2023 13:25:26 GMT-0600 (Central Standard Time)","583490","Trustworthy,Untrustworthy","","1467","","","","decision","","<div class='trialDiv'><img src='Fruit/orange.png'><br><font class='baseline'><strong>Odds are Orange</strong><p>Choose number of points to bet.</font><div class='respPicDiv'><img src='img/responseButtonOffersNo0L.png' class='respPic'></div></div>","3","8","Odds are Orange","Fruit/orange.png","Lost","0.65,0.2","14","0.65","148","24","",""
"html-keyboard-response","80","183902","0.0-11.0-2.23","63b7005d59a418f740ecfa0d","bdp_rwlrn","Fri Mar 10 2023 13:25:26 GMT-0600 (Central Standard Time)","583490","Trustworthy,Untrustworthy","","null","","","","decisionFB","","<div class='trialDiv'><img src='Fruit/orange.png'><br><font class='baseline'><strong>Odds are Orange</strong><p>Choose number of points to bet.</font><div class='respPicDiv'><img src='img/responseButtonOffersNo0L3.png' class='respPic'></div></div>","null","8","Odds are Orange","Fruit/orange.png","Lost","0.65,0.2","14","0.65","145","24","",""
"html-keyboard-response","81","184918","0.0-11.0-3.23","63b7005d59a418f740ecfa0d","bdp_rwlrn","Fri Mar 10 2023 13:25:26 GMT-0600 (Central Standard Time)","583490","Trustworthy,Untrustworthy","","null","","","","feedback","","<div class='respPicDiv'><img src='img/responseButtonOffersNo0_wht.png' class='respPic'></div><div class='trialDiv'><img src='Fruit/orange.png'><br><font class='baseline'><strong>Odds are Orange</strong><p><strong><font class='negOutcome'>You LOST</font><p>You bet: 3</strong></font> &nbsp; &nbsp; &nbsp; &nbsp; &nbsp; &nbsp;<font class='negOutcome'>You receive: <strong>0</strong></font></div>","null","8","Odds are Orange","Fruit/orange.png","Lost","0.65,0.2","14","0.65","145","24","",""
"html-keyboard-response","82","185998","0.0-11.0-1.24","63b7005d59a418f740ecfa0d","bdp_rwlrn","Fri Mar 10 2023 13:25:26 GMT-0600 (Central Standard Time)","583490","Trustworthy,Untrustworthy","","1078","","","","decision","","<div class='trialDiv'><img src='Fruit/plums1.png'><br><font class='baseline'><strong>Plum Powerball</strong><p>Choose number of points to bet.</font><div class='respPicDiv'><img src='img/responseButtonOffersNo0L.png' class='respPic'></div></div>","5","9","Plum Powerball","Fruit/plums1.png","Won","0.8,0.2","12","0.8","150","25","",""
"html-keyboard-response","83","186262","0.0-11.0-2.24","63b7005d59a418f740ecfa0d","bdp_rwlrn","Fri Mar 10 2023 13:25:26 GMT-0600 (Central Standard Time)","583490","Trustworthy,Untrustworthy","","null","","","","decisionFB","","<div class='trialDiv'><img src='Fruit/plums1.png'><br><font class='baseline'><strong>Plum Powerball</strong><p>Choose number of points to bet.</font><div class='respPicDiv'><img src='img/responseButtonOffersNo0L5.png' class='respPic'></div></div>","null","9","Plum Powerball","Fruit/plums1.png","Won","0.8,0.2","12","0.8","145","25","",""
"html-keyboard-response","84","187278","0.0-11.0-3.24","63b7005d59a418f740ecfa0d","bdp_rwlrn","Fri Mar 10 2023 13:25:26 GMT-0600 (Central Standard Time)","583490","Trustworthy,Untrustworthy","","null","","","","feedback","","<div class='respPicDiv'><img src='img/responseButtonOffersNo0_wht.png' class='respPic'></div><div class='trialDiv'><img src='Fruit/plums1.png'><br><font class='baseline'><strong>Plum Powerball</strong><p><strong><font class='posOutcome'>You WON</font><p>You bet: 5</strong></font> &nbsp; &nbsp; &nbsp; &nbsp; &nbsp; &nbsp;<font class='posOutcome'>you receive: <strong>10</strong></font></div>","null","9","Plum Powerball","Fruit/plums1.png","Won","0.8,0.2","12","0.8","155","25","",""
"html-keyboard-response","85","190108","0.0-11.0-1.25","63b7005d59a418f740ecfa0d","bdp_rwlrn","Fri Mar 10 2023 13:25:26 GMT-0600 (Central Standard Time)","583490","Trustworthy,Untrustworthy","","2827","","","","decision","","<div class='trialDiv'><img src='Fruit/mixed-berries2.png'><br><font class='baseline'><strong>Berry Bla$t</strong><p>Choose number of points to bet.</font><div class='respPicDiv'><img src='img/responseButtonOffersNo0L.png' class='respPic'></div></div>","1","9","Berry Bla$t","Fruit/mixed-berries2.png","Lost","0.2,0.65","9","0.2","160","26","",""
"html-keyboard-response","86","190368","0.0-11.0-2.25","63b7005d59a418f740ecfa0d","bdp_rwlrn","Fri Mar 10 2023 13:25:26 GMT-0600 (Central Standard Time)","583490","Trustworthy,Untrustworthy","","null","","","","decisionFB","","<div class='trialDiv'><img src='Fruit/mixed-berries2.png'><br><font class='baseline'><strong>Berry Bla$t</strong><p>Choose number of points to bet.</font><div class='respPicDiv'><img src='img/responseButtonOffersNo0L1.png' class='respPic'></div></div>","null","9","Berry Bla$t","Fruit/mixed-berries2.png","Lost","0.2,0.65","9","0.2","159","26","",""
"html-keyboard-response","87","191376","0.0-11.0-3.25","63b7005d59a418f740ecfa0d","bdp_rwlrn","Fri Mar 10 2023 13:25:26 GMT-0600 (Central Standard Time)","583490","Trustworthy,Untrustworthy","","null","","","","feedback","","<div class='respPicDiv'><img src='img/responseButtonOffersNo0_wht.png' class='respPic'></div><div class='trialDiv'><img src='Fruit/mixed-berries2.png'><br><font class='baseline'><strong>Berry Bla$t</strong><p><strong><font class='negOutcome'>You LOST</font><p>You bet: 1</strong></font> &nbsp; &nbsp; &nbsp; &nbsp; &nbsp; &nbsp;<font class='negOutcome'>You receive: <strong>0</strong></font></div>","null","9","Berry Bla$t","Fruit/mixed-berries2.png","Lost","0.2,0.65","9","0.2","159","26","",""
"html-keyboard-response","88","192077","0.0-11.0-1.26","63b7005d59a418f740ecfa0d","bdp_rwlrn","Fri Mar 10 2023 13:25:26 GMT-0600 (Central Standard Time)","583490","Trustworthy,Untrustworthy","","699","","","","decision","","<div class='trialDiv'><img src='Fruit/orange.png'><br><font class='baseline'><strong>Odds are Orange</strong><p>Choose number of points to bet.</font><div class='respPicDiv'><img src='img/responseButtonOffersNo0L.png' class='respPic'></div></div>","3","9","Odds are Orange","Fruit/orange.png","Won","0.65,0.2","14","0.65","164","27","",""
"html-keyboard-response","89","192339","0.0-11.0-2.26","63b7005d59a418f740ecfa0d","bdp_rwlrn","Fri Mar 10 2023 13:25:26 GMT-0600 (Central Standard Time)","583490","Trustworthy,Untrustworthy","","null","","","","decisionFB","","<div class='trialDiv'><img src='Fruit/orange.png'><br><font class='baseline'><strong>Odds are Orange</strong><p>Choose number of points to bet.</font><div class='respPicDiv'><img src='img/responseButtonOffersNo0L3.png' class='respPic'></div></div>","null","9","Odds are Orange","Fruit/orange.png","Won","0.65,0.2","14","0.65","161","27","",""
"html-keyboard-response","90","193357","0.0-11.0-3.26","63b7005d59a418f740ecfa0d","bdp_rwlrn","Fri Mar 10 2023 13:25:26 GMT-0600 (Central Standard Time)","583490","Trustworthy,Untrustworthy","","null","","","","feedback","","<div class='respPicDiv'><img src='img/responseButtonOffersNo0_wht.png' class='respPic'></div><div class='trialDiv'><img src='Fruit/orange.png'><br><font class='baseline'><strong>Odds are Orange</strong><p><strong><font class='posOutcome'>You WON</font><p>You bet: 3</strong></font> &nbsp; &nbsp; &nbsp; &nbsp; &nbsp; &nbsp;<font class='posOutcome'>you receive: <strong>6</strong></font></div>","null","9","Odds are Orange","Fruit/orange.png","Won","0.65,0.2","14","0.65","167","27","",""
"html-keyboard-response","91","195015","0.0-11.0-1.27","63b7005d59a418f740ecfa0d","bdp_rwlrn","Fri Mar 10 2023 13:25:26 GMT-0600 (Central Standard Time)","583490","Trustworthy,Untrustworthy","","1656","","","","decision","","<div class='trialDiv'><img src='Fruit/plums1.png'><br><font class='baseline'><strong>Plum Powerball</strong><p>Choose number of points to bet.</font><div class='respPicDiv'><img src='img/responseButtonOffersNo0L.png' class='respPic'></div></div>","5","10","Plum Powerball","Fruit/plums1.png","Won","0.8,0.2","12","0.8","172","28","",""
"html-keyboard-response","92","195277","0.0-11.0-2.27","63b7005d59a418f740ecfa0d","bdp_rwlrn","Fri Mar 10 2023 13:25:26 GMT-0600 (Central Standard Time)","583490","Trustworthy,Untrustworthy","","null","","","","decisionFB","","<div class='trialDiv'><img src='Fruit/plums1.png'><br><font class='baseline'><strong>Plum Powerball</strong><p>Choose number of points to bet.</font><div class='respPicDiv'><img src='img/responseButtonOffersNo0L5.png' class='respPic'></div></div>","null","10","Plum Powerball","Fruit/plums1.png","Won","0.8,0.2","12","0.8","167","28","",""
"html-keyboard-response","93","196285","0.0-11.0-3.27","63b7005d59a418f740ecfa0d","bdp_rwlrn","Fri Mar 10 2023 13:25:26 GMT-0600 (Central Standard Time)","583490","Trustworthy,Untrustworthy","","null","","","","feedback","","<div class='respPicDiv'><img src='img/responseButtonOffersNo0_wht.png' class='respPic'></div><div class='trialDiv'><img src='Fruit/plums1.png'><br><font class='baseline'><strong>Plum Powerball</strong><p><strong><font class='posOutcome'>You WON</font><p>You bet: 5</strong></font> &nbsp; &nbsp; &nbsp; &nbsp; &nbsp; &nbsp;<font class='posOutcome'>you receive: <strong>10</strong></font></div>","null","10","Plum Powerball","Fruit/plums1.png","Won","0.8,0.2","12","0.8","177","28","",""
"html-keyboard-response","94","200086","0.0-11.0-1.28","63b7005d59a418f740ecfa0d","bdp_rwlrn","Fri Mar 10 2023 13:25:26 GMT-0600 (Central Standard Time)","583490","Trustworthy,Untrustworthy","","3800","","","","decision","","<div class='trialDiv'><img src='Fruit/orange.png'><br><font class='baseline'><strong>Odds are Orange</strong><p>Choose number of points to bet.</font><div class='respPicDiv'><img src='img/responseButtonOffersNo0L.png' class='respPic'></div></div>","3","10","Odds are Orange","Fruit/orange.png","Won","0.65,0.2","14","0.65","182","29","",""
"html-keyboard-response","95","200350","0.0-11.0-2.28","63b7005d59a418f740ecfa0d","bdp_rwlrn","Fri Mar 10 2023 13:25:26 GMT-0600 (Central Standard Time)","583490","Trustworthy,Untrustworthy","","null","","","","decisionFB","","<div class='trialDiv'><img src='Fruit/orange.png'><br><font class='baseline'><strong>Odds are Orange</strong><p>Choose number of points to bet.</font><div class='respPicDiv'><img src='img/responseButtonOffersNo0L3.png' class='respPic'></div></div>","null","10","Odds are Orange","Fruit/orange.png","Won","0.65,0.2","14","0.65","179","29","",""
"html-keyboard-response","96","201358","0.0-11.0-3.28","63b7005d59a418f740ecfa0d","bdp_rwlrn","Fri Mar 10 2023 13:25:26 GMT-0600 (Central Standard Time)","583490","Trustworthy,Untrustworthy","","null","","","","feedback","","<div class='respPicDiv'><img src='img/responseButtonOffersNo0_wht.png' class='respPic'></div><div class='trialDiv'><img src='Fruit/orange.png'><br><font class='baseline'><strong>Odds are Orange</strong><p><strong><font class='posOutcome'>You WON</font><p>You bet: 3</strong></font> &nbsp; &nbsp; &nbsp; &nbsp; &nbsp; &nbsp;<font class='posOutcome'>you receive: <strong>6</strong></font></div>","null","10","Odds are Orange","Fruit/orange.png","Won","0.65,0.2","14","0.65","185","29","",""
"html-keyboard-response","97","202744","0.0-11.0-1.29","63b7005d59a418f740ecfa0d","bdp_rwlrn","Fri Mar 10 2023 13:25:26 GMT-0600 (Central Standard Time)","583490","Trustworthy,Untrustworthy","","1383","","","","decision","","<div class='trialDiv'><img src='Fruit/mixed-berries2.png'><br><font class='baseline'><strong>Berry Bla$t</strong><p>Choose number of points to bet.</font><div class='respPicDiv'><img src='img/responseButtonOffersNo0L.png' class='respPic'></div></div>","1","10","Berry Bla$t","Fruit/mixed-berries2.png","Lost","0.2,0.65","9","0.2","190","30","",""
"html-keyboard-response","98","202998","0.0-11.0-2.29","63b7005d59a418f740ecfa0d","bdp_rwlrn","Fri Mar 10 2023 13:25:26 GMT-0600 (Central Standard Time)","583490","Trustworthy,Untrustworthy","","null","","","","decisionFB","","<div class='trialDiv'><img src='Fruit/mixed-berries2.png'><br><font class='baseline'><strong>Berry Bla$t</strong><p>Choose number of points to bet.</font><div class='respPicDiv'><img src='img/responseButtonOffersNo0L1.png' class='respPic'></div></div>","null","10","Berry Bla$t","Fruit/mixed-berries2.png","Lost","0.2,0.65","9","0.2","189","30","",""
"html-keyboard-response","99","204013","0.0-11.0-3.29","63b7005d59a418f740ecfa0d","bdp_rwlrn","Fri Mar 10 2023 13:25:26 GMT-0600 (Central Standard Time)","583490","Trustworthy,Untrustworthy","","null","","","","feedback","","<div class='respPicDiv'><img src='img/responseButtonOffersNo0_wht.png' class='respPic'></div><div class='trialDiv'><img src='Fruit/mixed-berries2.png'><br><font class='baseline'><strong>Berry Bla$t</strong><p><strong><font class='negOutcome'>You LOST</font><p>You bet: 1</strong></font> &nbsp; &nbsp; &nbsp; &nbsp; &nbsp; &nbsp;<font class='negOutcome'>You receive: <strong>0</strong></font></div>","null","10","Berry Bla$t","Fruit/mixed-berries2.png","Lost","0.2,0.65","9","0.2","189","30","",""
"html-keyboard-response","100","206094","0.0-11.0-1.30","63b7005d59a418f740ecfa0d","bdp_rwlrn","Fri Mar 10 2023 13:25:26 GMT-0600 (Central Standard Time)","583490","Trustworthy,Untrustworthy","","2079","","","","decision","","<div class='trialDiv'><img src='Fruit/orange.png'><br><font class='baseline'><strong>Odds are Orange</strong><p>Choose number of points to bet.</font><div class='respPicDiv'><img src='img/responseButtonOffersNo0L.png' class='respPic'></div></div>","3","11","Odds are Orange","Fruit/orange.png","Won","0.65,0.2","14","0.65","194","31","",""
"html-keyboard-response","101","206366","0.0-11.0-2.30","63b7005d59a418f740ecfa0d","bdp_rwlrn","Fri Mar 10 2023 13:25:26 GMT-0600 (Central Standard Time)","583490","Trustworthy,Untrustworthy","","null","","","","decisionFB","","<div class='trialDiv'><img src='Fruit/orange.png'><br><font class='baseline'><strong>Odds are Orange</strong><p>Choose number of points to bet.</font><div class='respPicDiv'><img src='img/responseButtonOffersNo0L3.png' class='respPic'></div></div>","null","11","Odds are Orange","Fruit/orange.png","Won","0.65,0.2","14","0.65","191","31","",""
"html-keyboard-response","102","207372","0.0-11.0-3.30","63b7005d59a418f740ecfa0d","bdp_rwlrn","Fri Mar 10 2023 13:25:26 GMT-0600 (Central Standard Time)","583490","Trustworthy,Untrustworthy","","null","","","","feedback","","<div class='respPicDiv'><img src='img/responseButtonOffersNo0_wht.png' class='respPic'></div><div class='trialDiv'><img src='Fruit/orange.png'><br><font class='baseline'><strong>Odds are Orange</strong><p><strong><font class='posOutcome'>You WON</font><p>You bet: 3</strong></font> &nbsp; &nbsp; &nbsp; &nbsp; &nbsp; &nbsp;<font class='posOutcome'>you receive: <strong>6</strong></font></div>","null","11","Odds are Orange","Fruit/orange.png","Won","0.65,0.2","14","0.65","197","31","",""
"html-keyboard-response","103","209097","0.0-11.0-1.31","63b7005d59a418f740ecfa0d","bdp_rwlrn","Fri Mar 10 2023 13:25:26 GMT-0600 (Central Standard Time)","583490","Trustworthy,Untrustworthy","","1722","","","","decision","","<div class='trialDiv'><img src='Fruit/mixed-berries2.png'><br><font class='baseline'><strong>Berry Bla$t</strong><p>Choose number of points to bet.</font><div class='respPicDiv'><img src='img/responseButtonOffersNo0L.png' class='respPic'></div></div>","1","11","Berry Bla$t","Fruit/mixed-berries2.png","Won","0.2,0.65","9","0.2","202","32","",""
"html-keyboard-response","104","209355","0.0-11.0-2.31","63b7005d59a418f740ecfa0d","bdp_rwlrn","Fri Mar 10 2023 13:25:26 GMT-0600 (Central Standard Time)","583490","Trustworthy,Untrustworthy","","null","","","","decisionFB","","<div class='trialDiv'><img src='Fruit/mixed-berries2.png'><br><font class='baseline'><strong>Berry Bla$t</strong><p>Choose number of points to bet.</font><div class='respPicDiv'><img src='img/responseButtonOffersNo0L1.png' class='respPic'></div></div>","null","11","Berry Bla$t","Fruit/mixed-berries2.png","Won","0.2,0.65","9","0.2","201","32","",""
"html-keyboard-response","105","210371","0.0-11.0-3.31","63b7005d59a418f740ecfa0d","bdp_rwlrn","Fri Mar 10 2023 13:25:26 GMT-0600 (Central Standard Time)","583490","Trustworthy,Untrustworthy","","null","","","","feedback","","<div class='respPicDiv'><img src='img/responseButtonOffersNo0_wht.png' class='respPic'></div><div class='trialDiv'><img src='Fruit/mixed-berries2.png'><br><font class='baseline'><strong>Berry Bla$t</strong><p><strong><font class='posOutcome'>You WON</font><p>You bet: 1</strong></font> &nbsp; &nbsp; &nbsp; &nbsp; &nbsp; &nbsp;<font class='posOutcome'>you receive: <strong>2</strong></font></div>","null","11","Berry Bla$t","Fruit/mixed-berries2.png","Won","0.2,0.65","9","0.2","203","32","",""
"html-keyboard-response","106","213832","0.0-11.0-1.32","63b7005d59a418f740ecfa0d","bdp_rwlrn","Fri Mar 10 2023 13:25:26 GMT-0600 (Central Standard Time)","583490","Trustworthy,Untrustworthy","","3459","","","","decision","","<div class='trialDiv'><img src='Fruit/plums1.png'><br><font class='baseline'><strong>Plum Powerball</strong><p>Choose number of points to bet.</font><div class='respPicDiv'><img src='img/responseButtonOffersNo0L.png' class='respPic'></div></div>","5","11","Plum Powerball","Fruit/plums1.png","Won","0.8,0.2","12","0.8","208","33","",""
"html-keyboard-response","107","214095","0.0-11.0-2.32","63b7005d59a418f740ecfa0d","bdp_rwlrn","Fri Mar 10 2023 13:25:26 GMT-0600 (Central Standard Time)","583490","Trustworthy,Untrustworthy","","null","","","","decisionFB","","<div class='trialDiv'><img src='Fruit/plums1.png'><br><font class='baseline'><strong>Plum Powerball</strong><p>Choose number of points to bet.</font><div class='respPicDiv'><img src='img/responseButtonOffersNo0L5.png' class='respPic'></div></div>","null","11","Plum Powerball","Fruit/plums1.png","Won","0.8,0.2","12","0.8","203","33","",""
"html-keyboard-response","108","215111","0.0-11.0-3.32","63b7005d59a418f740ecfa0d","bdp_rwlrn","Fri Mar 10 2023 13:25:26 GMT-0600 (Central Standard Time)","583490","Trustworthy,Untrustworthy","","null","","","","feedback","","<div class='respPicDiv'><img src='img/responseButtonOffersNo0_wht.png' class='respPic'></div><div class='trialDiv'><img src='Fruit/plums1.png'><br><font class='baseline'><strong>Plum Powerball</strong><p><strong><font class='posOutcome'>You WON</font><p>You bet: 5</strong></font> &nbsp; &nbsp; &nbsp; &nbsp; &nbsp; &nbsp;<font class='posOutcome'>you receive: <strong>10</strong></font></div>","null","11","Plum Powerball","Fruit/plums1.png","Won","0.8,0.2","12","0.8","213","33","",""
"html-keyboard-response","109","217123","0.0-11.0-1.33","63b7005d59a418f740ecfa0d","bdp_rwlrn","Fri Mar 10 2023 13:25:26 GMT-0600 (Central Standard Time)","583490","Trustworthy,Untrustworthy","","2010","","","","decision","","<div class='trialDiv'><img src='Fruit/orange.png'><br><font class='baseline'><strong>Odds are Orange</strong><p>Choose number of points to bet.</font><div class='respPicDiv'><img src='img/responseButtonOffersNo0L.png' class='respPic'></div></div>","3","12","Odds are Orange","Fruit/orange.png","Won","0.65,0.2","14","0.65","218","34","",""
"html-keyboard-response","110","217378","0.0-11.0-2.33","63b7005d59a418f740ecfa0d","bdp_rwlrn","Fri Mar 10 2023 13:25:26 GMT-0600 (Central Standard Time)","583490","Trustworthy,Untrustworthy","","null","","","","decisionFB","","<div class='trialDiv'><img src='Fruit/orange.png'><br><font class='baseline'><strong>Odds are Orange</strong><p>Choose number of points to bet.</font><div class='respPicDiv'><img src='img/responseButtonOffersNo0L3.png' class='respPic'></div></div>","null","12","Odds are Orange","Fruit/orange.png","Won","0.65,0.2","14","0.65","215","34","",""
"html-keyboard-response","111","218391","0.0-11.0-3.33","63b7005d59a418f740ecfa0d","bdp_rwlrn","Fri Mar 10 2023 13:25:26 GMT-0600 (Central Standard Time)","583490","Trustworthy,Untrustworthy","","null","","","","feedback","","<div class='respPicDiv'><img src='img/responseButtonOffersNo0_wht.png' class='respPic'></div><div class='trialDiv'><img src='Fruit/orange.png'><br><font class='baseline'><strong>Odds are Orange</strong><p><strong><font class='posOutcome'>You WON</font><p>You bet: 3</strong></font> &nbsp; &nbsp; &nbsp; &nbsp; &nbsp; &nbsp;<font class='posOutcome'>you receive: <strong>6</strong></font></div>","null","12","Odds are Orange","Fruit/orange.png","Won","0.65,0.2","14","0.65","221","34","",""
"html-keyboard-response","112","220159","0.0-11.0-1.34","63b7005d59a418f740ecfa0d","bdp_rwlrn","Fri Mar 10 2023 13:25:26 GMT-0600 (Central Standard Time)","583490","Trustworthy,Untrustworthy","","1765","","","","decision","","<div class='trialDiv'><img src='Fruit/mixed-berries2.png'><br><font class='baseline'><strong>Berry Bla$t</strong><p>Choose number of points to bet.</font><div class='respPicDiv'><img src='img/responseButtonOffersNo0L.png' class='respPic'></div></div>","1","12","Berry Bla$t","Fruit/mixed-berries2.png","Won","0.2,0.65","9","0.2","226","35","",""
"html-keyboard-response","113","220419","0.0-11.0-2.34","63b7005d59a418f740ecfa0d","bdp_rwlrn","Fri Mar 10 2023 13:25:26 GMT-0600 (Central Standard Time)","583490","Trustworthy,Untrustworthy","","null","","","","decisionFB","","<div class='trialDiv'><img src='Fruit/mixed-berries2.png'><br><font class='baseline'><strong>Berry Bla$t</strong><p>Choose number of points to bet.</font><div class='respPicDiv'><img src='img/responseButtonOffersNo0L1.png' class='respPic'></div></div>","null","12","Berry Bla$t","Fruit/mixed-berries2.png","Won","0.2,0.65","9","0.2","225","35","",""
"html-keyboard-response","114","221432","0.0-11.0-3.34","63b7005d59a418f740ecfa0d","bdp_rwlrn","Fri Mar 10 2023 13:25:26 GMT-0600 (Central Standard Time)","583490","Trustworthy,Untrustworthy","","null","","","","feedback","","<div class='respPicDiv'><img src='img/responseButtonOffersNo0_wht.png' class='respPic'></div><div class='trialDiv'><img src='Fruit/mixed-berries2.png'><br><font class='baseline'><strong>Berry Bla$t</strong><p><strong><font class='posOutcome'>You WON</font><p>You bet: 1</strong></font> &nbsp; &nbsp; &nbsp; &nbsp; &nbsp; &nbsp;<font class='posOutcome'>you receive: <strong>2</strong></font></div>","null","12","Berry Bla$t","Fruit/mixed-berries2.png","Won","0.2,0.65","9","0.2","227","35","",""
"html-keyboard-response","115","224036","0.0-11.0-1.35","63b7005d59a418f740ecfa0d","bdp_rwlrn","Fri Mar 10 2023 13:25:26 GMT-0600 (Central Standard Time)","583490","Trustworthy,Untrustworthy","","2602","","","","decision","","<div class='trialDiv'><img src='Fruit/plums1.png'><br><font class='baseline'><strong>Plum Powerball</strong><p>Choose number of points to bet.</font><div class='respPicDiv'><img src='img/responseButtonOffersNo0L.png' class='respPic'></div></div>","5","12","Plum Powerball","Fruit/plums1.png","Lost","0.8,0.2","12","0.8","232","36","",""
"html-keyboard-response","116","224294","0.0-11.0-2.35","63b7005d59a418f740ecfa0d","bdp_rwlrn","Fri Mar 10 2023 13:25:26 GMT-0600 (Central Standard Time)","583490","Trustworthy,Untrustworthy","","null","","","","decisionFB","","<div class='trialDiv'><img src='Fruit/plums1.png'><br><font class='baseline'><strong>Plum Powerball</strong><p>Choose number of points to bet.</font><div class='respPicDiv'><img src='img/responseButtonOffersNo0L5.png' class='respPic'></div></div>","null","12","Plum Powerball","Fruit/plums1.png","Lost","0.8,0.2","12","0.8","227","36","",""
"html-keyboard-response","117","225304","0.0-11.0-3.35","63b7005d59a418f740ecfa0d","bdp_rwlrn","Fri Mar 10 2023 13:25:26 GMT-0600 (Central Standard Time)","583490","Trustworthy,Untrustworthy","","null","","","","feedback","","<div class='respPicDiv'><img src='img/responseButtonOffersNo0_wht.png' class='respPic'></div><div class='trialDiv'><img src='Fruit/plums1.png'><br><font class='baseline'><strong>Plum Powerball</strong><p><strong><font class='negOutcome'>You LOST</font><p>You bet: 5</strong></font> &nbsp; &nbsp; &nbsp; &nbsp; &nbsp; &nbsp;<font class='negOutcome'>You receive: <strong>0</strong></font></div>","null","12","Plum Powerball","Fruit/plums1.png","Lost","0.8,0.2","12","0.8","227","36","",""
"html-keyboard-response","118","227502","0.0-11.0-1.36","63b7005d59a418f740ecfa0d","bdp_rwlrn","Fri Mar 10 2023 13:25:26 GMT-0600 (Central Standard Time)","583490","Trustworthy,Untrustworthy","","2195","","","","decision","","<div class='trialDiv'><img src='Fruit/mixed-berries2.png'><br><font class='baseline'><strong>Berry Bla$t</strong><p>Choose number of points to bet.</font><div class='respPicDiv'><img src='img/responseButtonOffersNo0L.png' class='respPic'></div></div>","1","13","Berry Bla$t","Fruit/mixed-berries2.png","Lost","0.2,0.65","9","0.2","232","37","",""
"html-keyboard-response","119","227762","0.0-11.0-2.36","63b7005d59a418f740ecfa0d","bdp_rwlrn","Fri Mar 10 2023 13:25:26 GMT-0600 (Central Standard Time)","583490","Trustworthy,Untrustworthy","","null","","","","decisionFB","","<div class='trialDiv'><img src='Fruit/mixed-berries2.png'><br><font class='baseline'><strong>Berry Bla$t</strong><p>Choose number of points to bet.</font><div class='respPicDiv'><img src='img/responseButtonOffersNo0L1.png' class='respPic'></div></div>","null","13","Berry Bla$t","Fruit/mixed-berries2.png","Lost","0.2,0.65","9","0.2","231","37","",""
"html-keyboard-response","120","228778","0.0-11.0-3.36","63b7005d59a418f740ecfa0d","bdp_rwlrn","Fri Mar 10 2023 13:25:26 GMT-0600 (Central Standard Time)","583490","Trustworthy,Untrustworthy","","null","","","","feedback","","<div class='respPicDiv'><img src='img/responseButtonOffersNo0_wht.png' class='respPic'></div><div class='trialDiv'><img src='Fruit/mixed-berries2.png'><br><font class='baseline'><strong>Berry Bla$t</strong><p><strong><font class='negOutcome'>You LOST</font><p>You bet: 1</strong></font> &nbsp; &nbsp; &nbsp; &nbsp; &nbsp; &nbsp;<font class='negOutcome'>You receive: <strong>0</strong></font></div>","null","13","Berry Bla$t","Fruit/mixed-berries2.png","Lost","0.2,0.65","9","0.2","231","37","",""
"html-keyboard-response","121","230559","0.0-11.0-1.37","63b7005d59a418f740ecfa0d","bdp_rwlrn","Fri Mar 10 2023 13:25:26 GMT-0600 (Central Standard Time)","583490","Trustworthy,Untrustworthy","","1780","","","","decision","","<div class='trialDiv'><img src='Fruit/orange.png'><br><font class='baseline'><strong>Odds are Orange</strong><p>Choose number of points to bet.</font><div class='respPicDiv'><img src='img/responseButtonOffersNo0L.png' class='respPic'></div></div>","3","13","Odds are Orange","Fruit/orange.png","Won","0.65,0.2","14","0.65","236","38","",""
"html-keyboard-response","122","230822","0.0-11.0-2.37","63b7005d59a418f740ecfa0d","bdp_rwlrn","Fri Mar 10 2023 13:25:26 GMT-0600 (Central Standard Time)","583490","Trustworthy,Untrustworthy","","null","","","","decisionFB","","<div class='trialDiv'><img src='Fruit/orange.png'><br><font class='baseline'><strong>Odds are Orange</strong><p>Choose number of points to bet.</font><div class='respPicDiv'><img src='img/responseButtonOffersNo0L3.png' class='respPic'></div></div>","null","13","Odds are Orange","Fruit/orange.png","Won","0.65,0.2","14","0.65","233","38","",""
"html-keyboard-response","123","231828","0.0-11.0-3.37","63b7005d59a418f740ecfa0d","bdp_rwlrn","Fri Mar 10 2023 13:25:26 GMT-0600 (Central Standard Time)","583490","Trustworthy,Untrustworthy","","null","","","","feedback","","<div class='respPicDiv'><img src='img/responseButtonOffersNo0_wht.png' class='respPic'></div><div class='trialDiv'><img src='Fruit/orange.png'><br><font class='baseline'><strong>Odds are Orange</strong><p><strong><font class='posOutcome'>You WON</font><p>You bet: 3</strong></font> &nbsp; &nbsp; &nbsp; &nbsp; &nbsp; &nbsp;<font class='posOutcome'>you receive: <strong>6</strong></font></div>","null","13","Odds are Orange","Fruit/orange.png","Won","0.65,0.2","14","0.65","239","38","",""
"html-keyboard-response","124","232992","0.0-11.0-1.38","63b7005d59a418f740ecfa0d","bdp_rwlrn","Fri Mar 10 2023 13:25:26 GMT-0600 (Central Standard Time)","583490","Trustworthy,Untrustworthy","","1162","","","","decision","","<div class='trialDiv'><img src='Fruit/plums1.png'><br><font class='baseline'><strong>Plum Powerball</strong><p>Choose number of points to bet.</font><div class='respPicDiv'><img src='img/responseButtonOffersNo0L.png' class='respPic'></div></div>","5","13","Plum Powerball","Fruit/plums1.png","Lost","0.8,0.2","12","0.8","244","39","",""
"html-keyboard-response","125","233246","0.0-11.0-2.38","63b7005d59a418f740ecfa0d","bdp_rwlrn","Fri Mar 10 2023 13:25:26 GMT-0600 (Central Standard Time)","583490","Trustworthy,Untrustworthy","","null","","","","decisionFB","","<div class='trialDiv'><img src='Fruit/plums1.png'><br><font class='baseline'><strong>Plum Powerball</strong><p>Choose number of points to bet.</font><div class='respPicDiv'><img src='img/responseButtonOffersNo0L5.png' class='respPic'></div></div>","null","13","Plum Powerball","Fruit/plums1.png","Lost","0.8,0.2","12","0.8","239","39","",""
"html-keyboard-response","126","234264","0.0-11.0-3.38","63b7005d59a418f740ecfa0d","bdp_rwlrn","Fri Mar 10 2023 13:25:26 GMT-0600 (Central Standard Time)","583490","Trustworthy,Untrustworthy","","null","","","","feedback","","<div class='respPicDiv'><img src='img/responseButtonOffersNo0_wht.png' class='respPic'></div><div class='trialDiv'><img src='Fruit/plums1.png'><br><font class='baseline'><strong>Plum Powerball</strong><p><strong><font class='negOutcome'>You LOST</font><p>You bet: 5</strong></font> &nbsp; &nbsp; &nbsp; &nbsp; &nbsp; &nbsp;<font class='negOutcome'>You receive: <strong>0</strong></font></div>","null","13","Plum Powerball","Fruit/plums1.png","Lost","0.8,0.2","12","0.8","239","39","",""
"html-keyboard-response","127","237565","0.0-11.0-1.39","63b7005d59a418f740ecfa0d","bdp_rwlrn","Fri Mar 10 2023 13:25:26 GMT-0600 (Central Standard Time)","583490","Trustworthy,Untrustworthy","","3299","","","","decision","","<div class='trialDiv'><img src='Fruit/mixed-berries2.png'><br><font class='baseline'><strong>Berry Bla$t</strong><p>Choose number of points to bet.</font><div class='respPicDiv'><img src='img/responseButtonOffersNo0L.png' class='respPic'></div></div>","1","14","Berry Bla$t","Fruit/mixed-berries2.png","Won","0.2,0.65","9","0.2","244","40","",""
"html-keyboard-response","128","237831","0.0-11.0-2.39","63b7005d59a418f740ecfa0d","bdp_rwlrn","Fri Mar 10 2023 13:25:26 GMT-0600 (Central Standard Time)","583490","Trustworthy,Untrustworthy","","null","","","","decisionFB","","<div class='trialDiv'><img src='Fruit/mixed-berries2.png'><br><font class='baseline'><strong>Berry Bla$t</strong><p>Choose number of points to bet.</font><div class='respPicDiv'><img src='img/responseButtonOffersNo0L1.png' class='respPic'></div></div>","null","14","Berry Bla$t","Fruit/mixed-berries2.png","Won","0.2,0.65","9","0.2","243","40","",""
"html-keyboard-response","129","238842","0.0-11.0-3.39","63b7005d59a418f740ecfa0d","bdp_rwlrn","Fri Mar 10 2023 13:25:26 GMT-0600 (Central Standard Time)","583490","Trustworthy,Untrustworthy","","null","","","","feedback","","<div class='respPicDiv'><img src='img/responseButtonOffersNo0_wht.png' class='respPic'></div><div class='trialDiv'><img src='Fruit/mixed-berries2.png'><br><font class='baseline'><strong>Berry Bla$t</strong><p><strong><font class='posOutcome'>You WON</font><p>You bet: 1</strong></font> &nbsp; &nbsp; &nbsp; &nbsp; &nbsp; &nbsp;<font class='posOutcome'>you receive: <strong>2</strong></font></div>","null","14","Berry Bla$t","Fruit/mixed-berries2.png","Won","0.2,0.65","9","0.2","245","40","",""
"html-keyboard-response","130","246487","0.0-11.0-1.40","63b7005d59a418f740ecfa0d","bdp_rwlrn","Fri Mar 10 2023 13:25:26 GMT-0600 (Central Standard Time)","583490","Trustworthy,Untrustworthy","","7642","","","","decision","","<div class='trialDiv'><img src='Fruit/orange.png'><br><font class='baseline'><strong>Odds are Orange</strong><p>Choose number of points to bet.</font><div class='respPicDiv'><img src='img/responseButtonOffersNo0L.png' class='respPic'></div></div>","3","14","Odds are Orange","Fruit/orange.png","Lost","0.65,0.2","14","0.65","250","41","",""
"html-keyboard-response","131","246751","0.0-11.0-2.40","63b7005d59a418f740ecfa0d","bdp_rwlrn","Fri Mar 10 2023 13:25:26 GMT-0600 (Central Standard Time)","583490","Trustworthy,Untrustworthy","","null","","","","decisionFB","","<div class='trialDiv'><img src='Fruit/orange.png'><br><font class='baseline'><strong>Odds are Orange</strong><p>Choose number of points to bet.</font><div class='respPicDiv'><img src='img/responseButtonOffersNo0L3.png' class='respPic'></div></div>","null","14","Odds are Orange","Fruit/orange.png","Lost","0.65,0.2","14","0.65","247","41","",""
"html-keyboard-response","132","247767","0.0-11.0-3.40","63b7005d59a418f740ecfa0d","bdp_rwlrn","Fri Mar 10 2023 13:25:26 GMT-0600 (Central Standard Time)","583490","Trustworthy,Untrustworthy","","null","","","","feedback","","<div class='respPicDiv'><img src='img/responseButtonOffersNo0_wht.png' class='respPic'></div><div class='trialDiv'><img src='Fruit/orange.png'><br><font class='baseline'><strong>Odds are Orange</strong><p><strong><font class='negOutcome'>You LOST</font><p>You bet: 3</strong></font> &nbsp; &nbsp; &nbsp; &nbsp; &nbsp; &nbsp;<font class='negOutcome'>You receive: <strong>0</strong></font></div>","null","14","Odds are Orange","Fruit/orange.png","Lost","0.65,0.2","14","0.65","247","41","",""
"html-keyboard-response","133","256169","0.0-11.0-1.41","63b7005d59a418f740ecfa0d","bdp_rwlrn","Fri Mar 10 2023 13:25:26 GMT-0600 (Central Standard Time)","583490","Trustworthy,Untrustworthy","","8400","","","","decision","","<div class='trialDiv'><img src='Fruit/plums1.png'><br><font class='baseline'><strong>Plum Powerball</strong><p>Choose number of points to bet.</font><div class='respPicDiv'><img src='img/responseButtonOffersNo0L.png' class='respPic'></div></div>","5","14","Plum Powerball","Fruit/plums1.png","Lost","0.8,0.2","12","0.8","252","42","",""
"html-keyboard-response","134","256427","0.0-11.0-2.41","63b7005d59a418f740ecfa0d","bdp_rwlrn","Fri Mar 10 2023 13:25:26 GMT-0600 (Central Standard Time)","583490","Trustworthy,Untrustworthy","","null","","","","decisionFB","","<div class='trialDiv'><img src='Fruit/plums1.png'><br><font class='baseline'><strong>Plum Powerball</strong><p>Choose number of points to bet.</font><div class='respPicDiv'><img src='img/responseButtonOffersNo0L5.png' class='respPic'></div></div>","null","14","Plum Powerball","Fruit/plums1.png","Lost","0.8,0.2","12","0.8","247","42","",""
"html-keyboard-response","135","257432","0.0-11.0-3.41","63b7005d59a418f740ecfa0d","bdp_rwlrn","Fri Mar 10 2023 13:25:26 GMT-0600 (Central Standard Time)","583490","Trustworthy,Untrustworthy","","null","","","","feedback","","<div class='respPicDiv'><img src='img/responseButtonOffersNo0_wht.png' class='respPic'></div><div class='trialDiv'><img src='Fruit/plums1.png'><br><font class='baseline'><strong>Plum Powerball</strong><p><strong><font class='negOutcome'>You LOST</font><p>You bet: 5</strong></font> &nbsp; &nbsp; &nbsp; &nbsp; &nbsp; &nbsp;<font class='negOutcome'>You receive: <strong>0</strong></font></div>","null","14","Plum Powerball","Fruit/plums1.png","Lost","0.8,0.2","12","0.8","247","42","",""
"html-keyboard-response","136","260901","0.0-11.0-1.42","63b7005d59a418f740ecfa0d","bdp_rwlrn","Fri Mar 10 2023 13:25:26 GMT-0600 (Central Standard Time)","583490","Trustworthy,Untrustworthy","","3466","","","","decision","","<div class='trialDiv'><img src='Fruit/mixed-berries2.png'><br><font class='baseline'><strong>Berry Bla$t</strong><p>Choose number of points to bet.</font><div class='respPicDiv'><img src='img/responseButtonOffersNo0L.png' class='respPic'></div></div>","1","15","Berry Bla$t","Fruit/mixed-berries2.png","Won","0.2,0.65","9","0.2","252","43","",""
"html-keyboard-response","137","261159","0.0-11.0-2.42","63b7005d59a418f740ecfa0d","bdp_rwlrn","Fri Mar 10 2023 13:25:26 GMT-0600 (Central Standard Time)","583490","Trustworthy,Untrustworthy","","null","","","","decisionFB","","<div class='trialDiv'><img src='Fruit/mixed-berries2.png'><br><font class='baseline'><strong>Berry Bla$t</strong><p>Choose number of points to bet.</font><div class='respPicDiv'><img src='img/responseButtonOffersNo0L1.png' class='respPic'></div></div>","null","15","Berry Bla$t","Fruit/mixed-berries2.png","Won","0.2,0.65","9","0.2","251","43","",""
"html-keyboard-response","138","262174","0.0-11.0-3.42","63b7005d59a418f740ecfa0d","bdp_rwlrn","Fri Mar 10 2023 13:25:26 GMT-0600 (Central Standard Time)","583490","Trustworthy,Untrustworthy","","null","","","","feedback","","<div class='respPicDiv'><img src='img/responseButtonOffersNo0_wht.png' class='respPic'></div><div class='trialDiv'><img src='Fruit/mixed-berries2.png'><br><font class='baseline'><strong>Berry Bla$t</strong><p><strong><font class='posOutcome'>You WON</font><p>You bet: 1</strong></font> &nbsp; &nbsp; &nbsp; &nbsp; &nbsp; &nbsp;<font class='posOutcome'>you receive: <strong>2</strong></font></div>","null","15","Berry Bla$t","Fruit/mixed-berries2.png","Won","0.2,0.65","9","0.2","253","43","",""
"html-keyboard-response","139","266235","0.0-11.0-1.43","63b7005d59a418f740ecfa0d","bdp_rwlrn","Fri Mar 10 2023 13:25:26 GMT-0600 (Central Standard Time)","583490","Trustworthy,Untrustworthy","","4058","","","","decision","","<div class='trialDiv'><img src='Fruit/plums1.png'><br><font class='baseline'><strong>Plum Powerball</strong><p>Choose number of points to bet.</font><div class='respPicDiv'><img src='img/responseButtonOffersNo0L.png' class='respPic'></div></div>","5","15","Plum Powerball","Fruit/plums1.png","Lost","0.8,0.2","12","0.8","258","44","",""
"html-keyboard-response","140","266494","0.0-11.0-2.43","63b7005d59a418f740ecfa0d","bdp_rwlrn","Fri Mar 10 2023 13:25:26 GMT-0600 (Central Standard Time)","583490","Trustworthy,Untrustworthy","","null","","","","decisionFB","","<div class='trialDiv'><img src='Fruit/plums1.png'><br><font class='baseline'><strong>Plum Powerball</strong><p>Choose number of points to bet.</font><div class='respPicDiv'><img src='img/responseButtonOffersNo0L5.png' class='respPic'></div></div>","null","15","Plum Powerball","Fruit/plums1.png","Lost","0.8,0.2","12","0.8","253","44","",""
"html-keyboard-response","141","267514","0.0-11.0-3.43","63b7005d59a418f740ecfa0d","bdp_rwlrn","Fri Mar 10 2023 13:25:26 GMT-0600 (Central Standard Time)","583490","Trustworthy,Untrustworthy","","null","","","","feedback","","<div class='respPicDiv'><img src='img/responseButtonOffersNo0_wht.png' class='respPic'></div><div class='trialDiv'><img src='Fruit/plums1.png'><br><font class='baseline'><strong>Plum Powerball</strong><p><strong><font class='negOutcome'>You LOST</font><p>You bet: 5</strong></font> &nbsp; &nbsp; &nbsp; &nbsp; &nbsp; &nbsp;<font class='negOutcome'>You receive: <strong>0</strong></font></div>","null","15","Plum Powerball","Fruit/plums1.png","Lost","0.8,0.2","12","0.8","253","44","",""
"html-keyboard-response","142","269737","0.0-11.0-1.44","63b7005d59a418f740ecfa0d","bdp_rwlrn","Fri Mar 10 2023 13:25:26 GMT-0600 (Central Standard Time)","583490","Trustworthy,Untrustworthy","","2221","","","","decision","","<div class='trialDiv'><img src='Fruit/orange.png'><br><font class='baseline'><strong>Odds are Orange</strong><p>Choose number of points to bet.</font><div class='respPicDiv'><img src='img/responseButtonOffersNo0L.png' class='respPic'></div></div>","5","15","Odds are Orange","Fruit/orange.png","Lost","0.65,0.2","14","0.65","258","45","",""
"html-keyboard-response","143","269999","0.0-11.0-2.44","63b7005d59a418f740ecfa0d","bdp_rwlrn","Fri Mar 10 2023 13:25:26 GMT-0600 (Central Standard Time)","583490","Trustworthy,Untrustworthy","","null","","","","decisionFB","","<div class='trialDiv'><img src='Fruit/orange.png'><br><font class='baseline'><strong>Odds are Orange</strong><p>Choose number of points to bet.</font><div class='respPicDiv'><img src='img/responseButtonOffersNo0L5.png' class='respPic'></div></div>","null","15","Odds are Orange","Fruit/orange.png","Lost","0.65,0.2","14","0.65","253","45","",""
"html-keyboard-response","144","271003","0.0-11.0-3.44","63b7005d59a418f740ecfa0d","bdp_rwlrn","Fri Mar 10 2023 13:25:26 GMT-0600 (Central Standard Time)","583490","Trustworthy,Untrustworthy","","null","","","","feedback","","<div class='respPicDiv'><img src='img/responseButtonOffersNo0_wht.png' class='respPic'></div><div class='trialDiv'><img src='Fruit/orange.png'><br><font class='baseline'><strong>Odds are Orange</strong><p><strong><font class='negOutcome'>You LOST</font><p>You bet: 5</strong></font> &nbsp; &nbsp; &nbsp; &nbsp; &nbsp; &nbsp;<font class='negOutcome'>You receive: <strong>0</strong></font></div>","null","15","Odds are Orange","Fruit/orange.png","Lost","0.65,0.2","14","0.65","253","45","",""
"html-keyboard-response","145","273103","0.0-11.0-1.45","63b7005d59a418f740ecfa0d","bdp_rwlrn","Fri Mar 10 2023 13:25:26 GMT-0600 (Central Standard Time)","583490","Trustworthy,Untrustworthy","","2098","","","","decision","","<div class='trialDiv'><img src='Fruit/plums1.png'><br><font class='baseline'><strong>Plum Powerball</strong><p>Choose number of points to bet.</font><div class='respPicDiv'><img src='img/responseButtonOffersNo0L.png' class='respPic'></div></div>","1","16","Plum Powerball","Fruit/plums1.png","Lost","0.8,0.2","12","0.8","258","46","",""
"html-keyboard-response","146","273362","0.0-11.0-2.45","63b7005d59a418f740ecfa0d","bdp_rwlrn","Fri Mar 10 2023 13:25:26 GMT-0600 (Central Standard Time)","583490","Trustworthy,Untrustworthy","","null","","","","decisionFB","","<div class='trialDiv'><img src='Fruit/plums1.png'><br><font class='baseline'><strong>Plum Powerball</strong><p>Choose number of points to bet.</font><div class='respPicDiv'><img src='img/responseButtonOffersNo0L1.png' class='respPic'></div></div>","null","16","Plum Powerball","Fruit/plums1.png","Lost","0.8,0.2","12","0.8","257","46","",""
"html-keyboard-response","147","274381","0.0-11.0-3.45","63b7005d59a418f740ecfa0d","bdp_rwlrn","Fri Mar 10 2023 13:25:26 GMT-0600 (Central Standard Time)","583490","Trustworthy,Untrustworthy","","null","","","","feedback","","<div class='respPicDiv'><img src='img/responseButtonOffersNo0_wht.png' class='respPic'></div><div class='trialDiv'><img src='Fruit/plums1.png'><br><font class='baseline'><strong>Plum Powerball</strong><p><strong><font class='negOutcome'>You LOST</font><p>You bet: 1</strong></font> &nbsp; &nbsp; &nbsp; &nbsp; &nbsp; &nbsp;<font class='negOutcome'>You receive: <strong>0</strong></font></div>","null","16","Plum Powerball","Fruit/plums1.png","Lost","0.8,0.2","12","0.8","257","46","",""
"html-keyboard-response","148","278833","0.0-11.0-1.46","63b7005d59a418f740ecfa0d","bdp_rwlrn","Fri Mar 10 2023 13:25:26 GMT-0600 (Central Standard Time)","583490","Trustworthy,Untrustworthy","","4449","","","","decision","","<div class='trialDiv'><img src='Fruit/orange.png'><br><font class='baseline'><strong>Odds are Orange</strong><p>Choose number of points to bet.</font><div class='respPicDiv'><img src='img/responseButtonOffersNo0L.png' class='respPic'></div></div>","5","16","Odds are Orange","Fruit/orange.png","Lost","0.65,0.2","14","0.65","262","47","",""
"html-keyboard-response","149","279099","0.0-11.0-2.46","63b7005d59a418f740ecfa0d","bdp_rwlrn","Fri Mar 10 2023 13:25:26 GMT-0600 (Central Standard Time)","583490","Trustworthy,Untrustworthy","","null","","","","decisionFB","","<div class='trialDiv'><img src='Fruit/orange.png'><br><font class='baseline'><strong>Odds are Orange</strong><p>Choose number of points to bet.</font><div class='respPicDiv'><img src='img/responseButtonOffersNo0L5.png' class='respPic'></div></div>","null","16","Odds are Orange","Fruit/orange.png","Lost","0.65,0.2","14","0.65","257","47","",""
"html-keyboard-response","150","280120","0.0-11.0-3.46","63b7005d59a418f740ecfa0d","bdp_rwlrn","Fri Mar 10 2023 13:25:26 GMT-0600 (Central Standard Time)","583490","Trustworthy,Untrustworthy","","null","","","","feedback","","<div class='respPicDiv'><img src='img/responseButtonOffersNo0_wht.png' class='respPic'></div><div class='trialDiv'><img src='Fruit/orange.png'><br><font class='baseline'><strong>Odds are Orange</strong><p><strong><font class='negOutcome'>You LOST</font><p>You bet: 5</strong></font> &nbsp; &nbsp; &nbsp; &nbsp; &nbsp; &nbsp;<font class='negOutcome'>You receive: <strong>0</strong></font></div>","null","16","Odds are Orange","Fruit/orange.png","Lost","0.65,0.2","14","0.65","257","47","",""
"html-keyboard-response","151","281086","0.0-11.0-1.47","63b7005d59a418f740ecfa0d","bdp_rwlrn","Fri Mar 10 2023 13:25:26 GMT-0600 (Central Standard Time)","583490","Trustworthy,Untrustworthy","","959","","","","decision","","<div class='trialDiv'><img src='Fruit/mixed-berries2.png'><br><font class='baseline'><strong>Berry Bla$t</strong><p>Choose number of points to bet.</font><div class='respPicDiv'><img src='img/responseButtonOffersNo0L.png' class='respPic'></div></div>","5","16","Berry Bla$t","Fruit/mixed-berries2.png","Won","0.2,0.65","9","0.2","262","48","",""
"html-keyboard-response","152","281344","0.0-11.0-2.47","63b7005d59a418f740ecfa0d","bdp_rwlrn","Fri Mar 10 2023 13:25:26 GMT-0600 (Central Standard Time)","583490","Trustworthy,Untrustworthy","","null","","","","decisionFB","","<div class='trialDiv'><img src='Fruit/mixed-berries2.png'><br><font class='baseline'><strong>Berry Bla$t</strong><p>Choose number of points to bet.</font><div class='respPicDiv'><img src='img/responseButtonOffersNo0L5.png' class='respPic'></div></div>","null","16","Berry Bla$t","Fruit/mixed-berries2.png","Won","0.2,0.65","9","0.2","257","48","",""
"html-keyboard-response","153","282359","0.0-11.0-3.47","63b7005d59a418f740ecfa0d","bdp_rwlrn","Fri Mar 10 2023 13:25:26 GMT-0600 (Central Standard Time)","583490","Trustworthy,Untrustworthy","","null","","","","feedback","","<div class='respPicDiv'><img src='img/responseButtonOffersNo0_wht.png' class='respPic'></div><div class='trialDiv'><img src='Fruit/mixed-berries2.png'><br><font class='baseline'><strong>Berry Bla$t</strong><p><strong><font class='posOutcome'>You WON</font><p>You bet: 5</strong></font> &nbsp; &nbsp; &nbsp; &nbsp; &nbsp; &nbsp;<font class='posOutcome'>you receive: <strong>10</strong></font></div>","null","16","Berry Bla$t","Fruit/mixed-berries2.png","Won","0.2,0.65","9","0.2","267","48","",""
"html-keyboard-response","154","285063","0.0-11.0-1.48","63b7005d59a418f740ecfa0d","bdp_rwlrn","Fri Mar 10 2023 13:25:26 GMT-0600 (Central Standard Time)","583490","Trustworthy,Untrustworthy","","2700","","","","decision","","<div class='trialDiv'><img src='Fruit/orange.png'><br><font class='baseline'><strong>Odds are Orange</strong><p>Choose number of points to bet.</font><div class='respPicDiv'><img src='img/responseButtonOffersNo0L.png' class='respPic'></div></div>","3","17","Odds are Orange","Fruit/orange.png","Lost","0.65,0.2","14","0.65","272","49","",""
"html-keyboard-response","155","285326","0.0-11.0-2.48","63b7005d59a418f740ecfa0d","bdp_rwlrn","Fri Mar 10 2023 13:25:26 GMT-0600 (Central Standard Time)","583490","Trustworthy,Untrustworthy","","null","","","","decisionFB","","<div class='trialDiv'><img src='Fruit/orange.png'><br><font class='baseline'><strong>Odds are Orange</strong><p>Choose number of points to bet.</font><div class='respPicDiv'><img src='img/responseButtonOffersNo0L3.png' class='respPic'></div></div>","null","17","Odds are Orange","Fruit/orange.png","Lost","0.65,0.2","14","0.65","269","49","",""
"html-keyboard-response","156","286337","0.0-11.0-3.48","63b7005d59a418f740ecfa0d","bdp_rwlrn","Fri Mar 10 2023 13:25:26 GMT-0600 (Central Standard Time)","583490","Trustworthy,Untrustworthy","","null","","","","feedback","","<div class='respPicDiv'><img src='img/responseButtonOffersNo0_wht.png' class='respPic'></div><div class='trialDiv'><img src='Fruit/orange.png'><br><font class='baseline'><strong>Odds are Orange</strong><p><strong><font class='negOutcome'>You LOST</font><p>You bet: 3</strong></font> &nbsp; &nbsp; &nbsp; &nbsp; &nbsp; &nbsp;<font class='negOutcome'>You receive: <strong>0</strong></font></div>","null","17","Odds are Orange","Fruit/orange.png","Lost","0.65,0.2","14","0.65","269","49","",""
"html-keyboard-response","157","287823","0.0-11.0-1.49","63b7005d59a418f740ecfa0d","bdp_rwlrn","Fri Mar 10 2023 13:25:26 GMT-0600 (Central Standard Time)","583490","Trustworthy,Untrustworthy","","1484","","","","decision","","<div class='trialDiv'><img src='Fruit/mixed-berries2.png'><br><font class='baseline'><strong>Berry Bla$t</strong><p>Choose number of points to bet.</font><div class='respPicDiv'><img src='img/responseButtonOffersNo0L.png' class='respPic'></div></div>","5","17","Berry Bla$t","Fruit/mixed-berries2.png","Won","0.2,0.65","9","0.2","274","50","",""
"html-keyboard-response","158","288079","0.0-11.0-2.49","63b7005d59a418f740ecfa0d","bdp_rwlrn","Fri Mar 10 2023 13:25:26 GMT-0600 (Central Standard Time)","583490","Trustworthy,Untrustworthy","","null","","","","decisionFB","","<div class='trialDiv'><img src='Fruit/mixed-berries2.png'><br><font class='baseline'><strong>Berry Bla$t</strong><p>Choose number of points to bet.</font><div class='respPicDiv'><img src='img/responseButtonOffersNo0L5.png' class='respPic'></div></div>","null","17","Berry Bla$t","Fruit/mixed-berries2.png","Won","0.2,0.65","9","0.2","269","50","",""
"html-keyboard-response","159","289091","0.0-11.0-3.49","63b7005d59a418f740ecfa0d","bdp_rwlrn","Fri Mar 10 2023 13:25:26 GMT-0600 (Central Standard Time)","583490","Trustworthy,Untrustworthy","","null","","","","feedback","","<div class='respPicDiv'><img src='img/responseButtonOffersNo0_wht.png' class='respPic'></div><div class='trialDiv'><img src='Fruit/mixed-berries2.png'><br><font class='baseline'><strong>Berry Bla$t</strong><p><strong><font class='posOutcome'>You WON</font><p>You bet: 5</strong></font> &nbsp; &nbsp; &nbsp; &nbsp; &nbsp; &nbsp;<font class='posOutcome'>you receive: <strong>10</strong></font></div>","null","17","Berry Bla$t","Fruit/mixed-berries2.png","Won","0.2,0.65","9","0.2","279","50","",""
"html-keyboard-response","160","291566","0.0-11.0-1.50","63b7005d59a418f740ecfa0d","bdp_rwlrn","Fri Mar 10 2023 13:25:26 GMT-0600 (Central Standard Time)","583490","Trustworthy,Untrustworthy","","2472","","","","decision","","<div class='trialDiv'><img src='Fruit/plums1.png'><br><font class='baseline'><strong>Plum Powerball</strong><p>Choose number of points to bet.</font><div class='respPicDiv'><img src='img/responseButtonOffersNo0L.png' class='respPic'></div></div>","1","17","Plum Powerball","Fruit/plums1.png","Won","0.8,0.2","12","0.8","284","51","",""
"html-keyboard-response","161","291833","0.0-11.0-2.50","63b7005d59a418f740ecfa0d","bdp_rwlrn","Fri Mar 10 2023 13:25:26 GMT-0600 (Central Standard Time)","583490","Trustworthy,Untrustworthy","","null","","","","decisionFB","","<div class='trialDiv'><img src='Fruit/plums1.png'><br><font class='baseline'><strong>Plum Powerball</strong><p>Choose number of points to bet.</font><div class='respPicDiv'><img src='img/responseButtonOffersNo0L1.png' class='respPic'></div></div>","null","17","Plum Powerball","Fruit/plums1.png","Won","0.8,0.2","12","0.8","283","51","",""
