"trial_type","trial_index","time_elapsed","internal_node_id","subject_id","task","startTime","totalTime","labels","view_history","rt","event","trial","time","trialtype","success","stimulus","key_press","ltround","name","fileID","outcome","lottotype","lottoswpt","lottocurrpshare","point_total","round","faceID","face"
"pavlovia","0","5","0.0-0.0","5d7850851841fc0001e9c64d","bdp_rwlrn","Mon Mar 13 2023 23:55:14 GMT-0400 (Eastern Daylight Time)","348343","Untrustworthy,Trustworthy","","","","","","","","","","","","","","","","","","","",""
"instructions","1","2531","0.0-1.0","5d7850851841fc0001e9c64d","bdp_rwlrn","Mon Mar 13 2023 23:55:14 GMT-0400 (Eastern Daylight Time)","348343","Untrustworthy,Trustworthy","[{""page_index"":0,""viewing_time"":2525}]","2525","","","","","","","","","","","","","","","","","",""
"","","","","5d7850851841fc0001e9c64d","bdp_rwlrn","Mon Mar 13 2023 23:55:14 GMT-0400 (Eastern Daylight Time)","348343","Untrustworthy,Trustworthy","","","fullscreenenter","2","5991","fullscreenenter","","","","","","","","","","","","","",""
"fullscreen","2","6998","0.0-2.0","5d7850851841fc0001e9c64d","bdp_rwlrn","Mon Mar 13 2023 23:55:14 GMT-0400 (Eastern Daylight Time)","348343","Untrustworthy,Trustworthy","","","","","","","true","","","","","","","","","","","","",""
"instructions","3","41264","0.0-4.0","5d7850851841fc0001e9c64d","bdp_rwlrn","Mon Mar 13 2023 23:55:14 GMT-0400 (Eastern Daylight Time)","348343","Untrustworthy,Trustworthy","[{""page_index"":0,""viewing_time"":7967},{""page_index"":1,""viewing_time"":6665},{""page_index"":2,""viewing_time"":3438},{""page_index"":3,""viewing_time"":3977},{""page_index"":4,""viewing_time"":10670},{""page_index"":5,""viewing_time"":1543}]","34260","","","","","","","","","","","","","","","","","",""
"html-keyboard-response","4","43137","0.0-5.0","5d7850851841fc0001e9c64d","bdp_rwlrn","Mon Mar 13 2023 23:55:14 GMT-0400 (Eastern Daylight Time)","348343","Untrustworthy,Trustworthy","","1870","","","","","","<div class='header' style='text-align:left; position: absolute; top: 5%; left: 5%;'><small>Task 3 of 5</small></div><div class='instruxDiv'><p><strong>1) What is the maximum number of points you can choose to bet on a lottery?</strong></p><p>a) 0</p><p>b) 1</p><p>c) 5</p>","B","","","","","","","","","","",""
"html-keyboard-response","5","45727","0.0-6.0","5d7850851841fc0001e9c64d","bdp_rwlrn","Mon Mar 13 2023 23:55:14 GMT-0400 (Eastern Daylight Time)","348343","Untrustworthy,Trustworthy","","2486","","","","","","<div class='header' style='text-align:left; position: absolute; top: 5%; left: 5%;'><small>Task 3 of 5</small></div><div class='instruxDiv'><p><strong>1) What is the maximum number of points you can choose to bet on a lottery?</strong></p><p>a) 0</p><p style='color:#FF0000'>b) 1</p><p>c) 5</p><h3 style='color:#FF0000'>Incorrect!</h3><h3 class='center-content'>The correct response is c).</h3><h3 class='center-content'>The maximum number of points you can choose to bet on a lottery is 5 points.</h3><p><em>Press SPACEBAR to continue</em></p></div>"," ","","","","","","","","","","",""
"html-keyboard-response","6","47659","0.0-7.0","5d7850851841fc0001e9c64d","bdp_rwlrn","Mon Mar 13 2023 23:55:14 GMT-0400 (Eastern Daylight Time)","348343","Untrustworthy,Trustworthy","","1830","","","","","","<div class='header' style='text-align:left; position: absolute; top: 5%; left: 5%;'><small>Task 3 of 5</small></div><div class='instruxDiv'><p><strong>2) How many points can you win each round?</strong></p><p>a) 10 points</p><p>b) Double what you bet</p><p>c) Quadruple what you bet</p>","B","","","","","","","","","","",""
"html-keyboard-response","7","48170","0.0-8.0","5d7850851841fc0001e9c64d","bdp_rwlrn","Mon Mar 13 2023 23:55:14 GMT-0400 (Eastern Daylight Time)","348343","Untrustworthy,Trustworthy","","410","","","","","","<div class='header' style='text-align:left; position: absolute; top: 5%; left: 5%;'><small>Task 3 of 5</small></div><div class='instruxDiv'><p><strong>2) How many points can you win each round?</strong></p><p>a) 10 points</p><p style='color:#00FF00'>b) Double what you bet</p><p>c) Quadruple what you bet</p><h3 style='color:#00FF00'>Correct!</h3><h3 class='center-content'>The correct response is b).</h3><h3 class='center-content'>You can win double the amount of points you bet.</h3><p><em>Press SPACEBAR to continue</em></p></div>"," ","","","","","","","","","","",""
"html-keyboard-response","8","53273","0.0-9.0","5d7850851841fc0001e9c64d","bdp_rwlrn","Mon Mar 13 2023 23:55:14 GMT-0400 (Eastern Daylight Time)","348343","Untrustworthy,Trustworthy","","null","","","","","","<div class='header' style='text-align:left; position: absolute; top: 5%; left: 5%;'><small>Task 3 of 5</small></div><div class='instruxDiv'><p>Thank you for completing the quiz<p>These are the actual lotteries you will be playing in the next block:<p><div class='tc' align='center'><img class='introPic' src='Fruit/plums1.png'><br><strong>Plum Powerball</strong></div><div class='bl' align='center'><img class='introPic' src='Fruit/mango.png'><br><strong>Mega Mangos</strong></div><div class='br' align='center'><img class='introPic' src='Fruit/cherrie.png'><br><strong>Cherry Chances</strong></div></div><p>Across <strong>66 rounds</strong> you will play each lottery <strong>22 times</strong> (in random order).<p style='align:center; color:white'><font <em>Press SPACEBAR to continue</em></p>","null","","","","","","","","","","",""
"instructions","9","56208","0.0-10.0","5d7850851841fc0001e9c64d","bdp_rwlrn","Mon Mar 13 2023 23:55:14 GMT-0400 (Eastern Daylight Time)","348343","Untrustworthy,Trustworthy","[{""page_index"":0,""viewing_time"":674},{""page_index"":1,""viewing_time"":2260}]","2934","","","","","","","","","","","","","","","","","",""
"html-keyboard-response","10","57193","0.0-11.0-1.0","5d7850851841fc0001e9c64d","bdp_rwlrn","Mon Mar 13 2023 23:55:14 GMT-0400 (Eastern Daylight Time)","348343","Untrustworthy,Trustworthy","","882","","","","decision","","<div class='trialDiv'><img src='Fruit/mango.png'><br><font class='baseline'><strong>Mega Mangos</strong><p>Choose number of points to bet.</font><div class='respPicDiv'><img src='img/responseButtonOffersNo0L.png' class='respPic'></div></div>","3","1","Mega Mangos","Fruit/mango.png","Lost","0.2,0.8","13","0.2","5","1","",""
"html-keyboard-response","11","57446","0.0-11.0-2.0","5d7850851841fc0001e9c64d","bdp_rwlrn","Mon Mar 13 2023 23:55:14 GMT-0400 (Eastern Daylight Time)","348343","Untrustworthy,Trustworthy","","null","","","","decisionFB","","<div class='trialDiv'><img src='Fruit/mango.png'><br><font class='baseline'><strong>Mega Mangos</strong><p>Choose number of points to bet.</font><div class='respPicDiv'><img src='img/responseButtonOffersNo0L3.png' class='respPic'></div></div>","null","1","Mega Mangos","Fruit/mango.png","Lost","0.2,0.8","13","0.2","2","1","",""
"html-keyboard-response","12","58449","0.0-11.0-3.0","5d7850851841fc0001e9c64d","bdp_rwlrn","Mon Mar 13 2023 23:55:14 GMT-0400 (Eastern Daylight Time)","348343","Untrustworthy,Trustworthy","","null","","","","feedback","","<div class='respPicDiv'><img src='img/responseButtonOffersNo0_wht.png' class='respPic'></div><div class='trialDiv'><img src='Fruit/mango.png'><br><font class='baseline'><strong>Mega Mangos</strong><p><strong><font class='negOutcome'>You LOST</font><p>You bet: 3</strong></font> &nbsp; &nbsp; &nbsp; &nbsp; &nbsp; &nbsp;<font class='negOutcome'>You receive: <strong>0</strong></font></div>","null","1","Mega Mangos","Fruit/mango.png","Lost","0.2,0.8","13","0.2","2","1","",""
"html-keyboard-response","13","59661","0.0-11.0-1.1","5d7850851841fc0001e9c64d","bdp_rwlrn","Mon Mar 13 2023 23:55:14 GMT-0400 (Eastern Daylight Time)","348343","Untrustworthy,Trustworthy","","1210","","","","decision","","<div class='trialDiv'><img src='Fruit/plums1.png'><br><font class='baseline'><strong>Plum Powerball</strong><p>Choose number of points to bet.</font><div class='respPicDiv'><img src='img/responseButtonOffersNo0L.png' class='respPic'></div></div>","3","1","Plum Powerball","Fruit/plums1.png","Won","0.65,0.2","13","0.65","7","2","",""
"html-keyboard-response","14","59912","0.0-11.0-2.1","5d7850851841fc0001e9c64d","bdp_rwlrn","Mon Mar 13 2023 23:55:14 GMT-0400 (Eastern Daylight Time)","348343","Untrustworthy,Trustworthy","","null","","","","decisionFB","","<div class='trialDiv'><img src='Fruit/plums1.png'><br><font class='baseline'><strong>Plum Powerball</strong><p>Choose number of points to bet.</font><div class='respPicDiv'><img src='img/responseButtonOffersNo0L3.png' class='respPic'></div></div>","null","1","Plum Powerball","Fruit/plums1.png","Won","0.65,0.2","13","0.65","4","2","",""
"html-keyboard-response","15","60916","0.0-11.0-3.1","5d7850851841fc0001e9c64d","bdp_rwlrn","Mon Mar 13 2023 23:55:14 GMT-0400 (Eastern Daylight Time)","348343","Untrustworthy,Trustworthy","","null","","","","feedback","","<div class='respPicDiv'><img src='img/responseButtonOffersNo0_wht.png' class='respPic'></div><div class='trialDiv'><img src='Fruit/plums1.png'><br><font class='baseline'><strong>Plum Powerball</strong><p><strong><font class='posOutcome'>You WON</font><p>You bet: 3</strong></font> &nbsp; &nbsp; &nbsp; &nbsp; &nbsp; &nbsp;<font class='posOutcome'>you receive: <strong>6</strong></font></div>","null","1","Plum Powerball","Fruit/plums1.png","Won","0.65,0.2","13","0.65","10","2","",""
"html-keyboard-response","16","62067","0.0-11.0-1.2","5d7850851841fc0001e9c64d","bdp_rwlrn","Mon Mar 13 2023 23:55:14 GMT-0400 (Eastern Daylight Time)","348343","Untrustworthy,Trustworthy","","1149","","","","decision","","<div class='trialDiv'><img src='Fruit/cherrie.png'><br><font class='baseline'><strong>Cherry Chances</strong><p>Choose number of points to bet.</font><div class='respPicDiv'><img src='img/responseButtonOffersNo0L.png' class='respPic'></div></div>","3","1","Cherry Chances","Fruit/cherrie.png","Lost","0.35,0.8","13","0.35","15","3","",""
"html-keyboard-response","17","62318","0.0-11.0-2.2","5d7850851841fc0001e9c64d","bdp_rwlrn","Mon Mar 13 2023 23:55:14 GMT-0400 (Eastern Daylight Time)","348343","Untrustworthy,Trustworthy","","null","","","","decisionFB","","<div class='trialDiv'><img src='Fruit/cherrie.png'><br><font class='baseline'><strong>Cherry Chances</strong><p>Choose number of points to bet.</font><div class='respPicDiv'><img src='img/responseButtonOffersNo0L3.png' class='respPic'></div></div>","null","1","Cherry Chances","Fruit/cherrie.png","Lost","0.35,0.8","13","0.35","12","3","",""
"html-keyboard-response","18","63321","0.0-11.0-3.2","5d7850851841fc0001e9c64d","bdp_rwlrn","Mon Mar 13 2023 23:55:14 GMT-0400 (Eastern Daylight Time)","348343","Untrustworthy,Trustworthy","","null","","","","feedback","","<div class='respPicDiv'><img src='img/responseButtonOffersNo0_wht.png' class='respPic'></div><div class='trialDiv'><img src='Fruit/cherrie.png'><br><font class='baseline'><strong>Cherry Chances</strong><p><strong><font class='negOutcome'>You LOST</font><p>You bet: 3</strong></font> &nbsp; &nbsp; &nbsp; &nbsp; &nbsp; &nbsp;<font class='negOutcome'>You receive: <strong>0</strong></font></div>","null","1","Cherry Chances","Fruit/cherrie.png","Lost","0.35,0.8","13","0.35","12","3","",""
"html-keyboard-response","19","64439","0.0-11.0-1.3","5d7850851841fc0001e9c64d","bdp_rwlrn","Mon Mar 13 2023 23:55:14 GMT-0400 (Eastern Daylight Time)","348343","Untrustworthy,Trustworthy","","1117","","","","decision","","<div class='trialDiv'><img src='Fruit/plums1.png'><br><font class='baseline'><strong>Plum Powerball</strong><p>Choose number of points to bet.</font><div class='respPicDiv'><img src='img/responseButtonOffersNo0L.png' class='respPic'></div></div>","4","2","Plum Powerball","Fruit/plums1.png","Won","0.65,0.2","13","0.65","17","4","",""
"html-keyboard-response","20","64691","0.0-11.0-2.3","5d7850851841fc0001e9c64d","bdp_rwlrn","Mon Mar 13 2023 23:55:14 GMT-0400 (Eastern Daylight Time)","348343","Untrustworthy,Trustworthy","","null","","","","decisionFB","","<div class='trialDiv'><img src='Fruit/plums1.png'><br><font class='baseline'><strong>Plum Powerball</strong><p>Choose number of points to bet.</font><div class='respPicDiv'><img src='img/responseButtonOffersNo0L4.png' class='respPic'></div></div>","null","2","Plum Powerball","Fruit/plums1.png","Won","0.65,0.2","13","0.65","13","4","",""
"html-keyboard-response","21","65694","0.0-11.0-3.3","5d7850851841fc0001e9c64d","bdp_rwlrn","Mon Mar 13 2023 23:55:14 GMT-0400 (Eastern Daylight Time)","348343","Untrustworthy,Trustworthy","","null","","","","feedback","","<div class='respPicDiv'><img src='img/responseButtonOffersNo0_wht.png' class='respPic'></div><div class='trialDiv'><img src='Fruit/plums1.png'><br><font class='baseline'><strong>Plum Powerball</strong><p><strong><font class='posOutcome'>You WON</font><p>You bet: 4</strong></font> &nbsp; &nbsp; &nbsp; &nbsp; &nbsp; &nbsp;<font class='posOutcome'>you receive: <strong>8</strong></font></div>","null","2","Plum Powerball","Fruit/plums1.png","Won","0.65,0.2","13","0.65","21","4","",""
"html-keyboard-response","22","66515","0.0-11.0-1.4","5d7850851841fc0001e9c64d","bdp_rwlrn","Mon Mar 13 2023 23:55:14 GMT-0400 (Eastern Daylight Time)","348343","Untrustworthy,Trustworthy","","819","","","","decision","","<div class='trialDiv'><img src='Fruit/cherrie.png'><br><font class='baseline'><strong>Cherry Chances</strong><p>Choose number of points to bet.</font><div class='respPicDiv'><img src='img/responseButtonOffersNo0L.png' class='respPic'></div></div>","2","2","Cherry Chances","Fruit/cherrie.png","Lost","0.35,0.8","13","0.35","26","5","",""
"html-keyboard-response","23","66767","0.0-11.0-2.4","5d7850851841fc0001e9c64d","bdp_rwlrn","Mon Mar 13 2023 23:55:14 GMT-0400 (Eastern Daylight Time)","348343","Untrustworthy,Trustworthy","","null","","","","decisionFB","","<div class='trialDiv'><img src='Fruit/cherrie.png'><br><font class='baseline'><strong>Cherry Chances</strong><p>Choose number of points to bet.</font><div class='respPicDiv'><img src='img/responseButtonOffersNo0L2.png' class='respPic'></div></div>","null","2","Cherry Chances","Fruit/cherrie.png","Lost","0.35,0.8","13","0.35","24","5","",""
"html-keyboard-response","24","67770","0.0-11.0-3.4","5d7850851841fc0001e9c64d","bdp_rwlrn","Mon Mar 13 2023 23:55:14 GMT-0400 (Eastern Daylight Time)","348343","Untrustworthy,Trustworthy","","null","","","","feedback","","<div class='respPicDiv'><img src='img/responseButtonOffersNo0_wht.png' class='respPic'></div><div class='trialDiv'><img src='Fruit/cherrie.png'><br><font class='baseline'><strong>Cherry Chances</strong><p><strong><font class='negOutcome'>You LOST</font><p>You bet: 2</strong></font> &nbsp; &nbsp; &nbsp; &nbsp; &nbsp; &nbsp;<font class='negOutcome'>You receive: <strong>0</strong></font></div>","null","2","Cherry Chances","Fruit/cherrie.png","Lost","0.35,0.8","13","0.35","24","5","",""
"html-keyboard-response","25","68598","0.0-11.0-1.5","5d7850851841fc0001e9c64d","bdp_rwlrn","Mon Mar 13 2023 23:55:14 GMT-0400 (Eastern Daylight Time)","348343","Untrustworthy,Trustworthy","","827","","","","decision","","<div class='trialDiv'><img src='Fruit/mango.png'><br><font class='baseline'><strong>Mega Mangos</strong><p>Choose number of points to bet.</font><div class='respPicDiv'><img src='img/responseButtonOffersNo0L.png' class='respPic'></div></div>","2","2","Mega Mangos","Fruit/mango.png","Lost","0.2,0.8","13","0.2","29","6","",""
"html-keyboard-response","26","68854","0.0-11.0-2.5","5d7850851841fc0001e9c64d","bdp_rwlrn","Mon Mar 13 2023 23:55:14 GMT-0400 (Eastern Daylight Time)","348343","Untrustworthy,Trustworthy","","null","","","","decisionFB","","<div class='trialDiv'><img src='Fruit/mango.png'><br><font class='baseline'><strong>Mega Mangos</strong><p>Choose number of points to bet.</font><div class='respPicDiv'><img src='img/responseButtonOffersNo0L2.png' class='respPic'></div></div>","null","2","Mega Mangos","Fruit/mango.png","Lost","0.2,0.8","13","0.2","27","6","",""
"html-keyboard-response","27","69858","0.0-11.0-3.5","5d7850851841fc0001e9c64d","bdp_rwlrn","Mon Mar 13 2023 23:55:14 GMT-0400 (Eastern Daylight Time)","348343","Untrustworthy,Trustworthy","","null","","","","feedback","","<div class='respPicDiv'><img src='img/responseButtonOffersNo0_wht.png' class='respPic'></div><div class='trialDiv'><img src='Fruit/mango.png'><br><font class='baseline'><strong>Mega Mangos</strong><p><strong><font class='negOutcome'>You LOST</font><p>You bet: 2</strong></font> &nbsp; &nbsp; &nbsp; &nbsp; &nbsp; &nbsp;<font class='negOutcome'>You receive: <strong>0</strong></font></div>","null","2","Mega Mangos","Fruit/mango.png","Lost","0.2,0.8","13","0.2","27","6","",""
"html-keyboard-response","28","70396","0.0-11.0-1.6","5d7850851841fc0001e9c64d","bdp_rwlrn","Mon Mar 13 2023 23:55:14 GMT-0400 (Eastern Daylight Time)","348343","Untrustworthy,Trustworthy","","537","","","","decision","","<div class='trialDiv'><img src='Fruit/plums1.png'><br><font class='baseline'><strong>Plum Powerball</strong><p>Choose number of points to bet.</font><div class='respPicDiv'><img src='img/responseButtonOffersNo0L.png' class='respPic'></div></div>","5","3","Plum Powerball","Fruit/plums1.png","Won","0.65,0.2","13","0.65","32","7","",""
"html-keyboard-response","29","70649","0.0-11.0-2.6","5d7850851841fc0001e9c64d","bdp_rwlrn","Mon Mar 13 2023 23:55:14 GMT-0400 (Eastern Daylight Time)","348343","Untrustworthy,Trustworthy","","null","","","","decisionFB","","<div class='trialDiv'><img src='Fruit/plums1.png'><br><font class='baseline'><strong>Plum Powerball</strong><p>Choose number of points to bet.</font><div class='respPicDiv'><img src='img/responseButtonOffersNo0L5.png' class='respPic'></div></div>","null","3","Plum Powerball","Fruit/plums1.png","Won","0.65,0.2","13","0.65","27","7","",""
"html-keyboard-response","30","71650","0.0-11.0-3.6","5d7850851841fc0001e9c64d","bdp_rwlrn","Mon Mar 13 2023 23:55:14 GMT-0400 (Eastern Daylight Time)","348343","Untrustworthy,Trustworthy","","null","","","","feedback","","<div class='respPicDiv'><img src='img/responseButtonOffersNo0_wht.png' class='respPic'></div><div class='trialDiv'><img src='Fruit/plums1.png'><br><font class='baseline'><strong>Plum Powerball</strong><p><strong><font class='posOutcome'>You WON</font><p>You bet: 5</strong></font> &nbsp; &nbsp; &nbsp; &nbsp; &nbsp; &nbsp;<font class='posOutcome'>you receive: <strong>10</strong></font></div>","null","3","Plum Powerball","Fruit/plums1.png","Won","0.65,0.2","13","0.65","37","7","",""
"html-keyboard-response","31","72302","0.0-11.0-1.7","5d7850851841fc0001e9c64d","bdp_rwlrn","Mon Mar 13 2023 23:55:14 GMT-0400 (Eastern Daylight Time)","348343","Untrustworthy,Trustworthy","","650","","","","decision","","<div class='trialDiv'><img src='Fruit/cherrie.png'><br><font class='baseline'><strong>Cherry Chances</strong><p>Choose number of points to bet.</font><div class='respPicDiv'><img src='img/responseButtonOffersNo0L.png' class='respPic'></div></div>","1","3","Cherry Chances","Fruit/cherrie.png","Won","0.35,0.8","13","0.35","42","8","",""
"html-keyboard-response","32","72554","0.0-11.0-2.7","5d7850851841fc0001e9c64d","bdp_rwlrn","Mon Mar 13 2023 23:55:14 GMT-0400 (Eastern Daylight Time)","348343","Untrustworthy,Trustworthy","","null","","","","decisionFB","","<div class='trialDiv'><img src='Fruit/cherrie.png'><br><font class='baseline'><strong>Cherry Chances</strong><p>Choose number of points to bet.</font><div class='respPicDiv'><img src='img/responseButtonOffersNo0L1.png' class='respPic'></div></div>","null","3","Cherry Chances","Fruit/cherrie.png","Won","0.35,0.8","13","0.35","41","8","",""
"html-keyboard-response","33","73557","0.0-11.0-3.7","5d7850851841fc0001e9c64d","bdp_rwlrn","Mon Mar 13 2023 23:55:14 GMT-0400 (Eastern Daylight Time)","348343","Untrustworthy,Trustworthy","","null","","","","feedback","","<div class='respPicDiv'><img src='img/responseButtonOffersNo0_wht.png' class='respPic'></div><div class='trialDiv'><img src='Fruit/cherrie.png'><br><font class='baseline'><strong>Cherry Chances</strong><p><strong><font class='posOutcome'>You WON</font><p>You bet: 1</strong></font> &nbsp; &nbsp; &nbsp; &nbsp; &nbsp; &nbsp;<font class='posOutcome'>you receive: <strong>2</strong></font></div>","null","3","Cherry Chances","Fruit/cherrie.png","Won","0.35,0.8","13","0.35","43","8","",""
"html-keyboard-response","34","74278","0.0-11.0-1.8","5d7850851841fc0001e9c64d","bdp_rwlrn","Mon Mar 13 2023 23:55:14 GMT-0400 (Eastern Daylight Time)","348343","Untrustworthy,Trustworthy","","718","","","","decision","","<div class='trialDiv'><img src='Fruit/mango.png'><br><font class='baseline'><strong>Mega Mangos</strong><p>Choose number of points to bet.</font><div class='respPicDiv'><img src='img/responseButtonOffersNo0L.png' class='respPic'></div></div>","1","3","Mega Mangos","Fruit/mango.png","Won","0.2,0.8","13","0.2","48","9","",""
"html-keyboard-response","35","74530","0.0-11.0-2.8","5d7850851841fc0001e9c64d","bdp_rwlrn","Mon Mar 13 2023 23:55:14 GMT-0400 (Eastern Daylight Time)","348343","Untrustworthy,Trustworthy","","null","","","","decisionFB","","<div class='trialDiv'><img src='Fruit/mango.png'><br><font class='baseline'><strong>Mega Mangos</strong><p>Choose number of points to bet.</font><div class='respPicDiv'><img src='img/responseButtonOffersNo0L1.png' class='respPic'></div></div>","null","3","Mega Mangos","Fruit/mango.png","Won","0.2,0.8","13","0.2","47","9","",""
"html-keyboard-response","36","75532","0.0-11.0-3.8","5d7850851841fc0001e9c64d","bdp_rwlrn","Mon Mar 13 2023 23:55:14 GMT-0400 (Eastern Daylight Time)","348343","Untrustworthy,Trustworthy","","null","","","","feedback","","<div class='respPicDiv'><img src='img/responseButtonOffersNo0_wht.png' class='respPic'></div><div class='trialDiv'><img src='Fruit/mango.png'><br><font class='baseline'><strong>Mega Mangos</strong><p><strong><font class='posOutcome'>You WON</font><p>You bet: 1</strong></font> &nbsp; &nbsp; &nbsp; &nbsp; &nbsp; &nbsp;<font class='posOutcome'>you receive: <strong>2</strong></font></div>","null","3","Mega Mangos","Fruit/mango.png","Won","0.2,0.8","13","0.2","49","9","",""
"html-keyboard-response","37","76282","0.0-11.0-1.9","5d7850851841fc0001e9c64d","bdp_rwlrn","Mon Mar 13 2023 23:55:14 GMT-0400 (Eastern Daylight Time)","348343","Untrustworthy,Trustworthy","","749","","","","decision","","<div class='trialDiv'><img src='Fruit/plums1.png'><br><font class='baseline'><strong>Plum Powerball</strong><p>Choose number of points to bet.</font><div class='respPicDiv'><img src='img/responseButtonOffersNo0L.png' class='respPic'></div></div>","5","4","Plum Powerball","Fruit/plums1.png","Lost","0.65,0.2","13","0.65","54","10","",""
"html-keyboard-response","38","76535","0.0-11.0-2.9","5d7850851841fc0001e9c64d","bdp_rwlrn","Mon Mar 13 2023 23:55:14 GMT-0400 (Eastern Daylight Time)","348343","Untrustworthy,Trustworthy","","null","","","","decisionFB","","<div class='trialDiv'><img src='Fruit/plums1.png'><br><font class='baseline'><strong>Plum Powerball</strong><p>Choose number of points to bet.</font><div class='respPicDiv'><img src='img/responseButtonOffersNo0L5.png' class='respPic'></div></div>","null","4","Plum Powerball","Fruit/plums1.png","Lost","0.65,0.2","13","0.65","49","10","",""
"html-keyboard-response","39","77537","0.0-11.0-3.9","5d7850851841fc0001e9c64d","bdp_rwlrn","Mon Mar 13 2023 23:55:14 GMT-0400 (Eastern Daylight Time)","348343","Untrustworthy,Trustworthy","","null","","","","feedback","","<div class='respPicDiv'><img src='img/responseButtonOffersNo0_wht.png' class='respPic'></div><div class='trialDiv'><img src='Fruit/plums1.png'><br><font class='baseline'><strong>Plum Powerball</strong><p><strong><font class='negOutcome'>You LOST</font><p>You bet: 5</strong></font> &nbsp; &nbsp; &nbsp; &nbsp; &nbsp; &nbsp;<font class='negOutcome'>You receive: <strong>0</strong></font></div>","null","4","Plum Powerball","Fruit/plums1.png","Lost","0.65,0.2","13","0.65","49","10","",""
"html-keyboard-response","40","78188","0.0-11.0-1.10","5d7850851841fc0001e9c64d","bdp_rwlrn","Mon Mar 13 2023 23:55:14 GMT-0400 (Eastern Daylight Time)","348343","Untrustworthy,Trustworthy","","649","","","","decision","","<div class='trialDiv'><img src='Fruit/mango.png'><br><font class='baseline'><strong>Mega Mangos</strong><p>Choose number of points to bet.</font><div class='respPicDiv'><img src='img/responseButtonOffersNo0L.png' class='respPic'></div></div>","2","4","Mega Mangos","Fruit/mango.png","Lost","0.2,0.8","13","0.2","54","11","",""
"html-keyboard-response","41","78441","0.0-11.0-2.10","5d7850851841fc0001e9c64d","bdp_rwlrn","Mon Mar 13 2023 23:55:14 GMT-0400 (Eastern Daylight Time)","348343","Untrustworthy,Trustworthy","","null","","","","decisionFB","","<div class='trialDiv'><img src='Fruit/mango.png'><br><font class='baseline'><strong>Mega Mangos</strong><p>Choose number of points to bet.</font><div class='respPicDiv'><img src='img/responseButtonOffersNo0L2.png' class='respPic'></div></div>","null","4","Mega Mangos","Fruit/mango.png","Lost","0.2,0.8","13","0.2","52","11","",""
"html-keyboard-response","42","79444","0.0-11.0-3.10","5d7850851841fc0001e9c64d","bdp_rwlrn","Mon Mar 13 2023 23:55:14 GMT-0400 (Eastern Daylight Time)","348343","Untrustworthy,Trustworthy","","null","","","","feedback","","<div class='respPicDiv'><img src='img/responseButtonOffersNo0_wht.png' class='respPic'></div><div class='trialDiv'><img src='Fruit/mango.png'><br><font class='baseline'><strong>Mega Mangos</strong><p><strong><font class='negOutcome'>You LOST</font><p>You bet: 2</strong></font> &nbsp; &nbsp; &nbsp; &nbsp; &nbsp; &nbsp;<font class='negOutcome'>You receive: <strong>0</strong></font></div>","null","4","Mega Mangos","Fruit/mango.png","Lost","0.2,0.8","13","0.2","52","11","",""
"html-keyboard-response","43","80030","0.0-11.0-1.11","5d7850851841fc0001e9c64d","bdp_rwlrn","Mon Mar 13 2023 23:55:14 GMT-0400 (Eastern Daylight Time)","348343","Untrustworthy,Trustworthy","","583","","","","decision","","<div class='trialDiv'><img src='Fruit/cherrie.png'><br><font class='baseline'><strong>Cherry Chances</strong><p>Choose number of points to bet.</font><div class='respPicDiv'><img src='img/responseButtonOffersNo0L.png' class='respPic'></div></div>","2","4","Cherry Chances","Fruit/cherrie.png","Won","0.35,0.8","13","0.35","57","12","",""
"html-keyboard-response","44","80281","0.0-11.0-2.11","5d7850851841fc0001e9c64d","bdp_rwlrn","Mon Mar 13 2023 23:55:14 GMT-0400 (Eastern Daylight Time)","348343","Untrustworthy,Trustworthy","","null","","","","decisionFB","","<div class='trialDiv'><img src='Fruit/cherrie.png'><br><font class='baseline'><strong>Cherry Chances</strong><p>Choose number of points to bet.</font><div class='respPicDiv'><img src='img/responseButtonOffersNo0L2.png' class='respPic'></div></div>","null","4","Cherry Chances","Fruit/cherrie.png","Won","0.35,0.8","13","0.35","55","12","",""
"html-keyboard-response","45","81286","0.0-11.0-3.11","5d7850851841fc0001e9c64d","bdp_rwlrn","Mon Mar 13 2023 23:55:14 GMT-0400 (Eastern Daylight Time)","348343","Untrustworthy,Trustworthy","","null","","","","feedback","","<div class='respPicDiv'><img src='img/responseButtonOffersNo0_wht.png' class='respPic'></div><div class='trialDiv'><img src='Fruit/cherrie.png'><br><font class='baseline'><strong>Cherry Chances</strong><p><strong><font class='posOutcome'>You WON</font><p>You bet: 2</strong></font> &nbsp; &nbsp; &nbsp; &nbsp; &nbsp; &nbsp;<font class='posOutcome'>you receive: <strong>4</strong></font></div>","null","4","Cherry Chances","Fruit/cherrie.png","Won","0.35,0.8","13","0.35","59","12","",""
"html-keyboard-response","46","81945","0.0-11.0-1.12","5d7850851841fc0001e9c64d","bdp_rwlrn","Mon Mar 13 2023 23:55:14 GMT-0400 (Eastern Daylight Time)","348343","Untrustworthy,Trustworthy","","658","","","","decision","","<div class='trialDiv'><img src='Fruit/mango.png'><br><font class='baseline'><strong>Mega Mangos</strong><p>Choose number of points to bet.</font><div class='respPicDiv'><img src='img/responseButtonOffersNo0L.png' class='respPic'></div></div>","1","5","Mega Mangos","Fruit/mango.png","Lost","0.2,0.8","13","0.2","64","13","",""
"html-keyboard-response","47","82198","0.0-11.0-2.12","5d7850851841fc0001e9c64d","bdp_rwlrn","Mon Mar 13 2023 23:55:14 GMT-0400 (Eastern Daylight Time)","348343","Untrustworthy,Trustworthy","","null","","","","decisionFB","","<div class='trialDiv'><img src='Fruit/mango.png'><br><font class='baseline'><strong>Mega Mangos</strong><p>Choose number of points to bet.</font><div class='respPicDiv'><img src='img/responseButtonOffersNo0L1.png' class='respPic'></div></div>","null","5","Mega Mangos","Fruit/mango.png","Lost","0.2,0.8","13","0.2","63","13","",""
"html-keyboard-response","48","83206","0.0-11.0-3.12","5d7850851841fc0001e9c64d","bdp_rwlrn","Mon Mar 13 2023 23:55:14 GMT-0400 (Eastern Daylight Time)","348343","Untrustworthy,Trustworthy","","null","","","","feedback","","<div class='respPicDiv'><img src='img/responseButtonOffersNo0_wht.png' class='respPic'></div><div class='trialDiv'><img src='Fruit/mango.png'><br><font class='baseline'><strong>Mega Mangos</strong><p><strong><font class='negOutcome'>You LOST</font><p>You bet: 1</strong></font> &nbsp; &nbsp; &nbsp; &nbsp; &nbsp; &nbsp;<font class='negOutcome'>You receive: <strong>0</strong></font></div>","null","5","Mega Mangos","Fruit/mango.png","Lost","0.2,0.8","13","0.2","63","13","",""
"html-keyboard-response","49","83946","0.0-11.0-1.13","5d7850851841fc0001e9c64d","bdp_rwlrn","Mon Mar 13 2023 23:55:14 GMT-0400 (Eastern Daylight Time)","348343","Untrustworthy,Trustworthy","","737","","","","decision","","<div class='trialDiv'><img src='Fruit/plums1.png'><br><font class='baseline'><strong>Plum Powerball</strong><p>Choose number of points to bet.</font><div class='respPicDiv'><img src='img/responseButtonOffersNo0L.png' class='respPic'></div></div>","5","5","Plum Powerball","Fruit/plums1.png","Lost","0.65,0.2","13","0.65","68","14","",""
"html-keyboard-response","50","84198","0.0-11.0-2.13","5d7850851841fc0001e9c64d","bdp_rwlrn","Mon Mar 13 2023 23:55:14 GMT-0400 (Eastern Daylight Time)","348343","Untrustworthy,Trustworthy","","null","","","","decisionFB","","<div class='trialDiv'><img src='Fruit/plums1.png'><br><font class='baseline'><strong>Plum Powerball</strong><p>Choose number of points to bet.</font><div class='respPicDiv'><img src='img/responseButtonOffersNo0L5.png' class='respPic'></div></div>","null","5","Plum Powerball","Fruit/plums1.png","Lost","0.65,0.2","13","0.65","63","14","",""
"html-keyboard-response","51","85201","0.0-11.0-3.13","5d7850851841fc0001e9c64d","bdp_rwlrn","Mon Mar 13 2023 23:55:14 GMT-0400 (Eastern Daylight Time)","348343","Untrustworthy,Trustworthy","","null","","","","feedback","","<div class='respPicDiv'><img src='img/responseButtonOffersNo0_wht.png' class='respPic'></div><div class='trialDiv'><img src='Fruit/plums1.png'><br><font class='baseline'><strong>Plum Powerball</strong><p><strong><font class='negOutcome'>You LOST</font><p>You bet: 5</strong></font> &nbsp; &nbsp; &nbsp; &nbsp; &nbsp; &nbsp;<font class='negOutcome'>You receive: <strong>0</strong></font></div>","null","5","Plum Powerball","Fruit/plums1.png","Lost","0.65,0.2","13","0.65","63","14","",""
"html-keyboard-response","52","86233","0.0-11.0-1.14","5d7850851841fc0001e9c64d","bdp_rwlrn","Mon Mar 13 2023 23:55:14 GMT-0400 (Eastern Daylight Time)","348343","Untrustworthy,Trustworthy","","1031","","","","decision","","<div class='trialDiv'><img src='Fruit/cherrie.png'><br><font class='baseline'><strong>Cherry Chances</strong><p>Choose number of points to bet.</font><div class='respPicDiv'><img src='img/responseButtonOffersNo0L.png' class='respPic'></div></div>","3","5","Cherry Chances","Fruit/cherrie.png","Won","0.35,0.8","13","0.35","68","15","",""
"html-keyboard-response","53","86486","0.0-11.0-2.14","5d7850851841fc0001e9c64d","bdp_rwlrn","Mon Mar 13 2023 23:55:14 GMT-0400 (Eastern Daylight Time)","348343","Untrustworthy,Trustworthy","","null","","","","decisionFB","","<div class='trialDiv'><img src='Fruit/cherrie.png'><br><font class='baseline'><strong>Cherry Chances</strong><p>Choose number of points to bet.</font><div class='respPicDiv'><img src='img/responseButtonOffersNo0L3.png' class='respPic'></div></div>","null","5","Cherry Chances","Fruit/cherrie.png","Won","0.35,0.8","13","0.35","65","15","",""
"html-keyboard-response","54","87489","0.0-11.0-3.14","5d7850851841fc0001e9c64d","bdp_rwlrn","Mon Mar 13 2023 23:55:14 GMT-0400 (Eastern Daylight Time)","348343","Untrustworthy,Trustworthy","","null","","","","feedback","","<div class='respPicDiv'><img src='img/responseButtonOffersNo0_wht.png' class='respPic'></div><div class='trialDiv'><img src='Fruit/cherrie.png'><br><font class='baseline'><strong>Cherry Chances</strong><p><strong><font class='posOutcome'>You WON</font><p>You bet: 3</strong></font> &nbsp; &nbsp; &nbsp; &nbsp; &nbsp; &nbsp;<font class='posOutcome'>you receive: <strong>6</strong></font></div>","null","5","Cherry Chances","Fruit/cherrie.png","Won","0.35,0.8","13","0.35","71","15","",""
"html-keyboard-response","55","88164","0.0-11.0-1.15","5d7850851841fc0001e9c64d","bdp_rwlrn","Mon Mar 13 2023 23:55:14 GMT-0400 (Eastern Daylight Time)","348343","Untrustworthy,Trustworthy","","674","","","","decision","","<div class='trialDiv'><img src='Fruit/mango.png'><br><font class='baseline'><strong>Mega Mangos</strong><p>Choose number of points to bet.</font><div class='respPicDiv'><img src='img/responseButtonOffersNo0L.png' class='respPic'></div></div>","1","6","Mega Mangos","Fruit/mango.png","Lost","0.2,0.8","13","0.2","76","16","",""
"html-keyboard-response","56","88416","0.0-11.0-2.15","5d7850851841fc0001e9c64d","bdp_rwlrn","Mon Mar 13 2023 23:55:14 GMT-0400 (Eastern Daylight Time)","348343","Untrustworthy,Trustworthy","","null","","","","decisionFB","","<div class='trialDiv'><img src='Fruit/mango.png'><br><font class='baseline'><strong>Mega Mangos</strong><p>Choose number of points to bet.</font><div class='respPicDiv'><img src='img/responseButtonOffersNo0L1.png' class='respPic'></div></div>","null","6","Mega Mangos","Fruit/mango.png","Lost","0.2,0.8","13","0.2","75","16","",""
"html-keyboard-response","57","89418","0.0-11.0-3.15","5d7850851841fc0001e9c64d","bdp_rwlrn","Mon Mar 13 2023 23:55:14 GMT-0400 (Eastern Daylight Time)","348343","Untrustworthy,Trustworthy","","null","","","","feedback","","<div class='respPicDiv'><img src='img/responseButtonOffersNo0_wht.png' class='respPic'></div><div class='trialDiv'><img src='Fruit/mango.png'><br><font class='baseline'><strong>Mega Mangos</strong><p><strong><font class='negOutcome'>You LOST</font><p>You bet: 1</strong></font> &nbsp; &nbsp; &nbsp; &nbsp; &nbsp; &nbsp;<font class='negOutcome'>You receive: <strong>0</strong></font></div>","null","6","Mega Mangos","Fruit/mango.png","Lost","0.2,0.8","13","0.2","75","16","",""
"html-keyboard-response","58","89802","0.0-11.0-1.16","5d7850851841fc0001e9c64d","bdp_rwlrn","Mon Mar 13 2023 23:55:14 GMT-0400 (Eastern Daylight Time)","348343","Untrustworthy,Trustworthy","","381","","","","decision","","<div class='trialDiv'><img src='Fruit/plums1.png'><br><font class='baseline'><strong>Plum Powerball</strong><p>Choose number of points to bet.</font><div class='respPicDiv'><img src='img/responseButtonOffersNo0L.png' class='respPic'></div></div>","4","6","Plum Powerball","Fruit/plums1.png","Won","0.65,0.2","13","0.65","80","17","",""
"html-keyboard-response","59","90054","0.0-11.0-2.16","5d7850851841fc0001e9c64d","bdp_rwlrn","Mon Mar 13 2023 23:55:14 GMT-0400 (Eastern Daylight Time)","348343","Untrustworthy,Trustworthy","","null","","","","decisionFB","","<div class='trialDiv'><img src='Fruit/plums1.png'><br><font class='baseline'><strong>Plum Powerball</strong><p>Choose number of points to bet.</font><div class='respPicDiv'><img src='img/responseButtonOffersNo0L4.png' class='respPic'></div></div>","null","6","Plum Powerball","Fruit/plums1.png","Won","0.65,0.2","13","0.65","76","17","",""
"html-keyboard-response","60","91056","0.0-11.0-3.16","5d7850851841fc0001e9c64d","bdp_rwlrn","Mon Mar 13 2023 23:55:14 GMT-0400 (Eastern Daylight Time)","348343","Untrustworthy,Trustworthy","","null","","","","feedback","","<div class='respPicDiv'><img src='img/responseButtonOffersNo0_wht.png' class='respPic'></div><div class='trialDiv'><img src='Fruit/plums1.png'><br><font class='baseline'><strong>Plum Powerball</strong><p><strong><font class='posOutcome'>You WON</font><p>You bet: 4</strong></font> &nbsp; &nbsp; &nbsp; &nbsp; &nbsp; &nbsp;<font class='posOutcome'>you receive: <strong>8</strong></font></div>","null","6","Plum Powerball","Fruit/plums1.png","Won","0.65,0.2","13","0.65","84","17","",""
"html-keyboard-response","61","91794","0.0-11.0-1.17","5d7850851841fc0001e9c64d","bdp_rwlrn","Mon Mar 13 2023 23:55:14 GMT-0400 (Eastern Daylight Time)","348343","Untrustworthy,Trustworthy","","735","","","","decision","","<div class='trialDiv'><img src='Fruit/cherrie.png'><br><font class='baseline'><strong>Cherry Chances</strong><p>Choose number of points to bet.</font><div class='respPicDiv'><img src='img/responseButtonOffersNo0L.png' class='respPic'></div></div>","3","6","Cherry Chances","Fruit/cherrie.png","Lost","0.35,0.8","13","0.35","89","18","",""
"html-keyboard-response","62","92046","0.0-11.0-2.17","5d7850851841fc0001e9c64d","bdp_rwlrn","Mon Mar 13 2023 23:55:14 GMT-0400 (Eastern Daylight Time)","348343","Untrustworthy,Trustworthy","","null","","","","decisionFB","","<div class='trialDiv'><img src='Fruit/cherrie.png'><br><font class='baseline'><strong>Cherry Chances</strong><p>Choose number of points to bet.</font><div class='respPicDiv'><img src='img/responseButtonOffersNo0L3.png' class='respPic'></div></div>","null","6","Cherry Chances","Fruit/cherrie.png","Lost","0.35,0.8","13","0.35","86","18","",""
"html-keyboard-response","63","93048","0.0-11.0-3.17","5d7850851841fc0001e9c64d","bdp_rwlrn","Mon Mar 13 2023 23:55:14 GMT-0400 (Eastern Daylight Time)","348343","Untrustworthy,Trustworthy","","null","","","","feedback","","<div class='respPicDiv'><img src='img/responseButtonOffersNo0_wht.png' class='respPic'></div><div class='trialDiv'><img src='Fruit/cherrie.png'><br><font class='baseline'><strong>Cherry Chances</strong><p><strong><font class='negOutcome'>You LOST</font><p>You bet: 3</strong></font> &nbsp; &nbsp; &nbsp; &nbsp; &nbsp; &nbsp;<font class='negOutcome'>You receive: <strong>0</strong></font></div>","null","6","Cherry Chances","Fruit/cherrie.png","Lost","0.35,0.8","13","0.35","86","18","",""
"html-keyboard-response","64","93799","0.0-11.0-1.18","5d7850851841fc0001e9c64d","bdp_rwlrn","Mon Mar 13 2023 23:55:14 GMT-0400 (Eastern Daylight Time)","348343","Untrustworthy,Trustworthy","","750","","","","decision","","<div class='trialDiv'><img src='Fruit/mango.png'><br><font class='baseline'><strong>Mega Mangos</strong><p>Choose number of points to bet.</font><div class='respPicDiv'><img src='img/responseButtonOffersNo0L.png' class='respPic'></div></div>","1","7","Mega Mangos","Fruit/mango.png","Lost","0.2,0.8","13","0.2","91","19","",""
"html-keyboard-response","65","94052","0.0-11.0-2.18","5d7850851841fc0001e9c64d","bdp_rwlrn","Mon Mar 13 2023 23:55:14 GMT-0400 (Eastern Daylight Time)","348343","Untrustworthy,Trustworthy","","null","","","","decisionFB","","<div class='trialDiv'><img src='Fruit/mango.png'><br><font class='baseline'><strong>Mega Mangos</strong><p>Choose number of points to bet.</font><div class='respPicDiv'><img src='img/responseButtonOffersNo0L1.png' class='respPic'></div></div>","null","7","Mega Mangos","Fruit/mango.png","Lost","0.2,0.8","13","0.2","90","19","",""
"html-keyboard-response","66","95053","0.0-11.0-3.18","5d7850851841fc0001e9c64d","bdp_rwlrn","Mon Mar 13 2023 23:55:14 GMT-0400 (Eastern Daylight Time)","348343","Untrustworthy,Trustworthy","","null","","","","feedback","","<div class='respPicDiv'><img src='img/responseButtonOffersNo0_wht.png' class='respPic'></div><div class='trialDiv'><img src='Fruit/mango.png'><br><font class='baseline'><strong>Mega Mangos</strong><p><strong><font class='negOutcome'>You LOST</font><p>You bet: 1</strong></font> &nbsp; &nbsp; &nbsp; &nbsp; &nbsp; &nbsp;<font class='negOutcome'>You receive: <strong>0</strong></font></div>","null","7","Mega Mangos","Fruit/mango.png","Lost","0.2,0.8","13","0.2","90","19","",""
"html-keyboard-response","67","95860","0.0-11.0-1.19","5d7850851841fc0001e9c64d","bdp_rwlrn","Mon Mar 13 2023 23:55:14 GMT-0400 (Eastern Daylight Time)","348343","Untrustworthy,Trustworthy","","804","","","","decision","","<div class='trialDiv'><img src='Fruit/plums1.png'><br><font class='baseline'><strong>Plum Powerball</strong><p>Choose number of points to bet.</font><div class='respPicDiv'><img src='img/responseButtonOffersNo0L.png' class='respPic'></div></div>","5","7","Plum Powerball","Fruit/plums1.png","Lost","0.65,0.2","13","0.65","95","20","",""
"html-keyboard-response","68","96113","0.0-11.0-2.19","5d7850851841fc0001e9c64d","bdp_rwlrn","Mon Mar 13 2023 23:55:14 GMT-0400 (Eastern Daylight Time)","348343","Untrustworthy,Trustworthy","","null","","","","decisionFB","","<div class='trialDiv'><img src='Fruit/plums1.png'><br><font class='baseline'><strong>Plum Powerball</strong><p>Choose number of points to bet.</font><div class='respPicDiv'><img src='img/responseButtonOffersNo0L5.png' class='respPic'></div></div>","null","7","Plum Powerball","Fruit/plums1.png","Lost","0.65,0.2","13","0.65","90","20","",""
"html-keyboard-response","69","97115","0.0-11.0-3.19","5d7850851841fc0001e9c64d","bdp_rwlrn","Mon Mar 13 2023 23:55:14 GMT-0400 (Eastern Daylight Time)","348343","Untrustworthy,Trustworthy","","null","","","","feedback","","<div class='respPicDiv'><img src='img/responseButtonOffersNo0_wht.png' class='respPic'></div><div class='trialDiv'><img src='Fruit/plums1.png'><br><font class='baseline'><strong>Plum Powerball</strong><p><strong><font class='negOutcome'>You LOST</font><p>You bet: 5</strong></font> &nbsp; &nbsp; &nbsp; &nbsp; &nbsp; &nbsp;<font class='negOutcome'>You receive: <strong>0</strong></font></div>","null","7","Plum Powerball","Fruit/plums1.png","Lost","0.65,0.2","13","0.65","90","20","",""
"html-keyboard-response","70","97948","0.0-11.0-1.20","5d7850851841fc0001e9c64d","bdp_rwlrn","Mon Mar 13 2023 23:55:14 GMT-0400 (Eastern Daylight Time)","348343","Untrustworthy,Trustworthy","","833","","","","decision","","<div class='trialDiv'><img src='Fruit/cherrie.png'><br><font class='baseline'><strong>Cherry Chances</strong><p>Choose number of points to bet.</font><div class='respPicDiv'><img src='img/responseButtonOffersNo0L.png' class='respPic'></div></div>","2","7","Cherry Chances","Fruit/cherrie.png","Won","0.35,0.8","13","0.35","95","21","",""
"html-keyboard-response","71","98201","0.0-11.0-2.20","5d7850851841fc0001e9c64d","bdp_rwlrn","Mon Mar 13 2023 23:55:14 GMT-0400 (Eastern Daylight Time)","348343","Untrustworthy,Trustworthy","","null","","","","decisionFB","","<div class='trialDiv'><img src='Fruit/cherrie.png'><br><font class='baseline'><strong>Cherry Chances</strong><p>Choose number of points to bet.</font><div class='respPicDiv'><img src='img/responseButtonOffersNo0L2.png' class='respPic'></div></div>","null","7","Cherry Chances","Fruit/cherrie.png","Won","0.35,0.8","13","0.35","93","21","",""
"html-keyboard-response","72","99204","0.0-11.0-3.20","5d7850851841fc0001e9c64d","bdp_rwlrn","Mon Mar 13 2023 23:55:14 GMT-0400 (Eastern Daylight Time)","348343","Untrustworthy,Trustworthy","","null","","","","feedback","","<div class='respPicDiv'><img src='img/responseButtonOffersNo0_wht.png' class='respPic'></div><div class='trialDiv'><img src='Fruit/cherrie.png'><br><font class='baseline'><strong>Cherry Chances</strong><p><strong><font class='posOutcome'>You WON</font><p>You bet: 2</strong></font> &nbsp; &nbsp; &nbsp; &nbsp; &nbsp; &nbsp;<font class='posOutcome'>you receive: <strong>4</strong></font></div>","null","7","Cherry Chances","Fruit/cherrie.png","Won","0.35,0.8","13","0.35","97","21","",""
"html-keyboard-response","73","99820","0.0-11.0-1.21","5d7850851841fc0001e9c64d","bdp_rwlrn","Mon Mar 13 2023 23:55:14 GMT-0400 (Eastern Daylight Time)","348343","Untrustworthy,Trustworthy","","615","","","","decision","","<div class='trialDiv'><img src='Fruit/mango.png'><br><font class='baseline'><strong>Mega Mangos</strong><p>Choose number of points to bet.</font><div class='respPicDiv'><img src='img/responseButtonOffersNo0L.png' class='respPic'></div></div>","1","8","Mega Mangos","Fruit/mango.png","Lost","0.2,0.8","13","0.2","102","22","",""
"html-keyboard-response","74","100073","0.0-11.0-2.21","5d7850851841fc0001e9c64d","bdp_rwlrn","Mon Mar 13 2023 23:55:14 GMT-0400 (Eastern Daylight Time)","348343","Untrustworthy,Trustworthy","","null","","","","decisionFB","","<div class='trialDiv'><img src='Fruit/mango.png'><br><font class='baseline'><strong>Mega Mangos</strong><p>Choose number of points to bet.</font><div class='respPicDiv'><img src='img/responseButtonOffersNo0L1.png' class='respPic'></div></div>","null","8","Mega Mangos","Fruit/mango.png","Lost","0.2,0.8","13","0.2","101","22","",""
"html-keyboard-response","75","101076","0.0-11.0-3.21","5d7850851841fc0001e9c64d","bdp_rwlrn","Mon Mar 13 2023 23:55:14 GMT-0400 (Eastern Daylight Time)","348343","Untrustworthy,Trustworthy","","null","","","","feedback","","<div class='respPicDiv'><img src='img/responseButtonOffersNo0_wht.png' class='respPic'></div><div class='trialDiv'><img src='Fruit/mango.png'><br><font class='baseline'><strong>Mega Mangos</strong><p><strong><font class='negOutcome'>You LOST</font><p>You bet: 1</strong></font> &nbsp; &nbsp; &nbsp; &nbsp; &nbsp; &nbsp;<font class='negOutcome'>You receive: <strong>0</strong></font></div>","null","8","Mega Mangos","Fruit/mango.png","Lost","0.2,0.8","13","0.2","101","22","",""
"html-keyboard-response","76","102163","0.0-11.0-1.22","5d7850851841fc0001e9c64d","bdp_rwlrn","Mon Mar 13 2023 23:55:14 GMT-0400 (Eastern Daylight Time)","348343","Untrustworthy,Trustworthy","","1085","","","","decision","","<div class='trialDiv'><img src='Fruit/plums1.png'><br><font class='baseline'><strong>Plum Powerball</strong><p>Choose number of points to bet.</font><div class='respPicDiv'><img src='img/responseButtonOffersNo0L.png' class='respPic'></div></div>","3","8","Plum Powerball","Fruit/plums1.png","Lost","0.65,0.2","13","0.65","106","23","",""
"html-keyboard-response","77","102415","0.0-11.0-2.22","5d7850851841fc0001e9c64d","bdp_rwlrn","Mon Mar 13 2023 23:55:14 GMT-0400 (Eastern Daylight Time)","348343","Untrustworthy,Trustworthy","","null","","","","decisionFB","","<div class='trialDiv'><img src='Fruit/plums1.png'><br><font class='baseline'><strong>Plum Powerball</strong><p>Choose number of points to bet.</font><div class='respPicDiv'><img src='img/responseButtonOffersNo0L3.png' class='respPic'></div></div>","null","8","Plum Powerball","Fruit/plums1.png","Lost","0.65,0.2","13","0.65","103","23","",""
"html-keyboard-response","78","103417","0.0-11.0-3.22","5d7850851841fc0001e9c64d","bdp_rwlrn","Mon Mar 13 2023 23:55:14 GMT-0400 (Eastern Daylight Time)","348343","Untrustworthy,Trustworthy","","null","","","","feedback","","<div class='respPicDiv'><img src='img/responseButtonOffersNo0_wht.png' class='respPic'></div><div class='trialDiv'><img src='Fruit/plums1.png'><br><font class='baseline'><strong>Plum Powerball</strong><p><strong><font class='negOutcome'>You LOST</font><p>You bet: 3</strong></font> &nbsp; &nbsp; &nbsp; &nbsp; &nbsp; &nbsp;<font class='negOutcome'>You receive: <strong>0</strong></font></div>","null","8","Plum Powerball","Fruit/plums1.png","Lost","0.65,0.2","13","0.65","103","23","",""
"html-keyboard-response","79","103885","0.0-11.0-1.23","5d7850851841fc0001e9c64d","bdp_rwlrn","Mon Mar 13 2023 23:55:14 GMT-0400 (Eastern Daylight Time)","348343","Untrustworthy,Trustworthy","","466","","","","decision","","<div class='trialDiv'><img src='Fruit/cherrie.png'><br><font class='baseline'><strong>Cherry Chances</strong><p>Choose number of points to bet.</font><div class='respPicDiv'><img src='img/responseButtonOffersNo0L.png' class='respPic'></div></div>","3","8","Cherry Chances","Fruit/cherrie.png","Lost","0.35,0.8","13","0.35","108","24","",""
"html-keyboard-response","80","104138","0.0-11.0-2.23","5d7850851841fc0001e9c64d","bdp_rwlrn","Mon Mar 13 2023 23:55:14 GMT-0400 (Eastern Daylight Time)","348343","Untrustworthy,Trustworthy","","null","","","","decisionFB","","<div class='trialDiv'><img src='Fruit/cherrie.png'><br><font class='baseline'><strong>Cherry Chances</strong><p>Choose number of points to bet.</font><div class='respPicDiv'><img src='img/responseButtonOffersNo0L3.png' class='respPic'></div></div>","null","8","Cherry Chances","Fruit/cherrie.png","Lost","0.35,0.8","13","0.35","105","24","",""
"html-keyboard-response","81","105140","0.0-11.0-3.23","5d7850851841fc0001e9c64d","bdp_rwlrn","Mon Mar 13 2023 23:55:14 GMT-0400 (Eastern Daylight Time)","348343","Untrustworthy,Trustworthy","","null","","","","feedback","","<div class='respPicDiv'><img src='img/responseButtonOffersNo0_wht.png' class='respPic'></div><div class='trialDiv'><img src='Fruit/cherrie.png'><br><font class='baseline'><strong>Cherry Chances</strong><p><strong><font class='negOutcome'>You LOST</font><p>You bet: 3</strong></font> &nbsp; &nbsp; &nbsp; &nbsp; &nbsp; &nbsp;<font class='negOutcome'>You receive: <strong>0</strong></font></div>","null","8","Cherry Chances","Fruit/cherrie.png","Lost","0.35,0.8","13","0.35","105","24","",""
"html-keyboard-response","82","105965","0.0-11.0-1.24","5d7850851841fc0001e9c64d","bdp_rwlrn","Mon Mar 13 2023 23:55:14 GMT-0400 (Eastern Daylight Time)","348343","Untrustworthy,Trustworthy","","823","","","","decision","","<div class='trialDiv'><img src='Fruit/plums1.png'><br><font class='baseline'><strong>Plum Powerball</strong><p>Choose number of points to bet.</font><div class='respPicDiv'><img src='img/responseButtonOffersNo0L.png' class='respPic'></div></div>","3","9","Plum Powerball","Fruit/plums1.png","Won","0.65,0.2","13","0.65","110","25","",""
"html-keyboard-response","83","106217","0.0-11.0-2.24","5d7850851841fc0001e9c64d","bdp_rwlrn","Mon Mar 13 2023 23:55:14 GMT-0400 (Eastern Daylight Time)","348343","Untrustworthy,Trustworthy","","null","","","","decisionFB","","<div class='trialDiv'><img src='Fruit/plums1.png'><br><font class='baseline'><strong>Plum Powerball</strong><p>Choose number of points to bet.</font><div class='respPicDiv'><img src='img/responseButtonOffersNo0L3.png' class='respPic'></div></div>","null","9","Plum Powerball","Fruit/plums1.png","Won","0.65,0.2","13","0.65","107","25","",""
"html-keyboard-response","84","107219","0.0-11.0-3.24","5d7850851841fc0001e9c64d","bdp_rwlrn","Mon Mar 13 2023 23:55:14 GMT-0400 (Eastern Daylight Time)","348343","Untrustworthy,Trustworthy","","null","","","","feedback","","<div class='respPicDiv'><img src='img/responseButtonOffersNo0_wht.png' class='respPic'></div><div class='trialDiv'><img src='Fruit/plums1.png'><br><font class='baseline'><strong>Plum Powerball</strong><p><strong><font class='posOutcome'>You WON</font><p>You bet: 3</strong></font> &nbsp; &nbsp; &nbsp; &nbsp; &nbsp; &nbsp;<font class='posOutcome'>you receive: <strong>6</strong></font></div>","null","9","Plum Powerball","Fruit/plums1.png","Won","0.65,0.2","13","0.65","113","25","",""
"html-keyboard-response","85","107951","0.0-11.0-1.25","5d7850851841fc0001e9c64d","bdp_rwlrn","Mon Mar 13 2023 23:55:14 GMT-0400 (Eastern Daylight Time)","348343","Untrustworthy,Trustworthy","","729","","","","decision","","<div class='trialDiv'><img src='Fruit/mango.png'><br><font class='baseline'><strong>Mega Mangos</strong><p>Choose number of points to bet.</font><div class='respPicDiv'><img src='img/responseButtonOffersNo0L.png' class='respPic'></div></div>","1","9","Mega Mangos","Fruit/mango.png","Lost","0.2,0.8","13","0.2","118","26","",""
"html-keyboard-response","86","108203","0.0-11.0-2.25","5d7850851841fc0001e9c64d","bdp_rwlrn","Mon Mar 13 2023 23:55:14 GMT-0400 (Eastern Daylight Time)","348343","Untrustworthy,Trustworthy","","null","","","","decisionFB","","<div class='trialDiv'><img src='Fruit/mango.png'><br><font class='baseline'><strong>Mega Mangos</strong><p>Choose number of points to bet.</font><div class='respPicDiv'><img src='img/responseButtonOffersNo0L1.png' class='respPic'></div></div>","null","9","Mega Mangos","Fruit/mango.png","Lost","0.2,0.8","13","0.2","117","26","",""
"html-keyboard-response","87","109205","0.0-11.0-3.25","5d7850851841fc0001e9c64d","bdp_rwlrn","Mon Mar 13 2023 23:55:14 GMT-0400 (Eastern Daylight Time)","348343","Untrustworthy,Trustworthy","","null","","","","feedback","","<div class='respPicDiv'><img src='img/responseButtonOffersNo0_wht.png' class='respPic'></div><div class='trialDiv'><img src='Fruit/mango.png'><br><font class='baseline'><strong>Mega Mangos</strong><p><strong><font class='negOutcome'>You LOST</font><p>You bet: 1</strong></font> &nbsp; &nbsp; &nbsp; &nbsp; &nbsp; &nbsp;<font class='negOutcome'>You receive: <strong>0</strong></font></div>","null","9","Mega Mangos","Fruit/mango.png","Lost","0.2,0.8","13","0.2","117","26","",""
"html-keyboard-response","88","109582","0.0-11.0-1.26","5d7850851841fc0001e9c64d","bdp_rwlrn","Mon Mar 13 2023 23:55:14 GMT-0400 (Eastern Daylight Time)","348343","Untrustworthy,Trustworthy","","376","","","","decision","","<div class='trialDiv'><img src='Fruit/cherrie.png'><br><font class='baseline'><strong>Cherry Chances</strong><p>Choose number of points to bet.</font><div class='respPicDiv'><img src='img/responseButtonOffersNo0L.png' class='respPic'></div></div>","4","9","Cherry Chances","Fruit/cherrie.png","Won","0.35,0.8","13","0.35","122","27","",""
"html-keyboard-response","89","109835","0.0-11.0-2.26","5d7850851841fc0001e9c64d","bdp_rwlrn","Mon Mar 13 2023 23:55:14 GMT-0400 (Eastern Daylight Time)","348343","Untrustworthy,Trustworthy","","null","","","","decisionFB","","<div class='trialDiv'><img src='Fruit/cherrie.png'><br><font class='baseline'><strong>Cherry Chances</strong><p>Choose number of points to bet.</font><div class='respPicDiv'><img src='img/responseButtonOffersNo0L4.png' class='respPic'></div></div>","null","9","Cherry Chances","Fruit/cherrie.png","Won","0.35,0.8","13","0.35","118","27","",""
"html-keyboard-response","90","110838","0.0-11.0-3.26","5d7850851841fc0001e9c64d","bdp_rwlrn","Mon Mar 13 2023 23:55:14 GMT-0400 (Eastern Daylight Time)","348343","Untrustworthy,Trustworthy","","null","","","","feedback","","<div class='respPicDiv'><img src='img/responseButtonOffersNo0_wht.png' class='respPic'></div><div class='trialDiv'><img src='Fruit/cherrie.png'><br><font class='baseline'><strong>Cherry Chances</strong><p><strong><font class='posOutcome'>You WON</font><p>You bet: 4</strong></font> &nbsp; &nbsp; &nbsp; &nbsp; &nbsp; &nbsp;<font class='posOutcome'>you receive: <strong>8</strong></font></div>","null","9","Cherry Chances","Fruit/cherrie.png","Won","0.35,0.8","13","0.35","126","27","",""
"html-keyboard-response","91","111628","0.0-11.0-1.27","5d7850851841fc0001e9c64d","bdp_rwlrn","Mon Mar 13 2023 23:55:14 GMT-0400 (Eastern Daylight Time)","348343","Untrustworthy,Trustworthy","","788","","","","decision","","<div class='trialDiv'><img src='Fruit/plums1.png'><br><font class='baseline'><strong>Plum Powerball</strong><p>Choose number of points to bet.</font><div class='respPicDiv'><img src='img/responseButtonOffersNo0L.png' class='respPic'></div></div>","5","10","Plum Powerball","Fruit/plums1.png","Won","0.65,0.2","13","0.65","131","28","",""
"html-keyboard-response","92","111879","0.0-11.0-2.27","5d7850851841fc0001e9c64d","bdp_rwlrn","Mon Mar 13 2023 23:55:14 GMT-0400 (Eastern Daylight Time)","348343","Untrustworthy,Trustworthy","","null","","","","decisionFB","","<div class='trialDiv'><img src='Fruit/plums1.png'><br><font class='baseline'><strong>Plum Powerball</strong><p>Choose number of points to bet.</font><div class='respPicDiv'><img src='img/responseButtonOffersNo0L5.png' class='respPic'></div></div>","null","10","Plum Powerball","Fruit/plums1.png","Won","0.65,0.2","13","0.65","126","28","",""
"html-keyboard-response","93","112882","0.0-11.0-3.27","5d7850851841fc0001e9c64d","bdp_rwlrn","Mon Mar 13 2023 23:55:14 GMT-0400 (Eastern Daylight Time)","348343","Untrustworthy,Trustworthy","","null","","","","feedback","","<div class='respPicDiv'><img src='img/responseButtonOffersNo0_wht.png' class='respPic'></div><div class='trialDiv'><img src='Fruit/plums1.png'><br><font class='baseline'><strong>Plum Powerball</strong><p><strong><font class='posOutcome'>You WON</font><p>You bet: 5</strong></font> &nbsp; &nbsp; &nbsp; &nbsp; &nbsp; &nbsp;<font class='posOutcome'>you receive: <strong>10</strong></font></div>","null","10","Plum Powerball","Fruit/plums1.png","Won","0.65,0.2","13","0.65","136","28","",""
"html-keyboard-response","94","113469","0.0-11.0-1.28","5d7850851841fc0001e9c64d","bdp_rwlrn","Mon Mar 13 2023 23:55:14 GMT-0400 (Eastern Daylight Time)","348343","Untrustworthy,Trustworthy","","585","","","","decision","","<div class='trialDiv'><img src='Fruit/mango.png'><br><font class='baseline'><strong>Mega Mangos</strong><p>Choose number of points to bet.</font><div class='respPicDiv'><img src='img/responseButtonOffersNo0L.png' class='respPic'></div></div>","1","10","Mega Mangos","Fruit/mango.png","Lost","0.2,0.8","13","0.2","141","29","",""
"html-keyboard-response","95","113721","0.0-11.0-2.28","5d7850851841fc0001e9c64d","bdp_rwlrn","Mon Mar 13 2023 23:55:14 GMT-0400 (Eastern Daylight Time)","348343","Untrustworthy,Trustworthy","","null","","","","decisionFB","","<div class='trialDiv'><img src='Fruit/mango.png'><br><font class='baseline'><strong>Mega Mangos</strong><p>Choose number of points to bet.</font><div class='respPicDiv'><img src='img/responseButtonOffersNo0L1.png' class='respPic'></div></div>","null","10","Mega Mangos","Fruit/mango.png","Lost","0.2,0.8","13","0.2","140","29","",""
"html-keyboard-response","96","114724","0.0-11.0-3.28","5d7850851841fc0001e9c64d","bdp_rwlrn","Mon Mar 13 2023 23:55:14 GMT-0400 (Eastern Daylight Time)","348343","Untrustworthy,Trustworthy","","null","","","","feedback","","<div class='respPicDiv'><img src='img/responseButtonOffersNo0_wht.png' class='respPic'></div><div class='trialDiv'><img src='Fruit/mango.png'><br><font class='baseline'><strong>Mega Mangos</strong><p><strong><font class='negOutcome'>You LOST</font><p>You bet: 1</strong></font> &nbsp; &nbsp; &nbsp; &nbsp; &nbsp; &nbsp;<font class='negOutcome'>You receive: <strong>0</strong></font></div>","null","10","Mega Mangos","Fruit/mango.png","Lost","0.2,0.8","13","0.2","140","29","",""
"html-keyboard-response","97","115121","0.0-11.0-1.29","5d7850851841fc0001e9c64d","bdp_rwlrn","Mon Mar 13 2023 23:55:14 GMT-0400 (Eastern Daylight Time)","348343","Untrustworthy,Trustworthy","","395","","","","decision","","<div class='trialDiv'><img src='Fruit/cherrie.png'><br><font class='baseline'><strong>Cherry Chances</strong><p>Choose number of points to bet.</font><div class='respPicDiv'><img src='img/responseButtonOffersNo0L.png' class='respPic'></div></div>","3","10","Cherry Chances","Fruit/cherrie.png","Won","0.35,0.8","13","0.35","145","30","",""
"html-keyboard-response","98","115373","0.0-11.0-2.29","5d7850851841fc0001e9c64d","bdp_rwlrn","Mon Mar 13 2023 23:55:14 GMT-0400 (Eastern Daylight Time)","348343","Untrustworthy,Trustworthy","","null","","","","decisionFB","","<div class='trialDiv'><img src='Fruit/cherrie.png'><br><font class='baseline'><strong>Cherry Chances</strong><p>Choose number of points to bet.</font><div class='respPicDiv'><img src='img/responseButtonOffersNo0L3.png' class='respPic'></div></div>","null","10","Cherry Chances","Fruit/cherrie.png","Won","0.35,0.8","13","0.35","142","30","",""
"html-keyboard-response","99","116376","0.0-11.0-3.29","5d7850851841fc0001e9c64d","bdp_rwlrn","Mon Mar 13 2023 23:55:14 GMT-0400 (Eastern Daylight Time)","348343","Untrustworthy,Trustworthy","","null","","","","feedback","","<div class='respPicDiv'><img src='img/responseButtonOffersNo0_wht.png' class='respPic'></div><div class='trialDiv'><img src='Fruit/cherrie.png'><br><font class='baseline'><strong>Cherry Chances</strong><p><strong><font class='posOutcome'>You WON</font><p>You bet: 3</strong></font> &nbsp; &nbsp; &nbsp; &nbsp; &nbsp; &nbsp;<font class='posOutcome'>you receive: <strong>6</strong></font></div>","null","10","Cherry Chances","Fruit/cherrie.png","Won","0.35,0.8","13","0.35","148","30","",""
"html-keyboard-response","100","117171","0.0-11.0-1.30","5d7850851841fc0001e9c64d","bdp_rwlrn","Mon Mar 13 2023 23:55:14 GMT-0400 (Eastern Daylight Time)","348343","Untrustworthy,Trustworthy","","794","","","","decision","","<div class='trialDiv'><img src='Fruit/mango.png'><br><font class='baseline'><strong>Mega Mangos</strong><p>Choose number of points to bet.</font><div class='respPicDiv'><img src='img/responseButtonOffersNo0L.png' class='respPic'></div></div>","1","11","Mega Mangos","Fruit/mango.png","Lost","0.2,0.8","13","0.2","153","31","",""
"html-keyboard-response","101","117423","0.0-11.0-2.30","5d7850851841fc0001e9c64d","bdp_rwlrn","Mon Mar 13 2023 23:55:14 GMT-0400 (Eastern Daylight Time)","348343","Untrustworthy,Trustworthy","","null","","","","decisionFB","","<div class='trialDiv'><img src='Fruit/mango.png'><br><font class='baseline'><strong>Mega Mangos</strong><p>Choose number of points to bet.</font><div class='respPicDiv'><img src='img/responseButtonOffersNo0L1.png' class='respPic'></div></div>","null","11","Mega Mangos","Fruit/mango.png","Lost","0.2,0.8","13","0.2","152","31","",""
"html-keyboard-response","102","118427","0.0-11.0-3.30","5d7850851841fc0001e9c64d","bdp_rwlrn","Mon Mar 13 2023 23:55:14 GMT-0400 (Eastern Daylight Time)","348343","Untrustworthy,Trustworthy","","null","","","","feedback","","<div class='respPicDiv'><img src='img/responseButtonOffersNo0_wht.png' class='respPic'></div><div class='trialDiv'><img src='Fruit/mango.png'><br><font class='baseline'><strong>Mega Mangos</strong><p><strong><font class='negOutcome'>You LOST</font><p>You bet: 1</strong></font> &nbsp; &nbsp; &nbsp; &nbsp; &nbsp; &nbsp;<font class='negOutcome'>You receive: <strong>0</strong></font></div>","null","11","Mega Mangos","Fruit/mango.png","Lost","0.2,0.8","13","0.2","152","31","",""
"html-keyboard-response","103","119191","0.0-11.0-1.31","5d7850851841fc0001e9c64d","bdp_rwlrn","Mon Mar 13 2023 23:55:14 GMT-0400 (Eastern Daylight Time)","348343","Untrustworthy,Trustworthy","","763","","","","decision","","<div class='trialDiv'><img src='Fruit/plums1.png'><br><font class='baseline'><strong>Plum Powerball</strong><p>Choose number of points to bet.</font><div class='respPicDiv'><img src='img/responseButtonOffersNo0L.png' class='respPic'></div></div>","3","11","Plum Powerball","Fruit/plums1.png","Lost","0.65,0.2","13","0.65","157","32","",""
"html-keyboard-response","104","119444","0.0-11.0-2.31","5d7850851841fc0001e9c64d","bdp_rwlrn","Mon Mar 13 2023 23:55:14 GMT-0400 (Eastern Daylight Time)","348343","Untrustworthy,Trustworthy","","null","","","","decisionFB","","<div class='trialDiv'><img src='Fruit/plums1.png'><br><font class='baseline'><strong>Plum Powerball</strong><p>Choose number of points to bet.</font><div class='respPicDiv'><img src='img/responseButtonOffersNo0L3.png' class='respPic'></div></div>","null","11","Plum Powerball","Fruit/plums1.png","Lost","0.65,0.2","13","0.65","154","32","",""
"html-keyboard-response","105","120447","0.0-11.0-3.31","5d7850851841fc0001e9c64d","bdp_rwlrn","Mon Mar 13 2023 23:55:14 GMT-0400 (Eastern Daylight Time)","348343","Untrustworthy,Trustworthy","","null","","","","feedback","","<div class='respPicDiv'><img src='img/responseButtonOffersNo0_wht.png' class='respPic'></div><div class='trialDiv'><img src='Fruit/plums1.png'><br><font class='baseline'><strong>Plum Powerball</strong><p><strong><font class='negOutcome'>You LOST</font><p>You bet: 3</strong></font> &nbsp; &nbsp; &nbsp; &nbsp; &nbsp; &nbsp;<font class='negOutcome'>You receive: <strong>0</strong></font></div>","null","11","Plum Powerball","Fruit/plums1.png","Lost","0.65,0.2","13","0.65","154","32","",""
"html-keyboard-response","106","121187","0.0-11.0-1.32","5d7850851841fc0001e9c64d","bdp_rwlrn","Mon Mar 13 2023 23:55:14 GMT-0400 (Eastern Daylight Time)","348343","Untrustworthy,Trustworthy","","738","","","","decision","","<div class='trialDiv'><img src='Fruit/cherrie.png'><br><font class='baseline'><strong>Cherry Chances</strong><p>Choose number of points to bet.</font><div class='respPicDiv'><img src='img/responseButtonOffersNo0L.png' class='respPic'></div></div>","5","11","Cherry Chances","Fruit/cherrie.png","Won","0.35,0.8","13","0.35","159","33","",""
"html-keyboard-response","107","121440","0.0-11.0-2.32","5d7850851841fc0001e9c64d","bdp_rwlrn","Mon Mar 13 2023 23:55:14 GMT-0400 (Eastern Daylight Time)","348343","Untrustworthy,Trustworthy","","null","","","","decisionFB","","<div class='trialDiv'><img src='Fruit/cherrie.png'><br><font class='baseline'><strong>Cherry Chances</strong><p>Choose number of points to bet.</font><div class='respPicDiv'><img src='img/responseButtonOffersNo0L5.png' class='respPic'></div></div>","null","11","Cherry Chances","Fruit/cherrie.png","Won","0.35,0.8","13","0.35","154","33","",""
"html-keyboard-response","108","122444","0.0-11.0-3.32","5d7850851841fc0001e9c64d","bdp_rwlrn","Mon Mar 13 2023 23:55:14 GMT-0400 (Eastern Daylight Time)","348343","Untrustworthy,Trustworthy","","null","","","","feedback","","<div class='respPicDiv'><img src='img/responseButtonOffersNo0_wht.png' class='respPic'></div><div class='trialDiv'><img src='Fruit/cherrie.png'><br><font class='baseline'><strong>Cherry Chances</strong><p><strong><font class='posOutcome'>You WON</font><p>You bet: 5</strong></font> &nbsp; &nbsp; &nbsp; &nbsp; &nbsp; &nbsp;<font class='posOutcome'>you receive: <strong>10</strong></font></div>","null","11","Cherry Chances","Fruit/cherrie.png","Won","0.35,0.8","13","0.35","164","33","",""
"html-keyboard-response","109","123456","0.0-11.0-1.33","5d7850851841fc0001e9c64d","bdp_rwlrn","Mon Mar 13 2023 23:55:14 GMT-0400 (Eastern Daylight Time)","348343","Untrustworthy,Trustworthy","","1011","","","","decision","","<div class='trialDiv'><img src='Fruit/plums1.png'><br><font class='baseline'><strong>Plum Powerball</strong><p>Choose number of points to bet.</font><div class='respPicDiv'><img src='img/responseButtonOffersNo0L.png' class='respPic'></div></div>","3","12","Plum Powerball","Fruit/plums1.png","Lost","0.65,0.2","13","0.65","169","34","",""
"html-keyboard-response","110","123708","0.0-11.0-2.33","5d7850851841fc0001e9c64d","bdp_rwlrn","Mon Mar 13 2023 23:55:14 GMT-0400 (Eastern Daylight Time)","348343","Untrustworthy,Trustworthy","","null","","","","decisionFB","","<div class='trialDiv'><img src='Fruit/plums1.png'><br><font class='baseline'><strong>Plum Powerball</strong><p>Choose number of points to bet.</font><div class='respPicDiv'><img src='img/responseButtonOffersNo0L3.png' class='respPic'></div></div>","null","12","Plum Powerball","Fruit/plums1.png","Lost","0.65,0.2","13","0.65","166","34","",""
"html-keyboard-response","111","124710","0.0-11.0-3.33","5d7850851841fc0001e9c64d","bdp_rwlrn","Mon Mar 13 2023 23:55:14 GMT-0400 (Eastern Daylight Time)","348343","Untrustworthy,Trustworthy","","null","","","","feedback","","<div class='respPicDiv'><img src='img/responseButtonOffersNo0_wht.png' class='respPic'></div><div class='trialDiv'><img src='Fruit/plums1.png'><br><font class='baseline'><strong>Plum Powerball</strong><p><strong><font class='negOutcome'>You LOST</font><p>You bet: 3</strong></font> &nbsp; &nbsp; &nbsp; &nbsp; &nbsp; &nbsp;<font class='negOutcome'>You receive: <strong>0</strong></font></div>","null","12","Plum Powerball","Fruit/plums1.png","Lost","0.65,0.2","13","0.65","166","34","",""
"html-keyboard-response","112","125347","0.0-11.0-1.34","5d7850851841fc0001e9c64d","bdp_rwlrn","Mon Mar 13 2023 23:55:14 GMT-0400 (Eastern Daylight Time)","348343","Untrustworthy,Trustworthy","","635","","","","decision","","<div class='trialDiv'><img src='Fruit/mango.png'><br><font class='baseline'><strong>Mega Mangos</strong><p>Choose number of points to bet.</font><div class='respPicDiv'><img src='img/responseButtonOffersNo0L.png' class='respPic'></div></div>","1","12","Mega Mangos","Fruit/mango.png","Lost","0.2,0.8","13","0.2","171","35","",""
"html-keyboard-response","113","125600","0.0-11.0-2.34","5d7850851841fc0001e9c64d","bdp_rwlrn","Mon Mar 13 2023 23:55:14 GMT-0400 (Eastern Daylight Time)","348343","Untrustworthy,Trustworthy","","null","","","","decisionFB","","<div class='trialDiv'><img src='Fruit/mango.png'><br><font class='baseline'><strong>Mega Mangos</strong><p>Choose number of points to bet.</font><div class='respPicDiv'><img src='img/responseButtonOffersNo0L1.png' class='respPic'></div></div>","null","12","Mega Mangos","Fruit/mango.png","Lost","0.2,0.8","13","0.2","170","35","",""
"html-keyboard-response","114","126603","0.0-11.0-3.34","5d7850851841fc0001e9c64d","bdp_rwlrn","Mon Mar 13 2023 23:55:14 GMT-0400 (Eastern Daylight Time)","348343","Untrustworthy,Trustworthy","","null","","","","feedback","","<div class='respPicDiv'><img src='img/responseButtonOffersNo0_wht.png' class='respPic'></div><div class='trialDiv'><img src='Fruit/mango.png'><br><font class='baseline'><strong>Mega Mangos</strong><p><strong><font class='negOutcome'>You LOST</font><p>You bet: 1</strong></font> &nbsp; &nbsp; &nbsp; &nbsp; &nbsp; &nbsp;<font class='negOutcome'>You receive: <strong>0</strong></font></div>","null","12","Mega Mangos","Fruit/mango.png","Lost","0.2,0.8","13","0.2","170","35","",""
"html-keyboard-response","115","127307","0.0-11.0-1.35","5d7850851841fc0001e9c64d","bdp_rwlrn","Mon Mar 13 2023 23:55:14 GMT-0400 (Eastern Daylight Time)","348343","Untrustworthy,Trustworthy","","703","","","","decision","","<div class='trialDiv'><img src='Fruit/cherrie.png'><br><font class='baseline'><strong>Cherry Chances</strong><p>Choose number of points to bet.</font><div class='respPicDiv'><img src='img/responseButtonOffersNo0L.png' class='respPic'></div></div>","5","12","Cherry Chances","Fruit/cherrie.png","Lost","0.35,0.8","13","0.35","175","36","",""
"html-keyboard-response","116","127559","0.0-11.0-2.35","5d7850851841fc0001e9c64d","bdp_rwlrn","Mon Mar 13 2023 23:55:14 GMT-0400 (Eastern Daylight Time)","348343","Untrustworthy,Trustworthy","","null","","","","decisionFB","","<div class='trialDiv'><img src='Fruit/cherrie.png'><br><font class='baseline'><strong>Cherry Chances</strong><p>Choose number of points to bet.</font><div class='respPicDiv'><img src='img/responseButtonOffersNo0L5.png' class='respPic'></div></div>","null","12","Cherry Chances","Fruit/cherrie.png","Lost","0.35,0.8","13","0.35","170","36","",""
"html-keyboard-response","117","128561","0.0-11.0-3.35","5d7850851841fc0001e9c64d","bdp_rwlrn","Mon Mar 13 2023 23:55:14 GMT-0400 (Eastern Daylight Time)","348343","Untrustworthy,Trustworthy","","null","","","","feedback","","<div class='respPicDiv'><img src='img/responseButtonOffersNo0_wht.png' class='respPic'></div><div class='trialDiv'><img src='Fruit/cherrie.png'><br><font class='baseline'><strong>Cherry Chances</strong><p><strong><font class='negOutcome'>You LOST</font><p>You bet: 5</strong></font> &nbsp; &nbsp; &nbsp; &nbsp; &nbsp; &nbsp;<font class='negOutcome'>You receive: <strong>0</strong></font></div>","null","12","Cherry Chances","Fruit/cherrie.png","Lost","0.35,0.8","13","0.35","170","36","",""
"html-keyboard-response","118","129443","0.0-11.0-1.36","5d7850851841fc0001e9c64d","bdp_rwlrn","Mon Mar 13 2023 23:55:14 GMT-0400 (Eastern Daylight Time)","348343","Untrustworthy,Trustworthy","","880","","","","decision","","<div class='trialDiv'><img src='Fruit/mango.png'><br><font class='baseline'><strong>Mega Mangos</strong><p>Choose number of points to bet.</font><div class='respPicDiv'><img src='img/responseButtonOffersNo0L.png' class='respPic'></div></div>","1","13","Mega Mangos","Fruit/mango.png","Won","0.2,0.8","13","0.2","175","37","",""
"html-keyboard-response","119","129695","0.0-11.0-2.36","5d7850851841fc0001e9c64d","bdp_rwlrn","Mon Mar 13 2023 23:55:14 GMT-0400 (Eastern Daylight Time)","348343","Untrustworthy,Trustworthy","","null","","","","decisionFB","","<div class='trialDiv'><img src='Fruit/mango.png'><br><font class='baseline'><strong>Mega Mangos</strong><p>Choose number of points to bet.</font><div class='respPicDiv'><img src='img/responseButtonOffersNo0L1.png' class='respPic'></div></div>","null","13","Mega Mangos","Fruit/mango.png","Won","0.2,0.8","13","0.2","174","37","",""
"html-keyboard-response","120","130698","0.0-11.0-3.36","5d7850851841fc0001e9c64d","bdp_rwlrn","Mon Mar 13 2023 23:55:14 GMT-0400 (Eastern Daylight Time)","348343","Untrustworthy,Trustworthy","","null","","","","feedback","","<div class='respPicDiv'><img src='img/responseButtonOffersNo0_wht.png' class='respPic'></div><div class='trialDiv'><img src='Fruit/mango.png'><br><font class='baseline'><strong>Mega Mangos</strong><p><strong><font class='posOutcome'>You WON</font><p>You bet: 1</strong></font> &nbsp; &nbsp; &nbsp; &nbsp; &nbsp; &nbsp;<font class='posOutcome'>you receive: <strong>2</strong></font></div>","null","13","Mega Mangos","Fruit/mango.png","Won","0.2,0.8","13","0.2","176","37","",""
"html-keyboard-response","121","131762","0.0-11.0-1.37","5d7850851841fc0001e9c64d","bdp_rwlrn","Mon Mar 13 2023 23:55:14 GMT-0400 (Eastern Daylight Time)","348343","Untrustworthy,Trustworthy","","1061","","","","decision","","<div class='trialDiv'><img src='Fruit/plums1.png'><br><font class='baseline'><strong>Plum Powerball</strong><p>Choose number of points to bet.</font><div class='respPicDiv'><img src='img/responseButtonOffersNo0L.png' class='respPic'></div></div>","3","13","Plum Powerball","Fruit/plums1.png","Lost","0.65,0.2","13","0.65","181","38","",""
"html-keyboard-response","122","132013","0.0-11.0-2.37","5d7850851841fc0001e9c64d","bdp_rwlrn","Mon Mar 13 2023 23:55:14 GMT-0400 (Eastern Daylight Time)","348343","Untrustworthy,Trustworthy","","null","","","","decisionFB","","<div class='trialDiv'><img src='Fruit/plums1.png'><br><font class='baseline'><strong>Plum Powerball</strong><p>Choose number of points to bet.</font><div class='respPicDiv'><img src='img/responseButtonOffersNo0L3.png' class='respPic'></div></div>","null","13","Plum Powerball","Fruit/plums1.png","Lost","0.65,0.2","13","0.65","178","38","",""
"html-keyboard-response","123","133028","0.0-11.0-3.37","5d7850851841fc0001e9c64d","bdp_rwlrn","Mon Mar 13 2023 23:55:14 GMT-0400 (Eastern Daylight Time)","348343","Untrustworthy,Trustworthy","","null","","","","feedback","","<div class='respPicDiv'><img src='img/responseButtonOffersNo0_wht.png' class='respPic'></div><div class='trialDiv'><img src='Fruit/plums1.png'><br><font class='baseline'><strong>Plum Powerball</strong><p><strong><font class='negOutcome'>You LOST</font><p>You bet: 3</strong></font> &nbsp; &nbsp; &nbsp; &nbsp; &nbsp; &nbsp;<font class='negOutcome'>You receive: <strong>0</strong></font></div>","null","13","Plum Powerball","Fruit/plums1.png","Lost","0.65,0.2","13","0.65","178","38","",""
"html-keyboard-response","124","133598","0.0-11.0-1.38","5d7850851841fc0001e9c64d","bdp_rwlrn","Mon Mar 13 2023 23:55:14 GMT-0400 (Eastern Daylight Time)","348343","Untrustworthy,Trustworthy","","567","","","","decision","","<div class='trialDiv'><img src='Fruit/cherrie.png'><br><font class='baseline'><strong>Cherry Chances</strong><p>Choose number of points to bet.</font><div class='respPicDiv'><img src='img/responseButtonOffersNo0L.png' class='respPic'></div></div>","3","13","Cherry Chances","Fruit/cherrie.png","Lost","0.35,0.8","13","0.35","183","39","",""
"html-keyboard-response","125","133849","0.0-11.0-2.38","5d7850851841fc0001e9c64d","bdp_rwlrn","Mon Mar 13 2023 23:55:14 GMT-0400 (Eastern Daylight Time)","348343","Untrustworthy,Trustworthy","","null","","","","decisionFB","","<div class='trialDiv'><img src='Fruit/cherrie.png'><br><font class='baseline'><strong>Cherry Chances</strong><p>Choose number of points to bet.</font><div class='respPicDiv'><img src='img/responseButtonOffersNo0L3.png' class='respPic'></div></div>","null","13","Cherry Chances","Fruit/cherrie.png","Lost","0.35,0.8","13","0.35","180","39","",""
"html-keyboard-response","126","134851","0.0-11.0-3.38","5d7850851841fc0001e9c64d","bdp_rwlrn","Mon Mar 13 2023 23:55:14 GMT-0400 (Eastern Daylight Time)","348343","Untrustworthy,Trustworthy","","null","","","","feedback","","<div class='respPicDiv'><img src='img/responseButtonOffersNo0_wht.png' class='respPic'></div><div class='trialDiv'><img src='Fruit/cherrie.png'><br><font class='baseline'><strong>Cherry Chances</strong><p><strong><font class='negOutcome'>You LOST</font><p>You bet: 3</strong></font> &nbsp; &nbsp; &nbsp; &nbsp; &nbsp; &nbsp;<font class='negOutcome'>You receive: <strong>0</strong></font></div>","null","13","Cherry Chances","Fruit/cherrie.png","Lost","0.35,0.8","13","0.35","180","39","",""
"html-keyboard-response","127","135768","0.0-11.0-1.39","5d7850851841fc0001e9c64d","bdp_rwlrn","Mon Mar 13 2023 23:55:14 GMT-0400 (Eastern Daylight Time)","348343","Untrustworthy,Trustworthy","","914","","","","decision","","<div class='trialDiv'><img src='Fruit/mango.png'><br><font class='baseline'><strong>Mega Mangos</strong><p>Choose number of points to bet.</font><div class='respPicDiv'><img src='img/responseButtonOffersNo0L.png' class='respPic'></div></div>","1","14","Mega Mangos","Fruit/mango.png","Won","0.2,0.8","13","0.2","185","40","",""
"html-keyboard-response","128","136020","0.0-11.0-2.39","5d7850851841fc0001e9c64d","bdp_rwlrn","Mon Mar 13 2023 23:55:14 GMT-0400 (Eastern Daylight Time)","348343","Untrustworthy,Trustworthy","","null","","","","decisionFB","","<div class='trialDiv'><img src='Fruit/mango.png'><br><font class='baseline'><strong>Mega Mangos</strong><p>Choose number of points to bet.</font><div class='respPicDiv'><img src='img/responseButtonOffersNo0L1.png' class='respPic'></div></div>","null","14","Mega Mangos","Fruit/mango.png","Won","0.2,0.8","13","0.2","184","40","",""
"html-keyboard-response","129","137023","0.0-11.0-3.39","5d7850851841fc0001e9c64d","bdp_rwlrn","Mon Mar 13 2023 23:55:14 GMT-0400 (Eastern Daylight Time)","348343","Untrustworthy,Trustworthy","","null","","","","feedback","","<div class='respPicDiv'><img src='img/responseButtonOffersNo0_wht.png' class='respPic'></div><div class='trialDiv'><img src='Fruit/mango.png'><br><font class='baseline'><strong>Mega Mangos</strong><p><strong><font class='posOutcome'>You WON</font><p>You bet: 1</strong></font> &nbsp; &nbsp; &nbsp; &nbsp; &nbsp; &nbsp;<font class='posOutcome'>you receive: <strong>2</strong></font></div>","null","14","Mega Mangos","Fruit/mango.png","Won","0.2,0.8","13","0.2","186","40","",""
"html-keyboard-response","130","137705","0.0-11.0-1.40","5d7850851841fc0001e9c64d","bdp_rwlrn","Mon Mar 13 2023 23:55:14 GMT-0400 (Eastern Daylight Time)","348343","Untrustworthy,Trustworthy","","681","","","","decision","","<div class='trialDiv'><img src='Fruit/plums1.png'><br><font class='baseline'><strong>Plum Powerball</strong><p>Choose number of points to bet.</font><div class='respPicDiv'><img src='img/responseButtonOffersNo0L.png' class='respPic'></div></div>","2","14","Plum Powerball","Fruit/plums1.png","Lost","0.65,0.2","13","0.65","191","41","",""
"html-keyboard-response","131","137957","0.0-11.0-2.40","5d7850851841fc0001e9c64d","bdp_rwlrn","Mon Mar 13 2023 23:55:14 GMT-0400 (Eastern Daylight Time)","348343","Untrustworthy,Trustworthy","","null","","","","decisionFB","","<div class='trialDiv'><img src='Fruit/plums1.png'><br><font class='baseline'><strong>Plum Powerball</strong><p>Choose number of points to bet.</font><div class='respPicDiv'><img src='img/responseButtonOffersNo0L2.png' class='respPic'></div></div>","null","14","Plum Powerball","Fruit/plums1.png","Lost","0.65,0.2","13","0.65","189","41","",""
"html-keyboard-response","132","138960","0.0-11.0-3.40","5d7850851841fc0001e9c64d","bdp_rwlrn","Mon Mar 13 2023 23:55:14 GMT-0400 (Eastern Daylight Time)","348343","Untrustworthy,Trustworthy","","null","","","","feedback","","<div class='respPicDiv'><img src='img/responseButtonOffersNo0_wht.png' class='respPic'></div><div class='trialDiv'><img src='Fruit/plums1.png'><br><font class='baseline'><strong>Plum Powerball</strong><p><strong><font class='negOutcome'>You LOST</font><p>You bet: 2</strong></font> &nbsp; &nbsp; &nbsp; &nbsp; &nbsp; &nbsp;<font class='negOutcome'>You receive: <strong>0</strong></font></div>","null","14","Plum Powerball","Fruit/plums1.png","Lost","0.65,0.2","13","0.65","189","41","",""
"html-keyboard-response","133","139177","0.0-11.0-1.41","5d7850851841fc0001e9c64d","bdp_rwlrn","Mon Mar 13 2023 23:55:14 GMT-0400 (Eastern Daylight Time)","348343","Untrustworthy,Trustworthy","","214","","","","decision","","<div class='trialDiv'><img src='Fruit/cherrie.png'><br><font class='baseline'><strong>Cherry Chances</strong><p>Choose number of points to bet.</font><div class='respPicDiv'><img src='img/responseButtonOffersNo0L.png' class='respPic'></div></div>","3","14","Cherry Chances","Fruit/cherrie.png","Won","0.35,0.8","13","0.35","194","42","",""
"html-keyboard-response","134","139429","0.0-11.0-2.41","5d7850851841fc0001e9c64d","bdp_rwlrn","Mon Mar 13 2023 23:55:14 GMT-0400 (Eastern Daylight Time)","348343","Untrustworthy,Trustworthy","","null","","","","decisionFB","","<div class='trialDiv'><img src='Fruit/cherrie.png'><br><font class='baseline'><strong>Cherry Chances</strong><p>Choose number of points to bet.</font><div class='respPicDiv'><img src='img/responseButtonOffersNo0L3.png' class='respPic'></div></div>","null","14","Cherry Chances","Fruit/cherrie.png","Won","0.35,0.8","13","0.35","191","42","",""
"html-keyboard-response","135","140432","0.0-11.0-3.41","5d7850851841fc0001e9c64d","bdp_rwlrn","Mon Mar 13 2023 23:55:14 GMT-0400 (Eastern Daylight Time)","348343","Untrustworthy,Trustworthy","","null","","","","feedback","","<div class='respPicDiv'><img src='img/responseButtonOffersNo0_wht.png' class='respPic'></div><div class='trialDiv'><img src='Fruit/cherrie.png'><br><font class='baseline'><strong>Cherry Chances</strong><p><strong><font class='posOutcome'>You WON</font><p>You bet: 3</strong></font> &nbsp; &nbsp; &nbsp; &nbsp; &nbsp; &nbsp;<font class='posOutcome'>you receive: <strong>6</strong></font></div>","null","14","Cherry Chances","Fruit/cherrie.png","Won","0.35,0.8","13","0.35","197","42","",""
"html-keyboard-response","136","141044","0.0-11.0-1.42","5d7850851841fc0001e9c64d","bdp_rwlrn","Mon Mar 13 2023 23:55:14 GMT-0400 (Eastern Daylight Time)","348343","Untrustworthy,Trustworthy","","609","","","","decision","","<div class='trialDiv'><img src='Fruit/mango.png'><br><font class='baseline'><strong>Mega Mangos</strong><p>Choose number of points to bet.</font><div class='respPicDiv'><img src='img/responseButtonOffersNo0L.png' class='respPic'></div></div>","1","15","Mega Mangos","Fruit/mango.png","Won","0.2,0.8","13","0.2","202","43","",""
"html-keyboard-response","137","141298","0.0-11.0-2.42","5d7850851841fc0001e9c64d","bdp_rwlrn","Mon Mar 13 2023 23:55:14 GMT-0400 (Eastern Daylight Time)","348343","Untrustworthy,Trustworthy","","null","","","","decisionFB","","<div class='trialDiv'><img src='Fruit/mango.png'><br><font class='baseline'><strong>Mega Mangos</strong><p>Choose number of points to bet.</font><div class='respPicDiv'><img src='img/responseButtonOffersNo0L1.png' class='respPic'></div></div>","null","15","Mega Mangos","Fruit/mango.png","Won","0.2,0.8","13","0.2","201","43","",""
"html-keyboard-response","138","142302","0.0-11.0-3.42","5d7850851841fc0001e9c64d","bdp_rwlrn","Mon Mar 13 2023 23:55:14 GMT-0400 (Eastern Daylight Time)","348343","Untrustworthy,Trustworthy","","null","","","","feedback","","<div class='respPicDiv'><img src='img/responseButtonOffersNo0_wht.png' class='respPic'></div><div class='trialDiv'><img src='Fruit/mango.png'><br><font class='baseline'><strong>Mega Mangos</strong><p><strong><font class='posOutcome'>You WON</font><p>You bet: 1</strong></font> &nbsp; &nbsp; &nbsp; &nbsp; &nbsp; &nbsp;<font class='posOutcome'>you receive: <strong>2</strong></font></div>","null","15","Mega Mangos","Fruit/mango.png","Won","0.2,0.8","13","0.2","203","43","",""
"html-keyboard-response","139","142905","0.0-11.0-1.43","5d7850851841fc0001e9c64d","bdp_rwlrn","Mon Mar 13 2023 23:55:14 GMT-0400 (Eastern Daylight Time)","348343","Untrustworthy,Trustworthy","","602","","","","decision","","<div class='trialDiv'><img src='Fruit/plums1.png'><br><font class='baseline'><strong>Plum Powerball</strong><p>Choose number of points to bet.</font><div class='respPicDiv'><img src='img/responseButtonOffersNo0L.png' class='respPic'></div></div>","5","15","Plum Powerball","Fruit/plums1.png","Won","0.65,0.2","13","0.65","208","44","",""
"html-keyboard-response","140","143157","0.0-11.0-2.43","5d7850851841fc0001e9c64d","bdp_rwlrn","Mon Mar 13 2023 23:55:14 GMT-0400 (Eastern Daylight Time)","348343","Untrustworthy,Trustworthy","","null","","","","decisionFB","","<div class='trialDiv'><img src='Fruit/plums1.png'><br><font class='baseline'><strong>Plum Powerball</strong><p>Choose number of points to bet.</font><div class='respPicDiv'><img src='img/responseButtonOffersNo0L5.png' class='respPic'></div></div>","null","15","Plum Powerball","Fruit/plums1.png","Won","0.65,0.2","13","0.65","203","44","",""
"html-keyboard-response","141","144159","0.0-11.0-3.43","5d7850851841fc0001e9c64d","bdp_rwlrn","Mon Mar 13 2023 23:55:14 GMT-0400 (Eastern Daylight Time)","348343","Untrustworthy,Trustworthy","","null","","","","feedback","","<div class='respPicDiv'><img src='img/responseButtonOffersNo0_wht.png' class='respPic'></div><div class='trialDiv'><img src='Fruit/plums1.png'><br><font class='baseline'><strong>Plum Powerball</strong><p><strong><font class='posOutcome'>You WON</font><p>You bet: 5</strong></font> &nbsp; &nbsp; &nbsp; &nbsp; &nbsp; &nbsp;<font class='posOutcome'>you receive: <strong>10</strong></font></div>","null","15","Plum Powerball","Fruit/plums1.png","Won","0.65,0.2","13","0.65","213","44","",""
"html-keyboard-response","142","144447","0.0-11.0-1.44","5d7850851841fc0001e9c64d","bdp_rwlrn","Mon Mar 13 2023 23:55:14 GMT-0400 (Eastern Daylight Time)","348343","Untrustworthy,Trustworthy","","287","","","","decision","","<div class='trialDiv'><img src='Fruit/cherrie.png'><br><font class='baseline'><strong>Cherry Chances</strong><p>Choose number of points to bet.</font><div class='respPicDiv'><img src='img/responseButtonOffersNo0L.png' class='respPic'></div></div>","3","15","Cherry Chances","Fruit/cherrie.png","Won","0.35,0.8","13","0.35","218","45","",""
"html-keyboard-response","143","144700","0.0-11.0-2.44","5d7850851841fc0001e9c64d","bdp_rwlrn","Mon Mar 13 2023 23:55:14 GMT-0400 (Eastern Daylight Time)","348343","Untrustworthy,Trustworthy","","null","","","","decisionFB","","<div class='trialDiv'><img src='Fruit/cherrie.png'><br><font class='baseline'><strong>Cherry Chances</strong><p>Choose number of points to bet.</font><div class='respPicDiv'><img src='img/responseButtonOffersNo0L3.png' class='respPic'></div></div>","null","15","Cherry Chances","Fruit/cherrie.png","Won","0.35,0.8","13","0.35","215","45","",""
"html-keyboard-response","144","145702","0.0-11.0-3.44","5d7850851841fc0001e9c64d","bdp_rwlrn","Mon Mar 13 2023 23:55:14 GMT-0400 (Eastern Daylight Time)","348343","Untrustworthy,Trustworthy","","null","","","","feedback","","<div class='respPicDiv'><img src='img/responseButtonOffersNo0_wht.png' class='respPic'></div><div class='trialDiv'><img src='Fruit/cherrie.png'><br><font class='baseline'><strong>Cherry Chances</strong><p><strong><font class='posOutcome'>You WON</font><p>You bet: 3</strong></font> &nbsp; &nbsp; &nbsp; &nbsp; &nbsp; &nbsp;<font class='posOutcome'>you receive: <strong>6</strong></font></div>","null","15","Cherry Chances","Fruit/cherrie.png","Won","0.35,0.8","13","0.35","221","45","",""
"html-keyboard-response","145","146229","0.0-11.0-1.45","5d7850851841fc0001e9c64d","bdp_rwlrn","Mon Mar 13 2023 23:55:14 GMT-0400 (Eastern Daylight Time)","348343","Untrustworthy,Trustworthy","","525","","","","decision","","<div class='trialDiv'><img src='Fruit/mango.png'><br><font class='baseline'><strong>Mega Mangos</strong><p>Choose number of points to bet.</font><div class='respPicDiv'><img src='img/responseButtonOffersNo0L.png' class='respPic'></div></div>","1","16","Mega Mangos","Fruit/mango.png","Won","0.2,0.8","13","0.2","226","46","",""
"html-keyboard-response","146","146482","0.0-11.0-2.45","5d7850851841fc0001e9c64d","bdp_rwlrn","Mon Mar 13 2023 23:55:14 GMT-0400 (Eastern Daylight Time)","348343","Untrustworthy,Trustworthy","","null","","","","decisionFB","","<div class='trialDiv'><img src='Fruit/mango.png'><br><font class='baseline'><strong>Mega Mangos</strong><p>Choose number of points to bet.</font><div class='respPicDiv'><img src='img/responseButtonOffersNo0L1.png' class='respPic'></div></div>","null","16","Mega Mangos","Fruit/mango.png","Won","0.2,0.8","13","0.2","225","46","",""
"html-keyboard-response","147","147485","0.0-11.0-3.45","5d7850851841fc0001e9c64d","bdp_rwlrn","Mon Mar 13 2023 23:55:14 GMT-0400 (Eastern Daylight Time)","348343","Untrustworthy,Trustworthy","","null","","","","feedback","","<div class='respPicDiv'><img src='img/responseButtonOffersNo0_wht.png' class='respPic'></div><div class='trialDiv'><img src='Fruit/mango.png'><br><font class='baseline'><strong>Mega Mangos</strong><p><strong><font class='posOutcome'>You WON</font><p>You bet: 1</strong></font> &nbsp; &nbsp; &nbsp; &nbsp; &nbsp; &nbsp;<font class='posOutcome'>you receive: <strong>2</strong></font></div>","null","16","Mega Mangos","Fruit/mango.png","Won","0.2,0.8","13","0.2","227","46","",""
"html-keyboard-response","148","148249","0.0-11.0-1.46","5d7850851841fc0001e9c64d","bdp_rwlrn","Mon Mar 13 2023 23:55:14 GMT-0400 (Eastern Daylight Time)","348343","Untrustworthy,Trustworthy","","762","","","","decision","","<div class='trialDiv'><img src='Fruit/plums1.png'><br><font class='baseline'><strong>Plum Powerball</strong><p>Choose number of points to bet.</font><div class='respPicDiv'><img src='img/responseButtonOffersNo0L.png' class='respPic'></div></div>","4","16","Plum Powerball","Fruit/plums1.png","Lost","0.65,0.2","13","0.65","232","47","",""
"html-keyboard-response","149","148501","0.0-11.0-2.46","5d7850851841fc0001e9c64d","bdp_rwlrn","Mon Mar 13 2023 23:55:14 GMT-0400 (Eastern Daylight Time)","348343","Untrustworthy,Trustworthy","","null","","","","decisionFB","","<div class='trialDiv'><img src='Fruit/plums1.png'><br><font class='baseline'><strong>Plum Powerball</strong><p>Choose number of points to bet.</font><div class='respPicDiv'><img src='img/responseButtonOffersNo0L4.png' class='respPic'></div></div>","null","16","Plum Powerball","Fruit/plums1.png","Lost","0.65,0.2","13","0.65","228","47","",""
"html-keyboard-response","150","149504","0.0-11.0-3.46","5d7850851841fc0001e9c64d","bdp_rwlrn","Mon Mar 13 2023 23:55:14 GMT-0400 (Eastern Daylight Time)","348343","Untrustworthy,Trustworthy","","null","","","","feedback","","<div class='respPicDiv'><img src='img/responseButtonOffersNo0_wht.png' class='respPic'></div><div class='trialDiv'><img src='Fruit/plums1.png'><br><font class='baseline'><strong>Plum Powerball</strong><p><strong><font class='negOutcome'>You LOST</font><p>You bet: 4</strong></font> &nbsp; &nbsp; &nbsp; &nbsp; &nbsp; &nbsp;<font class='negOutcome'>You receive: <strong>0</strong></font></div>","null","16","Plum Powerball","Fruit/plums1.png","Lost","0.65,0.2","13","0.65","228","47","",""
"html-keyboard-response","151","149748","0.0-11.0-1.47","5d7850851841fc0001e9c64d","bdp_rwlrn","Mon Mar 13 2023 23:55:14 GMT-0400 (Eastern Daylight Time)","348343","Untrustworthy,Trustworthy","","242","","","","decision","","<div class='trialDiv'><img src='Fruit/cherrie.png'><br><font class='baseline'><strong>Cherry Chances</strong><p>Choose number of points to bet.</font><div class='respPicDiv'><img src='img/responseButtonOffersNo0L.png' class='respPic'></div></div>","4","16","Cherry Chances","Fruit/cherrie.png","Won","0.35,0.8","13","0.35","233","48","",""
"html-keyboard-response","152","150007","0.0-11.0-2.47","5d7850851841fc0001e9c64d","bdp_rwlrn","Mon Mar 13 2023 23:55:14 GMT-0400 (Eastern Daylight Time)","348343","Untrustworthy,Trustworthy","","null","","","","decisionFB","","<div class='trialDiv'><img src='Fruit/cherrie.png'><br><font class='baseline'><strong>Cherry Chances</strong><p>Choose number of points to bet.</font><div class='respPicDiv'><img src='img/responseButtonOffersNo0L4.png' class='respPic'></div></div>","null","16","Cherry Chances","Fruit/cherrie.png","Won","0.35,0.8","13","0.35","229","48","",""
"html-keyboard-response","153","151010","0.0-11.0-3.47","5d7850851841fc0001e9c64d","bdp_rwlrn","Mon Mar 13 2023 23:55:14 GMT-0400 (Eastern Daylight Time)","348343","Untrustworthy,Trustworthy","","null","","","","feedback","","<div class='respPicDiv'><img src='img/responseButtonOffersNo0_wht.png' class='respPic'></div><div class='trialDiv'><img src='Fruit/cherrie.png'><br><font class='baseline'><strong>Cherry Chances</strong><p><strong><font class='posOutcome'>You WON</font><p>You bet: 4</strong></font> &nbsp; &nbsp; &nbsp; &nbsp; &nbsp; &nbsp;<font class='posOutcome'>you receive: <strong>8</strong></font></div>","null","16","Cherry Chances","Fruit/cherrie.png","Won","0.35,0.8","13","0.35","237","48","",""
"html-keyboard-response","154","151903","0.0-11.0-1.48","5d7850851841fc0001e9c64d","bdp_rwlrn","Mon Mar 13 2023 23:55:14 GMT-0400 (Eastern Daylight Time)","348343","Untrustworthy,Trustworthy","","891","","","","decision","","<div class='trialDiv'><img src='Fruit/plums1.png'><br><font class='baseline'><strong>Plum Powerball</strong><p>Choose number of points to bet.</font><div class='respPicDiv'><img src='img/responseButtonOffersNo0L.png' class='respPic'></div></div>","2","17","Plum Powerball","Fruit/plums1.png","Lost","0.65,0.2","13","0.65","242","49","",""
"html-keyboard-response","155","152155","0.0-11.0-2.48","5d7850851841fc0001e9c64d","bdp_rwlrn","Mon Mar 13 2023 23:55:14 GMT-0400 (Eastern Daylight Time)","348343","Untrustworthy,Trustworthy","","null","","","","decisionFB","","<div class='trialDiv'><img src='Fruit/plums1.png'><br><font class='baseline'><strong>Plum Powerball</strong><p>Choose number of points to bet.</font><div class='respPicDiv'><img src='img/responseButtonOffersNo0L2.png' class='respPic'></div></div>","null","17","Plum Powerball","Fruit/plums1.png","Lost","0.65,0.2","13","0.65","240","49","",""
"html-keyboard-response","156","153166","0.0-11.0-3.48","5d7850851841fc0001e9c64d","bdp_rwlrn","Mon Mar 13 2023 23:55:14 GMT-0400 (Eastern Daylight Time)","348343","Untrustworthy,Trustworthy","","null","","","","feedback","","<div class='respPicDiv'><img src='img/responseButtonOffersNo0_wht.png' class='respPic'></div><div class='trialDiv'><img src='Fruit/plums1.png'><br><font class='baseline'><strong>Plum Powerball</strong><p><strong><font class='negOutcome'>You LOST</font><p>You bet: 2</strong></font> &nbsp; &nbsp; &nbsp; &nbsp; &nbsp; &nbsp;<font class='negOutcome'>You receive: <strong>0</strong></font></div>","null","17","Plum Powerball","Fruit/plums1.png","Lost","0.65,0.2","13","0.65","240","49","",""
"html-keyboard-response","157","153657","0.0-11.0-1.49","5d7850851841fc0001e9c64d","bdp_rwlrn","Mon Mar 13 2023 23:55:14 GMT-0400 (Eastern Daylight Time)","348343","Untrustworthy,Trustworthy","","488","","","","decision","","<div class='trialDiv'><img src='Fruit/mango.png'><br><font class='baseline'><strong>Mega Mangos</strong><p>Choose number of points to bet.</font><div class='respPicDiv'><img src='img/responseButtonOffersNo0L.png' class='respPic'></div></div>","1","17","Mega Mangos","Fruit/mango.png","Won","0.2,0.8","13","0.2","245","50","",""
"html-keyboard-response","158","153909","0.0-11.0-2.49","5d7850851841fc0001e9c64d","bdp_rwlrn","Mon Mar 13 2023 23:55:14 GMT-0400 (Eastern Daylight Time)","348343","Untrustworthy,Trustworthy","","null","","","","decisionFB","","<div class='trialDiv'><img src='Fruit/mango.png'><br><font class='baseline'><strong>Mega Mangos</strong><p>Choose number of points to bet.</font><div class='respPicDiv'><img src='img/responseButtonOffersNo0L1.png' class='respPic'></div></div>","null","17","Mega Mangos","Fruit/mango.png","Won","0.2,0.8","13","0.2","244","50","",""
"html-keyboard-response","159","154912","0.0-11.0-3.49","5d7850851841fc0001e9c64d","bdp_rwlrn","Mon Mar 13 2023 23:55:14 GMT-0400 (Eastern Daylight Time)","348343","Untrustworthy,Trustworthy","","null","","","","feedback","","<div class='respPicDiv'><img src='img/responseButtonOffersNo0_wht.png' class='respPic'></div><div class='trialDiv'><img src='Fruit/mango.png'><br><font class='baseline'><strong>Mega Mangos</strong><p><strong><font class='posOutcome'>You WON</font><p>You bet: 1</strong></font> &nbsp; &nbsp; &nbsp; &nbsp; &nbsp; &nbsp;<font class='posOutcome'>you receive: <strong>2</strong></font></div>","null","17","Mega Mangos","Fruit/mango.png","Won","0.2,0.8","13","0.2","246","50","",""
"html-keyboard-response","160","156171","0.0-11.0-1.50","5d7850851841fc0001e9c64d","bdp_rwlrn","Mon Mar 13 2023 23:55:14 GMT-0400 (Eastern Daylight Time)","348343","Untrustworthy,Trustworthy","","1258","","","","decision","","<div class='trialDiv'><img src='Fruit/cherrie.png'><br><font class='baseline'><strong>Cherry Chances</strong><p>Choose number of points to bet.</font><div class='respPicDiv'><img src='img/responseButtonOffersNo0L.png' class='respPic'></div></div>","4","17","Cherry Chances","Fruit/cherrie.png","Won","0.35,0.8","13","0.35","251","51","",""
"html-keyboard-response","161","156423","0.0-11.0-2.50","5d7850851841fc0001e9c64d","bdp_rwlrn","Mon Mar 13 2023 23:55:14 GMT-0400 (Eastern Daylight Time)","348343","Untrustworthy,Trustworthy","","null","","","","decisionFB","","<div class='trialDiv'><img src='Fruit/cherrie.png'><br><font class='baseline'><strong>Cherry Chances</strong><p>Choose number of points to bet.</font><div class='respPicDiv'><img src='img/responseButtonOffersNo0L4.png' class='respPic'></div></div>","null","17","Cherry Chances","Fruit/cherrie.png","Won","0.35,0.8","13","0.35","247","51","",""
"html-keyboard-response","162","157430","0.0-11.0-3.50","5d7850851841fc0001e9c64d","bdp_rwlrn","Mon Mar 13 2023 23:55:14 GMT-0400 (Eastern Daylight Time)","348343","Untrustworthy,Trustworthy","","null","","","","feedback","","<div class='respPicDiv'><img src='img/responseButtonOffersNo0_wht.png' class='respPic'></div><div class='trialDiv'><img src='Fruit/cherrie.png'><br><font class='baseline'><strong>Cherry Chances</strong><p><strong><font class='posOutcome'>You WON</font><p>You bet: 4</strong></font> &nbsp; &nbsp; &nbsp; &nbsp; &nbsp; &nbsp;<font class='posOutcome'>you receive: <strong>8</strong></font></div>","null","17","Cherry Chances","Fruit/cherrie.png","Won","0.35,0.8","13","0.35","255","51","",""
"html-keyboard-response","163","158393","0.0-11.0-1.51","5d7850851841fc0001e9c64d","bdp_rwlrn","Mon Mar 13 2023 23:55:14 GMT-0400 (Eastern Daylight Time)","348343","Untrustworthy,Trustworthy","","962","","","","decision","","<div class='trialDiv'><img src='Fruit/plums1.png'><br><font class='baseline'><strong>Plum Powerball</strong><p>Choose number of points to bet.</font><div class='respPicDiv'><img src='img/responseButtonOffersNo0L.png' class='respPic'></div></div>","3","18","Plum Powerball","Fruit/plums1.png","Lost","0.65,0.2","13","0.65","260","52","",""
