"trial_type","trial_index","time_elapsed","internal_node_id","subject_id","task","startTime","totalTime","labels","view_history","rt","event","trial","time","trialtype","numBlurs","success","stimulus","key_press","ltround","name","fileID","outcome","lottotype","lottoswpt","lottocurrpshare","point_total","round","faceID","face"
"pavlovia","0","7","0.0-0.0","63ea5b93d1c6d38e1f57dcfa","bdp_rwlrn","Sat Apr 08 2023 12:04:00 GMT-0400 (Eastern Daylight Time)","405089","Trustworthy,Untrustworthy","","","","","","","","","","","","","","","","","","","","",""
"instructions","1","5476","0.0-1.0","63ea5b93d1c6d38e1f57dcfa","bdp_rwlrn","Sat Apr 08 2023 12:04:00 GMT-0400 (Eastern Daylight Time)","405089","Trustworthy,Untrustworthy","[{""page_index"":0,""viewing_time"":5469}]","5469","","","","","","","","","","","","","","","","","","",""
"","","","","63ea5b93d1c6d38e1f57dcfa","bdp_rwlrn","Sat Apr 08 2023 12:04:00 GMT-0400 (Eastern Daylight Time)","405089","Trustworthy,Untrustworthy","","","blur","2","13424","blurevent","1","","","","","","","","","","","","","",""
"","","","","63ea5b93d1c6d38e1f57dcfa","bdp_rwlrn","Sat Apr 08 2023 12:04:00 GMT-0400 (Eastern Daylight Time)","405089","Trustworthy,Untrustworthy","","","focus","2","15803","focusevent","","","","","","","","","","","","","","",""
"","","","","63ea5b93d1c6d38e1f57dcfa","bdp_rwlrn","Sat Apr 08 2023 12:04:00 GMT-0400 (Eastern Daylight Time)","405089","Trustworthy,Untrustworthy","","","fullscreenexit","2","16815","fullscreenexit","","","","","","","","","","","","","","",""
"fullscreen","2","17606","0.0-2.0","63ea5b93d1c6d38e1f57dcfa","bdp_rwlrn","Sat Apr 08 2023 12:04:00 GMT-0400 (Eastern Daylight Time)","405089","Trustworthy,Untrustworthy","","","","","","","","true","","","","","","","","","","","","",""
"image-keyboard-response","3","26216","0.0-3.0-0.0","63ea5b93d1c6d38e1f57dcfa","bdp_rwlrn","Sat Apr 08 2023 12:04:00 GMT-0400 (Eastern Daylight Time)","405089","Trustworthy,Untrustworthy","","8608","","","","fullscreenfail","","","","32","","","","","","","","","","",""
"instructions","4","97152","0.0-4.0","63ea5b93d1c6d38e1f57dcfa","bdp_rwlrn","Sat Apr 08 2023 12:04:00 GMT-0400 (Eastern Daylight Time)","405089","Trustworthy,Untrustworthy","[{""page_index"":0,""viewing_time"":13663},{""page_index"":1,""viewing_time"":15167},{""page_index"":2,""viewing_time"":11187},{""page_index"":3,""viewing_time"":9223},{""page_index"":4,""viewing_time"":17988},{""page_index"":5,""viewing_time"":3451}]","70679","","","","","","","","","","","","","","","","","","",""
"html-keyboard-response","5","104853","0.0-5.0","63ea5b93d1c6d38e1f57dcfa","bdp_rwlrn","Sat Apr 08 2023 12:04:00 GMT-0400 (Eastern Daylight Time)","405089","Trustworthy,Untrustworthy","","7701","","","","","","","<div class='header' style='text-align:left; position: absolute; top: 5%; left: 5%;'><small>Task 1 of 5</small></div><div class='instruxDiv'><p><strong>1) What is the maximum number of points you can choose to bet on a lottery?</strong></p><p>a) 0</p><p>b) 1</p><p>c) 5</p>","C","","","","","","","","","","",""
"html-keyboard-response","6","106504","0.0-6.0","63ea5b93d1c6d38e1f57dcfa","bdp_rwlrn","Sat Apr 08 2023 12:04:00 GMT-0400 (Eastern Daylight Time)","405089","Trustworthy,Untrustworthy","","1547","","","","","","","<div class='header' style='text-align:left; position: absolute; top: 5%; left: 5%;'><small>Task 1 of 5</small></div><div class='instruxDiv'><p><strong>1) What is the maximum number of points you can choose to bet on a lottery?</strong></p><p>a) 1</p><p>b) 1</p><p style='color:#00FF00'>c) 5</p><h3 style='color:#00FF00'>Correct!</h3><h3 class='center-content'>The correct response is c).</h3><h3 class='center-content'>The maximum number of points you can choose to bet on a lottery is 5 points.</h3><p><em>Press SPACEBAR to continue</em></p></div>"," ","","","","","","","","","","",""
"html-keyboard-response","7","113163","0.0-7.0","63ea5b93d1c6d38e1f57dcfa","bdp_rwlrn","Sat Apr 08 2023 12:04:00 GMT-0400 (Eastern Daylight Time)","405089","Trustworthy,Untrustworthy","","6549","","","","","","","<div class='header' style='text-align:left; position: absolute; top: 5%; left: 5%;'><small>Task 1 of 5</small></div><div class='instruxDiv'><p><strong>2) How many points can you win each round?</strong></p><p>a) 10 points</p><p>b) Double what you bet</p><p>c) Quadruple what you bet</p>","C","","","","","","","","","","",""
"html-keyboard-response","8","115901","0.0-8.0","63ea5b93d1c6d38e1f57dcfa","bdp_rwlrn","Sat Apr 08 2023 12:04:00 GMT-0400 (Eastern Daylight Time)","405089","Trustworthy,Untrustworthy","","2630","","","","","","","<div class='header' style='text-align:left; position: absolute; top: 5%; left: 5%;'><small>Task 1 of 5</small></div><div class='instruxDiv'><p><strong>2) How many points can you win each round?</strong></p><p>a) 10 points</p><p>b) Double what you bet</p><p style='color:#FF0000'>c) Quadruple what you bet</p><h3 style='color:#FF0000'>Incorrect!</h3><h3 class='center-content'>The correct response is b).</h3><h3 class='center-content'>You can win double the amount of points you bet.</h3><p><em>Press SPACEBAR to continue</em></p></div>"," ","","","","","","","","","","",""
"html-keyboard-response","9","121018","0.0-9.0","63ea5b93d1c6d38e1f57dcfa","bdp_rwlrn","Sat Apr 08 2023 12:04:00 GMT-0400 (Eastern Daylight Time)","405089","Trustworthy,Untrustworthy","","null","","","","","","","<div class='header' style='text-align:left; position: absolute; top: 5%; left: 5%;'><small>Task 1 of 5</small></div><div class='instruxDiv'><p>Thank you for completing the quiz<p>These are the actual lotteries you will be playing in the next block:<p><div class='tc' align='center'><img class='introPic' src='Fruit/pears.png'><br><strong>Pears Aplenty</strong></div><div class='bl' align='center'><img class='introPic' src='Fruit/orange.png'><br><strong>Odds are Orange</strong></div><div class='br' align='center'><img class='introPic' src='Fruit/papayas.png'><br><strong>Papaya Payday</strong></div></div><p>Across <strong>66 rounds</strong> you will play each lottery <strong>22 times</strong> (in random order).<p style='align:center; color:white'><font <em>Press SPACEBAR to continue</em></p>","null","","","","","","","","","","",""
"instructions","10","125896","0.0-10.0","63ea5b93d1c6d38e1f57dcfa","bdp_rwlrn","Sat Apr 08 2023 12:04:00 GMT-0400 (Eastern Daylight Time)","405089","Trustworthy,Untrustworthy","[{""page_index"":0,""viewing_time"":2745},{""page_index"":1,""viewing_time"":2133}]","4878","","","","","","","","","","","","","","","","","","",""
"html-keyboard-response","11","126752","0.0-11.0-1.0","63ea5b93d1c6d38e1f57dcfa","bdp_rwlrn","Sat Apr 08 2023 12:04:00 GMT-0400 (Eastern Daylight Time)","405089","Trustworthy,Untrustworthy","","741","","","","decision","","","<div class='trialDiv'><img src='Fruit/papayas.png'><br><font class='baseline'><strong>Papaya Payday</strong><p>Choose number of points to bet.</font><div class='respPicDiv'><img src='img/responseButtonOffersNo0L.png' class='respPic'></div></div>","1","1","Papaya Payday","Fruit/papayas.png","Lost","0.2,0.8","8","0.2","5","1","",""
"html-keyboard-response","12","127005","0.0-11.0-2.0","63ea5b93d1c6d38e1f57dcfa","bdp_rwlrn","Sat Apr 08 2023 12:04:00 GMT-0400 (Eastern Daylight Time)","405089","Trustworthy,Untrustworthy","","null","","","","decisionFB","","","<div class='trialDiv'><img src='Fruit/papayas.png'><br><font class='baseline'><strong>Papaya Payday</strong><p>Choose number of points to bet.</font><div class='respPicDiv'><img src='img/responseButtonOffersNo0L1.png' class='respPic'></div></div>","null","1","Papaya Payday","Fruit/papayas.png","Lost","0.2,0.8","8","0.2","4","1","",""
"html-keyboard-response","13","128007","0.0-11.0-3.0","63ea5b93d1c6d38e1f57dcfa","bdp_rwlrn","Sat Apr 08 2023 12:04:00 GMT-0400 (Eastern Daylight Time)","405089","Trustworthy,Untrustworthy","","null","","","","feedback","","","<div class='respPicDiv'><img src='img/responseButtonOffersNo0_wht.png' class='respPic'></div><div class='trialDiv'><img src='Fruit/papayas.png'><br><font class='baseline'><strong>Papaya Payday</strong><p><strong><font class='negOutcome'>You LOST</font><p>You bet: 1</strong></font> &nbsp; &nbsp; &nbsp; &nbsp; &nbsp; &nbsp;<font class='negOutcome'>You receive: <strong>0</strong></font></div>","null","1","Papaya Payday","Fruit/papayas.png","Lost","0.2,0.8","8","0.2","4","1","",""
"html-keyboard-response","14","129116","0.0-11.0-1.1","63ea5b93d1c6d38e1f57dcfa","bdp_rwlrn","Sat Apr 08 2023 12:04:00 GMT-0400 (Eastern Daylight Time)","405089","Trustworthy,Untrustworthy","","1109","","","","decision","","","<div class='trialDiv'><img src='Fruit/pears.png'><br><font class='baseline'><strong>Pears Aplenty</strong><p>Choose number of points to bet.</font><div class='respPicDiv'><img src='img/responseButtonOffersNo0L.png' class='respPic'></div></div>","1","1","Pears Aplenty","Fruit/pears.png","Lost","0.35,0.8","9","0.35","9","2","",""
"html-keyboard-response","15","129382","0.0-11.0-2.1","63ea5b93d1c6d38e1f57dcfa","bdp_rwlrn","Sat Apr 08 2023 12:04:00 GMT-0400 (Eastern Daylight Time)","405089","Trustworthy,Untrustworthy","","null","","","","decisionFB","","","<div class='trialDiv'><img src='Fruit/pears.png'><br><font class='baseline'><strong>Pears Aplenty</strong><p>Choose number of points to bet.</font><div class='respPicDiv'><img src='img/responseButtonOffersNo0L1.png' class='respPic'></div></div>","null","1","Pears Aplenty","Fruit/pears.png","Lost","0.35,0.8","9","0.35","8","2","",""
"html-keyboard-response","16","130395","0.0-11.0-3.1","63ea5b93d1c6d38e1f57dcfa","bdp_rwlrn","Sat Apr 08 2023 12:04:00 GMT-0400 (Eastern Daylight Time)","405089","Trustworthy,Untrustworthy","","null","","","","feedback","","","<div class='respPicDiv'><img src='img/responseButtonOffersNo0_wht.png' class='respPic'></div><div class='trialDiv'><img src='Fruit/pears.png'><br><font class='baseline'><strong>Pears Aplenty</strong><p><strong><font class='negOutcome'>You LOST</font><p>You bet: 1</strong></font> &nbsp; &nbsp; &nbsp; &nbsp; &nbsp; &nbsp;<font class='negOutcome'>You receive: <strong>0</strong></font></div>","null","1","Pears Aplenty","Fruit/pears.png","Lost","0.35,0.8","9","0.35","8","2","",""
"html-keyboard-response","17","131645","0.0-11.0-1.2","63ea5b93d1c6d38e1f57dcfa","bdp_rwlrn","Sat Apr 08 2023 12:04:00 GMT-0400 (Eastern Daylight Time)","405089","Trustworthy,Untrustworthy","","1250","","","","decision","","","<div class='trialDiv'><img src='Fruit/orange.png'><br><font class='baseline'><strong>Odds are Orange</strong><p>Choose number of points to bet.</font><div class='respPicDiv'><img src='img/responseButtonOffersNo0L.png' class='respPic'></div></div>","3","1","Odds are Orange","Fruit/orange.png","Won","0.8,0.35","12","0.8","13","3","",""
"html-keyboard-response","18","131903","0.0-11.0-2.2","63ea5b93d1c6d38e1f57dcfa","bdp_rwlrn","Sat Apr 08 2023 12:04:00 GMT-0400 (Eastern Daylight Time)","405089","Trustworthy,Untrustworthy","","null","","","","decisionFB","","","<div class='trialDiv'><img src='Fruit/orange.png'><br><font class='baseline'><strong>Odds are Orange</strong><p>Choose number of points to bet.</font><div class='respPicDiv'><img src='img/responseButtonOffersNo0L3.png' class='respPic'></div></div>","null","1","Odds are Orange","Fruit/orange.png","Won","0.8,0.35","12","0.8","10","3","",""
"html-keyboard-response","19","132914","0.0-11.0-3.2","63ea5b93d1c6d38e1f57dcfa","bdp_rwlrn","Sat Apr 08 2023 12:04:00 GMT-0400 (Eastern Daylight Time)","405089","Trustworthy,Untrustworthy","","null","","","","feedback","","","<div class='respPicDiv'><img src='img/responseButtonOffersNo0_wht.png' class='respPic'></div><div class='trialDiv'><img src='Fruit/orange.png'><br><font class='baseline'><strong>Odds are Orange</strong><p><strong><font class='posOutcome'>You WON</font><p>You bet: 3</strong></font> &nbsp; &nbsp; &nbsp; &nbsp; &nbsp; &nbsp;<font class='posOutcome'>you receive: <strong>6</strong></font></div>","null","1","Odds are Orange","Fruit/orange.png","Won","0.8,0.35","12","0.8","16","3","",""
"html-keyboard-response","20","133637","0.0-11.0-1.3","63ea5b93d1c6d38e1f57dcfa","bdp_rwlrn","Sat Apr 08 2023 12:04:00 GMT-0400 (Eastern Daylight Time)","405089","Trustworthy,Untrustworthy","","723","","","","decision","","","<div class='trialDiv'><img src='Fruit/papayas.png'><br><font class='baseline'><strong>Papaya Payday</strong><p>Choose number of points to bet.</font><div class='respPicDiv'><img src='img/responseButtonOffersNo0L.png' class='respPic'></div></div>","1","2","Papaya Payday","Fruit/papayas.png","Lost","0.2,0.8","8","0.2","21","4","",""
"html-keyboard-response","21","133898","0.0-11.0-2.3","63ea5b93d1c6d38e1f57dcfa","bdp_rwlrn","Sat Apr 08 2023 12:04:00 GMT-0400 (Eastern Daylight Time)","405089","Trustworthy,Untrustworthy","","null","","","","decisionFB","","","<div class='trialDiv'><img src='Fruit/papayas.png'><br><font class='baseline'><strong>Papaya Payday</strong><p>Choose number of points to bet.</font><div class='respPicDiv'><img src='img/responseButtonOffersNo0L1.png' class='respPic'></div></div>","null","2","Papaya Payday","Fruit/papayas.png","Lost","0.2,0.8","8","0.2","20","4","",""
"html-keyboard-response","22","134910","0.0-11.0-3.3","63ea5b93d1c6d38e1f57dcfa","bdp_rwlrn","Sat Apr 08 2023 12:04:00 GMT-0400 (Eastern Daylight Time)","405089","Trustworthy,Untrustworthy","","null","","","","feedback","","","<div class='respPicDiv'><img src='img/responseButtonOffersNo0_wht.png' class='respPic'></div><div class='trialDiv'><img src='Fruit/papayas.png'><br><font class='baseline'><strong>Papaya Payday</strong><p><strong><font class='negOutcome'>You LOST</font><p>You bet: 1</strong></font> &nbsp; &nbsp; &nbsp; &nbsp; &nbsp; &nbsp;<font class='negOutcome'>You receive: <strong>0</strong></font></div>","null","2","Papaya Payday","Fruit/papayas.png","Lost","0.2,0.8","8","0.2","20","4","",""
"html-keyboard-response","23","135654","0.0-11.0-1.4","63ea5b93d1c6d38e1f57dcfa","bdp_rwlrn","Sat Apr 08 2023 12:04:00 GMT-0400 (Eastern Daylight Time)","405089","Trustworthy,Untrustworthy","","744","","","","decision","","","<div class='trialDiv'><img src='Fruit/pears.png'><br><font class='baseline'><strong>Pears Aplenty</strong><p>Choose number of points to bet.</font><div class='respPicDiv'><img src='img/responseButtonOffersNo0L.png' class='respPic'></div></div>","1","2","Pears Aplenty","Fruit/pears.png","Won","0.35,0.8","9","0.35","25","5","",""
"html-keyboard-response","24","135918","0.0-11.0-2.4","63ea5b93d1c6d38e1f57dcfa","bdp_rwlrn","Sat Apr 08 2023 12:04:00 GMT-0400 (Eastern Daylight Time)","405089","Trustworthy,Untrustworthy","","null","","","","decisionFB","","","<div class='trialDiv'><img src='Fruit/pears.png'><br><font class='baseline'><strong>Pears Aplenty</strong><p>Choose number of points to bet.</font><div class='respPicDiv'><img src='img/responseButtonOffersNo0L1.png' class='respPic'></div></div>","null","2","Pears Aplenty","Fruit/pears.png","Won","0.35,0.8","9","0.35","24","5","",""
"html-keyboard-response","25","136932","0.0-11.0-3.4","63ea5b93d1c6d38e1f57dcfa","bdp_rwlrn","Sat Apr 08 2023 12:04:00 GMT-0400 (Eastern Daylight Time)","405089","Trustworthy,Untrustworthy","","null","","","","feedback","","","<div class='respPicDiv'><img src='img/responseButtonOffersNo0_wht.png' class='respPic'></div><div class='trialDiv'><img src='Fruit/pears.png'><br><font class='baseline'><strong>Pears Aplenty</strong><p><strong><font class='posOutcome'>You WON</font><p>You bet: 1</strong></font> &nbsp; &nbsp; &nbsp; &nbsp; &nbsp; &nbsp;<font class='posOutcome'>you receive: <strong>2</strong></font></div>","null","2","Pears Aplenty","Fruit/pears.png","Won","0.35,0.8","9","0.35","26","5","",""
"html-keyboard-response","26","138692","0.0-11.0-1.5","63ea5b93d1c6d38e1f57dcfa","bdp_rwlrn","Sat Apr 08 2023 12:04:00 GMT-0400 (Eastern Daylight Time)","405089","Trustworthy,Untrustworthy","","1760","","","","decision","","","<div class='trialDiv'><img src='Fruit/orange.png'><br><font class='baseline'><strong>Odds are Orange</strong><p>Choose number of points to bet.</font><div class='respPicDiv'><img src='img/responseButtonOffersNo0L.png' class='respPic'></div></div>","3","2","Odds are Orange","Fruit/orange.png","Lost","0.8,0.35","12","0.8","31","6","",""
"html-keyboard-response","27","138946","0.0-11.0-2.5","63ea5b93d1c6d38e1f57dcfa","bdp_rwlrn","Sat Apr 08 2023 12:04:00 GMT-0400 (Eastern Daylight Time)","405089","Trustworthy,Untrustworthy","","null","","","","decisionFB","","","<div class='trialDiv'><img src='Fruit/orange.png'><br><font class='baseline'><strong>Odds are Orange</strong><p>Choose number of points to bet.</font><div class='respPicDiv'><img src='img/responseButtonOffersNo0L3.png' class='respPic'></div></div>","null","2","Odds are Orange","Fruit/orange.png","Lost","0.8,0.35","12","0.8","28","6","",""
"html-keyboard-response","28","139959","0.0-11.0-3.5","63ea5b93d1c6d38e1f57dcfa","bdp_rwlrn","Sat Apr 08 2023 12:04:00 GMT-0400 (Eastern Daylight Time)","405089","Trustworthy,Untrustworthy","","null","","","","feedback","","","<div class='respPicDiv'><img src='img/responseButtonOffersNo0_wht.png' class='respPic'></div><div class='trialDiv'><img src='Fruit/orange.png'><br><font class='baseline'><strong>Odds are Orange</strong><p><strong><font class='negOutcome'>You LOST</font><p>You bet: 3</strong></font> &nbsp; &nbsp; &nbsp; &nbsp; &nbsp; &nbsp;<font class='negOutcome'>You receive: <strong>0</strong></font></div>","null","2","Odds are Orange","Fruit/orange.png","Lost","0.8,0.35","12","0.8","28","6","",""
"html-keyboard-response","29","140730","0.0-11.0-1.6","63ea5b93d1c6d38e1f57dcfa","bdp_rwlrn","Sat Apr 08 2023 12:04:00 GMT-0400 (Eastern Daylight Time)","405089","Trustworthy,Untrustworthy","","771","","","","decision","","","<div class='trialDiv'><img src='Fruit/papayas.png'><br><font class='baseline'><strong>Papaya Payday</strong><p>Choose number of points to bet.</font><div class='respPicDiv'><img src='img/responseButtonOffersNo0L.png' class='respPic'></div></div>","1","3","Papaya Payday","Fruit/papayas.png","Lost","0.2,0.8","8","0.2","33","7","",""
"html-keyboard-response","30","140988","0.0-11.0-2.6","63ea5b93d1c6d38e1f57dcfa","bdp_rwlrn","Sat Apr 08 2023 12:04:00 GMT-0400 (Eastern Daylight Time)","405089","Trustworthy,Untrustworthy","","null","","","","decisionFB","","","<div class='trialDiv'><img src='Fruit/papayas.png'><br><font class='baseline'><strong>Papaya Payday</strong><p>Choose number of points to bet.</font><div class='respPicDiv'><img src='img/responseButtonOffersNo0L1.png' class='respPic'></div></div>","null","3","Papaya Payday","Fruit/papayas.png","Lost","0.2,0.8","8","0.2","32","7","",""
"html-keyboard-response","31","141999","0.0-11.0-3.6","63ea5b93d1c6d38e1f57dcfa","bdp_rwlrn","Sat Apr 08 2023 12:04:00 GMT-0400 (Eastern Daylight Time)","405089","Trustworthy,Untrustworthy","","null","","","","feedback","","","<div class='respPicDiv'><img src='img/responseButtonOffersNo0_wht.png' class='respPic'></div><div class='trialDiv'><img src='Fruit/papayas.png'><br><font class='baseline'><strong>Papaya Payday</strong><p><strong><font class='negOutcome'>You LOST</font><p>You bet: 1</strong></font> &nbsp; &nbsp; &nbsp; &nbsp; &nbsp; &nbsp;<font class='negOutcome'>You receive: <strong>0</strong></font></div>","null","3","Papaya Payday","Fruit/papayas.png","Lost","0.2,0.8","8","0.2","32","7","",""
"html-keyboard-response","32","142843","0.0-11.0-1.7","63ea5b93d1c6d38e1f57dcfa","bdp_rwlrn","Sat Apr 08 2023 12:04:00 GMT-0400 (Eastern Daylight Time)","405089","Trustworthy,Untrustworthy","","844","","","","decision","","","<div class='trialDiv'><img src='Fruit/orange.png'><br><font class='baseline'><strong>Odds are Orange</strong><p>Choose number of points to bet.</font><div class='respPicDiv'><img src='img/responseButtonOffersNo0L.png' class='respPic'></div></div>","3","3","Odds are Orange","Fruit/orange.png","Lost","0.8,0.35","12","0.8","37","8","",""
"html-keyboard-response","33","143104","0.0-11.0-2.7","63ea5b93d1c6d38e1f57dcfa","bdp_rwlrn","Sat Apr 08 2023 12:04:00 GMT-0400 (Eastern Daylight Time)","405089","Trustworthy,Untrustworthy","","null","","","","decisionFB","","","<div class='trialDiv'><img src='Fruit/orange.png'><br><font class='baseline'><strong>Odds are Orange</strong><p>Choose number of points to bet.</font><div class='respPicDiv'><img src='img/responseButtonOffersNo0L3.png' class='respPic'></div></div>","null","3","Odds are Orange","Fruit/orange.png","Lost","0.8,0.35","12","0.8","34","8","",""
"html-keyboard-response","34","144115","0.0-11.0-3.7","63ea5b93d1c6d38e1f57dcfa","bdp_rwlrn","Sat Apr 08 2023 12:04:00 GMT-0400 (Eastern Daylight Time)","405089","Trustworthy,Untrustworthy","","null","","","","feedback","","","<div class='respPicDiv'><img src='img/responseButtonOffersNo0_wht.png' class='respPic'></div><div class='trialDiv'><img src='Fruit/orange.png'><br><font class='baseline'><strong>Odds are Orange</strong><p><strong><font class='negOutcome'>You LOST</font><p>You bet: 3</strong></font> &nbsp; &nbsp; &nbsp; &nbsp; &nbsp; &nbsp;<font class='negOutcome'>You receive: <strong>0</strong></font></div>","null","3","Odds are Orange","Fruit/orange.png","Lost","0.8,0.35","12","0.8","34","8","",""
"html-keyboard-response","35","146022","0.0-11.0-1.8","63ea5b93d1c6d38e1f57dcfa","bdp_rwlrn","Sat Apr 08 2023 12:04:00 GMT-0400 (Eastern Daylight Time)","405089","Trustworthy,Untrustworthy","","1906","","","","decision","","","<div class='trialDiv'><img src='Fruit/pears.png'><br><font class='baseline'><strong>Pears Aplenty</strong><p>Choose number of points to bet.</font><div class='respPicDiv'><img src='img/responseButtonOffersNo0L.png' class='respPic'></div></div>","5","3","Pears Aplenty","Fruit/pears.png","Lost","0.35,0.8","9","0.35","39","9","",""
"html-keyboard-response","36","146278","0.0-11.0-2.8","63ea5b93d1c6d38e1f57dcfa","bdp_rwlrn","Sat Apr 08 2023 12:04:00 GMT-0400 (Eastern Daylight Time)","405089","Trustworthy,Untrustworthy","","null","","","","decisionFB","","","<div class='trialDiv'><img src='Fruit/pears.png'><br><font class='baseline'><strong>Pears Aplenty</strong><p>Choose number of points to bet.</font><div class='respPicDiv'><img src='img/responseButtonOffersNo0L5.png' class='respPic'></div></div>","null","3","Pears Aplenty","Fruit/pears.png","Lost","0.35,0.8","9","0.35","34","9","",""
"html-keyboard-response","37","147287","0.0-11.0-3.8","63ea5b93d1c6d38e1f57dcfa","bdp_rwlrn","Sat Apr 08 2023 12:04:00 GMT-0400 (Eastern Daylight Time)","405089","Trustworthy,Untrustworthy","","null","","","","feedback","","","<div class='respPicDiv'><img src='img/responseButtonOffersNo0_wht.png' class='respPic'></div><div class='trialDiv'><img src='Fruit/pears.png'><br><font class='baseline'><strong>Pears Aplenty</strong><p><strong><font class='negOutcome'>You LOST</font><p>You bet: 5</strong></font> &nbsp; &nbsp; &nbsp; &nbsp; &nbsp; &nbsp;<font class='negOutcome'>You receive: <strong>0</strong></font></div>","null","3","Pears Aplenty","Fruit/pears.png","Lost","0.35,0.8","9","0.35","34","9","",""
"html-keyboard-response","38","147963","0.0-11.0-1.9","63ea5b93d1c6d38e1f57dcfa","bdp_rwlrn","Sat Apr 08 2023 12:04:00 GMT-0400 (Eastern Daylight Time)","405089","Trustworthy,Untrustworthy","","676","","","","decision","","","<div class='trialDiv'><img src='Fruit/papayas.png'><br><font class='baseline'><strong>Papaya Payday</strong><p>Choose number of points to bet.</font><div class='respPicDiv'><img src='img/responseButtonOffersNo0L.png' class='respPic'></div></div>","1","4","Papaya Payday","Fruit/papayas.png","Won","0.2,0.8","8","0.2","39","10","",""
"html-keyboard-response","39","148219","0.0-11.0-2.9","63ea5b93d1c6d38e1f57dcfa","bdp_rwlrn","Sat Apr 08 2023 12:04:00 GMT-0400 (Eastern Daylight Time)","405089","Trustworthy,Untrustworthy","","null","","","","decisionFB","","","<div class='trialDiv'><img src='Fruit/papayas.png'><br><font class='baseline'><strong>Papaya Payday</strong><p>Choose number of points to bet.</font><div class='respPicDiv'><img src='img/responseButtonOffersNo0L1.png' class='respPic'></div></div>","null","4","Papaya Payday","Fruit/papayas.png","Won","0.2,0.8","8","0.2","38","10","",""
"html-keyboard-response","40","149231","0.0-11.0-3.9","63ea5b93d1c6d38e1f57dcfa","bdp_rwlrn","Sat Apr 08 2023 12:04:00 GMT-0400 (Eastern Daylight Time)","405089","Trustworthy,Untrustworthy","","null","","","","feedback","","","<div class='respPicDiv'><img src='img/responseButtonOffersNo0_wht.png' class='respPic'></div><div class='trialDiv'><img src='Fruit/papayas.png'><br><font class='baseline'><strong>Papaya Payday</strong><p><strong><font class='posOutcome'>You WON</font><p>You bet: 1</strong></font> &nbsp; &nbsp; &nbsp; &nbsp; &nbsp; &nbsp;<font class='posOutcome'>you receive: <strong>2</strong></font></div>","null","4","Papaya Payday","Fruit/papayas.png","Won","0.2,0.8","8","0.2","40","10","",""
"html-keyboard-response","41","150050","0.0-11.0-1.10","63ea5b93d1c6d38e1f57dcfa","bdp_rwlrn","Sat Apr 08 2023 12:04:00 GMT-0400 (Eastern Daylight Time)","405089","Trustworthy,Untrustworthy","","818","","","","decision","","","<div class='trialDiv'><img src='Fruit/pears.png'><br><font class='baseline'><strong>Pears Aplenty</strong><p>Choose number of points to bet.</font><div class='respPicDiv'><img src='img/responseButtonOffersNo0L.png' class='respPic'></div></div>","1","4","Pears Aplenty","Fruit/pears.png","Lost","0.35,0.8","9","0.35","45","11","",""
"html-keyboard-response","42","150307","0.0-11.0-2.10","63ea5b93d1c6d38e1f57dcfa","bdp_rwlrn","Sat Apr 08 2023 12:04:00 GMT-0400 (Eastern Daylight Time)","405089","Trustworthy,Untrustworthy","","null","","","","decisionFB","","","<div class='trialDiv'><img src='Fruit/pears.png'><br><font class='baseline'><strong>Pears Aplenty</strong><p>Choose number of points to bet.</font><div class='respPicDiv'><img src='img/responseButtonOffersNo0L1.png' class='respPic'></div></div>","null","4","Pears Aplenty","Fruit/pears.png","Lost","0.35,0.8","9","0.35","44","11","",""
"html-keyboard-response","43","151309","0.0-11.0-3.10","63ea5b93d1c6d38e1f57dcfa","bdp_rwlrn","Sat Apr 08 2023 12:04:00 GMT-0400 (Eastern Daylight Time)","405089","Trustworthy,Untrustworthy","","null","","","","feedback","","","<div class='respPicDiv'><img src='img/responseButtonOffersNo0_wht.png' class='respPic'></div><div class='trialDiv'><img src='Fruit/pears.png'><br><font class='baseline'><strong>Pears Aplenty</strong><p><strong><font class='negOutcome'>You LOST</font><p>You bet: 1</strong></font> &nbsp; &nbsp; &nbsp; &nbsp; &nbsp; &nbsp;<font class='negOutcome'>You receive: <strong>0</strong></font></div>","null","4","Pears Aplenty","Fruit/pears.png","Lost","0.35,0.8","9","0.35","44","11","",""
"html-keyboard-response","44","151976","0.0-11.0-1.11","63ea5b93d1c6d38e1f57dcfa","bdp_rwlrn","Sat Apr 08 2023 12:04:00 GMT-0400 (Eastern Daylight Time)","405089","Trustworthy,Untrustworthy","","667","","","","decision","","","<div class='trialDiv'><img src='Fruit/orange.png'><br><font class='baseline'><strong>Odds are Orange</strong><p>Choose number of points to bet.</font><div class='respPicDiv'><img src='img/responseButtonOffersNo0L.png' class='respPic'></div></div>","1","4","Odds are Orange","Fruit/orange.png","Won","0.8,0.35","12","0.8","49","12","",""
"html-keyboard-response","45","152231","0.0-11.0-2.11","63ea5b93d1c6d38e1f57dcfa","bdp_rwlrn","Sat Apr 08 2023 12:04:00 GMT-0400 (Eastern Daylight Time)","405089","Trustworthy,Untrustworthy","","null","","","","decisionFB","","","<div class='trialDiv'><img src='Fruit/orange.png'><br><font class='baseline'><strong>Odds are Orange</strong><p>Choose number of points to bet.</font><div class='respPicDiv'><img src='img/responseButtonOffersNo0L1.png' class='respPic'></div></div>","null","4","Odds are Orange","Fruit/orange.png","Won","0.8,0.35","12","0.8","48","12","",""
"html-keyboard-response","46","153245","0.0-11.0-3.11","63ea5b93d1c6d38e1f57dcfa","bdp_rwlrn","Sat Apr 08 2023 12:04:00 GMT-0400 (Eastern Daylight Time)","405089","Trustworthy,Untrustworthy","","null","","","","feedback","","","<div class='respPicDiv'><img src='img/responseButtonOffersNo0_wht.png' class='respPic'></div><div class='trialDiv'><img src='Fruit/orange.png'><br><font class='baseline'><strong>Odds are Orange</strong><p><strong><font class='posOutcome'>You WON</font><p>You bet: 1</strong></font> &nbsp; &nbsp; &nbsp; &nbsp; &nbsp; &nbsp;<font class='posOutcome'>you receive: <strong>2</strong></font></div>","null","4","Odds are Orange","Fruit/orange.png","Won","0.8,0.35","12","0.8","50","12","",""
"html-keyboard-response","47","153855","0.0-11.0-1.12","63ea5b93d1c6d38e1f57dcfa","bdp_rwlrn","Sat Apr 08 2023 12:04:00 GMT-0400 (Eastern Daylight Time)","405089","Trustworthy,Untrustworthy","","610","","","","decision","","","<div class='trialDiv'><img src='Fruit/papayas.png'><br><font class='baseline'><strong>Papaya Payday</strong><p>Choose number of points to bet.</font><div class='respPicDiv'><img src='img/responseButtonOffersNo0L.png' class='respPic'></div></div>","1","5","Papaya Payday","Fruit/papayas.png","Lost","0.2,0.8","8","0.2","55","13","",""
"html-keyboard-response","48","154116","0.0-11.0-2.12","63ea5b93d1c6d38e1f57dcfa","bdp_rwlrn","Sat Apr 08 2023 12:04:00 GMT-0400 (Eastern Daylight Time)","405089","Trustworthy,Untrustworthy","","null","","","","decisionFB","","","<div class='trialDiv'><img src='Fruit/papayas.png'><br><font class='baseline'><strong>Papaya Payday</strong><p>Choose number of points to bet.</font><div class='respPicDiv'><img src='img/responseButtonOffersNo0L1.png' class='respPic'></div></div>","null","5","Papaya Payday","Fruit/papayas.png","Lost","0.2,0.8","8","0.2","54","13","",""
"html-keyboard-response","49","155122","0.0-11.0-3.12","63ea5b93d1c6d38e1f57dcfa","bdp_rwlrn","Sat Apr 08 2023 12:04:00 GMT-0400 (Eastern Daylight Time)","405089","Trustworthy,Untrustworthy","","null","","","","feedback","","","<div class='respPicDiv'><img src='img/responseButtonOffersNo0_wht.png' class='respPic'></div><div class='trialDiv'><img src='Fruit/papayas.png'><br><font class='baseline'><strong>Papaya Payday</strong><p><strong><font class='negOutcome'>You LOST</font><p>You bet: 1</strong></font> &nbsp; &nbsp; &nbsp; &nbsp; &nbsp; &nbsp;<font class='negOutcome'>You receive: <strong>0</strong></font></div>","null","5","Papaya Payday","Fruit/papayas.png","Lost","0.2,0.8","8","0.2","54","13","",""
"html-keyboard-response","50","155690","0.0-11.0-1.13","63ea5b93d1c6d38e1f57dcfa","bdp_rwlrn","Sat Apr 08 2023 12:04:00 GMT-0400 (Eastern Daylight Time)","405089","Trustworthy,Untrustworthy","","568","","","","decision","","","<div class='trialDiv'><img src='Fruit/orange.png'><br><font class='baseline'><strong>Odds are Orange</strong><p>Choose number of points to bet.</font><div class='respPicDiv'><img src='img/responseButtonOffersNo0L.png' class='respPic'></div></div>","1","5","Odds are Orange","Fruit/orange.png","Won","0.8,0.35","12","0.8","59","14","",""
"html-keyboard-response","51","155954","0.0-11.0-2.13","63ea5b93d1c6d38e1f57dcfa","bdp_rwlrn","Sat Apr 08 2023 12:04:00 GMT-0400 (Eastern Daylight Time)","405089","Trustworthy,Untrustworthy","","null","","","","decisionFB","","","<div class='trialDiv'><img src='Fruit/orange.png'><br><font class='baseline'><strong>Odds are Orange</strong><p>Choose number of points to bet.</font><div class='respPicDiv'><img src='img/responseButtonOffersNo0L1.png' class='respPic'></div></div>","null","5","Odds are Orange","Fruit/orange.png","Won","0.8,0.35","12","0.8","58","14","",""
"html-keyboard-response","52","156958","0.0-11.0-3.13","63ea5b93d1c6d38e1f57dcfa","bdp_rwlrn","Sat Apr 08 2023 12:04:00 GMT-0400 (Eastern Daylight Time)","405089","Trustworthy,Untrustworthy","","null","","","","feedback","","","<div class='respPicDiv'><img src='img/responseButtonOffersNo0_wht.png' class='respPic'></div><div class='trialDiv'><img src='Fruit/orange.png'><br><font class='baseline'><strong>Odds are Orange</strong><p><strong><font class='posOutcome'>You WON</font><p>You bet: 1</strong></font> &nbsp; &nbsp; &nbsp; &nbsp; &nbsp; &nbsp;<font class='posOutcome'>you receive: <strong>2</strong></font></div>","null","5","Odds are Orange","Fruit/orange.png","Won","0.8,0.35","12","0.8","60","14","",""
"html-keyboard-response","53","158217","0.0-11.0-1.14","63ea5b93d1c6d38e1f57dcfa","bdp_rwlrn","Sat Apr 08 2023 12:04:00 GMT-0400 (Eastern Daylight Time)","405089","Trustworthy,Untrustworthy","","1258","","","","decision","","","<div class='trialDiv'><img src='Fruit/pears.png'><br><font class='baseline'><strong>Pears Aplenty</strong><p>Choose number of points to bet.</font><div class='respPicDiv'><img src='img/responseButtonOffersNo0L.png' class='respPic'></div></div>","2","5","Pears Aplenty","Fruit/pears.png","Won","0.35,0.8","9","0.35","65","15","",""
"html-keyboard-response","54","158478","0.0-11.0-2.14","63ea5b93d1c6d38e1f57dcfa","bdp_rwlrn","Sat Apr 08 2023 12:04:00 GMT-0400 (Eastern Daylight Time)","405089","Trustworthy,Untrustworthy","","null","","","","decisionFB","","","<div class='trialDiv'><img src='Fruit/pears.png'><br><font class='baseline'><strong>Pears Aplenty</strong><p>Choose number of points to bet.</font><div class='respPicDiv'><img src='img/responseButtonOffersNo0L2.png' class='respPic'></div></div>","null","5","Pears Aplenty","Fruit/pears.png","Won","0.35,0.8","9","0.35","63","15","",""
"html-keyboard-response","55","159489","0.0-11.0-3.14","63ea5b93d1c6d38e1f57dcfa","bdp_rwlrn","Sat Apr 08 2023 12:04:00 GMT-0400 (Eastern Daylight Time)","405089","Trustworthy,Untrustworthy","","null","","","","feedback","","","<div class='respPicDiv'><img src='img/responseButtonOffersNo0_wht.png' class='respPic'></div><div class='trialDiv'><img src='Fruit/pears.png'><br><font class='baseline'><strong>Pears Aplenty</strong><p><strong><font class='posOutcome'>You WON</font><p>You bet: 2</strong></font> &nbsp; &nbsp; &nbsp; &nbsp; &nbsp; &nbsp;<font class='posOutcome'>you receive: <strong>4</strong></font></div>","null","5","Pears Aplenty","Fruit/pears.png","Won","0.35,0.8","9","0.35","67","15","",""
"html-keyboard-response","56","160588","0.0-11.0-1.15","63ea5b93d1c6d38e1f57dcfa","bdp_rwlrn","Sat Apr 08 2023 12:04:00 GMT-0400 (Eastern Daylight Time)","405089","Trustworthy,Untrustworthy","","1098","","","","decision","","","<div class='trialDiv'><img src='Fruit/orange.png'><br><font class='baseline'><strong>Odds are Orange</strong><p>Choose number of points to bet.</font><div class='respPicDiv'><img src='img/responseButtonOffersNo0L.png' class='respPic'></div></div>","5","6","Odds are Orange","Fruit/orange.png","Won","0.8,0.35","12","0.8","72","16","",""
"html-keyboard-response","57","160848","0.0-11.0-2.15","63ea5b93d1c6d38e1f57dcfa","bdp_rwlrn","Sat Apr 08 2023 12:04:00 GMT-0400 (Eastern Daylight Time)","405089","Trustworthy,Untrustworthy","","null","","","","decisionFB","","","<div class='trialDiv'><img src='Fruit/orange.png'><br><font class='baseline'><strong>Odds are Orange</strong><p>Choose number of points to bet.</font><div class='respPicDiv'><img src='img/responseButtonOffersNo0L5.png' class='respPic'></div></div>","null","6","Odds are Orange","Fruit/orange.png","Won","0.8,0.35","12","0.8","67","16","",""
"html-keyboard-response","58","161862","0.0-11.0-3.15","63ea5b93d1c6d38e1f57dcfa","bdp_rwlrn","Sat Apr 08 2023 12:04:00 GMT-0400 (Eastern Daylight Time)","405089","Trustworthy,Untrustworthy","","null","","","","feedback","","","<div class='respPicDiv'><img src='img/responseButtonOffersNo0_wht.png' class='respPic'></div><div class='trialDiv'><img src='Fruit/orange.png'><br><font class='baseline'><strong>Odds are Orange</strong><p><strong><font class='posOutcome'>You WON</font><p>You bet: 5</strong></font> &nbsp; &nbsp; &nbsp; &nbsp; &nbsp; &nbsp;<font class='posOutcome'>you receive: <strong>10</strong></font></div>","null","6","Odds are Orange","Fruit/orange.png","Won","0.8,0.35","12","0.8","77","16","",""
"html-keyboard-response","59","162467","0.0-11.0-1.16","63ea5b93d1c6d38e1f57dcfa","bdp_rwlrn","Sat Apr 08 2023 12:04:00 GMT-0400 (Eastern Daylight Time)","405089","Trustworthy,Untrustworthy","","605","","","","decision","","","<div class='trialDiv'><img src='Fruit/pears.png'><br><font class='baseline'><strong>Pears Aplenty</strong><p>Choose number of points to bet.</font><div class='respPicDiv'><img src='img/responseButtonOffersNo0L.png' class='respPic'></div></div>","5","6","Pears Aplenty","Fruit/pears.png","Lost","0.35,0.8","9","0.35","82","17","",""
"html-keyboard-response","60","162725","0.0-11.0-2.16","63ea5b93d1c6d38e1f57dcfa","bdp_rwlrn","Sat Apr 08 2023 12:04:00 GMT-0400 (Eastern Daylight Time)","405089","Trustworthy,Untrustworthy","","null","","","","decisionFB","","","<div class='trialDiv'><img src='Fruit/pears.png'><br><font class='baseline'><strong>Pears Aplenty</strong><p>Choose number of points to bet.</font><div class='respPicDiv'><img src='img/responseButtonOffersNo0L5.png' class='respPic'></div></div>","null","6","Pears Aplenty","Fruit/pears.png","Lost","0.35,0.8","9","0.35","77","17","",""
"html-keyboard-response","61","163734","0.0-11.0-3.16","63ea5b93d1c6d38e1f57dcfa","bdp_rwlrn","Sat Apr 08 2023 12:04:00 GMT-0400 (Eastern Daylight Time)","405089","Trustworthy,Untrustworthy","","null","","","","feedback","","","<div class='respPicDiv'><img src='img/responseButtonOffersNo0_wht.png' class='respPic'></div><div class='trialDiv'><img src='Fruit/pears.png'><br><font class='baseline'><strong>Pears Aplenty</strong><p><strong><font class='negOutcome'>You LOST</font><p>You bet: 5</strong></font> &nbsp; &nbsp; &nbsp; &nbsp; &nbsp; &nbsp;<font class='negOutcome'>You receive: <strong>0</strong></font></div>","null","6","Pears Aplenty","Fruit/pears.png","Lost","0.35,0.8","9","0.35","77","17","",""
"html-keyboard-response","62","164456","0.0-11.0-1.17","63ea5b93d1c6d38e1f57dcfa","bdp_rwlrn","Sat Apr 08 2023 12:04:00 GMT-0400 (Eastern Daylight Time)","405089","Trustworthy,Untrustworthy","","721","","","","decision","","","<div class='trialDiv'><img src='Fruit/papayas.png'><br><font class='baseline'><strong>Papaya Payday</strong><p>Choose number of points to bet.</font><div class='respPicDiv'><img src='img/responseButtonOffersNo0L.png' class='respPic'></div></div>","1","6","Papaya Payday","Fruit/papayas.png","Lost","0.2,0.8","8","0.2","82","18","",""
"html-keyboard-response","63","164720","0.0-11.0-2.17","63ea5b93d1c6d38e1f57dcfa","bdp_rwlrn","Sat Apr 08 2023 12:04:00 GMT-0400 (Eastern Daylight Time)","405089","Trustworthy,Untrustworthy","","null","","","","decisionFB","","","<div class='trialDiv'><img src='Fruit/papayas.png'><br><font class='baseline'><strong>Papaya Payday</strong><p>Choose number of points to bet.</font><div class='respPicDiv'><img src='img/responseButtonOffersNo0L1.png' class='respPic'></div></div>","null","6","Papaya Payday","Fruit/papayas.png","Lost","0.2,0.8","8","0.2","81","18","",""
"html-keyboard-response","64","165731","0.0-11.0-3.17","63ea5b93d1c6d38e1f57dcfa","bdp_rwlrn","Sat Apr 08 2023 12:04:00 GMT-0400 (Eastern Daylight Time)","405089","Trustworthy,Untrustworthy","","null","","","","feedback","","","<div class='respPicDiv'><img src='img/responseButtonOffersNo0_wht.png' class='respPic'></div><div class='trialDiv'><img src='Fruit/papayas.png'><br><font class='baseline'><strong>Papaya Payday</strong><p><strong><font class='negOutcome'>You LOST</font><p>You bet: 1</strong></font> &nbsp; &nbsp; &nbsp; &nbsp; &nbsp; &nbsp;<font class='negOutcome'>You receive: <strong>0</strong></font></div>","null","6","Papaya Payday","Fruit/papayas.png","Lost","0.2,0.8","8","0.2","81","18","",""
"html-keyboard-response","65","166204","0.0-11.0-1.18","63ea5b93d1c6d38e1f57dcfa","bdp_rwlrn","Sat Apr 08 2023 12:04:00 GMT-0400 (Eastern Daylight Time)","405089","Trustworthy,Untrustworthy","","472","","","","decision","","","<div class='trialDiv'><img src='Fruit/orange.png'><br><font class='baseline'><strong>Odds are Orange</strong><p>Choose number of points to bet.</font><div class='respPicDiv'><img src='img/responseButtonOffersNo0L.png' class='respPic'></div></div>","5","7","Odds are Orange","Fruit/orange.png","Won","0.8,0.35","12","0.8","86","19","",""
"html-keyboard-response","66","166454","0.0-11.0-2.18","63ea5b93d1c6d38e1f57dcfa","bdp_rwlrn","Sat Apr 08 2023 12:04:00 GMT-0400 (Eastern Daylight Time)","405089","Trustworthy,Untrustworthy","","null","","","","decisionFB","","","<div class='trialDiv'><img src='Fruit/orange.png'><br><font class='baseline'><strong>Odds are Orange</strong><p>Choose number of points to bet.</font><div class='respPicDiv'><img src='img/responseButtonOffersNo0L5.png' class='respPic'></div></div>","null","7","Odds are Orange","Fruit/orange.png","Won","0.8,0.35","12","0.8","81","19","",""
"html-keyboard-response","67","167460","0.0-11.0-3.18","63ea5b93d1c6d38e1f57dcfa","bdp_rwlrn","Sat Apr 08 2023 12:04:00 GMT-0400 (Eastern Daylight Time)","405089","Trustworthy,Untrustworthy","","null","","","","feedback","","","<div class='respPicDiv'><img src='img/responseButtonOffersNo0_wht.png' class='respPic'></div><div class='trialDiv'><img src='Fruit/orange.png'><br><font class='baseline'><strong>Odds are Orange</strong><p><strong><font class='posOutcome'>You WON</font><p>You bet: 5</strong></font> &nbsp; &nbsp; &nbsp; &nbsp; &nbsp; &nbsp;<font class='posOutcome'>you receive: <strong>10</strong></font></div>","null","7","Odds are Orange","Fruit/orange.png","Won","0.8,0.35","12","0.8","91","19","",""
"html-keyboard-response","68","168153","0.0-11.0-1.19","63ea5b93d1c6d38e1f57dcfa","bdp_rwlrn","Sat Apr 08 2023 12:04:00 GMT-0400 (Eastern Daylight Time)","405089","Trustworthy,Untrustworthy","","692","","","","decision","","","<div class='trialDiv'><img src='Fruit/pears.png'><br><font class='baseline'><strong>Pears Aplenty</strong><p>Choose number of points to bet.</font><div class='respPicDiv'><img src='img/responseButtonOffersNo0L.png' class='respPic'></div></div>","5","7","Pears Aplenty","Fruit/pears.png","Lost","0.35,0.8","9","0.35","96","20","",""
"html-keyboard-response","69","168411","0.0-11.0-2.19","63ea5b93d1c6d38e1f57dcfa","bdp_rwlrn","Sat Apr 08 2023 12:04:00 GMT-0400 (Eastern Daylight Time)","405089","Trustworthy,Untrustworthy","","null","","","","decisionFB","","","<div class='trialDiv'><img src='Fruit/pears.png'><br><font class='baseline'><strong>Pears Aplenty</strong><p>Choose number of points to bet.</font><div class='respPicDiv'><img src='img/responseButtonOffersNo0L5.png' class='respPic'></div></div>","null","7","Pears Aplenty","Fruit/pears.png","Lost","0.35,0.8","9","0.35","91","20","",""
"html-keyboard-response","70","169421","0.0-11.0-3.19","63ea5b93d1c6d38e1f57dcfa","bdp_rwlrn","Sat Apr 08 2023 12:04:00 GMT-0400 (Eastern Daylight Time)","405089","Trustworthy,Untrustworthy","","null","","","","feedback","","","<div class='respPicDiv'><img src='img/responseButtonOffersNo0_wht.png' class='respPic'></div><div class='trialDiv'><img src='Fruit/pears.png'><br><font class='baseline'><strong>Pears Aplenty</strong><p><strong><font class='negOutcome'>You LOST</font><p>You bet: 5</strong></font> &nbsp; &nbsp; &nbsp; &nbsp; &nbsp; &nbsp;<font class='negOutcome'>You receive: <strong>0</strong></font></div>","null","7","Pears Aplenty","Fruit/pears.png","Lost","0.35,0.8","9","0.35","91","20","",""
"html-keyboard-response","71","170027","0.0-11.0-1.20","63ea5b93d1c6d38e1f57dcfa","bdp_rwlrn","Sat Apr 08 2023 12:04:00 GMT-0400 (Eastern Daylight Time)","405089","Trustworthy,Untrustworthy","","604","","","","decision","","","<div class='trialDiv'><img src='Fruit/papayas.png'><br><font class='baseline'><strong>Papaya Payday</strong><p>Choose number of points to bet.</font><div class='respPicDiv'><img src='img/responseButtonOffersNo0L.png' class='respPic'></div></div>","1","7","Papaya Payday","Fruit/papayas.png","Lost","0.2,0.8","8","0.2","96","21","",""
"html-keyboard-response","72","170285","0.0-11.0-2.20","63ea5b93d1c6d38e1f57dcfa","bdp_rwlrn","Sat Apr 08 2023 12:04:00 GMT-0400 (Eastern Daylight Time)","405089","Trustworthy,Untrustworthy","","null","","","","decisionFB","","","<div class='trialDiv'><img src='Fruit/papayas.png'><br><font class='baseline'><strong>Papaya Payday</strong><p>Choose number of points to bet.</font><div class='respPicDiv'><img src='img/responseButtonOffersNo0L1.png' class='respPic'></div></div>","null","7","Papaya Payday","Fruit/papayas.png","Lost","0.2,0.8","8","0.2","95","21","",""
"html-keyboard-response","73","171293","0.0-11.0-3.20","63ea5b93d1c6d38e1f57dcfa","bdp_rwlrn","Sat Apr 08 2023 12:04:00 GMT-0400 (Eastern Daylight Time)","405089","Trustworthy,Untrustworthy","","null","","","","feedback","","","<div class='respPicDiv'><img src='img/responseButtonOffersNo0_wht.png' class='respPic'></div><div class='trialDiv'><img src='Fruit/papayas.png'><br><font class='baseline'><strong>Papaya Payday</strong><p><strong><font class='negOutcome'>You LOST</font><p>You bet: 1</strong></font> &nbsp; &nbsp; &nbsp; &nbsp; &nbsp; &nbsp;<font class='negOutcome'>You receive: <strong>0</strong></font></div>","null","7","Papaya Payday","Fruit/papayas.png","Lost","0.2,0.8","8","0.2","95","21","",""
"html-keyboard-response","74","171845","0.0-11.0-1.21","63ea5b93d1c6d38e1f57dcfa","bdp_rwlrn","Sat Apr 08 2023 12:04:00 GMT-0400 (Eastern Daylight Time)","405089","Trustworthy,Untrustworthy","","552","","","","decision","","","<div class='trialDiv'><img src='Fruit/orange.png'><br><font class='baseline'><strong>Odds are Orange</strong><p>Choose number of points to bet.</font><div class='respPicDiv'><img src='img/responseButtonOffersNo0L.png' class='respPic'></div></div>","5","8","Odds are Orange","Fruit/orange.png","Won","0.8,0.35","12","0.8","100","22","",""
"html-keyboard-response","75","172102","0.0-11.0-2.21","63ea5b93d1c6d38e1f57dcfa","bdp_rwlrn","Sat Apr 08 2023 12:04:00 GMT-0400 (Eastern Daylight Time)","405089","Trustworthy,Untrustworthy","","null","","","","decisionFB","","","<div class='trialDiv'><img src='Fruit/orange.png'><br><font class='baseline'><strong>Odds are Orange</strong><p>Choose number of points to bet.</font><div class='respPicDiv'><img src='img/responseButtonOffersNo0L5.png' class='respPic'></div></div>","null","8","Odds are Orange","Fruit/orange.png","Won","0.8,0.35","12","0.8","95","22","",""
"html-keyboard-response","76","173105","0.0-11.0-3.21","63ea5b93d1c6d38e1f57dcfa","bdp_rwlrn","Sat Apr 08 2023 12:04:00 GMT-0400 (Eastern Daylight Time)","405089","Trustworthy,Untrustworthy","","null","","","","feedback","","","<div class='respPicDiv'><img src='img/responseButtonOffersNo0_wht.png' class='respPic'></div><div class='trialDiv'><img src='Fruit/orange.png'><br><font class='baseline'><strong>Odds are Orange</strong><p><strong><font class='posOutcome'>You WON</font><p>You bet: 5</strong></font> &nbsp; &nbsp; &nbsp; &nbsp; &nbsp; &nbsp;<font class='posOutcome'>you receive: <strong>10</strong></font></div>","null","8","Odds are Orange","Fruit/orange.png","Won","0.8,0.35","12","0.8","105","22","",""
"html-keyboard-response","77","173858","0.0-11.0-1.22","63ea5b93d1c6d38e1f57dcfa","bdp_rwlrn","Sat Apr 08 2023 12:04:00 GMT-0400 (Eastern Daylight Time)","405089","Trustworthy,Untrustworthy","","753","","","","decision","","","<div class='trialDiv'><img src='Fruit/pears.png'><br><font class='baseline'><strong>Pears Aplenty</strong><p>Choose number of points to bet.</font><div class='respPicDiv'><img src='img/responseButtonOffersNo0L.png' class='respPic'></div></div>","2","8","Pears Aplenty","Fruit/pears.png","Lost","0.35,0.8","9","0.35","110","23","",""
"html-keyboard-response","78","174118","0.0-11.0-2.22","63ea5b93d1c6d38e1f57dcfa","bdp_rwlrn","Sat Apr 08 2023 12:04:00 GMT-0400 (Eastern Daylight Time)","405089","Trustworthy,Untrustworthy","","null","","","","decisionFB","","","<div class='trialDiv'><img src='Fruit/pears.png'><br><font class='baseline'><strong>Pears Aplenty</strong><p>Choose number of points to bet.</font><div class='respPicDiv'><img src='img/responseButtonOffersNo0L2.png' class='respPic'></div></div>","null","8","Pears Aplenty","Fruit/pears.png","Lost","0.35,0.8","9","0.35","108","23","",""
"html-keyboard-response","79","175126","0.0-11.0-3.22","63ea5b93d1c6d38e1f57dcfa","bdp_rwlrn","Sat Apr 08 2023 12:04:00 GMT-0400 (Eastern Daylight Time)","405089","Trustworthy,Untrustworthy","","null","","","","feedback","","","<div class='respPicDiv'><img src='img/responseButtonOffersNo0_wht.png' class='respPic'></div><div class='trialDiv'><img src='Fruit/pears.png'><br><font class='baseline'><strong>Pears Aplenty</strong><p><strong><font class='negOutcome'>You LOST</font><p>You bet: 2</strong></font> &nbsp; &nbsp; &nbsp; &nbsp; &nbsp; &nbsp;<font class='negOutcome'>You receive: <strong>0</strong></font></div>","null","8","Pears Aplenty","Fruit/pears.png","Lost","0.35,0.8","9","0.35","108","23","",""
"html-keyboard-response","80","175736","0.0-11.0-1.23","63ea5b93d1c6d38e1f57dcfa","bdp_rwlrn","Sat Apr 08 2023 12:04:00 GMT-0400 (Eastern Daylight Time)","405089","Trustworthy,Untrustworthy","","610","","","","decision","","","<div class='trialDiv'><img src='Fruit/papayas.png'><br><font class='baseline'><strong>Papaya Payday</strong><p>Choose number of points to bet.</font><div class='respPicDiv'><img src='img/responseButtonOffersNo0L.png' class='respPic'></div></div>","1","8","Papaya Payday","Fruit/papayas.png","Lost","0.2,0.8","8","0.2","113","24","",""
"html-keyboard-response","81","175992","0.0-11.0-2.23","63ea5b93d1c6d38e1f57dcfa","bdp_rwlrn","Sat Apr 08 2023 12:04:00 GMT-0400 (Eastern Daylight Time)","405089","Trustworthy,Untrustworthy","","null","","","","decisionFB","","","<div class='trialDiv'><img src='Fruit/papayas.png'><br><font class='baseline'><strong>Papaya Payday</strong><p>Choose number of points to bet.</font><div class='respPicDiv'><img src='img/responseButtonOffersNo0L1.png' class='respPic'></div></div>","null","8","Papaya Payday","Fruit/papayas.png","Lost","0.2,0.8","8","0.2","112","24","",""
"html-keyboard-response","82","177008","0.0-11.0-3.23","63ea5b93d1c6d38e1f57dcfa","bdp_rwlrn","Sat Apr 08 2023 12:04:00 GMT-0400 (Eastern Daylight Time)","405089","Trustworthy,Untrustworthy","","null","","","","feedback","","","<div class='respPicDiv'><img src='img/responseButtonOffersNo0_wht.png' class='respPic'></div><div class='trialDiv'><img src='Fruit/papayas.png'><br><font class='baseline'><strong>Papaya Payday</strong><p><strong><font class='negOutcome'>You LOST</font><p>You bet: 1</strong></font> &nbsp; &nbsp; &nbsp; &nbsp; &nbsp; &nbsp;<font class='negOutcome'>You receive: <strong>0</strong></font></div>","null","8","Papaya Payday","Fruit/papayas.png","Lost","0.2,0.8","8","0.2","112","24","",""
"html-keyboard-response","83","177661","0.0-11.0-1.24","63ea5b93d1c6d38e1f57dcfa","bdp_rwlrn","Sat Apr 08 2023 12:04:00 GMT-0400 (Eastern Daylight Time)","405089","Trustworthy,Untrustworthy","","653","","","","decision","","","<div class='trialDiv'><img src='Fruit/pears.png'><br><font class='baseline'><strong>Pears Aplenty</strong><p>Choose number of points to bet.</font><div class='respPicDiv'><img src='img/responseButtonOffersNo0L.png' class='respPic'></div></div>","1","9","Pears Aplenty","Fruit/pears.png","Lost","0.35,0.8","9","0.35","117","25","",""
"html-keyboard-response","84","177926","0.0-11.0-2.24","63ea5b93d1c6d38e1f57dcfa","bdp_rwlrn","Sat Apr 08 2023 12:04:00 GMT-0400 (Eastern Daylight Time)","405089","Trustworthy,Untrustworthy","","null","","","","decisionFB","","","<div class='trialDiv'><img src='Fruit/pears.png'><br><font class='baseline'><strong>Pears Aplenty</strong><p>Choose number of points to bet.</font><div class='respPicDiv'><img src='img/responseButtonOffersNo0L1.png' class='respPic'></div></div>","null","9","Pears Aplenty","Fruit/pears.png","Lost","0.35,0.8","9","0.35","116","25","",""
"html-keyboard-response","85","178930","0.0-11.0-3.24","63ea5b93d1c6d38e1f57dcfa","bdp_rwlrn","Sat Apr 08 2023 12:04:00 GMT-0400 (Eastern Daylight Time)","405089","Trustworthy,Untrustworthy","","null","","","","feedback","","","<div class='respPicDiv'><img src='img/responseButtonOffersNo0_wht.png' class='respPic'></div><div class='trialDiv'><img src='Fruit/pears.png'><br><font class='baseline'><strong>Pears Aplenty</strong><p><strong><font class='negOutcome'>You LOST</font><p>You bet: 1</strong></font> &nbsp; &nbsp; &nbsp; &nbsp; &nbsp; &nbsp;<font class='negOutcome'>You receive: <strong>0</strong></font></div>","null","9","Pears Aplenty","Fruit/pears.png","Lost","0.35,0.8","9","0.35","116","25","",""
"html-keyboard-response","86","179362","0.0-11.0-1.25","63ea5b93d1c6d38e1f57dcfa","bdp_rwlrn","Sat Apr 08 2023 12:04:00 GMT-0400 (Eastern Daylight Time)","405089","Trustworthy,Untrustworthy","","431","","","","decision","","","<div class='trialDiv'><img src='Fruit/orange.png'><br><font class='baseline'><strong>Odds are Orange</strong><p>Choose number of points to bet.</font><div class='respPicDiv'><img src='img/responseButtonOffersNo0L.png' class='respPic'></div></div>","5","9","Odds are Orange","Fruit/orange.png","Won","0.8,0.35","12","0.8","121","26","",""
"html-keyboard-response","87","179617","0.0-11.0-2.25","63ea5b93d1c6d38e1f57dcfa","bdp_rwlrn","Sat Apr 08 2023 12:04:00 GMT-0400 (Eastern Daylight Time)","405089","Trustworthy,Untrustworthy","","null","","","","decisionFB","","","<div class='trialDiv'><img src='Fruit/orange.png'><br><font class='baseline'><strong>Odds are Orange</strong><p>Choose number of points to bet.</font><div class='respPicDiv'><img src='img/responseButtonOffersNo0L5.png' class='respPic'></div></div>","null","9","Odds are Orange","Fruit/orange.png","Won","0.8,0.35","12","0.8","116","26","",""
"html-keyboard-response","88","180630","0.0-11.0-3.25","63ea5b93d1c6d38e1f57dcfa","bdp_rwlrn","Sat Apr 08 2023 12:04:00 GMT-0400 (Eastern Daylight Time)","405089","Trustworthy,Untrustworthy","","null","","","","feedback","","","<div class='respPicDiv'><img src='img/responseButtonOffersNo0_wht.png' class='respPic'></div><div class='trialDiv'><img src='Fruit/orange.png'><br><font class='baseline'><strong>Odds are Orange</strong><p><strong><font class='posOutcome'>You WON</font><p>You bet: 5</strong></font> &nbsp; &nbsp; &nbsp; &nbsp; &nbsp; &nbsp;<font class='posOutcome'>you receive: <strong>10</strong></font></div>","null","9","Odds are Orange","Fruit/orange.png","Won","0.8,0.35","12","0.8","126","26","",""
"html-keyboard-response","89","181048","0.0-11.0-1.26","63ea5b93d1c6d38e1f57dcfa","bdp_rwlrn","Sat Apr 08 2023 12:04:00 GMT-0400 (Eastern Daylight Time)","405089","Trustworthy,Untrustworthy","","418","","","","decision","","","<div class='trialDiv'><img src='Fruit/papayas.png'><br><font class='baseline'><strong>Papaya Payday</strong><p>Choose number of points to bet.</font><div class='respPicDiv'><img src='img/responseButtonOffersNo0L.png' class='respPic'></div></div>","1","9","Papaya Payday","Fruit/papayas.png","Won","0.2,0.8","8","0.2","131","27","",""
"html-keyboard-response","90","181312","0.0-11.0-2.26","63ea5b93d1c6d38e1f57dcfa","bdp_rwlrn","Sat Apr 08 2023 12:04:00 GMT-0400 (Eastern Daylight Time)","405089","Trustworthy,Untrustworthy","","null","","","","decisionFB","","","<div class='trialDiv'><img src='Fruit/papayas.png'><br><font class='baseline'><strong>Papaya Payday</strong><p>Choose number of points to bet.</font><div class='respPicDiv'><img src='img/responseButtonOffersNo0L1.png' class='respPic'></div></div>","null","9","Papaya Payday","Fruit/papayas.png","Won","0.2,0.8","8","0.2","130","27","",""
"html-keyboard-response","91","182322","0.0-11.0-3.26","63ea5b93d1c6d38e1f57dcfa","bdp_rwlrn","Sat Apr 08 2023 12:04:00 GMT-0400 (Eastern Daylight Time)","405089","Trustworthy,Untrustworthy","","null","","","","feedback","","","<div class='respPicDiv'><img src='img/responseButtonOffersNo0_wht.png' class='respPic'></div><div class='trialDiv'><img src='Fruit/papayas.png'><br><font class='baseline'><strong>Papaya Payday</strong><p><strong><font class='posOutcome'>You WON</font><p>You bet: 1</strong></font> &nbsp; &nbsp; &nbsp; &nbsp; &nbsp; &nbsp;<font class='posOutcome'>you receive: <strong>2</strong></font></div>","null","9","Papaya Payday","Fruit/papayas.png","Won","0.2,0.8","8","0.2","132","27","",""
"html-keyboard-response","92","182934","0.0-11.0-1.27","63ea5b93d1c6d38e1f57dcfa","bdp_rwlrn","Sat Apr 08 2023 12:04:00 GMT-0400 (Eastern Daylight Time)","405089","Trustworthy,Untrustworthy","","611","","","","decision","","","<div class='trialDiv'><img src='Fruit/orange.png'><br><font class='baseline'><strong>Odds are Orange</strong><p>Choose number of points to bet.</font><div class='respPicDiv'><img src='img/responseButtonOffersNo0L.png' class='respPic'></div></div>","5","10","Odds are Orange","Fruit/orange.png","Won","0.8,0.35","12","0.8","137","28","",""
"html-keyboard-response","93","183191","0.0-11.0-2.27","63ea5b93d1c6d38e1f57dcfa","bdp_rwlrn","Sat Apr 08 2023 12:04:00 GMT-0400 (Eastern Daylight Time)","405089","Trustworthy,Untrustworthy","","null","","","","decisionFB","","","<div class='trialDiv'><img src='Fruit/orange.png'><br><font class='baseline'><strong>Odds are Orange</strong><p>Choose number of points to bet.</font><div class='respPicDiv'><img src='img/responseButtonOffersNo0L5.png' class='respPic'></div></div>","null","10","Odds are Orange","Fruit/orange.png","Won","0.8,0.35","12","0.8","132","28","",""
"html-keyboard-response","94","184203","0.0-11.0-3.27","63ea5b93d1c6d38e1f57dcfa","bdp_rwlrn","Sat Apr 08 2023 12:04:00 GMT-0400 (Eastern Daylight Time)","405089","Trustworthy,Untrustworthy","","null","","","","feedback","","","<div class='respPicDiv'><img src='img/responseButtonOffersNo0_wht.png' class='respPic'></div><div class='trialDiv'><img src='Fruit/orange.png'><br><font class='baseline'><strong>Odds are Orange</strong><p><strong><font class='posOutcome'>You WON</font><p>You bet: 5</strong></font> &nbsp; &nbsp; &nbsp; &nbsp; &nbsp; &nbsp;<font class='posOutcome'>you receive: <strong>10</strong></font></div>","null","10","Odds are Orange","Fruit/orange.png","Won","0.8,0.35","12","0.8","142","28","",""
"html-keyboard-response","95","184760","0.0-11.0-1.28","63ea5b93d1c6d38e1f57dcfa","bdp_rwlrn","Sat Apr 08 2023 12:04:00 GMT-0400 (Eastern Daylight Time)","405089","Trustworthy,Untrustworthy","","557","","","","decision","","","<div class='trialDiv'><img src='Fruit/pears.png'><br><font class='baseline'><strong>Pears Aplenty</strong><p>Choose number of points to bet.</font><div class='respPicDiv'><img src='img/responseButtonOffersNo0L.png' class='respPic'></div></div>","1","10","Pears Aplenty","Fruit/pears.png","Won","0.35,0.8","9","0.35","147","29","",""
"html-keyboard-response","96","185010","0.0-11.0-2.28","63ea5b93d1c6d38e1f57dcfa","bdp_rwlrn","Sat Apr 08 2023 12:04:00 GMT-0400 (Eastern Daylight Time)","405089","Trustworthy,Untrustworthy","","null","","","","decisionFB","","","<div class='trialDiv'><img src='Fruit/pears.png'><br><font class='baseline'><strong>Pears Aplenty</strong><p>Choose number of points to bet.</font><div class='respPicDiv'><img src='img/responseButtonOffersNo0L1.png' class='respPic'></div></div>","null","10","Pears Aplenty","Fruit/pears.png","Won","0.35,0.8","9","0.35","146","29","",""
"html-keyboard-response","97","186016","0.0-11.0-3.28","63ea5b93d1c6d38e1f57dcfa","bdp_rwlrn","Sat Apr 08 2023 12:04:00 GMT-0400 (Eastern Daylight Time)","405089","Trustworthy,Untrustworthy","","null","","","","feedback","","","<div class='respPicDiv'><img src='img/responseButtonOffersNo0_wht.png' class='respPic'></div><div class='trialDiv'><img src='Fruit/pears.png'><br><font class='baseline'><strong>Pears Aplenty</strong><p><strong><font class='posOutcome'>You WON</font><p>You bet: 1</strong></font> &nbsp; &nbsp; &nbsp; &nbsp; &nbsp; &nbsp;<font class='posOutcome'>you receive: <strong>2</strong></font></div>","null","10","Pears Aplenty","Fruit/pears.png","Won","0.35,0.8","9","0.35","148","29","",""
"html-keyboard-response","98","186569","0.0-11.0-1.29","63ea5b93d1c6d38e1f57dcfa","bdp_rwlrn","Sat Apr 08 2023 12:04:00 GMT-0400 (Eastern Daylight Time)","405089","Trustworthy,Untrustworthy","","552","","","","decision","","","<div class='trialDiv'><img src='Fruit/papayas.png'><br><font class='baseline'><strong>Papaya Payday</strong><p>Choose number of points to bet.</font><div class='respPicDiv'><img src='img/responseButtonOffersNo0L.png' class='respPic'></div></div>","1","10","Papaya Payday","Fruit/papayas.png","Won","0.2,0.8","8","0.2","153","30","",""
"html-keyboard-response","99","186829","0.0-11.0-2.29","63ea5b93d1c6d38e1f57dcfa","bdp_rwlrn","Sat Apr 08 2023 12:04:00 GMT-0400 (Eastern Daylight Time)","405089","Trustworthy,Untrustworthy","","null","","","","decisionFB","","","<div class='trialDiv'><img src='Fruit/papayas.png'><br><font class='baseline'><strong>Papaya Payday</strong><p>Choose number of points to bet.</font><div class='respPicDiv'><img src='img/responseButtonOffersNo0L1.png' class='respPic'></div></div>","null","10","Papaya Payday","Fruit/papayas.png","Won","0.2,0.8","8","0.2","152","30","",""
"html-keyboard-response","100","187830","0.0-11.0-3.29","63ea5b93d1c6d38e1f57dcfa","bdp_rwlrn","Sat Apr 08 2023 12:04:00 GMT-0400 (Eastern Daylight Time)","405089","Trustworthy,Untrustworthy","","null","","","","feedback","","","<div class='respPicDiv'><img src='img/responseButtonOffersNo0_wht.png' class='respPic'></div><div class='trialDiv'><img src='Fruit/papayas.png'><br><font class='baseline'><strong>Papaya Payday</strong><p><strong><font class='posOutcome'>You WON</font><p>You bet: 1</strong></font> &nbsp; &nbsp; &nbsp; &nbsp; &nbsp; &nbsp;<font class='posOutcome'>you receive: <strong>2</strong></font></div>","null","10","Papaya Payday","Fruit/papayas.png","Won","0.2,0.8","8","0.2","154","30","",""
"html-keyboard-response","101","188401","0.0-11.0-1.30","63ea5b93d1c6d38e1f57dcfa","bdp_rwlrn","Sat Apr 08 2023 12:04:00 GMT-0400 (Eastern Daylight Time)","405089","Trustworthy,Untrustworthy","","571","","","","decision","","","<div class='trialDiv'><img src='Fruit/pears.png'><br><font class='baseline'><strong>Pears Aplenty</strong><p>Choose number of points to bet.</font><div class='respPicDiv'><img src='img/responseButtonOffersNo0L.png' class='respPic'></div></div>","1","11","Pears Aplenty","Fruit/pears.png","Won","0.35,0.8","9","0.35","159","31","",""
"html-keyboard-response","102","188666","0.0-11.0-2.30","63ea5b93d1c6d38e1f57dcfa","bdp_rwlrn","Sat Apr 08 2023 12:04:00 GMT-0400 (Eastern Daylight Time)","405089","Trustworthy,Untrustworthy","","null","","","","decisionFB","","","<div class='trialDiv'><img src='Fruit/pears.png'><br><font class='baseline'><strong>Pears Aplenty</strong><p>Choose number of points to bet.</font><div class='respPicDiv'><img src='img/responseButtonOffersNo0L1.png' class='respPic'></div></div>","null","11","Pears Aplenty","Fruit/pears.png","Won","0.35,0.8","9","0.35","158","31","",""
"html-keyboard-response","103","189670","0.0-11.0-3.30","63ea5b93d1c6d38e1f57dcfa","bdp_rwlrn","Sat Apr 08 2023 12:04:00 GMT-0400 (Eastern Daylight Time)","405089","Trustworthy,Untrustworthy","","null","","","","feedback","","","<div class='respPicDiv'><img src='img/responseButtonOffersNo0_wht.png' class='respPic'></div><div class='trialDiv'><img src='Fruit/pears.png'><br><font class='baseline'><strong>Pears Aplenty</strong><p><strong><font class='posOutcome'>You WON</font><p>You bet: 1</strong></font> &nbsp; &nbsp; &nbsp; &nbsp; &nbsp; &nbsp;<font class='posOutcome'>you receive: <strong>2</strong></font></div>","null","11","Pears Aplenty","Fruit/pears.png","Won","0.35,0.8","9","0.35","160","31","",""
"html-keyboard-response","104","190194","0.0-11.0-1.31","63ea5b93d1c6d38e1f57dcfa","bdp_rwlrn","Sat Apr 08 2023 12:04:00 GMT-0400 (Eastern Daylight Time)","405089","Trustworthy,Untrustworthy","","524","","","","decision","","","<div class='trialDiv'><img src='Fruit/orange.png'><br><font class='baseline'><strong>Odds are Orange</strong><p>Choose number of points to bet.</font><div class='respPicDiv'><img src='img/responseButtonOffersNo0L.png' class='respPic'></div></div>","5","11","Odds are Orange","Fruit/orange.png","Won","0.8,0.35","12","0.8","165","32","",""
"html-keyboard-response","105","190456","0.0-11.0-2.31","63ea5b93d1c6d38e1f57dcfa","bdp_rwlrn","Sat Apr 08 2023 12:04:00 GMT-0400 (Eastern Daylight Time)","405089","Trustworthy,Untrustworthy","","null","","","","decisionFB","","","<div class='trialDiv'><img src='Fruit/orange.png'><br><font class='baseline'><strong>Odds are Orange</strong><p>Choose number of points to bet.</font><div class='respPicDiv'><img src='img/responseButtonOffersNo0L5.png' class='respPic'></div></div>","null","11","Odds are Orange","Fruit/orange.png","Won","0.8,0.35","12","0.8","160","32","",""
"html-keyboard-response","106","191468","0.0-11.0-3.31","63ea5b93d1c6d38e1f57dcfa","bdp_rwlrn","Sat Apr 08 2023 12:04:00 GMT-0400 (Eastern Daylight Time)","405089","Trustworthy,Untrustworthy","","null","","","","feedback","","","<div class='respPicDiv'><img src='img/responseButtonOffersNo0_wht.png' class='respPic'></div><div class='trialDiv'><img src='Fruit/orange.png'><br><font class='baseline'><strong>Odds are Orange</strong><p><strong><font class='posOutcome'>You WON</font><p>You bet: 5</strong></font> &nbsp; &nbsp; &nbsp; &nbsp; &nbsp; &nbsp;<font class='posOutcome'>you receive: <strong>10</strong></font></div>","null","11","Odds are Orange","Fruit/orange.png","Won","0.8,0.35","12","0.8","170","32","",""
"html-keyboard-response","107","192065","0.0-11.0-1.32","63ea5b93d1c6d38e1f57dcfa","bdp_rwlrn","Sat Apr 08 2023 12:04:00 GMT-0400 (Eastern Daylight Time)","405089","Trustworthy,Untrustworthy","","597","","","","decision","","","<div class='trialDiv'><img src='Fruit/papayas.png'><br><font class='baseline'><strong>Papaya Payday</strong><p>Choose number of points to bet.</font><div class='respPicDiv'><img src='img/responseButtonOffersNo0L.png' class='respPic'></div></div>","1","11","Papaya Payday","Fruit/papayas.png","Won","0.2,0.8","8","0.2","175","33","",""
"html-keyboard-response","108","192317","0.0-11.0-2.32","63ea5b93d1c6d38e1f57dcfa","bdp_rwlrn","Sat Apr 08 2023 12:04:00 GMT-0400 (Eastern Daylight Time)","405089","Trustworthy,Untrustworthy","","null","","","","decisionFB","","","<div class='trialDiv'><img src='Fruit/papayas.png'><br><font class='baseline'><strong>Papaya Payday</strong><p>Choose number of points to bet.</font><div class='respPicDiv'><img src='img/responseButtonOffersNo0L1.png' class='respPic'></div></div>","null","11","Papaya Payday","Fruit/papayas.png","Won","0.2,0.8","8","0.2","174","33","",""
"html-keyboard-response","109","193320","0.0-11.0-3.32","63ea5b93d1c6d38e1f57dcfa","bdp_rwlrn","Sat Apr 08 2023 12:04:00 GMT-0400 (Eastern Daylight Time)","405089","Trustworthy,Untrustworthy","","null","","","","feedback","","","<div class='respPicDiv'><img src='img/responseButtonOffersNo0_wht.png' class='respPic'></div><div class='trialDiv'><img src='Fruit/papayas.png'><br><font class='baseline'><strong>Papaya Payday</strong><p><strong><font class='posOutcome'>You WON</font><p>You bet: 1</strong></font> &nbsp; &nbsp; &nbsp; &nbsp; &nbsp; &nbsp;<font class='posOutcome'>you receive: <strong>2</strong></font></div>","null","11","Papaya Payday","Fruit/papayas.png","Won","0.2,0.8","8","0.2","176","33","",""
"html-keyboard-response","110","193922","0.0-11.0-1.33","63ea5b93d1c6d38e1f57dcfa","bdp_rwlrn","Sat Apr 08 2023 12:04:00 GMT-0400 (Eastern Daylight Time)","405089","Trustworthy,Untrustworthy","","602","","","","decision","","","<div class='trialDiv'><img src='Fruit/pears.png'><br><font class='baseline'><strong>Pears Aplenty</strong><p>Choose number of points to bet.</font><div class='respPicDiv'><img src='img/responseButtonOffersNo0L.png' class='respPic'></div></div>","1","12","Pears Aplenty","Fruit/pears.png","Won","0.35,0.8","9","0.35","181","34","",""
"html-keyboard-response","111","194175","0.0-11.0-2.33","63ea5b93d1c6d38e1f57dcfa","bdp_rwlrn","Sat Apr 08 2023 12:04:00 GMT-0400 (Eastern Daylight Time)","405089","Trustworthy,Untrustworthy","","null","","","","decisionFB","","","<div class='trialDiv'><img src='Fruit/pears.png'><br><font class='baseline'><strong>Pears Aplenty</strong><p>Choose number of points to bet.</font><div class='respPicDiv'><img src='img/responseButtonOffersNo0L1.png' class='respPic'></div></div>","null","12","Pears Aplenty","Fruit/pears.png","Won","0.35,0.8","9","0.35","180","34","",""
"html-keyboard-response","112","195186","0.0-11.0-3.33","63ea5b93d1c6d38e1f57dcfa","bdp_rwlrn","Sat Apr 08 2023 12:04:00 GMT-0400 (Eastern Daylight Time)","405089","Trustworthy,Untrustworthy","","null","","","","feedback","","","<div class='respPicDiv'><img src='img/responseButtonOffersNo0_wht.png' class='respPic'></div><div class='trialDiv'><img src='Fruit/pears.png'><br><font class='baseline'><strong>Pears Aplenty</strong><p><strong><font class='posOutcome'>You WON</font><p>You bet: 1</strong></font> &nbsp; &nbsp; &nbsp; &nbsp; &nbsp; &nbsp;<font class='posOutcome'>you receive: <strong>2</strong></font></div>","null","12","Pears Aplenty","Fruit/pears.png","Won","0.35,0.8","9","0.35","182","34","",""
"html-keyboard-response","113","195599","0.0-11.0-1.34","63ea5b93d1c6d38e1f57dcfa","bdp_rwlrn","Sat Apr 08 2023 12:04:00 GMT-0400 (Eastern Daylight Time)","405089","Trustworthy,Untrustworthy","","412","","","","decision","","","<div class='trialDiv'><img src='Fruit/orange.png'><br><font class='baseline'><strong>Odds are Orange</strong><p>Choose number of points to bet.</font><div class='respPicDiv'><img src='img/responseButtonOffersNo0L.png' class='respPic'></div></div>","5","12","Odds are Orange","Fruit/orange.png","Lost","0.8,0.35","12","0.8","187","35","",""
"html-keyboard-response","114","195857","0.0-11.0-2.34","63ea5b93d1c6d38e1f57dcfa","bdp_rwlrn","Sat Apr 08 2023 12:04:00 GMT-0400 (Eastern Daylight Time)","405089","Trustworthy,Untrustworthy","","null","","","","decisionFB","","","<div class='trialDiv'><img src='Fruit/orange.png'><br><font class='baseline'><strong>Odds are Orange</strong><p>Choose number of points to bet.</font><div class='respPicDiv'><img src='img/responseButtonOffersNo0L5.png' class='respPic'></div></div>","null","12","Odds are Orange","Fruit/orange.png","Lost","0.8,0.35","12","0.8","182","35","",""
"html-keyboard-response","115","196859","0.0-11.0-3.34","63ea5b93d1c6d38e1f57dcfa","bdp_rwlrn","Sat Apr 08 2023 12:04:00 GMT-0400 (Eastern Daylight Time)","405089","Trustworthy,Untrustworthy","","null","","","","feedback","","","<div class='respPicDiv'><img src='img/responseButtonOffersNo0_wht.png' class='respPic'></div><div class='trialDiv'><img src='Fruit/orange.png'><br><font class='baseline'><strong>Odds are Orange</strong><p><strong><font class='negOutcome'>You LOST</font><p>You bet: 5</strong></font> &nbsp; &nbsp; &nbsp; &nbsp; &nbsp; &nbsp;<font class='negOutcome'>You receive: <strong>0</strong></font></div>","null","12","Odds are Orange","Fruit/orange.png","Lost","0.8,0.35","12","0.8","182","35","",""
"html-keyboard-response","116","197309","0.0-11.0-1.35","63ea5b93d1c6d38e1f57dcfa","bdp_rwlrn","Sat Apr 08 2023 12:04:00 GMT-0400 (Eastern Daylight Time)","405089","Trustworthy,Untrustworthy","","450","","","","decision","","","<div class='trialDiv'><img src='Fruit/papayas.png'><br><font class='baseline'><strong>Papaya Payday</strong><p>Choose number of points to bet.</font><div class='respPicDiv'><img src='img/responseButtonOffersNo0L.png' class='respPic'></div></div>","1","12","Papaya Payday","Fruit/papayas.png","Lost","0.2,0.8","8","0.2","187","36","",""
"html-keyboard-response","117","197574","0.0-11.0-2.35","63ea5b93d1c6d38e1f57dcfa","bdp_rwlrn","Sat Apr 08 2023 12:04:00 GMT-0400 (Eastern Daylight Time)","405089","Trustworthy,Untrustworthy","","null","","","","decisionFB","","","<div class='trialDiv'><img src='Fruit/papayas.png'><br><font class='baseline'><strong>Papaya Payday</strong><p>Choose number of points to bet.</font><div class='respPicDiv'><img src='img/responseButtonOffersNo0L1.png' class='respPic'></div></div>","null","12","Papaya Payday","Fruit/papayas.png","Lost","0.2,0.8","8","0.2","186","36","",""
"html-keyboard-response","118","198583","0.0-11.0-3.35","63ea5b93d1c6d38e1f57dcfa","bdp_rwlrn","Sat Apr 08 2023 12:04:00 GMT-0400 (Eastern Daylight Time)","405089","Trustworthy,Untrustworthy","","null","","","","feedback","","","<div class='respPicDiv'><img src='img/responseButtonOffersNo0_wht.png' class='respPic'></div><div class='trialDiv'><img src='Fruit/papayas.png'><br><font class='baseline'><strong>Papaya Payday</strong><p><strong><font class='negOutcome'>You LOST</font><p>You bet: 1</strong></font> &nbsp; &nbsp; &nbsp; &nbsp; &nbsp; &nbsp;<font class='negOutcome'>You receive: <strong>0</strong></font></div>","null","12","Papaya Payday","Fruit/papayas.png","Lost","0.2,0.8","8","0.2","186","36","",""
"html-keyboard-response","119","198980","0.0-11.0-1.36","63ea5b93d1c6d38e1f57dcfa","bdp_rwlrn","Sat Apr 08 2023 12:04:00 GMT-0400 (Eastern Daylight Time)","405089","Trustworthy,Untrustworthy","","396","","","","decision","","","<div class='trialDiv'><img src='Fruit/pears.png'><br><font class='baseline'><strong>Pears Aplenty</strong><p>Choose number of points to bet.</font><div class='respPicDiv'><img src='img/responseButtonOffersNo0L.png' class='respPic'></div></div>","1","13","Pears Aplenty","Fruit/pears.png","Won","0.35,0.8","9","0.35","191","37","",""
"html-keyboard-response","120","199242","0.0-11.0-2.36","63ea5b93d1c6d38e1f57dcfa","bdp_rwlrn","Sat Apr 08 2023 12:04:00 GMT-0400 (Eastern Daylight Time)","405089","Trustworthy,Untrustworthy","","null","","","","decisionFB","","","<div class='trialDiv'><img src='Fruit/pears.png'><br><font class='baseline'><strong>Pears Aplenty</strong><p>Choose number of points to bet.</font><div class='respPicDiv'><img src='img/responseButtonOffersNo0L1.png' class='respPic'></div></div>","null","13","Pears Aplenty","Fruit/pears.png","Won","0.35,0.8","9","0.35","190","37","",""
"html-keyboard-response","121","200246","0.0-11.0-3.36","63ea5b93d1c6d38e1f57dcfa","bdp_rwlrn","Sat Apr 08 2023 12:04:00 GMT-0400 (Eastern Daylight Time)","405089","Trustworthy,Untrustworthy","","null","","","","feedback","","","<div class='respPicDiv'><img src='img/responseButtonOffersNo0_wht.png' class='respPic'></div><div class='trialDiv'><img src='Fruit/pears.png'><br><font class='baseline'><strong>Pears Aplenty</strong><p><strong><font class='posOutcome'>You WON</font><p>You bet: 1</strong></font> &nbsp; &nbsp; &nbsp; &nbsp; &nbsp; &nbsp;<font class='posOutcome'>you receive: <strong>2</strong></font></div>","null","13","Pears Aplenty","Fruit/pears.png","Won","0.35,0.8","9","0.35","192","37","",""
"html-keyboard-response","122","200588","0.0-11.0-1.37","63ea5b93d1c6d38e1f57dcfa","bdp_rwlrn","Sat Apr 08 2023 12:04:00 GMT-0400 (Eastern Daylight Time)","405089","Trustworthy,Untrustworthy","","342","","","","decision","","","<div class='trialDiv'><img src='Fruit/orange.png'><br><font class='baseline'><strong>Odds are Orange</strong><p>Choose number of points to bet.</font><div class='respPicDiv'><img src='img/responseButtonOffersNo0L.png' class='respPic'></div></div>","5","13","Odds are Orange","Fruit/orange.png","Lost","0.8,0.35","12","0.8","197","38","",""
"html-keyboard-response","123","200838","0.0-11.0-2.37","63ea5b93d1c6d38e1f57dcfa","bdp_rwlrn","Sat Apr 08 2023 12:04:00 GMT-0400 (Eastern Daylight Time)","405089","Trustworthy,Untrustworthy","","null","","","","decisionFB","","","<div class='trialDiv'><img src='Fruit/orange.png'><br><font class='baseline'><strong>Odds are Orange</strong><p>Choose number of points to bet.</font><div class='respPicDiv'><img src='img/responseButtonOffersNo0L5.png' class='respPic'></div></div>","null","13","Odds are Orange","Fruit/orange.png","Lost","0.8,0.35","12","0.8","192","38","",""
"html-keyboard-response","124","201848","0.0-11.0-3.37","63ea5b93d1c6d38e1f57dcfa","bdp_rwlrn","Sat Apr 08 2023 12:04:00 GMT-0400 (Eastern Daylight Time)","405089","Trustworthy,Untrustworthy","","null","","","","feedback","","","<div class='respPicDiv'><img src='img/responseButtonOffersNo0_wht.png' class='respPic'></div><div class='trialDiv'><img src='Fruit/orange.png'><br><font class='baseline'><strong>Odds are Orange</strong><p><strong><font class='negOutcome'>You LOST</font><p>You bet: 5</strong></font> &nbsp; &nbsp; &nbsp; &nbsp; &nbsp; &nbsp;<font class='negOutcome'>You receive: <strong>0</strong></font></div>","null","13","Odds are Orange","Fruit/orange.png","Lost","0.8,0.35","12","0.8","192","38","",""
"html-keyboard-response","125","202645","0.0-11.0-1.38","63ea5b93d1c6d38e1f57dcfa","bdp_rwlrn","Sat Apr 08 2023 12:04:00 GMT-0400 (Eastern Daylight Time)","405089","Trustworthy,Untrustworthy","","795","","","","decision","","","<div class='trialDiv'><img src='Fruit/papayas.png'><br><font class='baseline'><strong>Papaya Payday</strong><p>Choose number of points to bet.</font><div class='respPicDiv'><img src='img/responseButtonOffersNo0L.png' class='respPic'></div></div>","1","13","Papaya Payday","Fruit/papayas.png","Won","0.2,0.8","8","0.2","197","39","",""
"html-keyboard-response","126","202903","0.0-11.0-2.38","63ea5b93d1c6d38e1f57dcfa","bdp_rwlrn","Sat Apr 08 2023 12:04:00 GMT-0400 (Eastern Daylight Time)","405089","Trustworthy,Untrustworthy","","null","","","","decisionFB","","","<div class='trialDiv'><img src='Fruit/papayas.png'><br><font class='baseline'><strong>Papaya Payday</strong><p>Choose number of points to bet.</font><div class='respPicDiv'><img src='img/responseButtonOffersNo0L1.png' class='respPic'></div></div>","null","13","Papaya Payday","Fruit/papayas.png","Won","0.2,0.8","8","0.2","196","39","",""
"html-keyboard-response","127","203914","0.0-11.0-3.38","63ea5b93d1c6d38e1f57dcfa","bdp_rwlrn","Sat Apr 08 2023 12:04:00 GMT-0400 (Eastern Daylight Time)","405089","Trustworthy,Untrustworthy","","null","","","","feedback","","","<div class='respPicDiv'><img src='img/responseButtonOffersNo0_wht.png' class='respPic'></div><div class='trialDiv'><img src='Fruit/papayas.png'><br><font class='baseline'><strong>Papaya Payday</strong><p><strong><font class='posOutcome'>You WON</font><p>You bet: 1</strong></font> &nbsp; &nbsp; &nbsp; &nbsp; &nbsp; &nbsp;<font class='posOutcome'>you receive: <strong>2</strong></font></div>","null","13","Papaya Payday","Fruit/papayas.png","Won","0.2,0.8","8","0.2","198","39","",""
"html-keyboard-response","128","204430","0.0-11.0-1.39","63ea5b93d1c6d38e1f57dcfa","bdp_rwlrn","Sat Apr 08 2023 12:04:00 GMT-0400 (Eastern Daylight Time)","405089","Trustworthy,Untrustworthy","","516","","","","decision","","","<div class='trialDiv'><img src='Fruit/orange.png'><br><font class='baseline'><strong>Odds are Orange</strong><p>Choose number of points to bet.</font><div class='respPicDiv'><img src='img/responseButtonOffersNo0L.png' class='respPic'></div></div>","1","14","Odds are Orange","Fruit/orange.png","Lost","0.8,0.35","12","0.8","203","40","",""
"html-keyboard-response","129","204694","0.0-11.0-2.39","63ea5b93d1c6d38e1f57dcfa","bdp_rwlrn","Sat Apr 08 2023 12:04:00 GMT-0400 (Eastern Daylight Time)","405089","Trustworthy,Untrustworthy","","null","","","","decisionFB","","","<div class='trialDiv'><img src='Fruit/orange.png'><br><font class='baseline'><strong>Odds are Orange</strong><p>Choose number of points to bet.</font><div class='respPicDiv'><img src='img/responseButtonOffersNo0L1.png' class='respPic'></div></div>","null","14","Odds are Orange","Fruit/orange.png","Lost","0.8,0.35","12","0.8","202","40","",""
"html-keyboard-response","130","205695","0.0-11.0-3.39","63ea5b93d1c6d38e1f57dcfa","bdp_rwlrn","Sat Apr 08 2023 12:04:00 GMT-0400 (Eastern Daylight Time)","405089","Trustworthy,Untrustworthy","","null","","","","feedback","","","<div class='respPicDiv'><img src='img/responseButtonOffersNo0_wht.png' class='respPic'></div><div class='trialDiv'><img src='Fruit/orange.png'><br><font class='baseline'><strong>Odds are Orange</strong><p><strong><font class='negOutcome'>You LOST</font><p>You bet: 1</strong></font> &nbsp; &nbsp; &nbsp; &nbsp; &nbsp; &nbsp;<font class='negOutcome'>You receive: <strong>0</strong></font></div>","null","14","Odds are Orange","Fruit/orange.png","Lost","0.8,0.35","12","0.8","202","40","",""
"html-keyboard-response","131","206425","0.0-11.0-1.40","63ea5b93d1c6d38e1f57dcfa","bdp_rwlrn","Sat Apr 08 2023 12:04:00 GMT-0400 (Eastern Daylight Time)","405089","Trustworthy,Untrustworthy","","730","","","","decision","","","<div class='trialDiv'><img src='Fruit/papayas.png'><br><font class='baseline'><strong>Papaya Payday</strong><p>Choose number of points to bet.</font><div class='respPicDiv'><img src='img/responseButtonOffersNo0L.png' class='respPic'></div></div>","1","14","Papaya Payday","Fruit/papayas.png","Won","0.2,0.8","8","0.2","207","41","",""
"html-keyboard-response","132","206687","0.0-11.0-2.40","63ea5b93d1c6d38e1f57dcfa","bdp_rwlrn","Sat Apr 08 2023 12:04:00 GMT-0400 (Eastern Daylight Time)","405089","Trustworthy,Untrustworthy","","null","","","","decisionFB","","","<div class='trialDiv'><img src='Fruit/papayas.png'><br><font class='baseline'><strong>Papaya Payday</strong><p>Choose number of points to bet.</font><div class='respPicDiv'><img src='img/responseButtonOffersNo0L1.png' class='respPic'></div></div>","null","14","Papaya Payday","Fruit/papayas.png","Won","0.2,0.8","8","0.2","206","41","",""
"html-keyboard-response","133","207690","0.0-11.0-3.40","63ea5b93d1c6d38e1f57dcfa","bdp_rwlrn","Sat Apr 08 2023 12:04:00 GMT-0400 (Eastern Daylight Time)","405089","Trustworthy,Untrustworthy","","null","","","","feedback","","","<div class='respPicDiv'><img src='img/responseButtonOffersNo0_wht.png' class='respPic'></div><div class='trialDiv'><img src='Fruit/papayas.png'><br><font class='baseline'><strong>Papaya Payday</strong><p><strong><font class='posOutcome'>You WON</font><p>You bet: 1</strong></font> &nbsp; &nbsp; &nbsp; &nbsp; &nbsp; &nbsp;<font class='posOutcome'>you receive: <strong>2</strong></font></div>","null","14","Papaya Payday","Fruit/papayas.png","Won","0.2,0.8","8","0.2","208","41","",""
"html-keyboard-response","134","208563","0.0-11.0-1.41","63ea5b93d1c6d38e1f57dcfa","bdp_rwlrn","Sat Apr 08 2023 12:04:00 GMT-0400 (Eastern Daylight Time)","405089","Trustworthy,Untrustworthy","","873","","","","decision","","","<div class='trialDiv'><img src='Fruit/pears.png'><br><font class='baseline'><strong>Pears Aplenty</strong><p>Choose number of points to bet.</font><div class='respPicDiv'><img src='img/responseButtonOffersNo0L.png' class='respPic'></div></div>","5","14","Pears Aplenty","Fruit/pears.png","Won","0.35,0.8","9","0.35","213","42","",""
"html-keyboard-response","135","208822","0.0-11.0-2.41","63ea5b93d1c6d38e1f57dcfa","bdp_rwlrn","Sat Apr 08 2023 12:04:00 GMT-0400 (Eastern Daylight Time)","405089","Trustworthy,Untrustworthy","","null","","","","decisionFB","","","<div class='trialDiv'><img src='Fruit/pears.png'><br><font class='baseline'><strong>Pears Aplenty</strong><p>Choose number of points to bet.</font><div class='respPicDiv'><img src='img/responseButtonOffersNo0L5.png' class='respPic'></div></div>","null","14","Pears Aplenty","Fruit/pears.png","Won","0.35,0.8","9","0.35","208","42","",""
"html-keyboard-response","136","209836","0.0-11.0-3.41","63ea5b93d1c6d38e1f57dcfa","bdp_rwlrn","Sat Apr 08 2023 12:04:00 GMT-0400 (Eastern Daylight Time)","405089","Trustworthy,Untrustworthy","","null","","","","feedback","","","<div class='respPicDiv'><img src='img/responseButtonOffersNo0_wht.png' class='respPic'></div><div class='trialDiv'><img src='Fruit/pears.png'><br><font class='baseline'><strong>Pears Aplenty</strong><p><strong><font class='posOutcome'>You WON</font><p>You bet: 5</strong></font> &nbsp; &nbsp; &nbsp; &nbsp; &nbsp; &nbsp;<font class='posOutcome'>you receive: <strong>10</strong></font></div>","null","14","Pears Aplenty","Fruit/pears.png","Won","0.35,0.8","9","0.35","218","42","",""
"html-keyboard-response","137","210204","0.0-11.0-1.42","63ea5b93d1c6d38e1f57dcfa","bdp_rwlrn","Sat Apr 08 2023 12:04:00 GMT-0400 (Eastern Daylight Time)","405089","Trustworthy,Untrustworthy","","368","","","","decision","","","<div class='trialDiv'><img src='Fruit/papayas.png'><br><font class='baseline'><strong>Papaya Payday</strong><p>Choose number of points to bet.</font><div class='respPicDiv'><img src='img/responseButtonOffersNo0L.png' class='respPic'></div></div>","1","15","Papaya Payday","Fruit/papayas.png","Won","0.2,0.8","8","0.2","223","43","",""
"html-keyboard-response","138","210459","0.0-11.0-2.42","63ea5b93d1c6d38e1f57dcfa","bdp_rwlrn","Sat Apr 08 2023 12:04:00 GMT-0400 (Eastern Daylight Time)","405089","Trustworthy,Untrustworthy","","null","","","","decisionFB","","","<div class='trialDiv'><img src='Fruit/papayas.png'><br><font class='baseline'><strong>Papaya Payday</strong><p>Choose number of points to bet.</font><div class='respPicDiv'><img src='img/responseButtonOffersNo0L1.png' class='respPic'></div></div>","null","15","Papaya Payday","Fruit/papayas.png","Won","0.2,0.8","8","0.2","222","43","",""
"html-keyboard-response","139","211464","0.0-11.0-3.42","63ea5b93d1c6d38e1f57dcfa","bdp_rwlrn","Sat Apr 08 2023 12:04:00 GMT-0400 (Eastern Daylight Time)","405089","Trustworthy,Untrustworthy","","null","","","","feedback","","","<div class='respPicDiv'><img src='img/responseButtonOffersNo0_wht.png' class='respPic'></div><div class='trialDiv'><img src='Fruit/papayas.png'><br><font class='baseline'><strong>Papaya Payday</strong><p><strong><font class='posOutcome'>You WON</font><p>You bet: 1</strong></font> &nbsp; &nbsp; &nbsp; &nbsp; &nbsp; &nbsp;<font class='posOutcome'>you receive: <strong>2</strong></font></div>","null","15","Papaya Payday","Fruit/papayas.png","Won","0.2,0.8","8","0.2","224","43","",""
"html-keyboard-response","140","212229","0.0-11.0-1.43","63ea5b93d1c6d38e1f57dcfa","bdp_rwlrn","Sat Apr 08 2023 12:04:00 GMT-0400 (Eastern Daylight Time)","405089","Trustworthy,Untrustworthy","","764","","","","decision","","","<div class='trialDiv'><img src='Fruit/pears.png'><br><font class='baseline'><strong>Pears Aplenty</strong><p>Choose number of points to bet.</font><div class='respPicDiv'><img src='img/responseButtonOffersNo0L.png' class='respPic'></div></div>","5","15","Pears Aplenty","Fruit/pears.png","Won","0.35,0.8","9","0.35","229","44","",""
"html-keyboard-response","141","212482","0.0-11.0-2.43","63ea5b93d1c6d38e1f57dcfa","bdp_rwlrn","Sat Apr 08 2023 12:04:00 GMT-0400 (Eastern Daylight Time)","405089","Trustworthy,Untrustworthy","","null","","","","decisionFB","","","<div class='trialDiv'><img src='Fruit/pears.png'><br><font class='baseline'><strong>Pears Aplenty</strong><p>Choose number of points to bet.</font><div class='respPicDiv'><img src='img/responseButtonOffersNo0L5.png' class='respPic'></div></div>","null","15","Pears Aplenty","Fruit/pears.png","Won","0.35,0.8","9","0.35","224","44","",""
"html-keyboard-response","142","213483","0.0-11.0-3.43","63ea5b93d1c6d38e1f57dcfa","bdp_rwlrn","Sat Apr 08 2023 12:04:00 GMT-0400 (Eastern Daylight Time)","405089","Trustworthy,Untrustworthy","","null","","","","feedback","","","<div class='respPicDiv'><img src='img/responseButtonOffersNo0_wht.png' class='respPic'></div><div class='trialDiv'><img src='Fruit/pears.png'><br><font class='baseline'><strong>Pears Aplenty</strong><p><strong><font class='posOutcome'>You WON</font><p>You bet: 5</strong></font> &nbsp; &nbsp; &nbsp; &nbsp; &nbsp; &nbsp;<font class='posOutcome'>you receive: <strong>10</strong></font></div>","null","15","Pears Aplenty","Fruit/pears.png","Won","0.35,0.8","9","0.35","234","44","",""
"html-keyboard-response","143","214033","0.0-11.0-1.44","63ea5b93d1c6d38e1f57dcfa","bdp_rwlrn","Sat Apr 08 2023 12:04:00 GMT-0400 (Eastern Daylight Time)","405089","Trustworthy,Untrustworthy","","548","","","","decision","","","<div class='trialDiv'><img src='Fruit/orange.png'><br><font class='baseline'><strong>Odds are Orange</strong><p>Choose number of points to bet.</font><div class='respPicDiv'><img src='img/responseButtonOffersNo0L.png' class='respPic'></div></div>","1","15","Odds are Orange","Fruit/orange.png","Lost","0.8,0.35","12","0.8","239","45","",""
"html-keyboard-response","144","214292","0.0-11.0-2.44","63ea5b93d1c6d38e1f57dcfa","bdp_rwlrn","Sat Apr 08 2023 12:04:00 GMT-0400 (Eastern Daylight Time)","405089","Trustworthy,Untrustworthy","","null","","","","decisionFB","","","<div class='trialDiv'><img src='Fruit/orange.png'><br><font class='baseline'><strong>Odds are Orange</strong><p>Choose number of points to bet.</font><div class='respPicDiv'><img src='img/responseButtonOffersNo0L1.png' class='respPic'></div></div>","null","15","Odds are Orange","Fruit/orange.png","Lost","0.8,0.35","12","0.8","238","45","",""
"html-keyboard-response","145","215296","0.0-11.0-3.44","63ea5b93d1c6d38e1f57dcfa","bdp_rwlrn","Sat Apr 08 2023 12:04:00 GMT-0400 (Eastern Daylight Time)","405089","Trustworthy,Untrustworthy","","null","","","","feedback","","","<div class='respPicDiv'><img src='img/responseButtonOffersNo0_wht.png' class='respPic'></div><div class='trialDiv'><img src='Fruit/orange.png'><br><font class='baseline'><strong>Odds are Orange</strong><p><strong><font class='negOutcome'>You LOST</font><p>You bet: 1</strong></font> &nbsp; &nbsp; &nbsp; &nbsp; &nbsp; &nbsp;<font class='negOutcome'>You receive: <strong>0</strong></font></div>","null","15","Odds are Orange","Fruit/orange.png","Lost","0.8,0.35","12","0.8","238","45","",""
"html-keyboard-response","146","215688","0.0-11.0-1.45","63ea5b93d1c6d38e1f57dcfa","bdp_rwlrn","Sat Apr 08 2023 12:04:00 GMT-0400 (Eastern Daylight Time)","405089","Trustworthy,Untrustworthy","","391","","","","decision","","","<div class='trialDiv'><img src='Fruit/papayas.png'><br><font class='baseline'><strong>Papaya Payday</strong><p>Choose number of points to bet.</font><div class='respPicDiv'><img src='img/responseButtonOffersNo0L.png' class='respPic'></div></div>","5","16","Papaya Payday","Fruit/papayas.png","Lost","0.2,0.8","8","0.2","243","46","",""
"html-keyboard-response","147","215942","0.0-11.0-2.45","63ea5b93d1c6d38e1f57dcfa","bdp_rwlrn","Sat Apr 08 2023 12:04:00 GMT-0400 (Eastern Daylight Time)","405089","Trustworthy,Untrustworthy","","null","","","","decisionFB","","","<div class='trialDiv'><img src='Fruit/papayas.png'><br><font class='baseline'><strong>Papaya Payday</strong><p>Choose number of points to bet.</font><div class='respPicDiv'><img src='img/responseButtonOffersNo0L5.png' class='respPic'></div></div>","null","16","Papaya Payday","Fruit/papayas.png","Lost","0.2,0.8","8","0.2","238","46","",""
"html-keyboard-response","148","216950","0.0-11.0-3.45","63ea5b93d1c6d38e1f57dcfa","bdp_rwlrn","Sat Apr 08 2023 12:04:00 GMT-0400 (Eastern Daylight Time)","405089","Trustworthy,Untrustworthy","","null","","","","feedback","","","<div class='respPicDiv'><img src='img/responseButtonOffersNo0_wht.png' class='respPic'></div><div class='trialDiv'><img src='Fruit/papayas.png'><br><font class='baseline'><strong>Papaya Payday</strong><p><strong><font class='negOutcome'>You LOST</font><p>You bet: 5</strong></font> &nbsp; &nbsp; &nbsp; &nbsp; &nbsp; &nbsp;<font class='negOutcome'>You receive: <strong>0</strong></font></div>","null","16","Papaya Payday","Fruit/papayas.png","Lost","0.2,0.8","8","0.2","238","46","",""
"html-keyboard-response","149","217445","0.0-11.0-1.46","63ea5b93d1c6d38e1f57dcfa","bdp_rwlrn","Sat Apr 08 2023 12:04:00 GMT-0400 (Eastern Daylight Time)","405089","Trustworthy,Untrustworthy","","495","","","","decision","","","<div class='trialDiv'><img src='Fruit/orange.png'><br><font class='baseline'><strong>Odds are Orange</strong><p>Choose number of points to bet.</font><div class='respPicDiv'><img src='img/responseButtonOffersNo0L.png' class='respPic'></div></div>","1","16","Odds are Orange","Fruit/orange.png","Lost","0.8,0.35","12","0.8","243","47","",""
"html-keyboard-response","150","217701","0.0-11.0-2.46","63ea5b93d1c6d38e1f57dcfa","bdp_rwlrn","Sat Apr 08 2023 12:04:00 GMT-0400 (Eastern Daylight Time)","405089","Trustworthy,Untrustworthy","","null","","","","decisionFB","","","<div class='trialDiv'><img src='Fruit/orange.png'><br><font class='baseline'><strong>Odds are Orange</strong><p>Choose number of points to bet.</font><div class='respPicDiv'><img src='img/responseButtonOffersNo0L1.png' class='respPic'></div></div>","null","16","Odds are Orange","Fruit/orange.png","Lost","0.8,0.35","12","0.8","242","47","",""
"html-keyboard-response","151","218712","0.0-11.0-3.46","63ea5b93d1c6d38e1f57dcfa","bdp_rwlrn","Sat Apr 08 2023 12:04:00 GMT-0400 (Eastern Daylight Time)","405089","Trustworthy,Untrustworthy","","null","","","","feedback","","","<div class='respPicDiv'><img src='img/responseButtonOffersNo0_wht.png' class='respPic'></div><div class='trialDiv'><img src='Fruit/orange.png'><br><font class='baseline'><strong>Odds are Orange</strong><p><strong><font class='negOutcome'>You LOST</font><p>You bet: 1</strong></font> &nbsp; &nbsp; &nbsp; &nbsp; &nbsp; &nbsp;<font class='negOutcome'>You receive: <strong>0</strong></font></div>","null","16","Odds are Orange","Fruit/orange.png","Lost","0.8,0.35","12","0.8","242","47","",""
"html-keyboard-response","152","219170","0.0-11.0-1.47","63ea5b93d1c6d38e1f57dcfa","bdp_rwlrn","Sat Apr 08 2023 12:04:00 GMT-0400 (Eastern Daylight Time)","405089","Trustworthy,Untrustworthy","","458","","","","decision","","","<div class='trialDiv'><img src='Fruit/pears.png'><br><font class='baseline'><strong>Pears Aplenty</strong><p>Choose number of points to bet.</font><div class='respPicDiv'><img src='img/responseButtonOffersNo0L.png' class='respPic'></div></div>","5","16","Pears Aplenty","Fruit/pears.png","Won","0.35,0.8","9","0.35","247","48","",""
"html-keyboard-response","153","219422","0.0-11.0-2.47","63ea5b93d1c6d38e1f57dcfa","bdp_rwlrn","Sat Apr 08 2023 12:04:00 GMT-0400 (Eastern Daylight Time)","405089","Trustworthy,Untrustworthy","","null","","","","decisionFB","","","<div class='trialDiv'><img src='Fruit/pears.png'><br><font class='baseline'><strong>Pears Aplenty</strong><p>Choose number of points to bet.</font><div class='respPicDiv'><img src='img/responseButtonOffersNo0L5.png' class='respPic'></div></div>","null","16","Pears Aplenty","Fruit/pears.png","Won","0.35,0.8","9","0.35","242","48","",""
"html-keyboard-response","154","220422","0.0-11.0-3.47","63ea5b93d1c6d38e1f57dcfa","bdp_rwlrn","Sat Apr 08 2023 12:04:00 GMT-0400 (Eastern Daylight Time)","405089","Trustworthy,Untrustworthy","","null","","","","feedback","","","<div class='respPicDiv'><img src='img/responseButtonOffersNo0_wht.png' class='respPic'></div><div class='trialDiv'><img src='Fruit/pears.png'><br><font class='baseline'><strong>Pears Aplenty</strong><p><strong><font class='posOutcome'>You WON</font><p>You bet: 5</strong></font> &nbsp; &nbsp; &nbsp; &nbsp; &nbsp; &nbsp;<font class='posOutcome'>you receive: <strong>10</strong></font></div>","null","16","Pears Aplenty","Fruit/pears.png","Won","0.35,0.8","9","0.35","252","48","",""
"html-keyboard-response","155","220974","0.0-11.0-1.48","63ea5b93d1c6d38e1f57dcfa","bdp_rwlrn","Sat Apr 08 2023 12:04:00 GMT-0400 (Eastern Daylight Time)","405089","Trustworthy,Untrustworthy","","552","","","","decision","","","<div class='trialDiv'><img src='Fruit/papayas.png'><br><font class='baseline'><strong>Papaya Payday</strong><p>Choose number of points to bet.</font><div class='respPicDiv'><img src='img/responseButtonOffersNo0L.png' class='respPic'></div></div>","1","17","Papaya Payday","Fruit/papayas.png","Won","0.2,0.8","8","0.2","257","49","",""
"html-keyboard-response","156","221229","0.0-11.0-2.48","63ea5b93d1c6d38e1f57dcfa","bdp_rwlrn","Sat Apr 08 2023 12:04:00 GMT-0400 (Eastern Daylight Time)","405089","Trustworthy,Untrustworthy","","null","","","","decisionFB","","","<div class='trialDiv'><img src='Fruit/papayas.png'><br><font class='baseline'><strong>Papaya Payday</strong><p>Choose number of points to bet.</font><div class='respPicDiv'><img src='img/responseButtonOffersNo0L1.png' class='respPic'></div></div>","null","17","Papaya Payday","Fruit/papayas.png","Won","0.2,0.8","8","0.2","256","49","",""
"html-keyboard-response","157","222236","0.0-11.0-3.48","63ea5b93d1c6d38e1f57dcfa","bdp_rwlrn","Sat Apr 08 2023 12:04:00 GMT-0400 (Eastern Daylight Time)","405089","Trustworthy,Untrustworthy","","null","","","","feedback","","","<div class='respPicDiv'><img src='img/responseButtonOffersNo0_wht.png' class='respPic'></div><div class='trialDiv'><img src='Fruit/papayas.png'><br><font class='baseline'><strong>Papaya Payday</strong><p><strong><font class='posOutcome'>You WON</font><p>You bet: 1</strong></font> &nbsp; &nbsp; &nbsp; &nbsp; &nbsp; &nbsp;<font class='posOutcome'>you receive: <strong>2</strong></font></div>","null","17","Papaya Payday","Fruit/papayas.png","Won","0.2,0.8","8","0.2","258","49","",""
"html-keyboard-response","158","222855","0.0-11.0-1.49","63ea5b93d1c6d38e1f57dcfa","bdp_rwlrn","Sat Apr 08 2023 12:04:00 GMT-0400 (Eastern Daylight Time)","405089","Trustworthy,Untrustworthy","","619","","","","decision","","","<div class='trialDiv'><img src='Fruit/pears.png'><br><font class='baseline'><strong>Pears Aplenty</strong><p>Choose number of points to bet.</font><div class='respPicDiv'><img src='img/responseButtonOffersNo0L.png' class='respPic'></div></div>","1","17","Pears Aplenty","Fruit/pears.png","Won","0.35,0.8","9","0.35","263","50","",""
"html-keyboard-response","159","223108","0.0-11.0-2.49","63ea5b93d1c6d38e1f57dcfa","bdp_rwlrn","Sat Apr 08 2023 12:04:00 GMT-0400 (Eastern Daylight Time)","405089","Trustworthy,Untrustworthy","","null","","","","decisionFB","","","<div class='trialDiv'><img src='Fruit/pears.png'><br><font class='baseline'><strong>Pears Aplenty</strong><p>Choose number of points to bet.</font><div class='respPicDiv'><img src='img/responseButtonOffersNo0L1.png' class='respPic'></div></div>","null","17","Pears Aplenty","Fruit/pears.png","Won","0.35,0.8","9","0.35","262","50","",""
"html-keyboard-response","160","224118","0.0-11.0-3.49","63ea5b93d1c6d38e1f57dcfa","bdp_rwlrn","Sat Apr 08 2023 12:04:00 GMT-0400 (Eastern Daylight Time)","405089","Trustworthy,Untrustworthy","","null","","","","feedback","","","<div class='respPicDiv'><img src='img/responseButtonOffersNo0_wht.png' class='respPic'></div><div class='trialDiv'><img src='Fruit/pears.png'><br><font class='baseline'><strong>Pears Aplenty</strong><p><strong><font class='posOutcome'>You WON</font><p>You bet: 1</strong></font> &nbsp; &nbsp; &nbsp; &nbsp; &nbsp; &nbsp;<font class='posOutcome'>you receive: <strong>2</strong></font></div>","null","17","Pears Aplenty","Fruit/pears.png","Won","0.35,0.8","9","0.35","264","50","",""
"html-keyboard-response","161","224602","0.0-11.0-1.50","63ea5b93d1c6d38e1f57dcfa","bdp_rwlrn","Sat Apr 08 2023 12:04:00 GMT-0400 (Eastern Daylight Time)","405089","Trustworthy,Untrustworthy","","484","","","","decision","","","<div class='trialDiv'><img src='Fruit/orange.png'><br><font class='baseline'><strong>Odds are Orange</strong><p>Choose number of points to bet.</font><div class='respPicDiv'><img src='img/responseButtonOffersNo0L.png' class='respPic'></div></div>","5","17","Odds are Orange","Fruit/orange.png","Won","0.8,0.35","12","0.8","269","51","",""
"html-keyboard-response","162","224859","0.0-11.0-2.50","63ea5b93d1c6d38e1f57dcfa","bdp_rwlrn","Sat Apr 08 2023 12:04:00 GMT-0400 (Eastern Daylight Time)","405089","Trustworthy,Untrustworthy","","null","","","","decisionFB","","","<div class='trialDiv'><img src='Fruit/orange.png'><br><font class='baseline'><strong>Odds are Orange</strong><p>Choose number of points to bet.</font><div class='respPicDiv'><img src='img/responseButtonOffersNo0L5.png' class='respPic'></div></div>","null","17","Odds are Orange","Fruit/orange.png","Won","0.8,0.35","12","0.8","264","51","",""
