"trial_type","trial_index","time_elapsed","internal_node_id","subject_id","task","startTime","totalTime","labels","event","trial","time","trialtype","numBlurs","view_history","rt","success","stimulus","key_press","ltround","name","fileID","outcome","lottotype","lottoswpt","lottocurrpshare","point_total","round","faceID","face"
"pavlovia","0","5","0.0-0.0","5bf0cb0411439b000168edda","bdp_rwlrn","Wed Mar 15 2023 23:49:59 GMT-0400 (Eastern Daylight Time)","355450","Untrustworthy,Trustworthy","","","","","","","","","","","","","","","","","","","","",""
"","","","","5bf0cb0411439b000168edda","bdp_rwlrn","Wed Mar 15 2023 23:49:59 GMT-0400 (Eastern Daylight Time)","355450","Untrustworthy,Trustworthy","blur","1","5106","blurevent","1","","","","","","","","","","","","","","","",""
"","","","","5bf0cb0411439b000168edda","bdp_rwlrn","Wed Mar 15 2023 23:49:59 GMT-0400 (Eastern Daylight Time)","355450","Untrustworthy,Trustworthy","focus","1","8451","focusevent","","","","","","","","","","","","","","","","",""
"instructions","1","9425","0.0-1.0","5bf0cb0411439b000168edda","bdp_rwlrn","Wed Mar 15 2023 23:49:59 GMT-0400 (Eastern Daylight Time)","355450","Untrustworthy,Trustworthy","","","","","","[{""page_index"":0,""viewing_time"":9419}]","9420","","","","","","","","","","","","","",""
"","","","","5bf0cb0411439b000168edda","bdp_rwlrn","Wed Mar 15 2023 23:49:59 GMT-0400 (Eastern Daylight Time)","355450","Untrustworthy,Trustworthy","fullscreenenter","2","10630","fullscreenenter","","","","","","","","","","","","","","","","",""
"fullscreen","2","11587","0.0-2.0","5bf0cb0411439b000168edda","bdp_rwlrn","Wed Mar 15 2023 23:49:59 GMT-0400 (Eastern Daylight Time)","355450","Untrustworthy,Trustworthy","","","","","","","","true","","","","","","","","","","","","",""
"instructions","3","37663","0.0-4.0","5bf0cb0411439b000168edda","bdp_rwlrn","Wed Mar 15 2023 23:49:59 GMT-0400 (Eastern Daylight Time)","355450","Untrustworthy,Trustworthy","","","","","","[{""page_index"":0,""viewing_time"":5074},{""page_index"":1,""viewing_time"":8012},{""page_index"":2,""viewing_time"":3694},{""page_index"":3,""viewing_time"":5319},{""page_index"":4,""viewing_time"":2371},{""page_index"":5,""viewing_time"":1604}]","26074","","","","","","","","","","","","","",""
"html-keyboard-response","4","40705","0.0-5.0","5bf0cb0411439b000168edda","bdp_rwlrn","Wed Mar 15 2023 23:49:59 GMT-0400 (Eastern Daylight Time)","355450","Untrustworthy,Trustworthy","","","","","","","3039","","<div class='header' style='text-align:left; position: absolute; top: 5%; left: 5%;'><small>Task 3 of 5</small></div><div class='instruxDiv'><p><strong>1) What is the maximum number of points you can choose to bet on a lottery?</strong></p><p>a) 0</p><p>b) 1</p><p>c) 5</p>","C","","","","","","","","","","",""
"html-keyboard-response","5","41834","0.0-6.0","5bf0cb0411439b000168edda","bdp_rwlrn","Wed Mar 15 2023 23:49:59 GMT-0400 (Eastern Daylight Time)","355450","Untrustworthy,Trustworthy","","","","","","","1026","","<div class='header' style='text-align:left; position: absolute; top: 5%; left: 5%;'><small>Task 3 of 5</small></div><div class='instruxDiv'><p><strong>1) What is the maximum number of points you can choose to bet on a lottery?</strong></p><p>a) 1</p><p>b) 1</p><p style='color:#00FF00'>c) 5</p><h3 style='color:#00FF00'>Correct!</h3><h3 class='center-content'>The correct response is c).</h3><h3 class='center-content'>The maximum number of points you can choose to bet on a lottery is 5 points.</h3><p><em>Press SPACEBAR to continue</em></p></div>"," ","","","","","","","","","","",""
"html-keyboard-response","6","45077","0.0-7.0","5bf0cb0411439b000168edda","bdp_rwlrn","Wed Mar 15 2023 23:49:59 GMT-0400 (Eastern Daylight Time)","355450","Untrustworthy,Trustworthy","","","","","","","3141","","<div class='header' style='text-align:left; position: absolute; top: 5%; left: 5%;'><small>Task 3 of 5</small></div><div class='instruxDiv'><p><strong>2) How many points can you win each round?</strong></p><p>a) 10 points</p><p>b) Double what you bet</p><p>c) Quadruple what you bet</p>","B","","","","","","","","","","",""
"html-keyboard-response","7","45980","0.0-8.0","5bf0cb0411439b000168edda","bdp_rwlrn","Wed Mar 15 2023 23:49:59 GMT-0400 (Eastern Daylight Time)","355450","Untrustworthy,Trustworthy","","","","","","","801","","<div class='header' style='text-align:left; position: absolute; top: 5%; left: 5%;'><small>Task 3 of 5</small></div><div class='instruxDiv'><p><strong>2) How many points can you win each round?</strong></p><p>a) 10 points</p><p style='color:#00FF00'>b) Double what you bet</p><p>c) Quadruple what you bet</p><h3 style='color:#00FF00'>Correct!</h3><h3 class='center-content'>The correct response is b).</h3><h3 class='center-content'>You can win double the amount of points you bet.</h3><p><em>Press SPACEBAR to continue</em></p></div>"," ","","","","","","","","","","",""
"html-keyboard-response","8","51085","0.0-9.0","5bf0cb0411439b000168edda","bdp_rwlrn","Wed Mar 15 2023 23:49:59 GMT-0400 (Eastern Daylight Time)","355450","Untrustworthy,Trustworthy","","","","","","","null","","<div class='header' style='text-align:left; position: absolute; top: 5%; left: 5%;'><small>Task 3 of 5</small></div><div class='instruxDiv'><p>Thank you for completing the quiz<p>These are the actual lotteries you will be playing in the next block:<p><div class='tc' align='center'><img class='introPic' src='Fruit/plums1.png'><br><strong>Plum Powerball</strong></div><div class='bl' align='center'><img class='introPic' src='Fruit/pears.png'><br><strong>Pears Aplenty</strong></div><div class='br' align='center'><img class='introPic' src='Fruit/orange.png'><br><strong>Odds are Orange</strong></div></div><p>Across <strong>66 rounds</strong> you will play each lottery <strong>22 times</strong> (in random order).<p style='align:center; color:white'><font <em>Press SPACEBAR to continue</em></p>","null","","","","","","","","","","",""
"instructions","9","52627","0.0-10.0","5bf0cb0411439b000168edda","bdp_rwlrn","Wed Mar 15 2023 23:49:59 GMT-0400 (Eastern Daylight Time)","355450","Untrustworthy,Trustworthy","","","","","","[{""page_index"":0,""viewing_time"":274},{""page_index"":1,""viewing_time"":1266}]","1541","","","","","","","","","","","","","",""
"html-keyboard-response","10","58319","0.0-11.0-1.0","5bf0cb0411439b000168edda","bdp_rwlrn","Wed Mar 15 2023 23:49:59 GMT-0400 (Eastern Daylight Time)","355450","Untrustworthy,Trustworthy","","","","decision","","","5587","","<div class='trialDiv'><img src='Fruit/pears.png'><br><font class='baseline'><strong>Pears Aplenty</strong><p>Choose number of points to bet.</font><div class='respPicDiv'><img src='img/responseButtonOffersNo0L.png' class='respPic'></div></div>","3","1","Pears Aplenty","Fruit/pears.png","Won","0.8,0.2","11","0.8","5","1","",""
"html-keyboard-response","11","58572","0.0-11.0-2.0","5bf0cb0411439b000168edda","bdp_rwlrn","Wed Mar 15 2023 23:49:59 GMT-0400 (Eastern Daylight Time)","355450","Untrustworthy,Trustworthy","","","","decisionFB","","","null","","<div class='trialDiv'><img src='Fruit/pears.png'><br><font class='baseline'><strong>Pears Aplenty</strong><p>Choose number of points to bet.</font><div class='respPicDiv'><img src='img/responseButtonOffersNo0L3.png' class='respPic'></div></div>","null","1","Pears Aplenty","Fruit/pears.png","Won","0.8,0.2","11","0.8","2","1","",""
"html-keyboard-response","12","59575","0.0-11.0-3.0","5bf0cb0411439b000168edda","bdp_rwlrn","Wed Mar 15 2023 23:49:59 GMT-0400 (Eastern Daylight Time)","355450","Untrustworthy,Trustworthy","","","","feedback","","","null","","<div class='respPicDiv'><img src='img/responseButtonOffersNo0_wht.png' class='respPic'></div><div class='trialDiv'><img src='Fruit/pears.png'><br><font class='baseline'><strong>Pears Aplenty</strong><p><strong><font class='posOutcome'>You WON</font><p>You bet: 3</strong></font> &nbsp; &nbsp; &nbsp; &nbsp; &nbsp; &nbsp;<font class='posOutcome'>you receive: <strong>6</strong></font></div>","null","1","Pears Aplenty","Fruit/pears.png","Won","0.8,0.2","11","0.8","8","1","",""
"html-keyboard-response","13","62904","0.0-11.0-1.1","5bf0cb0411439b000168edda","bdp_rwlrn","Wed Mar 15 2023 23:49:59 GMT-0400 (Eastern Daylight Time)","355450","Untrustworthy,Trustworthy","","","","decision","","","3328","","<div class='trialDiv'><img src='Fruit/plums1.png'><br><font class='baseline'><strong>Plum Powerball</strong><p>Choose number of points to bet.</font><div class='respPicDiv'><img src='img/responseButtonOffersNo0L.png' class='respPic'></div></div>","1","1","Plum Powerball","Fruit/plums1.png","Lost","0.35,0.8","12","0.35","13","2","",""
"html-keyboard-response","14","63157","0.0-11.0-2.1","5bf0cb0411439b000168edda","bdp_rwlrn","Wed Mar 15 2023 23:49:59 GMT-0400 (Eastern Daylight Time)","355450","Untrustworthy,Trustworthy","","","","decisionFB","","","null","","<div class='trialDiv'><img src='Fruit/plums1.png'><br><font class='baseline'><strong>Plum Powerball</strong><p>Choose number of points to bet.</font><div class='respPicDiv'><img src='img/responseButtonOffersNo0L1.png' class='respPic'></div></div>","null","1","Plum Powerball","Fruit/plums1.png","Lost","0.35,0.8","12","0.35","12","2","",""
"html-keyboard-response","15","64160","0.0-11.0-3.1","5bf0cb0411439b000168edda","bdp_rwlrn","Wed Mar 15 2023 23:49:59 GMT-0400 (Eastern Daylight Time)","355450","Untrustworthy,Trustworthy","","","","feedback","","","null","","<div class='respPicDiv'><img src='img/responseButtonOffersNo0_wht.png' class='respPic'></div><div class='trialDiv'><img src='Fruit/plums1.png'><br><font class='baseline'><strong>Plum Powerball</strong><p><strong><font class='negOutcome'>You LOST</font><p>You bet: 1</strong></font> &nbsp; &nbsp; &nbsp; &nbsp; &nbsp; &nbsp;<font class='negOutcome'>You receive: <strong>0</strong></font></div>","null","1","Plum Powerball","Fruit/plums1.png","Lost","0.35,0.8","12","0.35","12","2","",""
"html-keyboard-response","16","65944","0.0-11.0-1.2","5bf0cb0411439b000168edda","bdp_rwlrn","Wed Mar 15 2023 23:49:59 GMT-0400 (Eastern Daylight Time)","355450","Untrustworthy,Trustworthy","","","","decision","","","1783","","<div class='trialDiv'><img src='Fruit/orange.png'><br><font class='baseline'><strong>Odds are Orange</strong><p>Choose number of points to bet.</font><div class='respPicDiv'><img src='img/responseButtonOffersNo0L.png' class='respPic'></div></div>","2","1","Odds are Orange","Fruit/orange.png","Won","0.65,0.2","9","0.65","17","3","",""
"html-keyboard-response","17","66197","0.0-11.0-2.2","5bf0cb0411439b000168edda","bdp_rwlrn","Wed Mar 15 2023 23:49:59 GMT-0400 (Eastern Daylight Time)","355450","Untrustworthy,Trustworthy","","","","decisionFB","","","null","","<div class='trialDiv'><img src='Fruit/orange.png'><br><font class='baseline'><strong>Odds are Orange</strong><p>Choose number of points to bet.</font><div class='respPicDiv'><img src='img/responseButtonOffersNo0L2.png' class='respPic'></div></div>","null","1","Odds are Orange","Fruit/orange.png","Won","0.65,0.2","9","0.65","15","3","",""
"html-keyboard-response","18","67199","0.0-11.0-3.2","5bf0cb0411439b000168edda","bdp_rwlrn","Wed Mar 15 2023 23:49:59 GMT-0400 (Eastern Daylight Time)","355450","Untrustworthy,Trustworthy","","","","feedback","","","null","","<div class='respPicDiv'><img src='img/responseButtonOffersNo0_wht.png' class='respPic'></div><div class='trialDiv'><img src='Fruit/orange.png'><br><font class='baseline'><strong>Odds are Orange</strong><p><strong><font class='posOutcome'>You WON</font><p>You bet: 2</strong></font> &nbsp; &nbsp; &nbsp; &nbsp; &nbsp; &nbsp;<font class='posOutcome'>you receive: <strong>4</strong></font></div>","null","1","Odds are Orange","Fruit/orange.png","Won","0.65,0.2","9","0.65","19","3","",""
"html-keyboard-response","19","68958","0.0-11.0-1.3","5bf0cb0411439b000168edda","bdp_rwlrn","Wed Mar 15 2023 23:49:59 GMT-0400 (Eastern Daylight Time)","355450","Untrustworthy,Trustworthy","","","","decision","","","1757","","<div class='trialDiv'><img src='Fruit/plums1.png'><br><font class='baseline'><strong>Plum Powerball</strong><p>Choose number of points to bet.</font><div class='respPicDiv'><img src='img/responseButtonOffersNo0L.png' class='respPic'></div></div>","1","2","Plum Powerball","Fruit/plums1.png","Won","0.35,0.8","12","0.35","24","4","",""
"html-keyboard-response","20","69211","0.0-11.0-2.3","5bf0cb0411439b000168edda","bdp_rwlrn","Wed Mar 15 2023 23:49:59 GMT-0400 (Eastern Daylight Time)","355450","Untrustworthy,Trustworthy","","","","decisionFB","","","null","","<div class='trialDiv'><img src='Fruit/plums1.png'><br><font class='baseline'><strong>Plum Powerball</strong><p>Choose number of points to bet.</font><div class='respPicDiv'><img src='img/responseButtonOffersNo0L1.png' class='respPic'></div></div>","null","2","Plum Powerball","Fruit/plums1.png","Won","0.35,0.8","12","0.35","23","4","",""
"html-keyboard-response","21","70215","0.0-11.0-3.3","5bf0cb0411439b000168edda","bdp_rwlrn","Wed Mar 15 2023 23:49:59 GMT-0400 (Eastern Daylight Time)","355450","Untrustworthy,Trustworthy","","","","feedback","","","null","","<div class='respPicDiv'><img src='img/responseButtonOffersNo0_wht.png' class='respPic'></div><div class='trialDiv'><img src='Fruit/plums1.png'><br><font class='baseline'><strong>Plum Powerball</strong><p><strong><font class='posOutcome'>You WON</font><p>You bet: 1</strong></font> &nbsp; &nbsp; &nbsp; &nbsp; &nbsp; &nbsp;<font class='posOutcome'>you receive: <strong>2</strong></font></div>","null","2","Plum Powerball","Fruit/plums1.png","Won","0.35,0.8","12","0.35","25","4","",""
"html-keyboard-response","22","72622","0.0-11.0-1.4","5bf0cb0411439b000168edda","bdp_rwlrn","Wed Mar 15 2023 23:49:59 GMT-0400 (Eastern Daylight Time)","355450","Untrustworthy,Trustworthy","","","","decision","","","2406","","<div class='trialDiv'><img src='Fruit/orange.png'><br><font class='baseline'><strong>Odds are Orange</strong><p>Choose number of points to bet.</font><div class='respPicDiv'><img src='img/responseButtonOffersNo0L.png' class='respPic'></div></div>","1","2","Odds are Orange","Fruit/orange.png","Lost","0.65,0.2","9","0.65","30","5","",""
"html-keyboard-response","23","72875","0.0-11.0-2.4","5bf0cb0411439b000168edda","bdp_rwlrn","Wed Mar 15 2023 23:49:59 GMT-0400 (Eastern Daylight Time)","355450","Untrustworthy,Trustworthy","","","","decisionFB","","","null","","<div class='trialDiv'><img src='Fruit/orange.png'><br><font class='baseline'><strong>Odds are Orange</strong><p>Choose number of points to bet.</font><div class='respPicDiv'><img src='img/responseButtonOffersNo0L1.png' class='respPic'></div></div>","null","2","Odds are Orange","Fruit/orange.png","Lost","0.65,0.2","9","0.65","29","5","",""
"html-keyboard-response","24","73878","0.0-11.0-3.4","5bf0cb0411439b000168edda","bdp_rwlrn","Wed Mar 15 2023 23:49:59 GMT-0400 (Eastern Daylight Time)","355450","Untrustworthy,Trustworthy","","","","feedback","","","null","","<div class='respPicDiv'><img src='img/responseButtonOffersNo0_wht.png' class='respPic'></div><div class='trialDiv'><img src='Fruit/orange.png'><br><font class='baseline'><strong>Odds are Orange</strong><p><strong><font class='negOutcome'>You LOST</font><p>You bet: 1</strong></font> &nbsp; &nbsp; &nbsp; &nbsp; &nbsp; &nbsp;<font class='negOutcome'>You receive: <strong>0</strong></font></div>","null","2","Odds are Orange","Fruit/orange.png","Lost","0.65,0.2","9","0.65","29","5","",""
"html-keyboard-response","25","75562","0.0-11.0-1.5","5bf0cb0411439b000168edda","bdp_rwlrn","Wed Mar 15 2023 23:49:59 GMT-0400 (Eastern Daylight Time)","355450","Untrustworthy,Trustworthy","","","","decision","","","1681","","<div class='trialDiv'><img src='Fruit/pears.png'><br><font class='baseline'><strong>Pears Aplenty</strong><p>Choose number of points to bet.</font><div class='respPicDiv'><img src='img/responseButtonOffersNo0L.png' class='respPic'></div></div>","5","2","Pears Aplenty","Fruit/pears.png","Won","0.8,0.2","11","0.8","34","6","",""
"html-keyboard-response","26","75815","0.0-11.0-2.5","5bf0cb0411439b000168edda","bdp_rwlrn","Wed Mar 15 2023 23:49:59 GMT-0400 (Eastern Daylight Time)","355450","Untrustworthy,Trustworthy","","","","decisionFB","","","null","","<div class='trialDiv'><img src='Fruit/pears.png'><br><font class='baseline'><strong>Pears Aplenty</strong><p>Choose number of points to bet.</font><div class='respPicDiv'><img src='img/responseButtonOffersNo0L5.png' class='respPic'></div></div>","null","2","Pears Aplenty","Fruit/pears.png","Won","0.8,0.2","11","0.8","29","6","",""
"html-keyboard-response","27","76818","0.0-11.0-3.5","5bf0cb0411439b000168edda","bdp_rwlrn","Wed Mar 15 2023 23:49:59 GMT-0400 (Eastern Daylight Time)","355450","Untrustworthy,Trustworthy","","","","feedback","","","null","","<div class='respPicDiv'><img src='img/responseButtonOffersNo0_wht.png' class='respPic'></div><div class='trialDiv'><img src='Fruit/pears.png'><br><font class='baseline'><strong>Pears Aplenty</strong><p><strong><font class='posOutcome'>You WON</font><p>You bet: 5</strong></font> &nbsp; &nbsp; &nbsp; &nbsp; &nbsp; &nbsp;<font class='posOutcome'>you receive: <strong>10</strong></font></div>","null","2","Pears Aplenty","Fruit/pears.png","Won","0.8,0.2","11","0.8","39","6","",""
"html-keyboard-response","28","78602","0.0-11.0-1.6","5bf0cb0411439b000168edda","bdp_rwlrn","Wed Mar 15 2023 23:49:59 GMT-0400 (Eastern Daylight Time)","355450","Untrustworthy,Trustworthy","","","","decision","","","1783","","<div class='trialDiv'><img src='Fruit/plums1.png'><br><font class='baseline'><strong>Plum Powerball</strong><p>Choose number of points to bet.</font><div class='respPicDiv'><img src='img/responseButtonOffersNo0L.png' class='respPic'></div></div>","3","3","Plum Powerball","Fruit/plums1.png","Lost","0.35,0.8","12","0.35","44","7","",""
"html-keyboard-response","29","78855","0.0-11.0-2.6","5bf0cb0411439b000168edda","bdp_rwlrn","Wed Mar 15 2023 23:49:59 GMT-0400 (Eastern Daylight Time)","355450","Untrustworthy,Trustworthy","","","","decisionFB","","","null","","<div class='trialDiv'><img src='Fruit/plums1.png'><br><font class='baseline'><strong>Plum Powerball</strong><p>Choose number of points to bet.</font><div class='respPicDiv'><img src='img/responseButtonOffersNo0L3.png' class='respPic'></div></div>","null","3","Plum Powerball","Fruit/plums1.png","Lost","0.35,0.8","12","0.35","41","7","",""
"html-keyboard-response","30","79857","0.0-11.0-3.6","5bf0cb0411439b000168edda","bdp_rwlrn","Wed Mar 15 2023 23:49:59 GMT-0400 (Eastern Daylight Time)","355450","Untrustworthy,Trustworthy","","","","feedback","","","null","","<div class='respPicDiv'><img src='img/responseButtonOffersNo0_wht.png' class='respPic'></div><div class='trialDiv'><img src='Fruit/plums1.png'><br><font class='baseline'><strong>Plum Powerball</strong><p><strong><font class='negOutcome'>You LOST</font><p>You bet: 3</strong></font> &nbsp; &nbsp; &nbsp; &nbsp; &nbsp; &nbsp;<font class='negOutcome'>You receive: <strong>0</strong></font></div>","null","3","Plum Powerball","Fruit/plums1.png","Lost","0.35,0.8","12","0.35","41","7","",""
"html-keyboard-response","31","82246","0.0-11.0-1.7","5bf0cb0411439b000168edda","bdp_rwlrn","Wed Mar 15 2023 23:49:59 GMT-0400 (Eastern Daylight Time)","355450","Untrustworthy,Trustworthy","","","","decision","","","2388","","<div class='trialDiv'><img src='Fruit/orange.png'><br><font class='baseline'><strong>Odds are Orange</strong><p>Choose number of points to bet.</font><div class='respPicDiv'><img src='img/responseButtonOffersNo0L.png' class='respPic'></div></div>","2","3","Odds are Orange","Fruit/orange.png","Won","0.65,0.2","9","0.65","46","8","",""
"html-keyboard-response","32","82499","0.0-11.0-2.7","5bf0cb0411439b000168edda","bdp_rwlrn","Wed Mar 15 2023 23:49:59 GMT-0400 (Eastern Daylight Time)","355450","Untrustworthy,Trustworthy","","","","decisionFB","","","null","","<div class='trialDiv'><img src='Fruit/orange.png'><br><font class='baseline'><strong>Odds are Orange</strong><p>Choose number of points to bet.</font><div class='respPicDiv'><img src='img/responseButtonOffersNo0L2.png' class='respPic'></div></div>","null","3","Odds are Orange","Fruit/orange.png","Won","0.65,0.2","9","0.65","44","8","",""
"html-keyboard-response","33","83501","0.0-11.0-3.7","5bf0cb0411439b000168edda","bdp_rwlrn","Wed Mar 15 2023 23:49:59 GMT-0400 (Eastern Daylight Time)","355450","Untrustworthy,Trustworthy","","","","feedback","","","null","","<div class='respPicDiv'><img src='img/responseButtonOffersNo0_wht.png' class='respPic'></div><div class='trialDiv'><img src='Fruit/orange.png'><br><font class='baseline'><strong>Odds are Orange</strong><p><strong><font class='posOutcome'>You WON</font><p>You bet: 2</strong></font> &nbsp; &nbsp; &nbsp; &nbsp; &nbsp; &nbsp;<font class='posOutcome'>you receive: <strong>4</strong></font></div>","null","3","Odds are Orange","Fruit/orange.png","Won","0.65,0.2","9","0.65","48","8","",""
"html-keyboard-response","34","85168","0.0-11.0-1.8","5bf0cb0411439b000168edda","bdp_rwlrn","Wed Mar 15 2023 23:49:59 GMT-0400 (Eastern Daylight Time)","355450","Untrustworthy,Trustworthy","","","","decision","","","1665","","<div class='trialDiv'><img src='Fruit/pears.png'><br><font class='baseline'><strong>Pears Aplenty</strong><p>Choose number of points to bet.</font><div class='respPicDiv'><img src='img/responseButtonOffersNo0L.png' class='respPic'></div></div>","5","3","Pears Aplenty","Fruit/pears.png","Lost","0.8,0.2","11","0.8","53","9","",""
"html-keyboard-response","35","85420","0.0-11.0-2.8","5bf0cb0411439b000168edda","bdp_rwlrn","Wed Mar 15 2023 23:49:59 GMT-0400 (Eastern Daylight Time)","355450","Untrustworthy,Trustworthy","","","","decisionFB","","","null","","<div class='trialDiv'><img src='Fruit/pears.png'><br><font class='baseline'><strong>Pears Aplenty</strong><p>Choose number of points to bet.</font><div class='respPicDiv'><img src='img/responseButtonOffersNo0L5.png' class='respPic'></div></div>","null","3","Pears Aplenty","Fruit/pears.png","Lost","0.8,0.2","11","0.8","48","9","",""
"html-keyboard-response","36","86422","0.0-11.0-3.8","5bf0cb0411439b000168edda","bdp_rwlrn","Wed Mar 15 2023 23:49:59 GMT-0400 (Eastern Daylight Time)","355450","Untrustworthy,Trustworthy","","","","feedback","","","null","","<div class='respPicDiv'><img src='img/responseButtonOffersNo0_wht.png' class='respPic'></div><div class='trialDiv'><img src='Fruit/pears.png'><br><font class='baseline'><strong>Pears Aplenty</strong><p><strong><font class='negOutcome'>You LOST</font><p>You bet: 5</strong></font> &nbsp; &nbsp; &nbsp; &nbsp; &nbsp; &nbsp;<font class='negOutcome'>You receive: <strong>0</strong></font></div>","null","3","Pears Aplenty","Fruit/pears.png","Lost","0.8,0.2","11","0.8","48","9","",""
"html-keyboard-response","37","87344","0.0-11.0-1.9","5bf0cb0411439b000168edda","bdp_rwlrn","Wed Mar 15 2023 23:49:59 GMT-0400 (Eastern Daylight Time)","355450","Untrustworthy,Trustworthy","","","","decision","","","920","","<div class='trialDiv'><img src='Fruit/orange.png'><br><font class='baseline'><strong>Odds are Orange</strong><p>Choose number of points to bet.</font><div class='respPicDiv'><img src='img/responseButtonOffersNo0L.png' class='respPic'></div></div>","5","4","Odds are Orange","Fruit/orange.png","Won","0.65,0.2","9","0.65","53","10","",""
"html-keyboard-response","38","87596","0.0-11.0-2.9","5bf0cb0411439b000168edda","bdp_rwlrn","Wed Mar 15 2023 23:49:59 GMT-0400 (Eastern Daylight Time)","355450","Untrustworthy,Trustworthy","","","","decisionFB","","","null","","<div class='trialDiv'><img src='Fruit/orange.png'><br><font class='baseline'><strong>Odds are Orange</strong><p>Choose number of points to bet.</font><div class='respPicDiv'><img src='img/responseButtonOffersNo0L5.png' class='respPic'></div></div>","null","4","Odds are Orange","Fruit/orange.png","Won","0.65,0.2","9","0.65","48","10","",""
"html-keyboard-response","39","88599","0.0-11.0-3.9","5bf0cb0411439b000168edda","bdp_rwlrn","Wed Mar 15 2023 23:49:59 GMT-0400 (Eastern Daylight Time)","355450","Untrustworthy,Trustworthy","","","","feedback","","","null","","<div class='respPicDiv'><img src='img/responseButtonOffersNo0_wht.png' class='respPic'></div><div class='trialDiv'><img src='Fruit/orange.png'><br><font class='baseline'><strong>Odds are Orange</strong><p><strong><font class='posOutcome'>You WON</font><p>You bet: 5</strong></font> &nbsp; &nbsp; &nbsp; &nbsp; &nbsp; &nbsp;<font class='posOutcome'>you receive: <strong>10</strong></font></div>","null","4","Odds are Orange","Fruit/orange.png","Won","0.65,0.2","9","0.65","58","10","",""
"html-keyboard-response","40","89282","0.0-11.0-1.10","5bf0cb0411439b000168edda","bdp_rwlrn","Wed Mar 15 2023 23:49:59 GMT-0400 (Eastern Daylight Time)","355450","Untrustworthy,Trustworthy","","","","decision","","","682","","<div class='trialDiv'><img src='Fruit/plums1.png'><br><font class='baseline'><strong>Plum Powerball</strong><p>Choose number of points to bet.</font><div class='respPicDiv'><img src='img/responseButtonOffersNo0L.png' class='respPic'></div></div>","5","4","Plum Powerball","Fruit/plums1.png","Lost","0.35,0.8","12","0.35","63","11","",""
"html-keyboard-response","41","89534","0.0-11.0-2.10","5bf0cb0411439b000168edda","bdp_rwlrn","Wed Mar 15 2023 23:49:59 GMT-0400 (Eastern Daylight Time)","355450","Untrustworthy,Trustworthy","","","","decisionFB","","","null","","<div class='trialDiv'><img src='Fruit/plums1.png'><br><font class='baseline'><strong>Plum Powerball</strong><p>Choose number of points to bet.</font><div class='respPicDiv'><img src='img/responseButtonOffersNo0L5.png' class='respPic'></div></div>","null","4","Plum Powerball","Fruit/plums1.png","Lost","0.35,0.8","12","0.35","58","11","",""
"html-keyboard-response","42","90537","0.0-11.0-3.10","5bf0cb0411439b000168edda","bdp_rwlrn","Wed Mar 15 2023 23:49:59 GMT-0400 (Eastern Daylight Time)","355450","Untrustworthy,Trustworthy","","","","feedback","","","null","","<div class='respPicDiv'><img src='img/responseButtonOffersNo0_wht.png' class='respPic'></div><div class='trialDiv'><img src='Fruit/plums1.png'><br><font class='baseline'><strong>Plum Powerball</strong><p><strong><font class='negOutcome'>You LOST</font><p>You bet: 5</strong></font> &nbsp; &nbsp; &nbsp; &nbsp; &nbsp; &nbsp;<font class='negOutcome'>You receive: <strong>0</strong></font></div>","null","4","Plum Powerball","Fruit/plums1.png","Lost","0.35,0.8","12","0.35","58","11","",""
"html-keyboard-response","43","91280","0.0-11.0-1.11","5bf0cb0411439b000168edda","bdp_rwlrn","Wed Mar 15 2023 23:49:59 GMT-0400 (Eastern Daylight Time)","355450","Untrustworthy,Trustworthy","","","","decision","","","742","","<div class='trialDiv'><img src='Fruit/pears.png'><br><font class='baseline'><strong>Pears Aplenty</strong><p>Choose number of points to bet.</font><div class='respPicDiv'><img src='img/responseButtonOffersNo0L.png' class='respPic'></div></div>","5","4","Pears Aplenty","Fruit/pears.png","Won","0.8,0.2","11","0.8","63","12","",""
"html-keyboard-response","44","91533","0.0-11.0-2.11","5bf0cb0411439b000168edda","bdp_rwlrn","Wed Mar 15 2023 23:49:59 GMT-0400 (Eastern Daylight Time)","355450","Untrustworthy,Trustworthy","","","","decisionFB","","","null","","<div class='trialDiv'><img src='Fruit/pears.png'><br><font class='baseline'><strong>Pears Aplenty</strong><p>Choose number of points to bet.</font><div class='respPicDiv'><img src='img/responseButtonOffersNo0L5.png' class='respPic'></div></div>","null","4","Pears Aplenty","Fruit/pears.png","Won","0.8,0.2","11","0.8","58","12","",""
"html-keyboard-response","45","92535","0.0-11.0-3.11","5bf0cb0411439b000168edda","bdp_rwlrn","Wed Mar 15 2023 23:49:59 GMT-0400 (Eastern Daylight Time)","355450","Untrustworthy,Trustworthy","","","","feedback","","","null","","<div class='respPicDiv'><img src='img/responseButtonOffersNo0_wht.png' class='respPic'></div><div class='trialDiv'><img src='Fruit/pears.png'><br><font class='baseline'><strong>Pears Aplenty</strong><p><strong><font class='posOutcome'>You WON</font><p>You bet: 5</strong></font> &nbsp; &nbsp; &nbsp; &nbsp; &nbsp; &nbsp;<font class='posOutcome'>you receive: <strong>10</strong></font></div>","null","4","Pears Aplenty","Fruit/pears.png","Won","0.8,0.2","11","0.8","68","12","",""
"html-keyboard-response","46","93223","0.0-11.0-1.12","5bf0cb0411439b000168edda","bdp_rwlrn","Wed Mar 15 2023 23:49:59 GMT-0400 (Eastern Daylight Time)","355450","Untrustworthy,Trustworthy","","","","decision","","","686","","<div class='trialDiv'><img src='Fruit/plums1.png'><br><font class='baseline'><strong>Plum Powerball</strong><p>Choose number of points to bet.</font><div class='respPicDiv'><img src='img/responseButtonOffersNo0L.png' class='respPic'></div></div>","5","5","Plum Powerball","Fruit/plums1.png","Lost","0.35,0.8","12","0.35","73","13","",""
"html-keyboard-response","47","93476","0.0-11.0-2.12","5bf0cb0411439b000168edda","bdp_rwlrn","Wed Mar 15 2023 23:49:59 GMT-0400 (Eastern Daylight Time)","355450","Untrustworthy,Trustworthy","","","","decisionFB","","","null","","<div class='trialDiv'><img src='Fruit/plums1.png'><br><font class='baseline'><strong>Plum Powerball</strong><p>Choose number of points to bet.</font><div class='respPicDiv'><img src='img/responseButtonOffersNo0L5.png' class='respPic'></div></div>","null","5","Plum Powerball","Fruit/plums1.png","Lost","0.35,0.8","12","0.35","68","13","",""
"html-keyboard-response","48","94478","0.0-11.0-3.12","5bf0cb0411439b000168edda","bdp_rwlrn","Wed Mar 15 2023 23:49:59 GMT-0400 (Eastern Daylight Time)","355450","Untrustworthy,Trustworthy","","","","feedback","","","null","","<div class='respPicDiv'><img src='img/responseButtonOffersNo0_wht.png' class='respPic'></div><div class='trialDiv'><img src='Fruit/plums1.png'><br><font class='baseline'><strong>Plum Powerball</strong><p><strong><font class='negOutcome'>You LOST</font><p>You bet: 5</strong></font> &nbsp; &nbsp; &nbsp; &nbsp; &nbsp; &nbsp;<font class='negOutcome'>You receive: <strong>0</strong></font></div>","null","5","Plum Powerball","Fruit/plums1.png","Lost","0.35,0.8","12","0.35","68","13","",""
"html-keyboard-response","49","95402","0.0-11.0-1.13","5bf0cb0411439b000168edda","bdp_rwlrn","Wed Mar 15 2023 23:49:59 GMT-0400 (Eastern Daylight Time)","355450","Untrustworthy,Trustworthy","","","","decision","","","923","","<div class='trialDiv'><img src='Fruit/orange.png'><br><font class='baseline'><strong>Odds are Orange</strong><p>Choose number of points to bet.</font><div class='respPicDiv'><img src='img/responseButtonOffersNo0L.png' class='respPic'></div></div>","3","5","Odds are Orange","Fruit/orange.png","Won","0.65,0.2","9","0.65","73","14","",""
"html-keyboard-response","50","95654","0.0-11.0-2.13","5bf0cb0411439b000168edda","bdp_rwlrn","Wed Mar 15 2023 23:49:59 GMT-0400 (Eastern Daylight Time)","355450","Untrustworthy,Trustworthy","","","","decisionFB","","","null","","<div class='trialDiv'><img src='Fruit/orange.png'><br><font class='baseline'><strong>Odds are Orange</strong><p>Choose number of points to bet.</font><div class='respPicDiv'><img src='img/responseButtonOffersNo0L3.png' class='respPic'></div></div>","null","5","Odds are Orange","Fruit/orange.png","Won","0.65,0.2","9","0.65","70","14","",""
"html-keyboard-response","51","96656","0.0-11.0-3.13","5bf0cb0411439b000168edda","bdp_rwlrn","Wed Mar 15 2023 23:49:59 GMT-0400 (Eastern Daylight Time)","355450","Untrustworthy,Trustworthy","","","","feedback","","","null","","<div class='respPicDiv'><img src='img/responseButtonOffersNo0_wht.png' class='respPic'></div><div class='trialDiv'><img src='Fruit/orange.png'><br><font class='baseline'><strong>Odds are Orange</strong><p><strong><font class='posOutcome'>You WON</font><p>You bet: 3</strong></font> &nbsp; &nbsp; &nbsp; &nbsp; &nbsp; &nbsp;<font class='posOutcome'>you receive: <strong>6</strong></font></div>","null","5","Odds are Orange","Fruit/orange.png","Won","0.65,0.2","9","0.65","76","14","",""
"html-keyboard-response","52","98061","0.0-11.0-1.14","5bf0cb0411439b000168edda","bdp_rwlrn","Wed Mar 15 2023 23:49:59 GMT-0400 (Eastern Daylight Time)","355450","Untrustworthy,Trustworthy","","","","decision","","","1403","","<div class='trialDiv'><img src='Fruit/pears.png'><br><font class='baseline'><strong>Pears Aplenty</strong><p>Choose number of points to bet.</font><div class='respPicDiv'><img src='img/responseButtonOffersNo0L.png' class='respPic'></div></div>","5","5","Pears Aplenty","Fruit/pears.png","Won","0.8,0.2","11","0.8","81","15","",""
"html-keyboard-response","53","98314","0.0-11.0-2.14","5bf0cb0411439b000168edda","bdp_rwlrn","Wed Mar 15 2023 23:49:59 GMT-0400 (Eastern Daylight Time)","355450","Untrustworthy,Trustworthy","","","","decisionFB","","","null","","<div class='trialDiv'><img src='Fruit/pears.png'><br><font class='baseline'><strong>Pears Aplenty</strong><p>Choose number of points to bet.</font><div class='respPicDiv'><img src='img/responseButtonOffersNo0L5.png' class='respPic'></div></div>","null","5","Pears Aplenty","Fruit/pears.png","Won","0.8,0.2","11","0.8","76","15","",""
"html-keyboard-response","54","99316","0.0-11.0-3.14","5bf0cb0411439b000168edda","bdp_rwlrn","Wed Mar 15 2023 23:49:59 GMT-0400 (Eastern Daylight Time)","355450","Untrustworthy,Trustworthy","","","","feedback","","","null","","<div class='respPicDiv'><img src='img/responseButtonOffersNo0_wht.png' class='respPic'></div><div class='trialDiv'><img src='Fruit/pears.png'><br><font class='baseline'><strong>Pears Aplenty</strong><p><strong><font class='posOutcome'>You WON</font><p>You bet: 5</strong></font> &nbsp; &nbsp; &nbsp; &nbsp; &nbsp; &nbsp;<font class='posOutcome'>you receive: <strong>10</strong></font></div>","null","5","Pears Aplenty","Fruit/pears.png","Won","0.8,0.2","11","0.8","86","15","",""
"html-keyboard-response","55","100409","0.0-11.0-1.15","5bf0cb0411439b000168edda","bdp_rwlrn","Wed Mar 15 2023 23:49:59 GMT-0400 (Eastern Daylight Time)","355450","Untrustworthy,Trustworthy","","","","decision","","","1092","","<div class='trialDiv'><img src='Fruit/plums1.png'><br><font class='baseline'><strong>Plum Powerball</strong><p>Choose number of points to bet.</font><div class='respPicDiv'><img src='img/responseButtonOffersNo0L.png' class='respPic'></div></div>","1","6","Plum Powerball","Fruit/plums1.png","Lost","0.35,0.8","12","0.35","91","16","",""
"html-keyboard-response","56","100661","0.0-11.0-2.15","5bf0cb0411439b000168edda","bdp_rwlrn","Wed Mar 15 2023 23:49:59 GMT-0400 (Eastern Daylight Time)","355450","Untrustworthy,Trustworthy","","","","decisionFB","","","null","","<div class='trialDiv'><img src='Fruit/plums1.png'><br><font class='baseline'><strong>Plum Powerball</strong><p>Choose number of points to bet.</font><div class='respPicDiv'><img src='img/responseButtonOffersNo0L1.png' class='respPic'></div></div>","null","6","Plum Powerball","Fruit/plums1.png","Lost","0.35,0.8","12","0.35","90","16","",""
"html-keyboard-response","57","101664","0.0-11.0-3.15","5bf0cb0411439b000168edda","bdp_rwlrn","Wed Mar 15 2023 23:49:59 GMT-0400 (Eastern Daylight Time)","355450","Untrustworthy,Trustworthy","","","","feedback","","","null","","<div class='respPicDiv'><img src='img/responseButtonOffersNo0_wht.png' class='respPic'></div><div class='trialDiv'><img src='Fruit/plums1.png'><br><font class='baseline'><strong>Plum Powerball</strong><p><strong><font class='negOutcome'>You LOST</font><p>You bet: 1</strong></font> &nbsp; &nbsp; &nbsp; &nbsp; &nbsp; &nbsp;<font class='negOutcome'>You receive: <strong>0</strong></font></div>","null","6","Plum Powerball","Fruit/plums1.png","Lost","0.35,0.8","12","0.35","90","16","",""
"html-keyboard-response","58","102502","0.0-11.0-1.16","5bf0cb0411439b000168edda","bdp_rwlrn","Wed Mar 15 2023 23:49:59 GMT-0400 (Eastern Daylight Time)","355450","Untrustworthy,Trustworthy","","","","decision","","","836","","<div class='trialDiv'><img src='Fruit/pears.png'><br><font class='baseline'><strong>Pears Aplenty</strong><p>Choose number of points to bet.</font><div class='respPicDiv'><img src='img/responseButtonOffersNo0L.png' class='respPic'></div></div>","5","6","Pears Aplenty","Fruit/pears.png","Won","0.8,0.2","11","0.8","95","17","",""
"html-keyboard-response","59","102755","0.0-11.0-2.16","5bf0cb0411439b000168edda","bdp_rwlrn","Wed Mar 15 2023 23:49:59 GMT-0400 (Eastern Daylight Time)","355450","Untrustworthy,Trustworthy","","","","decisionFB","","","null","","<div class='trialDiv'><img src='Fruit/pears.png'><br><font class='baseline'><strong>Pears Aplenty</strong><p>Choose number of points to bet.</font><div class='respPicDiv'><img src='img/responseButtonOffersNo0L5.png' class='respPic'></div></div>","null","6","Pears Aplenty","Fruit/pears.png","Won","0.8,0.2","11","0.8","90","17","",""
"html-keyboard-response","60","103757","0.0-11.0-3.16","5bf0cb0411439b000168edda","bdp_rwlrn","Wed Mar 15 2023 23:49:59 GMT-0400 (Eastern Daylight Time)","355450","Untrustworthy,Trustworthy","","","","feedback","","","null","","<div class='respPicDiv'><img src='img/responseButtonOffersNo0_wht.png' class='respPic'></div><div class='trialDiv'><img src='Fruit/pears.png'><br><font class='baseline'><strong>Pears Aplenty</strong><p><strong><font class='posOutcome'>You WON</font><p>You bet: 5</strong></font> &nbsp; &nbsp; &nbsp; &nbsp; &nbsp; &nbsp;<font class='posOutcome'>you receive: <strong>10</strong></font></div>","null","6","Pears Aplenty","Fruit/pears.png","Won","0.8,0.2","11","0.8","100","17","",""
"html-keyboard-response","61","104964","0.0-11.0-1.17","5bf0cb0411439b000168edda","bdp_rwlrn","Wed Mar 15 2023 23:49:59 GMT-0400 (Eastern Daylight Time)","355450","Untrustworthy,Trustworthy","","","","decision","","","1205","","<div class='trialDiv'><img src='Fruit/orange.png'><br><font class='baseline'><strong>Odds are Orange</strong><p>Choose number of points to bet.</font><div class='respPicDiv'><img src='img/responseButtonOffersNo0L.png' class='respPic'></div></div>","2","6","Odds are Orange","Fruit/orange.png","Lost","0.65,0.2","9","0.65","105","18","",""
"html-keyboard-response","62","105217","0.0-11.0-2.17","5bf0cb0411439b000168edda","bdp_rwlrn","Wed Mar 15 2023 23:49:59 GMT-0400 (Eastern Daylight Time)","355450","Untrustworthy,Trustworthy","","","","decisionFB","","","null","","<div class='trialDiv'><img src='Fruit/orange.png'><br><font class='baseline'><strong>Odds are Orange</strong><p>Choose number of points to bet.</font><div class='respPicDiv'><img src='img/responseButtonOffersNo0L2.png' class='respPic'></div></div>","null","6","Odds are Orange","Fruit/orange.png","Lost","0.65,0.2","9","0.65","103","18","",""
"html-keyboard-response","63","106220","0.0-11.0-3.17","5bf0cb0411439b000168edda","bdp_rwlrn","Wed Mar 15 2023 23:49:59 GMT-0400 (Eastern Daylight Time)","355450","Untrustworthy,Trustworthy","","","","feedback","","","null","","<div class='respPicDiv'><img src='img/responseButtonOffersNo0_wht.png' class='respPic'></div><div class='trialDiv'><img src='Fruit/orange.png'><br><font class='baseline'><strong>Odds are Orange</strong><p><strong><font class='negOutcome'>You LOST</font><p>You bet: 2</strong></font> &nbsp; &nbsp; &nbsp; &nbsp; &nbsp; &nbsp;<font class='negOutcome'>You receive: <strong>0</strong></font></div>","null","6","Odds are Orange","Fruit/orange.png","Lost","0.65,0.2","9","0.65","103","18","",""
"html-keyboard-response","64","106906","0.0-11.0-1.18","5bf0cb0411439b000168edda","bdp_rwlrn","Wed Mar 15 2023 23:49:59 GMT-0400 (Eastern Daylight Time)","355450","Untrustworthy,Trustworthy","","","","decision","","","683","","<div class='trialDiv'><img src='Fruit/plums1.png'><br><font class='baseline'><strong>Plum Powerball</strong><p>Choose number of points to bet.</font><div class='respPicDiv'><img src='img/responseButtonOffersNo0L.png' class='respPic'></div></div>","1","7","Plum Powerball","Fruit/plums1.png","Lost","0.35,0.8","12","0.35","108","19","",""
"html-keyboard-response","65","107158","0.0-11.0-2.18","5bf0cb0411439b000168edda","bdp_rwlrn","Wed Mar 15 2023 23:49:59 GMT-0400 (Eastern Daylight Time)","355450","Untrustworthy,Trustworthy","","","","decisionFB","","","null","","<div class='trialDiv'><img src='Fruit/plums1.png'><br><font class='baseline'><strong>Plum Powerball</strong><p>Choose number of points to bet.</font><div class='respPicDiv'><img src='img/responseButtonOffersNo0L1.png' class='respPic'></div></div>","null","7","Plum Powerball","Fruit/plums1.png","Lost","0.35,0.8","12","0.35","107","19","",""
"html-keyboard-response","66","108163","0.0-11.0-3.18","5bf0cb0411439b000168edda","bdp_rwlrn","Wed Mar 15 2023 23:49:59 GMT-0400 (Eastern Daylight Time)","355450","Untrustworthy,Trustworthy","","","","feedback","","","null","","<div class='respPicDiv'><img src='img/responseButtonOffersNo0_wht.png' class='respPic'></div><div class='trialDiv'><img src='Fruit/plums1.png'><br><font class='baseline'><strong>Plum Powerball</strong><p><strong><font class='negOutcome'>You LOST</font><p>You bet: 1</strong></font> &nbsp; &nbsp; &nbsp; &nbsp; &nbsp; &nbsp;<font class='negOutcome'>You receive: <strong>0</strong></font></div>","null","7","Plum Powerball","Fruit/plums1.png","Lost","0.35,0.8","12","0.35","107","19","",""
"html-keyboard-response","67","108865","0.0-11.0-1.19","5bf0cb0411439b000168edda","bdp_rwlrn","Wed Mar 15 2023 23:49:59 GMT-0400 (Eastern Daylight Time)","355450","Untrustworthy,Trustworthy","","","","decision","","","700","","<div class='trialDiv'><img src='Fruit/orange.png'><br><font class='baseline'><strong>Odds are Orange</strong><p>Choose number of points to bet.</font><div class='respPicDiv'><img src='img/responseButtonOffersNo0L.png' class='respPic'></div></div>","5","7","Odds are Orange","Fruit/orange.png","Won","0.65,0.2","9","0.65","112","20","",""
"html-keyboard-response","68","109117","0.0-11.0-2.19","5bf0cb0411439b000168edda","bdp_rwlrn","Wed Mar 15 2023 23:49:59 GMT-0400 (Eastern Daylight Time)","355450","Untrustworthy,Trustworthy","","","","decisionFB","","","null","","<div class='trialDiv'><img src='Fruit/orange.png'><br><font class='baseline'><strong>Odds are Orange</strong><p>Choose number of points to bet.</font><div class='respPicDiv'><img src='img/responseButtonOffersNo0L5.png' class='respPic'></div></div>","null","7","Odds are Orange","Fruit/orange.png","Won","0.65,0.2","9","0.65","107","20","",""
"html-keyboard-response","69","110120","0.0-11.0-3.19","5bf0cb0411439b000168edda","bdp_rwlrn","Wed Mar 15 2023 23:49:59 GMT-0400 (Eastern Daylight Time)","355450","Untrustworthy,Trustworthy","","","","feedback","","","null","","<div class='respPicDiv'><img src='img/responseButtonOffersNo0_wht.png' class='respPic'></div><div class='trialDiv'><img src='Fruit/orange.png'><br><font class='baseline'><strong>Odds are Orange</strong><p><strong><font class='posOutcome'>You WON</font><p>You bet: 5</strong></font> &nbsp; &nbsp; &nbsp; &nbsp; &nbsp; &nbsp;<font class='posOutcome'>you receive: <strong>10</strong></font></div>","null","7","Odds are Orange","Fruit/orange.png","Won","0.65,0.2","9","0.65","117","20","",""
"html-keyboard-response","70","110760","0.0-11.0-1.20","5bf0cb0411439b000168edda","bdp_rwlrn","Wed Mar 15 2023 23:49:59 GMT-0400 (Eastern Daylight Time)","355450","Untrustworthy,Trustworthy","","","","decision","","","639","","<div class='trialDiv'><img src='Fruit/pears.png'><br><font class='baseline'><strong>Pears Aplenty</strong><p>Choose number of points to bet.</font><div class='respPicDiv'><img src='img/responseButtonOffersNo0L.png' class='respPic'></div></div>","1","7","Pears Aplenty","Fruit/pears.png","Won","0.8,0.2","11","0.8","122","21","",""
"html-keyboard-response","71","111012","0.0-11.0-2.20","5bf0cb0411439b000168edda","bdp_rwlrn","Wed Mar 15 2023 23:49:59 GMT-0400 (Eastern Daylight Time)","355450","Untrustworthy,Trustworthy","","","","decisionFB","","","null","","<div class='trialDiv'><img src='Fruit/pears.png'><br><font class='baseline'><strong>Pears Aplenty</strong><p>Choose number of points to bet.</font><div class='respPicDiv'><img src='img/responseButtonOffersNo0L1.png' class='respPic'></div></div>","null","7","Pears Aplenty","Fruit/pears.png","Won","0.8,0.2","11","0.8","121","21","",""
"html-keyboard-response","72","112014","0.0-11.0-3.20","5bf0cb0411439b000168edda","bdp_rwlrn","Wed Mar 15 2023 23:49:59 GMT-0400 (Eastern Daylight Time)","355450","Untrustworthy,Trustworthy","","","","feedback","","","null","","<div class='respPicDiv'><img src='img/responseButtonOffersNo0_wht.png' class='respPic'></div><div class='trialDiv'><img src='Fruit/pears.png'><br><font class='baseline'><strong>Pears Aplenty</strong><p><strong><font class='posOutcome'>You WON</font><p>You bet: 1</strong></font> &nbsp; &nbsp; &nbsp; &nbsp; &nbsp; &nbsp;<font class='posOutcome'>you receive: <strong>2</strong></font></div>","null","7","Pears Aplenty","Fruit/pears.png","Won","0.8,0.2","11","0.8","123","21","",""
"html-keyboard-response","73","114081","0.0-11.0-1.21","5bf0cb0411439b000168edda","bdp_rwlrn","Wed Mar 15 2023 23:49:59 GMT-0400 (Eastern Daylight Time)","355450","Untrustworthy,Trustworthy","","","","decision","","","2064","","<div class='trialDiv'><img src='Fruit/plums1.png'><br><font class='baseline'><strong>Plum Powerball</strong><p>Choose number of points to bet.</font><div class='respPicDiv'><img src='img/responseButtonOffersNo0L.png' class='respPic'></div></div>","5","8","Plum Powerball","Fruit/plums1.png","Won","0.35,0.8","12","0.35","128","22","",""
"html-keyboard-response","74","114333","0.0-11.0-2.21","5bf0cb0411439b000168edda","bdp_rwlrn","Wed Mar 15 2023 23:49:59 GMT-0400 (Eastern Daylight Time)","355450","Untrustworthy,Trustworthy","","","","decisionFB","","","null","","<div class='trialDiv'><img src='Fruit/plums1.png'><br><font class='baseline'><strong>Plum Powerball</strong><p>Choose number of points to bet.</font><div class='respPicDiv'><img src='img/responseButtonOffersNo0L5.png' class='respPic'></div></div>","null","8","Plum Powerball","Fruit/plums1.png","Won","0.35,0.8","12","0.35","123","22","",""
"html-keyboard-response","75","115336","0.0-11.0-3.21","5bf0cb0411439b000168edda","bdp_rwlrn","Wed Mar 15 2023 23:49:59 GMT-0400 (Eastern Daylight Time)","355450","Untrustworthy,Trustworthy","","","","feedback","","","null","","<div class='respPicDiv'><img src='img/responseButtonOffersNo0_wht.png' class='respPic'></div><div class='trialDiv'><img src='Fruit/plums1.png'><br><font class='baseline'><strong>Plum Powerball</strong><p><strong><font class='posOutcome'>You WON</font><p>You bet: 5</strong></font> &nbsp; &nbsp; &nbsp; &nbsp; &nbsp; &nbsp;<font class='posOutcome'>you receive: <strong>10</strong></font></div>","null","8","Plum Powerball","Fruit/plums1.png","Won","0.35,0.8","12","0.35","133","22","",""
"html-keyboard-response","76","116043","0.0-11.0-1.22","5bf0cb0411439b000168edda","bdp_rwlrn","Wed Mar 15 2023 23:49:59 GMT-0400 (Eastern Daylight Time)","355450","Untrustworthy,Trustworthy","","","","decision","","","706","","<div class='trialDiv'><img src='Fruit/pears.png'><br><font class='baseline'><strong>Pears Aplenty</strong><p>Choose number of points to bet.</font><div class='respPicDiv'><img src='img/responseButtonOffersNo0L.png' class='respPic'></div></div>","1","8","Pears Aplenty","Fruit/pears.png","Won","0.8,0.2","11","0.8","138","23","",""
"html-keyboard-response","77","116296","0.0-11.0-2.22","5bf0cb0411439b000168edda","bdp_rwlrn","Wed Mar 15 2023 23:49:59 GMT-0400 (Eastern Daylight Time)","355450","Untrustworthy,Trustworthy","","","","decisionFB","","","null","","<div class='trialDiv'><img src='Fruit/pears.png'><br><font class='baseline'><strong>Pears Aplenty</strong><p>Choose number of points to bet.</font><div class='respPicDiv'><img src='img/responseButtonOffersNo0L1.png' class='respPic'></div></div>","null","8","Pears Aplenty","Fruit/pears.png","Won","0.8,0.2","11","0.8","137","23","",""
"html-keyboard-response","78","117299","0.0-11.0-3.22","5bf0cb0411439b000168edda","bdp_rwlrn","Wed Mar 15 2023 23:49:59 GMT-0400 (Eastern Daylight Time)","355450","Untrustworthy,Trustworthy","","","","feedback","","","null","","<div class='respPicDiv'><img src='img/responseButtonOffersNo0_wht.png' class='respPic'></div><div class='trialDiv'><img src='Fruit/pears.png'><br><font class='baseline'><strong>Pears Aplenty</strong><p><strong><font class='posOutcome'>You WON</font><p>You bet: 1</strong></font> &nbsp; &nbsp; &nbsp; &nbsp; &nbsp; &nbsp;<font class='posOutcome'>you receive: <strong>2</strong></font></div>","null","8","Pears Aplenty","Fruit/pears.png","Won","0.8,0.2","11","0.8","139","23","",""
"html-keyboard-response","79","118862","0.0-11.0-1.23","5bf0cb0411439b000168edda","bdp_rwlrn","Wed Mar 15 2023 23:49:59 GMT-0400 (Eastern Daylight Time)","355450","Untrustworthy,Trustworthy","","","","decision","","","1562","","<div class='trialDiv'><img src='Fruit/orange.png'><br><font class='baseline'><strong>Odds are Orange</strong><p>Choose number of points to bet.</font><div class='respPicDiv'><img src='img/responseButtonOffersNo0L.png' class='respPic'></div></div>","3","8","Odds are Orange","Fruit/orange.png","Lost","0.65,0.2","9","0.65","144","24","",""
"html-keyboard-response","80","119114","0.0-11.0-2.23","5bf0cb0411439b000168edda","bdp_rwlrn","Wed Mar 15 2023 23:49:59 GMT-0400 (Eastern Daylight Time)","355450","Untrustworthy,Trustworthy","","","","decisionFB","","","null","","<div class='trialDiv'><img src='Fruit/orange.png'><br><font class='baseline'><strong>Odds are Orange</strong><p>Choose number of points to bet.</font><div class='respPicDiv'><img src='img/responseButtonOffersNo0L3.png' class='respPic'></div></div>","null","8","Odds are Orange","Fruit/orange.png","Lost","0.65,0.2","9","0.65","141","24","",""
"html-keyboard-response","81","120116","0.0-11.0-3.23","5bf0cb0411439b000168edda","bdp_rwlrn","Wed Mar 15 2023 23:49:59 GMT-0400 (Eastern Daylight Time)","355450","Untrustworthy,Trustworthy","","","","feedback","","","null","","<div class='respPicDiv'><img src='img/responseButtonOffersNo0_wht.png' class='respPic'></div><div class='trialDiv'><img src='Fruit/orange.png'><br><font class='baseline'><strong>Odds are Orange</strong><p><strong><font class='negOutcome'>You LOST</font><p>You bet: 3</strong></font> &nbsp; &nbsp; &nbsp; &nbsp; &nbsp; &nbsp;<font class='negOutcome'>You receive: <strong>0</strong></font></div>","null","8","Odds are Orange","Fruit/orange.png","Lost","0.65,0.2","9","0.65","141","24","",""
"html-keyboard-response","82","121065","0.0-11.0-1.24","5bf0cb0411439b000168edda","bdp_rwlrn","Wed Mar 15 2023 23:49:59 GMT-0400 (Eastern Daylight Time)","355450","Untrustworthy,Trustworthy","","","","decision","","","947","","<div class='trialDiv'><img src='Fruit/pears.png'><br><font class='baseline'><strong>Pears Aplenty</strong><p>Choose number of points to bet.</font><div class='respPicDiv'><img src='img/responseButtonOffersNo0L.png' class='respPic'></div></div>","5","9","Pears Aplenty","Fruit/pears.png","Won","0.8,0.2","11","0.8","146","25","",""
"html-keyboard-response","83","121317","0.0-11.0-2.24","5bf0cb0411439b000168edda","bdp_rwlrn","Wed Mar 15 2023 23:49:59 GMT-0400 (Eastern Daylight Time)","355450","Untrustworthy,Trustworthy","","","","decisionFB","","","null","","<div class='trialDiv'><img src='Fruit/pears.png'><br><font class='baseline'><strong>Pears Aplenty</strong><p>Choose number of points to bet.</font><div class='respPicDiv'><img src='img/responseButtonOffersNo0L5.png' class='respPic'></div></div>","null","9","Pears Aplenty","Fruit/pears.png","Won","0.8,0.2","11","0.8","141","25","",""
"html-keyboard-response","84","122319","0.0-11.0-3.24","5bf0cb0411439b000168edda","bdp_rwlrn","Wed Mar 15 2023 23:49:59 GMT-0400 (Eastern Daylight Time)","355450","Untrustworthy,Trustworthy","","","","feedback","","","null","","<div class='respPicDiv'><img src='img/responseButtonOffersNo0_wht.png' class='respPic'></div><div class='trialDiv'><img src='Fruit/pears.png'><br><font class='baseline'><strong>Pears Aplenty</strong><p><strong><font class='posOutcome'>You WON</font><p>You bet: 5</strong></font> &nbsp; &nbsp; &nbsp; &nbsp; &nbsp; &nbsp;<font class='posOutcome'>you receive: <strong>10</strong></font></div>","null","9","Pears Aplenty","Fruit/pears.png","Won","0.8,0.2","11","0.8","151","25","",""
"html-keyboard-response","85","124308","0.0-11.0-1.25","5bf0cb0411439b000168edda","bdp_rwlrn","Wed Mar 15 2023 23:49:59 GMT-0400 (Eastern Daylight Time)","355450","Untrustworthy,Trustworthy","","","","decision","","","1986","","<div class='trialDiv'><img src='Fruit/orange.png'><br><font class='baseline'><strong>Odds are Orange</strong><p>Choose number of points to bet.</font><div class='respPicDiv'><img src='img/responseButtonOffersNo0L.png' class='respPic'></div></div>","3","9","Odds are Orange","Fruit/orange.png","Lost","0.65,0.2","9","0.65","156","26","",""
"html-keyboard-response","86","124560","0.0-11.0-2.25","5bf0cb0411439b000168edda","bdp_rwlrn","Wed Mar 15 2023 23:49:59 GMT-0400 (Eastern Daylight Time)","355450","Untrustworthy,Trustworthy","","","","decisionFB","","","null","","<div class='trialDiv'><img src='Fruit/orange.png'><br><font class='baseline'><strong>Odds are Orange</strong><p>Choose number of points to bet.</font><div class='respPicDiv'><img src='img/responseButtonOffersNo0L3.png' class='respPic'></div></div>","null","9","Odds are Orange","Fruit/orange.png","Lost","0.65,0.2","9","0.65","153","26","",""
"html-keyboard-response","87","125562","0.0-11.0-3.25","5bf0cb0411439b000168edda","bdp_rwlrn","Wed Mar 15 2023 23:49:59 GMT-0400 (Eastern Daylight Time)","355450","Untrustworthy,Trustworthy","","","","feedback","","","null","","<div class='respPicDiv'><img src='img/responseButtonOffersNo0_wht.png' class='respPic'></div><div class='trialDiv'><img src='Fruit/orange.png'><br><font class='baseline'><strong>Odds are Orange</strong><p><strong><font class='negOutcome'>You LOST</font><p>You bet: 3</strong></font> &nbsp; &nbsp; &nbsp; &nbsp; &nbsp; &nbsp;<font class='negOutcome'>You receive: <strong>0</strong></font></div>","null","9","Odds are Orange","Fruit/orange.png","Lost","0.65,0.2","9","0.65","153","26","",""
"html-keyboard-response","88","127203","0.0-11.0-1.26","5bf0cb0411439b000168edda","bdp_rwlrn","Wed Mar 15 2023 23:49:59 GMT-0400 (Eastern Daylight Time)","355450","Untrustworthy,Trustworthy","","","","decision","","","1639","","<div class='trialDiv'><img src='Fruit/plums1.png'><br><font class='baseline'><strong>Plum Powerball</strong><p>Choose number of points to bet.</font><div class='respPicDiv'><img src='img/responseButtonOffersNo0L.png' class='respPic'></div></div>","2","9","Plum Powerball","Fruit/plums1.png","Won","0.35,0.8","12","0.35","158","27","",""
"html-keyboard-response","89","127456","0.0-11.0-2.26","5bf0cb0411439b000168edda","bdp_rwlrn","Wed Mar 15 2023 23:49:59 GMT-0400 (Eastern Daylight Time)","355450","Untrustworthy,Trustworthy","","","","decisionFB","","","null","","<div class='trialDiv'><img src='Fruit/plums1.png'><br><font class='baseline'><strong>Plum Powerball</strong><p>Choose number of points to bet.</font><div class='respPicDiv'><img src='img/responseButtonOffersNo0L2.png' class='respPic'></div></div>","null","9","Plum Powerball","Fruit/plums1.png","Won","0.35,0.8","12","0.35","156","27","",""
"html-keyboard-response","90","128458","0.0-11.0-3.26","5bf0cb0411439b000168edda","bdp_rwlrn","Wed Mar 15 2023 23:49:59 GMT-0400 (Eastern Daylight Time)","355450","Untrustworthy,Trustworthy","","","","feedback","","","null","","<div class='respPicDiv'><img src='img/responseButtonOffersNo0_wht.png' class='respPic'></div><div class='trialDiv'><img src='Fruit/plums1.png'><br><font class='baseline'><strong>Plum Powerball</strong><p><strong><font class='posOutcome'>You WON</font><p>You bet: 2</strong></font> &nbsp; &nbsp; &nbsp; &nbsp; &nbsp; &nbsp;<font class='posOutcome'>you receive: <strong>4</strong></font></div>","null","9","Plum Powerball","Fruit/plums1.png","Won","0.35,0.8","12","0.35","160","27","",""
"html-keyboard-response","91","130089","0.0-11.0-1.27","5bf0cb0411439b000168edda","bdp_rwlrn","Wed Mar 15 2023 23:49:59 GMT-0400 (Eastern Daylight Time)","355450","Untrustworthy,Trustworthy","","","","decision","","","1629","","<div class='trialDiv'><img src='Fruit/orange.png'><br><font class='baseline'><strong>Odds are Orange</strong><p>Choose number of points to bet.</font><div class='respPicDiv'><img src='img/responseButtonOffersNo0L.png' class='respPic'></div></div>","1","10","Odds are Orange","Fruit/orange.png","Lost","0.65,0.2","9","0.65","165","28","",""
"html-keyboard-response","92","130342","0.0-11.0-2.27","5bf0cb0411439b000168edda","bdp_rwlrn","Wed Mar 15 2023 23:49:59 GMT-0400 (Eastern Daylight Time)","355450","Untrustworthy,Trustworthy","","","","decisionFB","","","null","","<div class='trialDiv'><img src='Fruit/orange.png'><br><font class='baseline'><strong>Odds are Orange</strong><p>Choose number of points to bet.</font><div class='respPicDiv'><img src='img/responseButtonOffersNo0L1.png' class='respPic'></div></div>","null","10","Odds are Orange","Fruit/orange.png","Lost","0.65,0.2","9","0.65","164","28","",""
"html-keyboard-response","93","131344","0.0-11.0-3.27","5bf0cb0411439b000168edda","bdp_rwlrn","Wed Mar 15 2023 23:49:59 GMT-0400 (Eastern Daylight Time)","355450","Untrustworthy,Trustworthy","","","","feedback","","","null","","<div class='respPicDiv'><img src='img/responseButtonOffersNo0_wht.png' class='respPic'></div><div class='trialDiv'><img src='Fruit/orange.png'><br><font class='baseline'><strong>Odds are Orange</strong><p><strong><font class='negOutcome'>You LOST</font><p>You bet: 1</strong></font> &nbsp; &nbsp; &nbsp; &nbsp; &nbsp; &nbsp;<font class='negOutcome'>You receive: <strong>0</strong></font></div>","null","10","Odds are Orange","Fruit/orange.png","Lost","0.65,0.2","9","0.65","164","28","",""
"html-keyboard-response","94","133027","0.0-11.0-1.28","5bf0cb0411439b000168edda","bdp_rwlrn","Wed Mar 15 2023 23:49:59 GMT-0400 (Eastern Daylight Time)","355450","Untrustworthy,Trustworthy","","","","decision","","","1680","","<div class='trialDiv'><img src='Fruit/pears.png'><br><font class='baseline'><strong>Pears Aplenty</strong><p>Choose number of points to bet.</font><div class='respPicDiv'><img src='img/responseButtonOffersNo0L.png' class='respPic'></div></div>","3","10","Pears Aplenty","Fruit/pears.png","Lost","0.8,0.2","11","0.8","169","29","",""
"html-keyboard-response","95","133280","0.0-11.0-2.28","5bf0cb0411439b000168edda","bdp_rwlrn","Wed Mar 15 2023 23:49:59 GMT-0400 (Eastern Daylight Time)","355450","Untrustworthy,Trustworthy","","","","decisionFB","","","null","","<div class='trialDiv'><img src='Fruit/pears.png'><br><font class='baseline'><strong>Pears Aplenty</strong><p>Choose number of points to bet.</font><div class='respPicDiv'><img src='img/responseButtonOffersNo0L3.png' class='respPic'></div></div>","null","10","Pears Aplenty","Fruit/pears.png","Lost","0.8,0.2","11","0.8","166","29","",""
"html-keyboard-response","96","134283","0.0-11.0-3.28","5bf0cb0411439b000168edda","bdp_rwlrn","Wed Mar 15 2023 23:49:59 GMT-0400 (Eastern Daylight Time)","355450","Untrustworthy,Trustworthy","","","","feedback","","","null","","<div class='respPicDiv'><img src='img/responseButtonOffersNo0_wht.png' class='respPic'></div><div class='trialDiv'><img src='Fruit/pears.png'><br><font class='baseline'><strong>Pears Aplenty</strong><p><strong><font class='negOutcome'>You LOST</font><p>You bet: 3</strong></font> &nbsp; &nbsp; &nbsp; &nbsp; &nbsp; &nbsp;<font class='negOutcome'>You receive: <strong>0</strong></font></div>","null","10","Pears Aplenty","Fruit/pears.png","Lost","0.8,0.2","11","0.8","166","29","",""
"html-keyboard-response","97","135187","0.0-11.0-1.29","5bf0cb0411439b000168edda","bdp_rwlrn","Wed Mar 15 2023 23:49:59 GMT-0400 (Eastern Daylight Time)","355450","Untrustworthy,Trustworthy","","","","decision","","","903","","<div class='trialDiv'><img src='Fruit/plums1.png'><br><font class='baseline'><strong>Plum Powerball</strong><p>Choose number of points to bet.</font><div class='respPicDiv'><img src='img/responseButtonOffersNo0L.png' class='respPic'></div></div>","5","10","Plum Powerball","Fruit/plums1.png","Lost","0.35,0.8","12","0.35","171","30","",""
"html-keyboard-response","98","135439","0.0-11.0-2.29","5bf0cb0411439b000168edda","bdp_rwlrn","Wed Mar 15 2023 23:49:59 GMT-0400 (Eastern Daylight Time)","355450","Untrustworthy,Trustworthy","","","","decisionFB","","","null","","<div class='trialDiv'><img src='Fruit/plums1.png'><br><font class='baseline'><strong>Plum Powerball</strong><p>Choose number of points to bet.</font><div class='respPicDiv'><img src='img/responseButtonOffersNo0L5.png' class='respPic'></div></div>","null","10","Plum Powerball","Fruit/plums1.png","Lost","0.35,0.8","12","0.35","166","30","",""
"html-keyboard-response","99","136441","0.0-11.0-3.29","5bf0cb0411439b000168edda","bdp_rwlrn","Wed Mar 15 2023 23:49:59 GMT-0400 (Eastern Daylight Time)","355450","Untrustworthy,Trustworthy","","","","feedback","","","null","","<div class='respPicDiv'><img src='img/responseButtonOffersNo0_wht.png' class='respPic'></div><div class='trialDiv'><img src='Fruit/plums1.png'><br><font class='baseline'><strong>Plum Powerball</strong><p><strong><font class='negOutcome'>You LOST</font><p>You bet: 5</strong></font> &nbsp; &nbsp; &nbsp; &nbsp; &nbsp; &nbsp;<font class='negOutcome'>You receive: <strong>0</strong></font></div>","null","10","Plum Powerball","Fruit/plums1.png","Lost","0.35,0.8","12","0.35","166","30","",""
"html-keyboard-response","100","137061","0.0-11.0-1.30","5bf0cb0411439b000168edda","bdp_rwlrn","Wed Mar 15 2023 23:49:59 GMT-0400 (Eastern Daylight Time)","355450","Untrustworthy,Trustworthy","","","","decision","","","619","","<div class='trialDiv'><img src='Fruit/pears.png'><br><font class='baseline'><strong>Pears Aplenty</strong><p>Choose number of points to bet.</font><div class='respPicDiv'><img src='img/responseButtonOffersNo0L.png' class='respPic'></div></div>","5","11","Pears Aplenty","Fruit/pears.png","Lost","0.8,0.2","11","0.8","171","31","",""
"html-keyboard-response","101","137313","0.0-11.0-2.30","5bf0cb0411439b000168edda","bdp_rwlrn","Wed Mar 15 2023 23:49:59 GMT-0400 (Eastern Daylight Time)","355450","Untrustworthy,Trustworthy","","","","decisionFB","","","null","","<div class='trialDiv'><img src='Fruit/pears.png'><br><font class='baseline'><strong>Pears Aplenty</strong><p>Choose number of points to bet.</font><div class='respPicDiv'><img src='img/responseButtonOffersNo0L5.png' class='respPic'></div></div>","null","11","Pears Aplenty","Fruit/pears.png","Lost","0.8,0.2","11","0.8","166","31","",""
"html-keyboard-response","102","138317","0.0-11.0-3.30","5bf0cb0411439b000168edda","bdp_rwlrn","Wed Mar 15 2023 23:49:59 GMT-0400 (Eastern Daylight Time)","355450","Untrustworthy,Trustworthy","","","","feedback","","","null","","<div class='respPicDiv'><img src='img/responseButtonOffersNo0_wht.png' class='respPic'></div><div class='trialDiv'><img src='Fruit/pears.png'><br><font class='baseline'><strong>Pears Aplenty</strong><p><strong><font class='negOutcome'>You LOST</font><p>You bet: 5</strong></font> &nbsp; &nbsp; &nbsp; &nbsp; &nbsp; &nbsp;<font class='negOutcome'>You receive: <strong>0</strong></font></div>","null","11","Pears Aplenty","Fruit/pears.png","Lost","0.8,0.2","11","0.8","166","31","",""
"html-keyboard-response","103","138842","0.0-11.0-1.31","5bf0cb0411439b000168edda","bdp_rwlrn","Wed Mar 15 2023 23:49:59 GMT-0400 (Eastern Daylight Time)","355450","Untrustworthy,Trustworthy","","","","decision","","","523","","<div class='trialDiv'><img src='Fruit/orange.png'><br><font class='baseline'><strong>Odds are Orange</strong><p>Choose number of points to bet.</font><div class='respPicDiv'><img src='img/responseButtonOffersNo0L.png' class='respPic'></div></div>","1","11","Odds are Orange","Fruit/orange.png","Lost","0.65,0.2","9","0.65","171","32","",""
"html-keyboard-response","104","139094","0.0-11.0-2.31","5bf0cb0411439b000168edda","bdp_rwlrn","Wed Mar 15 2023 23:49:59 GMT-0400 (Eastern Daylight Time)","355450","Untrustworthy,Trustworthy","","","","decisionFB","","","null","","<div class='trialDiv'><img src='Fruit/orange.png'><br><font class='baseline'><strong>Odds are Orange</strong><p>Choose number of points to bet.</font><div class='respPicDiv'><img src='img/responseButtonOffersNo0L1.png' class='respPic'></div></div>","null","11","Odds are Orange","Fruit/orange.png","Lost","0.65,0.2","9","0.65","170","32","",""
"html-keyboard-response","105","140100","0.0-11.0-3.31","5bf0cb0411439b000168edda","bdp_rwlrn","Wed Mar 15 2023 23:49:59 GMT-0400 (Eastern Daylight Time)","355450","Untrustworthy,Trustworthy","","","","feedback","","","null","","<div class='respPicDiv'><img src='img/responseButtonOffersNo0_wht.png' class='respPic'></div><div class='trialDiv'><img src='Fruit/orange.png'><br><font class='baseline'><strong>Odds are Orange</strong><p><strong><font class='negOutcome'>You LOST</font><p>You bet: 1</strong></font> &nbsp; &nbsp; &nbsp; &nbsp; &nbsp; &nbsp;<font class='negOutcome'>You receive: <strong>0</strong></font></div>","null","11","Odds are Orange","Fruit/orange.png","Lost","0.65,0.2","9","0.65","170","32","",""
"html-keyboard-response","106","140662","0.0-11.0-1.32","5bf0cb0411439b000168edda","bdp_rwlrn","Wed Mar 15 2023 23:49:59 GMT-0400 (Eastern Daylight Time)","355450","Untrustworthy,Trustworthy","","","","decision","","","560","","<div class='trialDiv'><img src='Fruit/plums1.png'><br><font class='baseline'><strong>Plum Powerball</strong><p>Choose number of points to bet.</font><div class='respPicDiv'><img src='img/responseButtonOffersNo0L.png' class='respPic'></div></div>","1","11","Plum Powerball","Fruit/plums1.png","Lost","0.35,0.8","12","0.35","175","33","",""
"html-keyboard-response","107","140914","0.0-11.0-2.32","5bf0cb0411439b000168edda","bdp_rwlrn","Wed Mar 15 2023 23:49:59 GMT-0400 (Eastern Daylight Time)","355450","Untrustworthy,Trustworthy","","","","decisionFB","","","null","","<div class='trialDiv'><img src='Fruit/plums1.png'><br><font class='baseline'><strong>Plum Powerball</strong><p>Choose number of points to bet.</font><div class='respPicDiv'><img src='img/responseButtonOffersNo0L1.png' class='respPic'></div></div>","null","11","Plum Powerball","Fruit/plums1.png","Lost","0.35,0.8","12","0.35","174","33","",""
"html-keyboard-response","108","141917","0.0-11.0-3.32","5bf0cb0411439b000168edda","bdp_rwlrn","Wed Mar 15 2023 23:49:59 GMT-0400 (Eastern Daylight Time)","355450","Untrustworthy,Trustworthy","","","","feedback","","","null","","<div class='respPicDiv'><img src='img/responseButtonOffersNo0_wht.png' class='respPic'></div><div class='trialDiv'><img src='Fruit/plums1.png'><br><font class='baseline'><strong>Plum Powerball</strong><p><strong><font class='negOutcome'>You LOST</font><p>You bet: 1</strong></font> &nbsp; &nbsp; &nbsp; &nbsp; &nbsp; &nbsp;<font class='negOutcome'>You receive: <strong>0</strong></font></div>","null","11","Plum Powerball","Fruit/plums1.png","Lost","0.35,0.8","12","0.35","174","33","",""
"html-keyboard-response","109","142465","0.0-11.0-1.33","5bf0cb0411439b000168edda","bdp_rwlrn","Wed Mar 15 2023 23:49:59 GMT-0400 (Eastern Daylight Time)","355450","Untrustworthy,Trustworthy","","","","decision","","","546","","<div class='trialDiv'><img src='Fruit/orange.png'><br><font class='baseline'><strong>Odds are Orange</strong><p>Choose number of points to bet.</font><div class='respPicDiv'><img src='img/responseButtonOffersNo0L.png' class='respPic'></div></div>","1","12","Odds are Orange","Fruit/orange.png","Lost","0.65,0.2","9","0.65","179","34","",""
"html-keyboard-response","110","142717","0.0-11.0-2.33","5bf0cb0411439b000168edda","bdp_rwlrn","Wed Mar 15 2023 23:49:59 GMT-0400 (Eastern Daylight Time)","355450","Untrustworthy,Trustworthy","","","","decisionFB","","","null","","<div class='trialDiv'><img src='Fruit/orange.png'><br><font class='baseline'><strong>Odds are Orange</strong><p>Choose number of points to bet.</font><div class='respPicDiv'><img src='img/responseButtonOffersNo0L1.png' class='respPic'></div></div>","null","12","Odds are Orange","Fruit/orange.png","Lost","0.65,0.2","9","0.65","178","34","",""
"html-keyboard-response","111","143719","0.0-11.0-3.33","5bf0cb0411439b000168edda","bdp_rwlrn","Wed Mar 15 2023 23:49:59 GMT-0400 (Eastern Daylight Time)","355450","Untrustworthy,Trustworthy","","","","feedback","","","null","","<div class='respPicDiv'><img src='img/responseButtonOffersNo0_wht.png' class='respPic'></div><div class='trialDiv'><img src='Fruit/orange.png'><br><font class='baseline'><strong>Odds are Orange</strong><p><strong><font class='negOutcome'>You LOST</font><p>You bet: 1</strong></font> &nbsp; &nbsp; &nbsp; &nbsp; &nbsp; &nbsp;<font class='negOutcome'>You receive: <strong>0</strong></font></div>","null","12","Odds are Orange","Fruit/orange.png","Lost","0.65,0.2","9","0.65","178","34","",""
"html-keyboard-response","112","144283","0.0-11.0-1.34","5bf0cb0411439b000168edda","bdp_rwlrn","Wed Mar 15 2023 23:49:59 GMT-0400 (Eastern Daylight Time)","355450","Untrustworthy,Trustworthy","","","","decision","","","561","","<div class='trialDiv'><img src='Fruit/plums1.png'><br><font class='baseline'><strong>Plum Powerball</strong><p>Choose number of points to bet.</font><div class='respPicDiv'><img src='img/responseButtonOffersNo0L.png' class='respPic'></div></div>","1","12","Plum Powerball","Fruit/plums1.png","Won","0.35,0.8","12","0.35","183","35","",""
"html-keyboard-response","113","144535","0.0-11.0-2.34","5bf0cb0411439b000168edda","bdp_rwlrn","Wed Mar 15 2023 23:49:59 GMT-0400 (Eastern Daylight Time)","355450","Untrustworthy,Trustworthy","","","","decisionFB","","","null","","<div class='trialDiv'><img src='Fruit/plums1.png'><br><font class='baseline'><strong>Plum Powerball</strong><p>Choose number of points to bet.</font><div class='respPicDiv'><img src='img/responseButtonOffersNo0L1.png' class='respPic'></div></div>","null","12","Plum Powerball","Fruit/plums1.png","Won","0.35,0.8","12","0.35","182","35","",""
"html-keyboard-response","114","145538","0.0-11.0-3.34","5bf0cb0411439b000168edda","bdp_rwlrn","Wed Mar 15 2023 23:49:59 GMT-0400 (Eastern Daylight Time)","355450","Untrustworthy,Trustworthy","","","","feedback","","","null","","<div class='respPicDiv'><img src='img/responseButtonOffersNo0_wht.png' class='respPic'></div><div class='trialDiv'><img src='Fruit/plums1.png'><br><font class='baseline'><strong>Plum Powerball</strong><p><strong><font class='posOutcome'>You WON</font><p>You bet: 1</strong></font> &nbsp; &nbsp; &nbsp; &nbsp; &nbsp; &nbsp;<font class='posOutcome'>you receive: <strong>2</strong></font></div>","null","12","Plum Powerball","Fruit/plums1.png","Won","0.35,0.8","12","0.35","184","35","",""
"html-keyboard-response","115","146184","0.0-11.0-1.35","5bf0cb0411439b000168edda","bdp_rwlrn","Wed Mar 15 2023 23:49:59 GMT-0400 (Eastern Daylight Time)","355450","Untrustworthy,Trustworthy","","","","decision","","","644","","<div class='trialDiv'><img src='Fruit/pears.png'><br><font class='baseline'><strong>Pears Aplenty</strong><p>Choose number of points to bet.</font><div class='respPicDiv'><img src='img/responseButtonOffersNo0L.png' class='respPic'></div></div>","5","12","Pears Aplenty","Fruit/pears.png","Lost","0.8,0.2","11","0.8","189","36","",""
"html-keyboard-response","116","146436","0.0-11.0-2.35","5bf0cb0411439b000168edda","bdp_rwlrn","Wed Mar 15 2023 23:49:59 GMT-0400 (Eastern Daylight Time)","355450","Untrustworthy,Trustworthy","","","","decisionFB","","","null","","<div class='trialDiv'><img src='Fruit/pears.png'><br><font class='baseline'><strong>Pears Aplenty</strong><p>Choose number of points to bet.</font><div class='respPicDiv'><img src='img/responseButtonOffersNo0L5.png' class='respPic'></div></div>","null","12","Pears Aplenty","Fruit/pears.png","Lost","0.8,0.2","11","0.8","184","36","",""
"html-keyboard-response","117","147440","0.0-11.0-3.35","5bf0cb0411439b000168edda","bdp_rwlrn","Wed Mar 15 2023 23:49:59 GMT-0400 (Eastern Daylight Time)","355450","Untrustworthy,Trustworthy","","","","feedback","","","null","","<div class='respPicDiv'><img src='img/responseButtonOffersNo0_wht.png' class='respPic'></div><div class='trialDiv'><img src='Fruit/pears.png'><br><font class='baseline'><strong>Pears Aplenty</strong><p><strong><font class='negOutcome'>You LOST</font><p>You bet: 5</strong></font> &nbsp; &nbsp; &nbsp; &nbsp; &nbsp; &nbsp;<font class='negOutcome'>You receive: <strong>0</strong></font></div>","null","12","Pears Aplenty","Fruit/pears.png","Lost","0.8,0.2","11","0.8","184","36","",""
"html-keyboard-response","118","147881","0.0-11.0-1.36","5bf0cb0411439b000168edda","bdp_rwlrn","Wed Mar 15 2023 23:49:59 GMT-0400 (Eastern Daylight Time)","355450","Untrustworthy,Trustworthy","","","","decision","","","440","","<div class='trialDiv'><img src='Fruit/orange.png'><br><font class='baseline'><strong>Odds are Orange</strong><p>Choose number of points to bet.</font><div class='respPicDiv'><img src='img/responseButtonOffersNo0L.png' class='respPic'></div></div>","5","13","Odds are Orange","Fruit/orange.png","Lost","0.65,0.2","9","0.65","189","37","",""
"html-keyboard-response","119","148133","0.0-11.0-2.36","5bf0cb0411439b000168edda","bdp_rwlrn","Wed Mar 15 2023 23:49:59 GMT-0400 (Eastern Daylight Time)","355450","Untrustworthy,Trustworthy","","","","decisionFB","","","null","","<div class='trialDiv'><img src='Fruit/orange.png'><br><font class='baseline'><strong>Odds are Orange</strong><p>Choose number of points to bet.</font><div class='respPicDiv'><img src='img/responseButtonOffersNo0L5.png' class='respPic'></div></div>","null","13","Odds are Orange","Fruit/orange.png","Lost","0.65,0.2","9","0.65","184","37","",""
"html-keyboard-response","120","149136","0.0-11.0-3.36","5bf0cb0411439b000168edda","bdp_rwlrn","Wed Mar 15 2023 23:49:59 GMT-0400 (Eastern Daylight Time)","355450","Untrustworthy,Trustworthy","","","","feedback","","","null","","<div class='respPicDiv'><img src='img/responseButtonOffersNo0_wht.png' class='respPic'></div><div class='trialDiv'><img src='Fruit/orange.png'><br><font class='baseline'><strong>Odds are Orange</strong><p><strong><font class='negOutcome'>You LOST</font><p>You bet: 5</strong></font> &nbsp; &nbsp; &nbsp; &nbsp; &nbsp; &nbsp;<font class='negOutcome'>You receive: <strong>0</strong></font></div>","null","13","Odds are Orange","Fruit/orange.png","Lost","0.65,0.2","9","0.65","184","37","",""
"html-keyboard-response","121","149562","0.0-11.0-1.37","5bf0cb0411439b000168edda","bdp_rwlrn","Wed Mar 15 2023 23:49:59 GMT-0400 (Eastern Daylight Time)","355450","Untrustworthy,Trustworthy","","","","decision","","","425","","<div class='trialDiv'><img src='Fruit/pears.png'><br><font class='baseline'><strong>Pears Aplenty</strong><p>Choose number of points to bet.</font><div class='respPicDiv'><img src='img/responseButtonOffersNo0L.png' class='respPic'></div></div>","1","13","Pears Aplenty","Fruit/pears.png","Lost","0.8,0.2","11","0.8","189","38","",""
"html-keyboard-response","122","149815","0.0-11.0-2.37","5bf0cb0411439b000168edda","bdp_rwlrn","Wed Mar 15 2023 23:49:59 GMT-0400 (Eastern Daylight Time)","355450","Untrustworthy,Trustworthy","","","","decisionFB","","","null","","<div class='trialDiv'><img src='Fruit/pears.png'><br><font class='baseline'><strong>Pears Aplenty</strong><p>Choose number of points to bet.</font><div class='respPicDiv'><img src='img/responseButtonOffersNo0L1.png' class='respPic'></div></div>","null","13","Pears Aplenty","Fruit/pears.png","Lost","0.8,0.2","11","0.8","188","38","",""
"html-keyboard-response","123","150818","0.0-11.0-3.37","5bf0cb0411439b000168edda","bdp_rwlrn","Wed Mar 15 2023 23:49:59 GMT-0400 (Eastern Daylight Time)","355450","Untrustworthy,Trustworthy","","","","feedback","","","null","","<div class='respPicDiv'><img src='img/responseButtonOffersNo0_wht.png' class='respPic'></div><div class='trialDiv'><img src='Fruit/pears.png'><br><font class='baseline'><strong>Pears Aplenty</strong><p><strong><font class='negOutcome'>You LOST</font><p>You bet: 1</strong></font> &nbsp; &nbsp; &nbsp; &nbsp; &nbsp; &nbsp;<font class='negOutcome'>You receive: <strong>0</strong></font></div>","null","13","Pears Aplenty","Fruit/pears.png","Lost","0.8,0.2","11","0.8","188","38","",""
"html-keyboard-response","124","151184","0.0-11.0-1.38","5bf0cb0411439b000168edda","bdp_rwlrn","Wed Mar 15 2023 23:49:59 GMT-0400 (Eastern Daylight Time)","355450","Untrustworthy,Trustworthy","","","","decision","","","364","","<div class='trialDiv'><img src='Fruit/plums1.png'><br><font class='baseline'><strong>Plum Powerball</strong><p>Choose number of points to bet.</font><div class='respPicDiv'><img src='img/responseButtonOffersNo0L.png' class='respPic'></div></div>","1","13","Plum Powerball","Fruit/plums1.png","Won","0.35,0.8","12","0.35","193","39","",""
"html-keyboard-response","125","151437","0.0-11.0-2.38","5bf0cb0411439b000168edda","bdp_rwlrn","Wed Mar 15 2023 23:49:59 GMT-0400 (Eastern Daylight Time)","355450","Untrustworthy,Trustworthy","","","","decisionFB","","","null","","<div class='trialDiv'><img src='Fruit/plums1.png'><br><font class='baseline'><strong>Plum Powerball</strong><p>Choose number of points to bet.</font><div class='respPicDiv'><img src='img/responseButtonOffersNo0L1.png' class='respPic'></div></div>","null","13","Plum Powerball","Fruit/plums1.png","Won","0.35,0.8","12","0.35","192","39","",""
"html-keyboard-response","126","152439","0.0-11.0-3.38","5bf0cb0411439b000168edda","bdp_rwlrn","Wed Mar 15 2023 23:49:59 GMT-0400 (Eastern Daylight Time)","355450","Untrustworthy,Trustworthy","","","","feedback","","","null","","<div class='respPicDiv'><img src='img/responseButtonOffersNo0_wht.png' class='respPic'></div><div class='trialDiv'><img src='Fruit/plums1.png'><br><font class='baseline'><strong>Plum Powerball</strong><p><strong><font class='posOutcome'>You WON</font><p>You bet: 1</strong></font> &nbsp; &nbsp; &nbsp; &nbsp; &nbsp; &nbsp;<font class='posOutcome'>you receive: <strong>2</strong></font></div>","null","13","Plum Powerball","Fruit/plums1.png","Won","0.35,0.8","12","0.35","194","39","",""
"html-keyboard-response","127","152994","0.0-11.0-1.39","5bf0cb0411439b000168edda","bdp_rwlrn","Wed Mar 15 2023 23:49:59 GMT-0400 (Eastern Daylight Time)","355450","Untrustworthy,Trustworthy","","","","decision","","","553","","<div class='trialDiv'><img src='Fruit/orange.png'><br><font class='baseline'><strong>Odds are Orange</strong><p>Choose number of points to bet.</font><div class='respPicDiv'><img src='img/responseButtonOffersNo0L.png' class='respPic'></div></div>","5","14","Odds are Orange","Fruit/orange.png","Lost","0.65,0.2","9","0.65","199","40","",""
"html-keyboard-response","128","153247","0.0-11.0-2.39","5bf0cb0411439b000168edda","bdp_rwlrn","Wed Mar 15 2023 23:49:59 GMT-0400 (Eastern Daylight Time)","355450","Untrustworthy,Trustworthy","","","","decisionFB","","","null","","<div class='trialDiv'><img src='Fruit/orange.png'><br><font class='baseline'><strong>Odds are Orange</strong><p>Choose number of points to bet.</font><div class='respPicDiv'><img src='img/responseButtonOffersNo0L5.png' class='respPic'></div></div>","null","14","Odds are Orange","Fruit/orange.png","Lost","0.65,0.2","9","0.65","194","40","",""
"html-keyboard-response","129","154249","0.0-11.0-3.39","5bf0cb0411439b000168edda","bdp_rwlrn","Wed Mar 15 2023 23:49:59 GMT-0400 (Eastern Daylight Time)","355450","Untrustworthy,Trustworthy","","","","feedback","","","null","","<div class='respPicDiv'><img src='img/responseButtonOffersNo0_wht.png' class='respPic'></div><div class='trialDiv'><img src='Fruit/orange.png'><br><font class='baseline'><strong>Odds are Orange</strong><p><strong><font class='negOutcome'>You LOST</font><p>You bet: 5</strong></font> &nbsp; &nbsp; &nbsp; &nbsp; &nbsp; &nbsp;<font class='negOutcome'>You receive: <strong>0</strong></font></div>","null","14","Odds are Orange","Fruit/orange.png","Lost","0.65,0.2","9","0.65","194","40","",""
"html-keyboard-response","130","154762","0.0-11.0-1.40","5bf0cb0411439b000168edda","bdp_rwlrn","Wed Mar 15 2023 23:49:59 GMT-0400 (Eastern Daylight Time)","355450","Untrustworthy,Trustworthy","","","","decision","","","511","","<div class='trialDiv'><img src='Fruit/pears.png'><br><font class='baseline'><strong>Pears Aplenty</strong><p>Choose number of points to bet.</font><div class='respPicDiv'><img src='img/responseButtonOffersNo0L.png' class='respPic'></div></div>","5","14","Pears Aplenty","Fruit/pears.png","Lost","0.8,0.2","11","0.8","199","41","",""
"html-keyboard-response","131","155013","0.0-11.0-2.40","5bf0cb0411439b000168edda","bdp_rwlrn","Wed Mar 15 2023 23:49:59 GMT-0400 (Eastern Daylight Time)","355450","Untrustworthy,Trustworthy","","","","decisionFB","","","null","","<div class='trialDiv'><img src='Fruit/pears.png'><br><font class='baseline'><strong>Pears Aplenty</strong><p>Choose number of points to bet.</font><div class='respPicDiv'><img src='img/responseButtonOffersNo0L5.png' class='respPic'></div></div>","null","14","Pears Aplenty","Fruit/pears.png","Lost","0.8,0.2","11","0.8","194","41","",""
"html-keyboard-response","132","156017","0.0-11.0-3.40","5bf0cb0411439b000168edda","bdp_rwlrn","Wed Mar 15 2023 23:49:59 GMT-0400 (Eastern Daylight Time)","355450","Untrustworthy,Trustworthy","","","","feedback","","","null","","<div class='respPicDiv'><img src='img/responseButtonOffersNo0_wht.png' class='respPic'></div><div class='trialDiv'><img src='Fruit/pears.png'><br><font class='baseline'><strong>Pears Aplenty</strong><p><strong><font class='negOutcome'>You LOST</font><p>You bet: 5</strong></font> &nbsp; &nbsp; &nbsp; &nbsp; &nbsp; &nbsp;<font class='negOutcome'>You receive: <strong>0</strong></font></div>","null","14","Pears Aplenty","Fruit/pears.png","Lost","0.8,0.2","11","0.8","194","41","",""
"html-keyboard-response","133","156744","0.0-11.0-1.41","5bf0cb0411439b000168edda","bdp_rwlrn","Wed Mar 15 2023 23:49:59 GMT-0400 (Eastern Daylight Time)","355450","Untrustworthy,Trustworthy","","","","decision","","","727","","<div class='trialDiv'><img src='Fruit/plums1.png'><br><font class='baseline'><strong>Plum Powerball</strong><p>Choose number of points to bet.</font><div class='respPicDiv'><img src='img/responseButtonOffersNo0L.png' class='respPic'></div></div>","2","14","Plum Powerball","Fruit/plums1.png","Lost","0.35,0.8","12","0.35","199","42","",""
"html-keyboard-response","134","156996","0.0-11.0-2.41","5bf0cb0411439b000168edda","bdp_rwlrn","Wed Mar 15 2023 23:49:59 GMT-0400 (Eastern Daylight Time)","355450","Untrustworthy,Trustworthy","","","","decisionFB","","","null","","<div class='trialDiv'><img src='Fruit/plums1.png'><br><font class='baseline'><strong>Plum Powerball</strong><p>Choose number of points to bet.</font><div class='respPicDiv'><img src='img/responseButtonOffersNo0L2.png' class='respPic'></div></div>","null","14","Plum Powerball","Fruit/plums1.png","Lost","0.35,0.8","12","0.35","197","42","",""
"html-keyboard-response","135","157998","0.0-11.0-3.41","5bf0cb0411439b000168edda","bdp_rwlrn","Wed Mar 15 2023 23:49:59 GMT-0400 (Eastern Daylight Time)","355450","Untrustworthy,Trustworthy","","","","feedback","","","null","","<div class='respPicDiv'><img src='img/responseButtonOffersNo0_wht.png' class='respPic'></div><div class='trialDiv'><img src='Fruit/plums1.png'><br><font class='baseline'><strong>Plum Powerball</strong><p><strong><font class='negOutcome'>You LOST</font><p>You bet: 2</strong></font> &nbsp; &nbsp; &nbsp; &nbsp; &nbsp; &nbsp;<font class='negOutcome'>You receive: <strong>0</strong></font></div>","null","14","Plum Powerball","Fruit/plums1.png","Lost","0.35,0.8","12","0.35","197","42","",""
"html-keyboard-response","136","158561","0.0-11.0-1.42","5bf0cb0411439b000168edda","bdp_rwlrn","Wed Mar 15 2023 23:49:59 GMT-0400 (Eastern Daylight Time)","355450","Untrustworthy,Trustworthy","","","","decision","","","562","","<div class='trialDiv'><img src='Fruit/pears.png'><br><font class='baseline'><strong>Pears Aplenty</strong><p>Choose number of points to bet.</font><div class='respPicDiv'><img src='img/responseButtonOffersNo0L.png' class='respPic'></div></div>","1","15","Pears Aplenty","Fruit/pears.png","Lost","0.8,0.2","11","0.8","202","43","",""
"html-keyboard-response","137","158813","0.0-11.0-2.42","5bf0cb0411439b000168edda","bdp_rwlrn","Wed Mar 15 2023 23:49:59 GMT-0400 (Eastern Daylight Time)","355450","Untrustworthy,Trustworthy","","","","decisionFB","","","null","","<div class='trialDiv'><img src='Fruit/pears.png'><br><font class='baseline'><strong>Pears Aplenty</strong><p>Choose number of points to bet.</font><div class='respPicDiv'><img src='img/responseButtonOffersNo0L1.png' class='respPic'></div></div>","null","15","Pears Aplenty","Fruit/pears.png","Lost","0.8,0.2","11","0.8","201","43","",""
"html-keyboard-response","138","159816","0.0-11.0-3.42","5bf0cb0411439b000168edda","bdp_rwlrn","Wed Mar 15 2023 23:49:59 GMT-0400 (Eastern Daylight Time)","355450","Untrustworthy,Trustworthy","","","","feedback","","","null","","<div class='respPicDiv'><img src='img/responseButtonOffersNo0_wht.png' class='respPic'></div><div class='trialDiv'><img src='Fruit/pears.png'><br><font class='baseline'><strong>Pears Aplenty</strong><p><strong><font class='negOutcome'>You LOST</font><p>You bet: 1</strong></font> &nbsp; &nbsp; &nbsp; &nbsp; &nbsp; &nbsp;<font class='negOutcome'>You receive: <strong>0</strong></font></div>","null","15","Pears Aplenty","Fruit/pears.png","Lost","0.8,0.2","11","0.8","201","43","",""
"html-keyboard-response","139","160649","0.0-11.0-1.43","5bf0cb0411439b000168edda","bdp_rwlrn","Wed Mar 15 2023 23:49:59 GMT-0400 (Eastern Daylight Time)","355450","Untrustworthy,Trustworthy","","","","decision","","","831","","<div class='trialDiv'><img src='Fruit/orange.png'><br><font class='baseline'><strong>Odds are Orange</strong><p>Choose number of points to bet.</font><div class='respPicDiv'><img src='img/responseButtonOffersNo0L.png' class='respPic'></div></div>","5","15","Odds are Orange","Fruit/orange.png","Won","0.65,0.2","9","0.65","206","44","",""
"html-keyboard-response","140","160901","0.0-11.0-2.43","5bf0cb0411439b000168edda","bdp_rwlrn","Wed Mar 15 2023 23:49:59 GMT-0400 (Eastern Daylight Time)","355450","Untrustworthy,Trustworthy","","","","decisionFB","","","null","","<div class='trialDiv'><img src='Fruit/orange.png'><br><font class='baseline'><strong>Odds are Orange</strong><p>Choose number of points to bet.</font><div class='respPicDiv'><img src='img/responseButtonOffersNo0L5.png' class='respPic'></div></div>","null","15","Odds are Orange","Fruit/orange.png","Won","0.65,0.2","9","0.65","201","44","",""
"html-keyboard-response","141","161902","0.0-11.0-3.43","5bf0cb0411439b000168edda","bdp_rwlrn","Wed Mar 15 2023 23:49:59 GMT-0400 (Eastern Daylight Time)","355450","Untrustworthy,Trustworthy","","","","feedback","","","null","","<div class='respPicDiv'><img src='img/responseButtonOffersNo0_wht.png' class='respPic'></div><div class='trialDiv'><img src='Fruit/orange.png'><br><font class='baseline'><strong>Odds are Orange</strong><p><strong><font class='posOutcome'>You WON</font><p>You bet: 5</strong></font> &nbsp; &nbsp; &nbsp; &nbsp; &nbsp; &nbsp;<font class='posOutcome'>you receive: <strong>10</strong></font></div>","null","15","Odds are Orange","Fruit/orange.png","Won","0.65,0.2","9","0.65","211","44","",""
"html-keyboard-response","142","162547","0.0-11.0-1.44","5bf0cb0411439b000168edda","bdp_rwlrn","Wed Mar 15 2023 23:49:59 GMT-0400 (Eastern Daylight Time)","355450","Untrustworthy,Trustworthy","","","","decision","","","643","","<div class='trialDiv'><img src='Fruit/plums1.png'><br><font class='baseline'><strong>Plum Powerball</strong><p>Choose number of points to bet.</font><div class='respPicDiv'><img src='img/responseButtonOffersNo0L.png' class='respPic'></div></div>","1","15","Plum Powerball","Fruit/plums1.png","Won","0.35,0.8","12","0.35","216","45","",""
"html-keyboard-response","143","162799","0.0-11.0-2.44","5bf0cb0411439b000168edda","bdp_rwlrn","Wed Mar 15 2023 23:49:59 GMT-0400 (Eastern Daylight Time)","355450","Untrustworthy,Trustworthy","","","","decisionFB","","","null","","<div class='trialDiv'><img src='Fruit/plums1.png'><br><font class='baseline'><strong>Plum Powerball</strong><p>Choose number of points to bet.</font><div class='respPicDiv'><img src='img/responseButtonOffersNo0L1.png' class='respPic'></div></div>","null","15","Plum Powerball","Fruit/plums1.png","Won","0.35,0.8","12","0.35","215","45","",""
"html-keyboard-response","144","163802","0.0-11.0-3.44","5bf0cb0411439b000168edda","bdp_rwlrn","Wed Mar 15 2023 23:49:59 GMT-0400 (Eastern Daylight Time)","355450","Untrustworthy,Trustworthy","","","","feedback","","","null","","<div class='respPicDiv'><img src='img/responseButtonOffersNo0_wht.png' class='respPic'></div><div class='trialDiv'><img src='Fruit/plums1.png'><br><font class='baseline'><strong>Plum Powerball</strong><p><strong><font class='posOutcome'>You WON</font><p>You bet: 1</strong></font> &nbsp; &nbsp; &nbsp; &nbsp; &nbsp; &nbsp;<font class='posOutcome'>you receive: <strong>2</strong></font></div>","null","15","Plum Powerball","Fruit/plums1.png","Won","0.35,0.8","12","0.35","217","45","",""
"html-keyboard-response","145","165402","0.0-11.0-1.45","5bf0cb0411439b000168edda","bdp_rwlrn","Wed Mar 15 2023 23:49:59 GMT-0400 (Eastern Daylight Time)","355450","Untrustworthy,Trustworthy","","","","decision","","","1599","","<div class='trialDiv'><img src='Fruit/orange.png'><br><font class='baseline'><strong>Odds are Orange</strong><p>Choose number of points to bet.</font><div class='respPicDiv'><img src='img/responseButtonOffersNo0L.png' class='respPic'></div></div>","4","16","Odds are Orange","Fruit/orange.png","Lost","0.65,0.2","9","0.65","222","46","",""
"html-keyboard-response","146","165654","0.0-11.0-2.45","5bf0cb0411439b000168edda","bdp_rwlrn","Wed Mar 15 2023 23:49:59 GMT-0400 (Eastern Daylight Time)","355450","Untrustworthy,Trustworthy","","","","decisionFB","","","null","","<div class='trialDiv'><img src='Fruit/orange.png'><br><font class='baseline'><strong>Odds are Orange</strong><p>Choose number of points to bet.</font><div class='respPicDiv'><img src='img/responseButtonOffersNo0L4.png' class='respPic'></div></div>","null","16","Odds are Orange","Fruit/orange.png","Lost","0.65,0.2","9","0.65","218","46","",""
"html-keyboard-response","147","166657","0.0-11.0-3.45","5bf0cb0411439b000168edda","bdp_rwlrn","Wed Mar 15 2023 23:49:59 GMT-0400 (Eastern Daylight Time)","355450","Untrustworthy,Trustworthy","","","","feedback","","","null","","<div class='respPicDiv'><img src='img/responseButtonOffersNo0_wht.png' class='respPic'></div><div class='trialDiv'><img src='Fruit/orange.png'><br><font class='baseline'><strong>Odds are Orange</strong><p><strong><font class='negOutcome'>You LOST</font><p>You bet: 4</strong></font> &nbsp; &nbsp; &nbsp; &nbsp; &nbsp; &nbsp;<font class='negOutcome'>You receive: <strong>0</strong></font></div>","null","16","Odds are Orange","Fruit/orange.png","Lost","0.65,0.2","9","0.65","218","46","",""
"html-keyboard-response","148","167880","0.0-11.0-1.46","5bf0cb0411439b000168edda","bdp_rwlrn","Wed Mar 15 2023 23:49:59 GMT-0400 (Eastern Daylight Time)","355450","Untrustworthy,Trustworthy","","","","decision","","","1222","","<div class='trialDiv'><img src='Fruit/pears.png'><br><font class='baseline'><strong>Pears Aplenty</strong><p>Choose number of points to bet.</font><div class='respPicDiv'><img src='img/responseButtonOffersNo0L.png' class='respPic'></div></div>","2","16","Pears Aplenty","Fruit/pears.png","Lost","0.8,0.2","11","0.8","223","47","",""
"html-keyboard-response","149","168133","0.0-11.0-2.46","5bf0cb0411439b000168edda","bdp_rwlrn","Wed Mar 15 2023 23:49:59 GMT-0400 (Eastern Daylight Time)","355450","Untrustworthy,Trustworthy","","","","decisionFB","","","null","","<div class='trialDiv'><img src='Fruit/pears.png'><br><font class='baseline'><strong>Pears Aplenty</strong><p>Choose number of points to bet.</font><div class='respPicDiv'><img src='img/responseButtonOffersNo0L2.png' class='respPic'></div></div>","null","16","Pears Aplenty","Fruit/pears.png","Lost","0.8,0.2","11","0.8","221","47","",""
"html-keyboard-response","150","169135","0.0-11.0-3.46","5bf0cb0411439b000168edda","bdp_rwlrn","Wed Mar 15 2023 23:49:59 GMT-0400 (Eastern Daylight Time)","355450","Untrustworthy,Trustworthy","","","","feedback","","","null","","<div class='respPicDiv'><img src='img/responseButtonOffersNo0_wht.png' class='respPic'></div><div class='trialDiv'><img src='Fruit/pears.png'><br><font class='baseline'><strong>Pears Aplenty</strong><p><strong><font class='negOutcome'>You LOST</font><p>You bet: 2</strong></font> &nbsp; &nbsp; &nbsp; &nbsp; &nbsp; &nbsp;<font class='negOutcome'>You receive: <strong>0</strong></font></div>","null","16","Pears Aplenty","Fruit/pears.png","Lost","0.8,0.2","11","0.8","221","47","",""
"html-keyboard-response","151","169868","0.0-11.0-1.47","5bf0cb0411439b000168edda","bdp_rwlrn","Wed Mar 15 2023 23:49:59 GMT-0400 (Eastern Daylight Time)","355450","Untrustworthy,Trustworthy","","","","decision","","","731","","<div class='trialDiv'><img src='Fruit/plums1.png'><br><font class='baseline'><strong>Plum Powerball</strong><p>Choose number of points to bet.</font><div class='respPicDiv'><img src='img/responseButtonOffersNo0L.png' class='respPic'></div></div>","1","16","Plum Powerball","Fruit/plums1.png","Won","0.35,0.8","12","0.35","226","48","",""
"html-keyboard-response","152","170127","0.0-11.0-2.47","5bf0cb0411439b000168edda","bdp_rwlrn","Wed Mar 15 2023 23:49:59 GMT-0400 (Eastern Daylight Time)","355450","Untrustworthy,Trustworthy","","","","decisionFB","","","null","","<div class='trialDiv'><img src='Fruit/plums1.png'><br><font class='baseline'><strong>Plum Powerball</strong><p>Choose number of points to bet.</font><div class='respPicDiv'><img src='img/responseButtonOffersNo0L1.png' class='respPic'></div></div>","null","16","Plum Powerball","Fruit/plums1.png","Won","0.35,0.8","12","0.35","225","48","",""
"html-keyboard-response","153","171129","0.0-11.0-3.47","5bf0cb0411439b000168edda","bdp_rwlrn","Wed Mar 15 2023 23:49:59 GMT-0400 (Eastern Daylight Time)","355450","Untrustworthy,Trustworthy","","","","feedback","","","null","","<div class='respPicDiv'><img src='img/responseButtonOffersNo0_wht.png' class='respPic'></div><div class='trialDiv'><img src='Fruit/plums1.png'><br><font class='baseline'><strong>Plum Powerball</strong><p><strong><font class='posOutcome'>You WON</font><p>You bet: 1</strong></font> &nbsp; &nbsp; &nbsp; &nbsp; &nbsp; &nbsp;<font class='posOutcome'>you receive: <strong>2</strong></font></div>","null","16","Plum Powerball","Fruit/plums1.png","Won","0.35,0.8","12","0.35","227","48","",""
"html-keyboard-response","154","172423","0.0-11.0-1.48","5bf0cb0411439b000168edda","bdp_rwlrn","Wed Mar 15 2023 23:49:59 GMT-0400 (Eastern Daylight Time)","355450","Untrustworthy,Trustworthy","","","","decision","","","1293","","<div class='trialDiv'><img src='Fruit/orange.png'><br><font class='baseline'><strong>Odds are Orange</strong><p>Choose number of points to bet.</font><div class='respPicDiv'><img src='img/responseButtonOffersNo0L.png' class='respPic'></div></div>","1","17","Odds are Orange","Fruit/orange.png","Won","0.65,0.2","9","0.65","232","49","",""
"html-keyboard-response","155","172675","0.0-11.0-2.48","5bf0cb0411439b000168edda","bdp_rwlrn","Wed Mar 15 2023 23:49:59 GMT-0400 (Eastern Daylight Time)","355450","Untrustworthy,Trustworthy","","","","decisionFB","","","null","","<div class='trialDiv'><img src='Fruit/orange.png'><br><font class='baseline'><strong>Odds are Orange</strong><p>Choose number of points to bet.</font><div class='respPicDiv'><img src='img/responseButtonOffersNo0L1.png' class='respPic'></div></div>","null","17","Odds are Orange","Fruit/orange.png","Won","0.65,0.2","9","0.65","231","49","",""
"html-keyboard-response","156","173678","0.0-11.0-3.48","5bf0cb0411439b000168edda","bdp_rwlrn","Wed Mar 15 2023 23:49:59 GMT-0400 (Eastern Daylight Time)","355450","Untrustworthy,Trustworthy","","","","feedback","","","null","","<div class='respPicDiv'><img src='img/responseButtonOffersNo0_wht.png' class='respPic'></div><div class='trialDiv'><img src='Fruit/orange.png'><br><font class='baseline'><strong>Odds are Orange</strong><p><strong><font class='posOutcome'>You WON</font><p>You bet: 1</strong></font> &nbsp; &nbsp; &nbsp; &nbsp; &nbsp; &nbsp;<font class='posOutcome'>you receive: <strong>2</strong></font></div>","null","17","Odds are Orange","Fruit/orange.png","Won","0.65,0.2","9","0.65","233","49","",""
"html-keyboard-response","157","174104","0.0-11.0-1.49","5bf0cb0411439b000168edda","bdp_rwlrn","Wed Mar 15 2023 23:49:59 GMT-0400 (Eastern Daylight Time)","355450","Untrustworthy,Trustworthy","","","","decision","","","424","","<div class='trialDiv'><img src='Fruit/pears.png'><br><font class='baseline'><strong>Pears Aplenty</strong><p>Choose number of points to bet.</font><div class='respPicDiv'><img src='img/responseButtonOffersNo0L.png' class='respPic'></div></div>","5","17","Pears Aplenty","Fruit/pears.png","Lost","0.8,0.2","11","0.8","238","50","",""
"html-keyboard-response","158","174357","0.0-11.0-2.49","5bf0cb0411439b000168edda","bdp_rwlrn","Wed Mar 15 2023 23:49:59 GMT-0400 (Eastern Daylight Time)","355450","Untrustworthy,Trustworthy","","","","decisionFB","","","null","","<div class='trialDiv'><img src='Fruit/pears.png'><br><font class='baseline'><strong>Pears Aplenty</strong><p>Choose number of points to bet.</font><div class='respPicDiv'><img src='img/responseButtonOffersNo0L5.png' class='respPic'></div></div>","null","17","Pears Aplenty","Fruit/pears.png","Lost","0.8,0.2","11","0.8","233","50","",""
"html-keyboard-response","159","175359","0.0-11.0-3.49","5bf0cb0411439b000168edda","bdp_rwlrn","Wed Mar 15 2023 23:49:59 GMT-0400 (Eastern Daylight Time)","355450","Untrustworthy,Trustworthy","","","","feedback","","","null","","<div class='respPicDiv'><img src='img/responseButtonOffersNo0_wht.png' class='respPic'></div><div class='trialDiv'><img src='Fruit/pears.png'><br><font class='baseline'><strong>Pears Aplenty</strong><p><strong><font class='negOutcome'>You LOST</font><p>You bet: 5</strong></font> &nbsp; &nbsp; &nbsp; &nbsp; &nbsp; &nbsp;<font class='negOutcome'>You receive: <strong>0</strong></font></div>","null","17","Pears Aplenty","Fruit/pears.png","Lost","0.8,0.2","11","0.8","233","50","",""
"html-keyboard-response","160","176002","0.0-11.0-1.50","5bf0cb0411439b000168edda","bdp_rwlrn","Wed Mar 15 2023 23:49:59 GMT-0400 (Eastern Daylight Time)","355450","Untrustworthy,Trustworthy","","","","decision","","","641","","<div class='trialDiv'><img src='Fruit/plums1.png'><br><font class='baseline'><strong>Plum Powerball</strong><p>Choose number of points to bet.</font><div class='respPicDiv'><img src='img/responseButtonOffersNo0L.png' class='respPic'></div></div>","5","17","Plum Powerball","Fruit/plums1.png","Lost","0.35,0.8","12","0.35","238","51","",""
"html-keyboard-response","161","176254","0.0-11.0-2.50","5bf0cb0411439b000168edda","bdp_rwlrn","Wed Mar 15 2023 23:49:59 GMT-0400 (Eastern Daylight Time)","355450","Untrustworthy,Trustworthy","","","","decisionFB","","","null","","<div class='trialDiv'><img src='Fruit/plums1.png'><br><font class='baseline'><strong>Plum Powerball</strong><p>Choose number of points to bet.</font><div class='respPicDiv'><img src='img/responseButtonOffersNo0L5.png' class='respPic'></div></div>","null","17","Plum Powerball","Fruit/plums1.png","Lost","0.35,0.8","12","0.35","233","51","",""
