"trial_type","trial_index","time_elapsed","internal_node_id","subject_id","task","startTime","totalTime","labels","view_history","rt","event","trial","time","trialtype","success","stimulus","key_press","ltround","name","fileID","outcome","lottotype","lottoswpt","lottocurrpshare","point_total","round","faceID","face"
"pavlovia","0","5","0.0-0.0","63615888b5606b24a845f73e","bdp_rwlrn","Tue Mar 14 2023 19:39:22 GMT-0400 (Eastern Daylight Time)","438849","Trustworthy,Untrustworthy","","","","","","","","","","","","","","","","","","","",""
"instructions","1","12594","0.0-1.0","63615888b5606b24a845f73e","bdp_rwlrn","Tue Mar 14 2023 19:39:22 GMT-0400 (Eastern Daylight Time)","438849","Trustworthy,Untrustworthy","[{""page_index"":0,""viewing_time"":12588}]","12588","","","","","","","","","","","","","","","","","",""
"","","","","63615888b5606b24a845f73e","bdp_rwlrn","Tue Mar 14 2023 19:39:22 GMT-0400 (Eastern Daylight Time)","438849","Trustworthy,Untrustworthy","","","fullscreenenter","2","20440","fullscreenenter","","","","","","","","","","","","","",""
"fullscreen","2","21415","0.0-2.0","63615888b5606b24a845f73e","bdp_rwlrn","Tue Mar 14 2023 19:39:22 GMT-0400 (Eastern Daylight Time)","438849","Trustworthy,Untrustworthy","","","","","","","true","","","","","","","","","","","","",""
"instructions","3","94157","0.0-4.0","63615888b5606b24a845f73e","bdp_rwlrn","Tue Mar 14 2023 19:39:22 GMT-0400 (Eastern Daylight Time)","438849","Trustworthy,Untrustworthy","[{""page_index"":0,""viewing_time"":7339},{""page_index"":1,""viewing_time"":12908},{""page_index"":2,""viewing_time"":12927},{""page_index"":3,""viewing_time"":9116},{""page_index"":4,""viewing_time"":22552},{""page_index"":5,""viewing_time"":7898}]","72741","","","","","","","","","","","","","","","","","",""
"html-keyboard-response","4","106141","0.0-5.0","63615888b5606b24a845f73e","bdp_rwlrn","Tue Mar 14 2023 19:39:22 GMT-0400 (Eastern Daylight Time)","438849","Trustworthy,Untrustworthy","","11982","","","","","","<div class='header' style='text-align:left; position: absolute; top: 5%; left: 5%;'><small>Task 1 of 5</small></div><div class='instruxDiv'><p><strong>1) What is the maximum number of points you can choose to bet on a lottery?</strong></p><p>a) 0</p><p>b) 1</p><p>c) 5</p>","C","","","","","","","","","","",""
"html-keyboard-response","5","107987","0.0-6.0","63615888b5606b24a845f73e","bdp_rwlrn","Tue Mar 14 2023 19:39:22 GMT-0400 (Eastern Daylight Time)","438849","Trustworthy,Untrustworthy","","1743","","","","","","<div class='header' style='text-align:left; position: absolute; top: 5%; left: 5%;'><small>Task 1 of 5</small></div><div class='instruxDiv'><p><strong>1) What is the maximum number of points you can choose to bet on a lottery?</strong></p><p>a) 1</p><p>b) 1</p><p style='color:#00FF00'>c) 5</p><h3 style='color:#00FF00'>Correct!</h3><h3 class='center-content'>The correct response is c).</h3><h3 class='center-content'>The maximum number of points you can choose to bet on a lottery is 5 points.</h3><p><em>Press SPACEBAR to continue</em></p></div>"," ","","","","","","","","","","",""
"html-keyboard-response","6","111953","0.0-7.0","63615888b5606b24a845f73e","bdp_rwlrn","Tue Mar 14 2023 19:39:22 GMT-0400 (Eastern Daylight Time)","438849","Trustworthy,Untrustworthy","","3854","","","","","","<div class='header' style='text-align:left; position: absolute; top: 5%; left: 5%;'><small>Task 1 of 5</small></div><div class='instruxDiv'><p><strong>2) How many points can you win each round?</strong></p><p>a) 10 points</p><p>b) Double what you bet</p><p>c) Quadruple what you bet</p>","B","","","","","","","","","","",""
"html-keyboard-response","7","113188","0.0-8.0","63615888b5606b24a845f73e","bdp_rwlrn","Tue Mar 14 2023 19:39:22 GMT-0400 (Eastern Daylight Time)","438849","Trustworthy,Untrustworthy","","1120","","","","","","<div class='header' style='text-align:left; position: absolute; top: 5%; left: 5%;'><small>Task 1 of 5</small></div><div class='instruxDiv'><p><strong>2) How many points can you win each round?</strong></p><p>a) 10 points</p><p style='color:#00FF00'>b) Double what you bet</p><p>c) Quadruple what you bet</p><h3 style='color:#00FF00'>Correct!</h3><h3 class='center-content'>The correct response is b).</h3><h3 class='center-content'>You can win double the amount of points you bet.</h3><p><em>Press SPACEBAR to continue</em></p></div>"," ","","","","","","","","","","",""
"html-keyboard-response","8","118313","0.0-9.0","63615888b5606b24a845f73e","bdp_rwlrn","Tue Mar 14 2023 19:39:22 GMT-0400 (Eastern Daylight Time)","438849","Trustworthy,Untrustworthy","","null","","","","","","<div class='header' style='text-align:left; position: absolute; top: 5%; left: 5%;'><small>Task 1 of 5</small></div><div class='instruxDiv'><p>Thank you for completing the quiz<p>These are the actual lotteries you will be playing in the next block:<p><div class='tc' align='center'><img class='introPic' src='Fruit/Kiwi.png'><br><strong>Kiwi Kash</strong></div><div class='bl' align='center'><img class='introPic' src='Fruit/lemon.png'><br><strong>Lucky Lemons</strong></div><div class='br' align='center'><img class='introPic' src='Fruit/watermelon.png'><br><strong>Watermelon Win$</strong></div></div><p>Across <strong>66 rounds</strong> you will play each lottery <strong>22 times</strong> (in random order).<p style='align:center; color:white'><font <em>Press SPACEBAR to continue</em></p>","null","","","","","","","","","","",""
"instructions","9","159908","0.0-10.0","63615888b5606b24a845f73e","bdp_rwlrn","Tue Mar 14 2023 19:39:22 GMT-0400 (Eastern Daylight Time)","438849","Trustworthy,Untrustworthy","[{""page_index"":0,""viewing_time"":5740},{""page_index"":1,""viewing_time"":35854}]","41594","","","","","","","","","","","","","","","","","",""
"html-keyboard-response","10","165061","0.0-11.0-1.0","63615888b5606b24a845f73e","bdp_rwlrn","Tue Mar 14 2023 19:39:22 GMT-0400 (Eastern Daylight Time)","438849","Trustworthy,Untrustworthy","","5043","","","","decision","","<div class='trialDiv'><img src='Fruit/lemon.png'><br><font class='baseline'><strong>Lucky Lemons</strong><p>Choose number of points to bet.</font><div class='respPicDiv'><img src='img/responseButtonOffersNo0L.png' class='respPic'></div></div>","5","1","Lucky Lemons","Fruit/lemon.png","Lost","0.35,0.65","10","0.35","5","1","",""
"html-keyboard-response","11","165322","0.0-11.0-2.0","63615888b5606b24a845f73e","bdp_rwlrn","Tue Mar 14 2023 19:39:22 GMT-0400 (Eastern Daylight Time)","438849","Trustworthy,Untrustworthy","","null","","","","decisionFB","","<div class='trialDiv'><img src='Fruit/lemon.png'><br><font class='baseline'><strong>Lucky Lemons</strong><p>Choose number of points to bet.</font><div class='respPicDiv'><img src='img/responseButtonOffersNo0L5.png' class='respPic'></div></div>","null","1","Lucky Lemons","Fruit/lemon.png","Lost","0.35,0.65","10","0.35","0","1","",""
"html-keyboard-response","12","166336","0.0-11.0-3.0","63615888b5606b24a845f73e","bdp_rwlrn","Tue Mar 14 2023 19:39:22 GMT-0400 (Eastern Daylight Time)","438849","Trustworthy,Untrustworthy","","null","","","","feedback","","<div class='respPicDiv'><img src='img/responseButtonOffersNo0_wht.png' class='respPic'></div><div class='trialDiv'><img src='Fruit/lemon.png'><br><font class='baseline'><strong>Lucky Lemons</strong><p><strong><font class='negOutcome'>You LOST</font><p>You bet: 5</strong></font> &nbsp; &nbsp; &nbsp; &nbsp; &nbsp; &nbsp;<font class='negOutcome'>You receive: <strong>0</strong></font></div>","null","1","Lucky Lemons","Fruit/lemon.png","Lost","0.35,0.65","10","0.35","0","1","",""
"html-keyboard-response","13","170203","0.0-11.0-1.1","63615888b5606b24a845f73e","bdp_rwlrn","Tue Mar 14 2023 19:39:22 GMT-0400 (Eastern Daylight Time)","438849","Trustworthy,Untrustworthy","","3866","","","","decision","","<div class='trialDiv'><img src='Fruit/Kiwi.png'><br><font class='baseline'><strong>Kiwi Kash</strong><p>Choose number of points to bet.</font><div class='respPicDiv'><img src='img/responseButtonOffersNo0L.png' class='respPic'></div></div>","5","1","Kiwi Kash","Fruit/Kiwi.png","Won","0.8,0.35","14","0.8","5","2","",""
"html-keyboard-response","14","170469","0.0-11.0-2.1","63615888b5606b24a845f73e","bdp_rwlrn","Tue Mar 14 2023 19:39:22 GMT-0400 (Eastern Daylight Time)","438849","Trustworthy,Untrustworthy","","null","","","","decisionFB","","<div class='trialDiv'><img src='Fruit/Kiwi.png'><br><font class='baseline'><strong>Kiwi Kash</strong><p>Choose number of points to bet.</font><div class='respPicDiv'><img src='img/responseButtonOffersNo0L5.png' class='respPic'></div></div>","null","1","Kiwi Kash","Fruit/Kiwi.png","Won","0.8,0.35","14","0.8","0","2","",""
"html-keyboard-response","15","171482","0.0-11.0-3.1","63615888b5606b24a845f73e","bdp_rwlrn","Tue Mar 14 2023 19:39:22 GMT-0400 (Eastern Daylight Time)","438849","Trustworthy,Untrustworthy","","null","","","","feedback","","<div class='respPicDiv'><img src='img/responseButtonOffersNo0_wht.png' class='respPic'></div><div class='trialDiv'><img src='Fruit/Kiwi.png'><br><font class='baseline'><strong>Kiwi Kash</strong><p><strong><font class='posOutcome'>You WON</font><p>You bet: 5</strong></font> &nbsp; &nbsp; &nbsp; &nbsp; &nbsp; &nbsp;<font class='posOutcome'>you receive: <strong>10</strong></font></div>","null","1","Kiwi Kash","Fruit/Kiwi.png","Won","0.8,0.35","14","0.8","10","2","",""
"html-keyboard-response","16","174833","0.0-11.0-1.2","63615888b5606b24a845f73e","bdp_rwlrn","Tue Mar 14 2023 19:39:22 GMT-0400 (Eastern Daylight Time)","438849","Trustworthy,Untrustworthy","","3351","","","","decision","","<div class='trialDiv'><img src='Fruit/watermelon.png'><br><font class='baseline'><strong>Watermelon Win$</strong><p>Choose number of points to bet.</font><div class='respPicDiv'><img src='img/responseButtonOffersNo0L.png' class='respPic'></div></div>","5","1","Watermelon Win$","Fruit/watermelon.png","Lost","0.2,0.65","9","0.2","15","3","",""
"html-keyboard-response","17","175092","0.0-11.0-2.2","63615888b5606b24a845f73e","bdp_rwlrn","Tue Mar 14 2023 19:39:22 GMT-0400 (Eastern Daylight Time)","438849","Trustworthy,Untrustworthy","","null","","","","decisionFB","","<div class='trialDiv'><img src='Fruit/watermelon.png'><br><font class='baseline'><strong>Watermelon Win$</strong><p>Choose number of points to bet.</font><div class='respPicDiv'><img src='img/responseButtonOffersNo0L5.png' class='respPic'></div></div>","null","1","Watermelon Win$","Fruit/watermelon.png","Lost","0.2,0.65","9","0.2","10","3","",""
"html-keyboard-response","18","176097","0.0-11.0-3.2","63615888b5606b24a845f73e","bdp_rwlrn","Tue Mar 14 2023 19:39:22 GMT-0400 (Eastern Daylight Time)","438849","Trustworthy,Untrustworthy","","null","","","","feedback","","<div class='respPicDiv'><img src='img/responseButtonOffersNo0_wht.png' class='respPic'></div><div class='trialDiv'><img src='Fruit/watermelon.png'><br><font class='baseline'><strong>Watermelon Win$</strong><p><strong><font class='negOutcome'>You LOST</font><p>You bet: 5</strong></font> &nbsp; &nbsp; &nbsp; &nbsp; &nbsp; &nbsp;<font class='negOutcome'>You receive: <strong>0</strong></font></div>","null","1","Watermelon Win$","Fruit/watermelon.png","Lost","0.2,0.65","9","0.2","10","3","",""
"html-keyboard-response","19","178516","0.0-11.0-1.3","63615888b5606b24a845f73e","bdp_rwlrn","Tue Mar 14 2023 19:39:22 GMT-0400 (Eastern Daylight Time)","438849","Trustworthy,Untrustworthy","","2418","","","","decision","","<div class='trialDiv'><img src='Fruit/Kiwi.png'><br><font class='baseline'><strong>Kiwi Kash</strong><p>Choose number of points to bet.</font><div class='respPicDiv'><img src='img/responseButtonOffersNo0L.png' class='respPic'></div></div>","5","2","Kiwi Kash","Fruit/Kiwi.png","Won","0.8,0.35","14","0.8","15","4","",""
"html-keyboard-response","20","178772","0.0-11.0-2.3","63615888b5606b24a845f73e","bdp_rwlrn","Tue Mar 14 2023 19:39:22 GMT-0400 (Eastern Daylight Time)","438849","Trustworthy,Untrustworthy","","null","","","","decisionFB","","<div class='trialDiv'><img src='Fruit/Kiwi.png'><br><font class='baseline'><strong>Kiwi Kash</strong><p>Choose number of points to bet.</font><div class='respPicDiv'><img src='img/responseButtonOffersNo0L5.png' class='respPic'></div></div>","null","2","Kiwi Kash","Fruit/Kiwi.png","Won","0.8,0.35","14","0.8","10","4","",""
"html-keyboard-response","21","179781","0.0-11.0-3.3","63615888b5606b24a845f73e","bdp_rwlrn","Tue Mar 14 2023 19:39:22 GMT-0400 (Eastern Daylight Time)","438849","Trustworthy,Untrustworthy","","null","","","","feedback","","<div class='respPicDiv'><img src='img/responseButtonOffersNo0_wht.png' class='respPic'></div><div class='trialDiv'><img src='Fruit/Kiwi.png'><br><font class='baseline'><strong>Kiwi Kash</strong><p><strong><font class='posOutcome'>You WON</font><p>You bet: 5</strong></font> &nbsp; &nbsp; &nbsp; &nbsp; &nbsp; &nbsp;<font class='posOutcome'>you receive: <strong>10</strong></font></div>","null","2","Kiwi Kash","Fruit/Kiwi.png","Won","0.8,0.35","14","0.8","20","4","",""
"html-keyboard-response","22","180772","0.0-11.0-1.4","63615888b5606b24a845f73e","bdp_rwlrn","Tue Mar 14 2023 19:39:22 GMT-0400 (Eastern Daylight Time)","438849","Trustworthy,Untrustworthy","","991","","","","decision","","<div class='trialDiv'><img src='Fruit/lemon.png'><br><font class='baseline'><strong>Lucky Lemons</strong><p>Choose number of points to bet.</font><div class='respPicDiv'><img src='img/responseButtonOffersNo0L.png' class='respPic'></div></div>","5","2","Lucky Lemons","Fruit/lemon.png","Lost","0.35,0.65","10","0.35","25","5","",""
"html-keyboard-response","23","181028","0.0-11.0-2.4","63615888b5606b24a845f73e","bdp_rwlrn","Tue Mar 14 2023 19:39:22 GMT-0400 (Eastern Daylight Time)","438849","Trustworthy,Untrustworthy","","null","","","","decisionFB","","<div class='trialDiv'><img src='Fruit/lemon.png'><br><font class='baseline'><strong>Lucky Lemons</strong><p>Choose number of points to bet.</font><div class='respPicDiv'><img src='img/responseButtonOffersNo0L5.png' class='respPic'></div></div>","null","2","Lucky Lemons","Fruit/lemon.png","Lost","0.35,0.65","10","0.35","20","5","",""
"html-keyboard-response","24","182038","0.0-11.0-3.4","63615888b5606b24a845f73e","bdp_rwlrn","Tue Mar 14 2023 19:39:22 GMT-0400 (Eastern Daylight Time)","438849","Trustworthy,Untrustworthy","","null","","","","feedback","","<div class='respPicDiv'><img src='img/responseButtonOffersNo0_wht.png' class='respPic'></div><div class='trialDiv'><img src='Fruit/lemon.png'><br><font class='baseline'><strong>Lucky Lemons</strong><p><strong><font class='negOutcome'>You LOST</font><p>You bet: 5</strong></font> &nbsp; &nbsp; &nbsp; &nbsp; &nbsp; &nbsp;<font class='negOutcome'>You receive: <strong>0</strong></font></div>","null","2","Lucky Lemons","Fruit/lemon.png","Lost","0.35,0.65","10","0.35","20","5","",""
"html-keyboard-response","25","182090","0.0-11.0-1.5","63615888b5606b24a845f73e","bdp_rwlrn","Tue Mar 14 2023 19:39:22 GMT-0400 (Eastern Daylight Time)","438849","Trustworthy,Untrustworthy","","50","","","","decision","","<div class='trialDiv'><img src='Fruit/watermelon.png'><br><font class='baseline'><strong>Watermelon Win$</strong><p>Choose number of points to bet.</font><div class='respPicDiv'><img src='img/responseButtonOffersNo0L.png' class='respPic'></div></div>","5","2","Watermelon Win$","Fruit/watermelon.png","Lost","0.2,0.65","9","0.2","25","6","",""
"html-keyboard-response","26","182346","0.0-11.0-2.5","63615888b5606b24a845f73e","bdp_rwlrn","Tue Mar 14 2023 19:39:22 GMT-0400 (Eastern Daylight Time)","438849","Trustworthy,Untrustworthy","","null","","","","decisionFB","","<div class='trialDiv'><img src='Fruit/watermelon.png'><br><font class='baseline'><strong>Watermelon Win$</strong><p>Choose number of points to bet.</font><div class='respPicDiv'><img src='img/responseButtonOffersNo0L5.png' class='respPic'></div></div>","null","2","Watermelon Win$","Fruit/watermelon.png","Lost","0.2,0.65","9","0.2","20","6","",""
"html-keyboard-response","27","183348","0.0-11.0-3.5","63615888b5606b24a845f73e","bdp_rwlrn","Tue Mar 14 2023 19:39:22 GMT-0400 (Eastern Daylight Time)","438849","Trustworthy,Untrustworthy","","null","","","","feedback","","<div class='respPicDiv'><img src='img/responseButtonOffersNo0_wht.png' class='respPic'></div><div class='trialDiv'><img src='Fruit/watermelon.png'><br><font class='baseline'><strong>Watermelon Win$</strong><p><strong><font class='negOutcome'>You LOST</font><p>You bet: 5</strong></font> &nbsp; &nbsp; &nbsp; &nbsp; &nbsp; &nbsp;<font class='negOutcome'>You receive: <strong>0</strong></font></div>","null","2","Watermelon Win$","Fruit/watermelon.png","Lost","0.2,0.65","9","0.2","20","6","",""
"html-keyboard-response","28","183392","0.0-11.0-1.6","63615888b5606b24a845f73e","bdp_rwlrn","Tue Mar 14 2023 19:39:22 GMT-0400 (Eastern Daylight Time)","438849","Trustworthy,Untrustworthy","","43","","","","decision","","<div class='trialDiv'><img src='Fruit/Kiwi.png'><br><font class='baseline'><strong>Kiwi Kash</strong><p>Choose number of points to bet.</font><div class='respPicDiv'><img src='img/responseButtonOffersNo0L.png' class='respPic'></div></div>","5","3","Kiwi Kash","Fruit/Kiwi.png","Won","0.8,0.35","14","0.8","25","7","",""
"html-keyboard-response","29","183652","0.0-11.0-2.6","63615888b5606b24a845f73e","bdp_rwlrn","Tue Mar 14 2023 19:39:22 GMT-0400 (Eastern Daylight Time)","438849","Trustworthy,Untrustworthy","","null","","","","decisionFB","","<div class='trialDiv'><img src='Fruit/Kiwi.png'><br><font class='baseline'><strong>Kiwi Kash</strong><p>Choose number of points to bet.</font><div class='respPicDiv'><img src='img/responseButtonOffersNo0L5.png' class='respPic'></div></div>","null","3","Kiwi Kash","Fruit/Kiwi.png","Won","0.8,0.35","14","0.8","20","7","",""
"html-keyboard-response","30","184663","0.0-11.0-3.6","63615888b5606b24a845f73e","bdp_rwlrn","Tue Mar 14 2023 19:39:22 GMT-0400 (Eastern Daylight Time)","438849","Trustworthy,Untrustworthy","","null","","","","feedback","","<div class='respPicDiv'><img src='img/responseButtonOffersNo0_wht.png' class='respPic'></div><div class='trialDiv'><img src='Fruit/Kiwi.png'><br><font class='baseline'><strong>Kiwi Kash</strong><p><strong><font class='posOutcome'>You WON</font><p>You bet: 5</strong></font> &nbsp; &nbsp; &nbsp; &nbsp; &nbsp; &nbsp;<font class='posOutcome'>you receive: <strong>10</strong></font></div>","null","3","Kiwi Kash","Fruit/Kiwi.png","Won","0.8,0.35","14","0.8","30","7","",""
"html-keyboard-response","31","184821","0.0-11.0-1.7","63615888b5606b24a845f73e","bdp_rwlrn","Tue Mar 14 2023 19:39:22 GMT-0400 (Eastern Daylight Time)","438849","Trustworthy,Untrustworthy","","158","","","","decision","","<div class='trialDiv'><img src='Fruit/lemon.png'><br><font class='baseline'><strong>Lucky Lemons</strong><p>Choose number of points to bet.</font><div class='respPicDiv'><img src='img/responseButtonOffersNo0L.png' class='respPic'></div></div>","5","3","Lucky Lemons","Fruit/lemon.png","Won","0.35,0.65","10","0.35","35","8","",""
"html-keyboard-response","32","185079","0.0-11.0-2.7","63615888b5606b24a845f73e","bdp_rwlrn","Tue Mar 14 2023 19:39:22 GMT-0400 (Eastern Daylight Time)","438849","Trustworthy,Untrustworthy","","null","","","","decisionFB","","<div class='trialDiv'><img src='Fruit/lemon.png'><br><font class='baseline'><strong>Lucky Lemons</strong><p>Choose number of points to bet.</font><div class='respPicDiv'><img src='img/responseButtonOffersNo0L5.png' class='respPic'></div></div>","null","3","Lucky Lemons","Fruit/lemon.png","Won","0.35,0.65","10","0.35","30","8","",""
"html-keyboard-response","33","186086","0.0-11.0-3.7","63615888b5606b24a845f73e","bdp_rwlrn","Tue Mar 14 2023 19:39:22 GMT-0400 (Eastern Daylight Time)","438849","Trustworthy,Untrustworthy","","null","","","","feedback","","<div class='respPicDiv'><img src='img/responseButtonOffersNo0_wht.png' class='respPic'></div><div class='trialDiv'><img src='Fruit/lemon.png'><br><font class='baseline'><strong>Lucky Lemons</strong><p><strong><font class='posOutcome'>You WON</font><p>You bet: 5</strong></font> &nbsp; &nbsp; &nbsp; &nbsp; &nbsp; &nbsp;<font class='posOutcome'>you receive: <strong>10</strong></font></div>","null","3","Lucky Lemons","Fruit/lemon.png","Won","0.35,0.65","10","0.35","40","8","",""
"html-keyboard-response","34","186292","0.0-11.0-1.8","63615888b5606b24a845f73e","bdp_rwlrn","Tue Mar 14 2023 19:39:22 GMT-0400 (Eastern Daylight Time)","438849","Trustworthy,Untrustworthy","","205","","","","decision","","<div class='trialDiv'><img src='Fruit/watermelon.png'><br><font class='baseline'><strong>Watermelon Win$</strong><p>Choose number of points to bet.</font><div class='respPicDiv'><img src='img/responseButtonOffersNo0L.png' class='respPic'></div></div>","5","3","Watermelon Win$","Fruit/watermelon.png","Won","0.2,0.65","9","0.2","45","9","",""
"html-keyboard-response","35","186551","0.0-11.0-2.8","63615888b5606b24a845f73e","bdp_rwlrn","Tue Mar 14 2023 19:39:22 GMT-0400 (Eastern Daylight Time)","438849","Trustworthy,Untrustworthy","","null","","","","decisionFB","","<div class='trialDiv'><img src='Fruit/watermelon.png'><br><font class='baseline'><strong>Watermelon Win$</strong><p>Choose number of points to bet.</font><div class='respPicDiv'><img src='img/responseButtonOffersNo0L5.png' class='respPic'></div></div>","null","3","Watermelon Win$","Fruit/watermelon.png","Won","0.2,0.65","9","0.2","40","9","",""
"html-keyboard-response","36","187562","0.0-11.0-3.8","63615888b5606b24a845f73e","bdp_rwlrn","Tue Mar 14 2023 19:39:22 GMT-0400 (Eastern Daylight Time)","438849","Trustworthy,Untrustworthy","","null","","","","feedback","","<div class='respPicDiv'><img src='img/responseButtonOffersNo0_wht.png' class='respPic'></div><div class='trialDiv'><img src='Fruit/watermelon.png'><br><font class='baseline'><strong>Watermelon Win$</strong><p><strong><font class='posOutcome'>You WON</font><p>You bet: 5</strong></font> &nbsp; &nbsp; &nbsp; &nbsp; &nbsp; &nbsp;<font class='posOutcome'>you receive: <strong>10</strong></font></div>","null","3","Watermelon Win$","Fruit/watermelon.png","Won","0.2,0.65","9","0.2","50","9","",""
"html-keyboard-response","37","187711","0.0-11.0-1.9","63615888b5606b24a845f73e","bdp_rwlrn","Tue Mar 14 2023 19:39:22 GMT-0400 (Eastern Daylight Time)","438849","Trustworthy,Untrustworthy","","148","","","","decision","","<div class='trialDiv'><img src='Fruit/lemon.png'><br><font class='baseline'><strong>Lucky Lemons</strong><p>Choose number of points to bet.</font><div class='respPicDiv'><img src='img/responseButtonOffersNo0L.png' class='respPic'></div></div>","5","4","Lucky Lemons","Fruit/lemon.png","Lost","0.35,0.65","10","0.35","55","10","",""
"html-keyboard-response","38","187963","0.0-11.0-2.9","63615888b5606b24a845f73e","bdp_rwlrn","Tue Mar 14 2023 19:39:22 GMT-0400 (Eastern Daylight Time)","438849","Trustworthy,Untrustworthy","","null","","","","decisionFB","","<div class='trialDiv'><img src='Fruit/lemon.png'><br><font class='baseline'><strong>Lucky Lemons</strong><p>Choose number of points to bet.</font><div class='respPicDiv'><img src='img/responseButtonOffersNo0L5.png' class='respPic'></div></div>","null","4","Lucky Lemons","Fruit/lemon.png","Lost","0.35,0.65","10","0.35","50","10","",""
"html-keyboard-response","39","188967","0.0-11.0-3.9","63615888b5606b24a845f73e","bdp_rwlrn","Tue Mar 14 2023 19:39:22 GMT-0400 (Eastern Daylight Time)","438849","Trustworthy,Untrustworthy","","null","","","","feedback","","<div class='respPicDiv'><img src='img/responseButtonOffersNo0_wht.png' class='respPic'></div><div class='trialDiv'><img src='Fruit/lemon.png'><br><font class='baseline'><strong>Lucky Lemons</strong><p><strong><font class='negOutcome'>You LOST</font><p>You bet: 5</strong></font> &nbsp; &nbsp; &nbsp; &nbsp; &nbsp; &nbsp;<font class='negOutcome'>You receive: <strong>0</strong></font></div>","null","4","Lucky Lemons","Fruit/lemon.png","Lost","0.35,0.65","10","0.35","50","10","",""
"html-keyboard-response","40","189070","0.0-11.0-1.10","63615888b5606b24a845f73e","bdp_rwlrn","Tue Mar 14 2023 19:39:22 GMT-0400 (Eastern Daylight Time)","438849","Trustworthy,Untrustworthy","","102","","","","decision","","<div class='trialDiv'><img src='Fruit/Kiwi.png'><br><font class='baseline'><strong>Kiwi Kash</strong><p>Choose number of points to bet.</font><div class='respPicDiv'><img src='img/responseButtonOffersNo0L.png' class='respPic'></div></div>","5","4","Kiwi Kash","Fruit/Kiwi.png","Won","0.8,0.35","14","0.8","55","11","",""
"html-keyboard-response","41","189322","0.0-11.0-2.10","63615888b5606b24a845f73e","bdp_rwlrn","Tue Mar 14 2023 19:39:22 GMT-0400 (Eastern Daylight Time)","438849","Trustworthy,Untrustworthy","","null","","","","decisionFB","","<div class='trialDiv'><img src='Fruit/Kiwi.png'><br><font class='baseline'><strong>Kiwi Kash</strong><p>Choose number of points to bet.</font><div class='respPicDiv'><img src='img/responseButtonOffersNo0L5.png' class='respPic'></div></div>","null","4","Kiwi Kash","Fruit/Kiwi.png","Won","0.8,0.35","14","0.8","50","11","",""
"html-keyboard-response","42","190336","0.0-11.0-3.10","63615888b5606b24a845f73e","bdp_rwlrn","Tue Mar 14 2023 19:39:22 GMT-0400 (Eastern Daylight Time)","438849","Trustworthy,Untrustworthy","","null","","","","feedback","","<div class='respPicDiv'><img src='img/responseButtonOffersNo0_wht.png' class='respPic'></div><div class='trialDiv'><img src='Fruit/Kiwi.png'><br><font class='baseline'><strong>Kiwi Kash</strong><p><strong><font class='posOutcome'>You WON</font><p>You bet: 5</strong></font> &nbsp; &nbsp; &nbsp; &nbsp; &nbsp; &nbsp;<font class='posOutcome'>you receive: <strong>10</strong></font></div>","null","4","Kiwi Kash","Fruit/Kiwi.png","Won","0.8,0.35","14","0.8","60","11","",""
"html-keyboard-response","43","190489","0.0-11.0-1.11","63615888b5606b24a845f73e","bdp_rwlrn","Tue Mar 14 2023 19:39:22 GMT-0400 (Eastern Daylight Time)","438849","Trustworthy,Untrustworthy","","152","","","","decision","","<div class='trialDiv'><img src='Fruit/watermelon.png'><br><font class='baseline'><strong>Watermelon Win$</strong><p>Choose number of points to bet.</font><div class='respPicDiv'><img src='img/responseButtonOffersNo0L.png' class='respPic'></div></div>","5","4","Watermelon Win$","Fruit/watermelon.png","Lost","0.2,0.65","9","0.2","65","12","",""
"html-keyboard-response","44","190754","0.0-11.0-2.11","63615888b5606b24a845f73e","bdp_rwlrn","Tue Mar 14 2023 19:39:22 GMT-0400 (Eastern Daylight Time)","438849","Trustworthy,Untrustworthy","","null","","","","decisionFB","","<div class='trialDiv'><img src='Fruit/watermelon.png'><br><font class='baseline'><strong>Watermelon Win$</strong><p>Choose number of points to bet.</font><div class='respPicDiv'><img src='img/responseButtonOffersNo0L5.png' class='respPic'></div></div>","null","4","Watermelon Win$","Fruit/watermelon.png","Lost","0.2,0.65","9","0.2","60","12","",""
"html-keyboard-response","45","191757","0.0-11.0-3.11","63615888b5606b24a845f73e","bdp_rwlrn","Tue Mar 14 2023 19:39:22 GMT-0400 (Eastern Daylight Time)","438849","Trustworthy,Untrustworthy","","null","","","","feedback","","<div class='respPicDiv'><img src='img/responseButtonOffersNo0_wht.png' class='respPic'></div><div class='trialDiv'><img src='Fruit/watermelon.png'><br><font class='baseline'><strong>Watermelon Win$</strong><p><strong><font class='negOutcome'>You LOST</font><p>You bet: 5</strong></font> &nbsp; &nbsp; &nbsp; &nbsp; &nbsp; &nbsp;<font class='negOutcome'>You receive: <strong>0</strong></font></div>","null","4","Watermelon Win$","Fruit/watermelon.png","Lost","0.2,0.65","9","0.2","60","12","",""
"html-keyboard-response","46","191917","0.0-11.0-1.12","63615888b5606b24a845f73e","bdp_rwlrn","Tue Mar 14 2023 19:39:22 GMT-0400 (Eastern Daylight Time)","438849","Trustworthy,Untrustworthy","","159","","","","decision","","<div class='trialDiv'><img src='Fruit/Kiwi.png'><br><font class='baseline'><strong>Kiwi Kash</strong><p>Choose number of points to bet.</font><div class='respPicDiv'><img src='img/responseButtonOffersNo0L.png' class='respPic'></div></div>","5","5","Kiwi Kash","Fruit/Kiwi.png","Won","0.8,0.35","14","0.8","65","13","",""
"html-keyboard-response","47","192176","0.0-11.0-2.12","63615888b5606b24a845f73e","bdp_rwlrn","Tue Mar 14 2023 19:39:22 GMT-0400 (Eastern Daylight Time)","438849","Trustworthy,Untrustworthy","","null","","","","decisionFB","","<div class='trialDiv'><img src='Fruit/Kiwi.png'><br><font class='baseline'><strong>Kiwi Kash</strong><p>Choose number of points to bet.</font><div class='respPicDiv'><img src='img/responseButtonOffersNo0L5.png' class='respPic'></div></div>","null","5","Kiwi Kash","Fruit/Kiwi.png","Won","0.8,0.35","14","0.8","60","13","",""
"html-keyboard-response","48","193183","0.0-11.0-3.12","63615888b5606b24a845f73e","bdp_rwlrn","Tue Mar 14 2023 19:39:22 GMT-0400 (Eastern Daylight Time)","438849","Trustworthy,Untrustworthy","","null","","","","feedback","","<div class='respPicDiv'><img src='img/responseButtonOffersNo0_wht.png' class='respPic'></div><div class='trialDiv'><img src='Fruit/Kiwi.png'><br><font class='baseline'><strong>Kiwi Kash</strong><p><strong><font class='posOutcome'>You WON</font><p>You bet: 5</strong></font> &nbsp; &nbsp; &nbsp; &nbsp; &nbsp; &nbsp;<font class='posOutcome'>you receive: <strong>10</strong></font></div>","null","5","Kiwi Kash","Fruit/Kiwi.png","Won","0.8,0.35","14","0.8","70","13","",""
"html-keyboard-response","49","193234","0.0-11.0-1.13","63615888b5606b24a845f73e","bdp_rwlrn","Tue Mar 14 2023 19:39:22 GMT-0400 (Eastern Daylight Time)","438849","Trustworthy,Untrustworthy","","50","","","","decision","","<div class='trialDiv'><img src='Fruit/watermelon.png'><br><font class='baseline'><strong>Watermelon Win$</strong><p>Choose number of points to bet.</font><div class='respPicDiv'><img src='img/responseButtonOffersNo0L.png' class='respPic'></div></div>","5","5","Watermelon Win$","Fruit/watermelon.png","Won","0.2,0.65","9","0.2","75","14","",""
"html-keyboard-response","50","193492","0.0-11.0-2.13","63615888b5606b24a845f73e","bdp_rwlrn","Tue Mar 14 2023 19:39:22 GMT-0400 (Eastern Daylight Time)","438849","Trustworthy,Untrustworthy","","null","","","","decisionFB","","<div class='trialDiv'><img src='Fruit/watermelon.png'><br><font class='baseline'><strong>Watermelon Win$</strong><p>Choose number of points to bet.</font><div class='respPicDiv'><img src='img/responseButtonOffersNo0L5.png' class='respPic'></div></div>","null","5","Watermelon Win$","Fruit/watermelon.png","Won","0.2,0.65","9","0.2","70","14","",""
"html-keyboard-response","51","194501","0.0-11.0-3.13","63615888b5606b24a845f73e","bdp_rwlrn","Tue Mar 14 2023 19:39:22 GMT-0400 (Eastern Daylight Time)","438849","Trustworthy,Untrustworthy","","null","","","","feedback","","<div class='respPicDiv'><img src='img/responseButtonOffersNo0_wht.png' class='respPic'></div><div class='trialDiv'><img src='Fruit/watermelon.png'><br><font class='baseline'><strong>Watermelon Win$</strong><p><strong><font class='posOutcome'>You WON</font><p>You bet: 5</strong></font> &nbsp; &nbsp; &nbsp; &nbsp; &nbsp; &nbsp;<font class='posOutcome'>you receive: <strong>10</strong></font></div>","null","5","Watermelon Win$","Fruit/watermelon.png","Won","0.2,0.65","9","0.2","80","14","",""
"html-keyboard-response","52","194763","0.0-11.0-1.14","63615888b5606b24a845f73e","bdp_rwlrn","Tue Mar 14 2023 19:39:22 GMT-0400 (Eastern Daylight Time)","438849","Trustworthy,Untrustworthy","","261","","","","decision","","<div class='trialDiv'><img src='Fruit/lemon.png'><br><font class='baseline'><strong>Lucky Lemons</strong><p>Choose number of points to bet.</font><div class='respPicDiv'><img src='img/responseButtonOffersNo0L.png' class='respPic'></div></div>","5","5","Lucky Lemons","Fruit/lemon.png","Lost","0.35,0.65","10","0.35","85","15","",""
"html-keyboard-response","53","195019","0.0-11.0-2.14","63615888b5606b24a845f73e","bdp_rwlrn","Tue Mar 14 2023 19:39:22 GMT-0400 (Eastern Daylight Time)","438849","Trustworthy,Untrustworthy","","null","","","","decisionFB","","<div class='trialDiv'><img src='Fruit/lemon.png'><br><font class='baseline'><strong>Lucky Lemons</strong><p>Choose number of points to bet.</font><div class='respPicDiv'><img src='img/responseButtonOffersNo0L5.png' class='respPic'></div></div>","null","5","Lucky Lemons","Fruit/lemon.png","Lost","0.35,0.65","10","0.35","80","15","",""
"html-keyboard-response","54","196032","0.0-11.0-3.14","63615888b5606b24a845f73e","bdp_rwlrn","Tue Mar 14 2023 19:39:22 GMT-0400 (Eastern Daylight Time)","438849","Trustworthy,Untrustworthy","","null","","","","feedback","","<div class='respPicDiv'><img src='img/responseButtonOffersNo0_wht.png' class='respPic'></div><div class='trialDiv'><img src='Fruit/lemon.png'><br><font class='baseline'><strong>Lucky Lemons</strong><p><strong><font class='negOutcome'>You LOST</font><p>You bet: 5</strong></font> &nbsp; &nbsp; &nbsp; &nbsp; &nbsp; &nbsp;<font class='negOutcome'>You receive: <strong>0</strong></font></div>","null","5","Lucky Lemons","Fruit/lemon.png","Lost","0.35,0.65","10","0.35","80","15","",""
"html-keyboard-response","55","196096","0.0-11.0-1.15","63615888b5606b24a845f73e","bdp_rwlrn","Tue Mar 14 2023 19:39:22 GMT-0400 (Eastern Daylight Time)","438849","Trustworthy,Untrustworthy","","63","","","","decision","","<div class='trialDiv'><img src='Fruit/watermelon.png'><br><font class='baseline'><strong>Watermelon Win$</strong><p>Choose number of points to bet.</font><div class='respPicDiv'><img src='img/responseButtonOffersNo0L.png' class='respPic'></div></div>","5","6","Watermelon Win$","Fruit/watermelon.png","Lost","0.2,0.65","9","0.2","85","16","",""
"html-keyboard-response","56","196359","0.0-11.0-2.15","63615888b5606b24a845f73e","bdp_rwlrn","Tue Mar 14 2023 19:39:22 GMT-0400 (Eastern Daylight Time)","438849","Trustworthy,Untrustworthy","","null","","","","decisionFB","","<div class='trialDiv'><img src='Fruit/watermelon.png'><br><font class='baseline'><strong>Watermelon Win$</strong><p>Choose number of points to bet.</font><div class='respPicDiv'><img src='img/responseButtonOffersNo0L5.png' class='respPic'></div></div>","null","6","Watermelon Win$","Fruit/watermelon.png","Lost","0.2,0.65","9","0.2","80","16","",""
"html-keyboard-response","57","197374","0.0-11.0-3.15","63615888b5606b24a845f73e","bdp_rwlrn","Tue Mar 14 2023 19:39:22 GMT-0400 (Eastern Daylight Time)","438849","Trustworthy,Untrustworthy","","null","","","","feedback","","<div class='respPicDiv'><img src='img/responseButtonOffersNo0_wht.png' class='respPic'></div><div class='trialDiv'><img src='Fruit/watermelon.png'><br><font class='baseline'><strong>Watermelon Win$</strong><p><strong><font class='negOutcome'>You LOST</font><p>You bet: 5</strong></font> &nbsp; &nbsp; &nbsp; &nbsp; &nbsp; &nbsp;<font class='negOutcome'>You receive: <strong>0</strong></font></div>","null","6","Watermelon Win$","Fruit/watermelon.png","Lost","0.2,0.65","9","0.2","80","16","",""
"html-keyboard-response","58","197609","0.0-11.0-1.16","63615888b5606b24a845f73e","bdp_rwlrn","Tue Mar 14 2023 19:39:22 GMT-0400 (Eastern Daylight Time)","438849","Trustworthy,Untrustworthy","","234","","","","decision","","<div class='trialDiv'><img src='Fruit/Kiwi.png'><br><font class='baseline'><strong>Kiwi Kash</strong><p>Choose number of points to bet.</font><div class='respPicDiv'><img src='img/responseButtonOffersNo0L.png' class='respPic'></div></div>","5","6","Kiwi Kash","Fruit/Kiwi.png","Lost","0.8,0.35","14","0.8","85","17","",""
"html-keyboard-response","59","197860","0.0-11.0-2.16","63615888b5606b24a845f73e","bdp_rwlrn","Tue Mar 14 2023 19:39:22 GMT-0400 (Eastern Daylight Time)","438849","Trustworthy,Untrustworthy","","null","","","","decisionFB","","<div class='trialDiv'><img src='Fruit/Kiwi.png'><br><font class='baseline'><strong>Kiwi Kash</strong><p>Choose number of points to bet.</font><div class='respPicDiv'><img src='img/responseButtonOffersNo0L5.png' class='respPic'></div></div>","null","6","Kiwi Kash","Fruit/Kiwi.png","Lost","0.8,0.35","14","0.8","80","17","",""
"html-keyboard-response","60","198862","0.0-11.0-3.16","63615888b5606b24a845f73e","bdp_rwlrn","Tue Mar 14 2023 19:39:22 GMT-0400 (Eastern Daylight Time)","438849","Trustworthy,Untrustworthy","","null","","","","feedback","","<div class='respPicDiv'><img src='img/responseButtonOffersNo0_wht.png' class='respPic'></div><div class='trialDiv'><img src='Fruit/Kiwi.png'><br><font class='baseline'><strong>Kiwi Kash</strong><p><strong><font class='negOutcome'>You LOST</font><p>You bet: 5</strong></font> &nbsp; &nbsp; &nbsp; &nbsp; &nbsp; &nbsp;<font class='negOutcome'>You receive: <strong>0</strong></font></div>","null","6","Kiwi Kash","Fruit/Kiwi.png","Lost","0.8,0.35","14","0.8","80","17","",""
"html-keyboard-response","61","198962","0.0-11.0-1.17","63615888b5606b24a845f73e","bdp_rwlrn","Tue Mar 14 2023 19:39:22 GMT-0400 (Eastern Daylight Time)","438849","Trustworthy,Untrustworthy","","100","","","","decision","","<div class='trialDiv'><img src='Fruit/lemon.png'><br><font class='baseline'><strong>Lucky Lemons</strong><p>Choose number of points to bet.</font><div class='respPicDiv'><img src='img/responseButtonOffersNo0L.png' class='respPic'></div></div>","5","6","Lucky Lemons","Fruit/lemon.png","Won","0.35,0.65","10","0.35","85","18","",""
"html-keyboard-response","62","199219","0.0-11.0-2.17","63615888b5606b24a845f73e","bdp_rwlrn","Tue Mar 14 2023 19:39:22 GMT-0400 (Eastern Daylight Time)","438849","Trustworthy,Untrustworthy","","null","","","","decisionFB","","<div class='trialDiv'><img src='Fruit/lemon.png'><br><font class='baseline'><strong>Lucky Lemons</strong><p>Choose number of points to bet.</font><div class='respPicDiv'><img src='img/responseButtonOffersNo0L5.png' class='respPic'></div></div>","null","6","Lucky Lemons","Fruit/lemon.png","Won","0.35,0.65","10","0.35","80","18","",""
"html-keyboard-response","63","200223","0.0-11.0-3.17","63615888b5606b24a845f73e","bdp_rwlrn","Tue Mar 14 2023 19:39:22 GMT-0400 (Eastern Daylight Time)","438849","Trustworthy,Untrustworthy","","null","","","","feedback","","<div class='respPicDiv'><img src='img/responseButtonOffersNo0_wht.png' class='respPic'></div><div class='trialDiv'><img src='Fruit/lemon.png'><br><font class='baseline'><strong>Lucky Lemons</strong><p><strong><font class='posOutcome'>You WON</font><p>You bet: 5</strong></font> &nbsp; &nbsp; &nbsp; &nbsp; &nbsp; &nbsp;<font class='posOutcome'>you receive: <strong>10</strong></font></div>","null","6","Lucky Lemons","Fruit/lemon.png","Won","0.35,0.65","10","0.35","90","18","",""
"html-keyboard-response","64","200348","0.0-11.0-1.18","63615888b5606b24a845f73e","bdp_rwlrn","Tue Mar 14 2023 19:39:22 GMT-0400 (Eastern Daylight Time)","438849","Trustworthy,Untrustworthy","","124","","","","decision","","<div class='trialDiv'><img src='Fruit/watermelon.png'><br><font class='baseline'><strong>Watermelon Win$</strong><p>Choose number of points to bet.</font><div class='respPicDiv'><img src='img/responseButtonOffersNo0L.png' class='respPic'></div></div>","5","7","Watermelon Win$","Fruit/watermelon.png","Won","0.2,0.65","9","0.2","95","19","",""
"html-keyboard-response","65","200604","0.0-11.0-2.18","63615888b5606b24a845f73e","bdp_rwlrn","Tue Mar 14 2023 19:39:22 GMT-0400 (Eastern Daylight Time)","438849","Trustworthy,Untrustworthy","","null","","","","decisionFB","","<div class='trialDiv'><img src='Fruit/watermelon.png'><br><font class='baseline'><strong>Watermelon Win$</strong><p>Choose number of points to bet.</font><div class='respPicDiv'><img src='img/responseButtonOffersNo0L5.png' class='respPic'></div></div>","null","7","Watermelon Win$","Fruit/watermelon.png","Won","0.2,0.65","9","0.2","90","19","",""
"html-keyboard-response","66","201611","0.0-11.0-3.18","63615888b5606b24a845f73e","bdp_rwlrn","Tue Mar 14 2023 19:39:22 GMT-0400 (Eastern Daylight Time)","438849","Trustworthy,Untrustworthy","","null","","","","feedback","","<div class='respPicDiv'><img src='img/responseButtonOffersNo0_wht.png' class='respPic'></div><div class='trialDiv'><img src='Fruit/watermelon.png'><br><font class='baseline'><strong>Watermelon Win$</strong><p><strong><font class='posOutcome'>You WON</font><p>You bet: 5</strong></font> &nbsp; &nbsp; &nbsp; &nbsp; &nbsp; &nbsp;<font class='posOutcome'>you receive: <strong>10</strong></font></div>","null","7","Watermelon Win$","Fruit/watermelon.png","Won","0.2,0.65","9","0.2","100","19","",""
"html-keyboard-response","67","201726","0.0-11.0-1.19","63615888b5606b24a845f73e","bdp_rwlrn","Tue Mar 14 2023 19:39:22 GMT-0400 (Eastern Daylight Time)","438849","Trustworthy,Untrustworthy","","114","","","","decision","","<div class='trialDiv'><img src='Fruit/Kiwi.png'><br><font class='baseline'><strong>Kiwi Kash</strong><p>Choose number of points to bet.</font><div class='respPicDiv'><img src='img/responseButtonOffersNo0L.png' class='respPic'></div></div>","5","7","Kiwi Kash","Fruit/Kiwi.png","Lost","0.8,0.35","14","0.8","105","20","",""
"html-keyboard-response","68","201991","0.0-11.0-2.19","63615888b5606b24a845f73e","bdp_rwlrn","Tue Mar 14 2023 19:39:22 GMT-0400 (Eastern Daylight Time)","438849","Trustworthy,Untrustworthy","","null","","","","decisionFB","","<div class='trialDiv'><img src='Fruit/Kiwi.png'><br><font class='baseline'><strong>Kiwi Kash</strong><p>Choose number of points to bet.</font><div class='respPicDiv'><img src='img/responseButtonOffersNo0L5.png' class='respPic'></div></div>","null","7","Kiwi Kash","Fruit/Kiwi.png","Lost","0.8,0.35","14","0.8","100","20","",""
"html-keyboard-response","69","203007","0.0-11.0-3.19","63615888b5606b24a845f73e","bdp_rwlrn","Tue Mar 14 2023 19:39:22 GMT-0400 (Eastern Daylight Time)","438849","Trustworthy,Untrustworthy","","null","","","","feedback","","<div class='respPicDiv'><img src='img/responseButtonOffersNo0_wht.png' class='respPic'></div><div class='trialDiv'><img src='Fruit/Kiwi.png'><br><font class='baseline'><strong>Kiwi Kash</strong><p><strong><font class='negOutcome'>You LOST</font><p>You bet: 5</strong></font> &nbsp; &nbsp; &nbsp; &nbsp; &nbsp; &nbsp;<font class='negOutcome'>You receive: <strong>0</strong></font></div>","null","7","Kiwi Kash","Fruit/Kiwi.png","Lost","0.8,0.35","14","0.8","100","20","",""
"html-keyboard-response","70","203346","0.0-11.0-1.20","63615888b5606b24a845f73e","bdp_rwlrn","Tue Mar 14 2023 19:39:22 GMT-0400 (Eastern Daylight Time)","438849","Trustworthy,Untrustworthy","","339","","","","decision","","<div class='trialDiv'><img src='Fruit/lemon.png'><br><font class='baseline'><strong>Lucky Lemons</strong><p>Choose number of points to bet.</font><div class='respPicDiv'><img src='img/responseButtonOffersNo0L.png' class='respPic'></div></div>","5","7","Lucky Lemons","Fruit/lemon.png","Won","0.35,0.65","10","0.35","105","21","",""
"html-keyboard-response","71","203605","0.0-11.0-2.20","63615888b5606b24a845f73e","bdp_rwlrn","Tue Mar 14 2023 19:39:22 GMT-0400 (Eastern Daylight Time)","438849","Trustworthy,Untrustworthy","","null","","","","decisionFB","","<div class='trialDiv'><img src='Fruit/lemon.png'><br><font class='baseline'><strong>Lucky Lemons</strong><p>Choose number of points to bet.</font><div class='respPicDiv'><img src='img/responseButtonOffersNo0L5.png' class='respPic'></div></div>","null","7","Lucky Lemons","Fruit/lemon.png","Won","0.35,0.65","10","0.35","100","21","",""
"html-keyboard-response","72","204615","0.0-11.0-3.20","63615888b5606b24a845f73e","bdp_rwlrn","Tue Mar 14 2023 19:39:22 GMT-0400 (Eastern Daylight Time)","438849","Trustworthy,Untrustworthy","","null","","","","feedback","","<div class='respPicDiv'><img src='img/responseButtonOffersNo0_wht.png' class='respPic'></div><div class='trialDiv'><img src='Fruit/lemon.png'><br><font class='baseline'><strong>Lucky Lemons</strong><p><strong><font class='posOutcome'>You WON</font><p>You bet: 5</strong></font> &nbsp; &nbsp; &nbsp; &nbsp; &nbsp; &nbsp;<font class='posOutcome'>you receive: <strong>10</strong></font></div>","null","7","Lucky Lemons","Fruit/lemon.png","Won","0.35,0.65","10","0.35","110","21","",""
"html-keyboard-response","73","204850","0.0-11.0-1.21","63615888b5606b24a845f73e","bdp_rwlrn","Tue Mar 14 2023 19:39:22 GMT-0400 (Eastern Daylight Time)","438849","Trustworthy,Untrustworthy","","235","","","","decision","","<div class='trialDiv'><img src='Fruit/watermelon.png'><br><font class='baseline'><strong>Watermelon Win$</strong><p>Choose number of points to bet.</font><div class='respPicDiv'><img src='img/responseButtonOffersNo0L.png' class='respPic'></div></div>","5","8","Watermelon Win$","Fruit/watermelon.png","Lost","0.2,0.65","9","0.2","115","22","",""
"html-keyboard-response","74","205110","0.0-11.0-2.21","63615888b5606b24a845f73e","bdp_rwlrn","Tue Mar 14 2023 19:39:22 GMT-0400 (Eastern Daylight Time)","438849","Trustworthy,Untrustworthy","","null","","","","decisionFB","","<div class='trialDiv'><img src='Fruit/watermelon.png'><br><font class='baseline'><strong>Watermelon Win$</strong><p>Choose number of points to bet.</font><div class='respPicDiv'><img src='img/responseButtonOffersNo0L5.png' class='respPic'></div></div>","null","8","Watermelon Win$","Fruit/watermelon.png","Lost","0.2,0.65","9","0.2","110","22","",""
"html-keyboard-response","75","206112","0.0-11.0-3.21","63615888b5606b24a845f73e","bdp_rwlrn","Tue Mar 14 2023 19:39:22 GMT-0400 (Eastern Daylight Time)","438849","Trustworthy,Untrustworthy","","null","","","","feedback","","<div class='respPicDiv'><img src='img/responseButtonOffersNo0_wht.png' class='respPic'></div><div class='trialDiv'><img src='Fruit/watermelon.png'><br><font class='baseline'><strong>Watermelon Win$</strong><p><strong><font class='negOutcome'>You LOST</font><p>You bet: 5</strong></font> &nbsp; &nbsp; &nbsp; &nbsp; &nbsp; &nbsp;<font class='negOutcome'>You receive: <strong>0</strong></font></div>","null","8","Watermelon Win$","Fruit/watermelon.png","Lost","0.2,0.65","9","0.2","110","22","",""
"html-keyboard-response","76","206283","0.0-11.0-1.22","63615888b5606b24a845f73e","bdp_rwlrn","Tue Mar 14 2023 19:39:22 GMT-0400 (Eastern Daylight Time)","438849","Trustworthy,Untrustworthy","","170","","","","decision","","<div class='trialDiv'><img src='Fruit/Kiwi.png'><br><font class='baseline'><strong>Kiwi Kash</strong><p>Choose number of points to bet.</font><div class='respPicDiv'><img src='img/responseButtonOffersNo0L.png' class='respPic'></div></div>","5","8","Kiwi Kash","Fruit/Kiwi.png","Lost","0.8,0.35","14","0.8","115","23","",""
"html-keyboard-response","77","206548","0.0-11.0-2.22","63615888b5606b24a845f73e","bdp_rwlrn","Tue Mar 14 2023 19:39:22 GMT-0400 (Eastern Daylight Time)","438849","Trustworthy,Untrustworthy","","null","","","","decisionFB","","<div class='trialDiv'><img src='Fruit/Kiwi.png'><br><font class='baseline'><strong>Kiwi Kash</strong><p>Choose number of points to bet.</font><div class='respPicDiv'><img src='img/responseButtonOffersNo0L5.png' class='respPic'></div></div>","null","8","Kiwi Kash","Fruit/Kiwi.png","Lost","0.8,0.35","14","0.8","110","23","",""
"html-keyboard-response","78","207563","0.0-11.0-3.22","63615888b5606b24a845f73e","bdp_rwlrn","Tue Mar 14 2023 19:39:22 GMT-0400 (Eastern Daylight Time)","438849","Trustworthy,Untrustworthy","","null","","","","feedback","","<div class='respPicDiv'><img src='img/responseButtonOffersNo0_wht.png' class='respPic'></div><div class='trialDiv'><img src='Fruit/Kiwi.png'><br><font class='baseline'><strong>Kiwi Kash</strong><p><strong><font class='negOutcome'>You LOST</font><p>You bet: 5</strong></font> &nbsp; &nbsp; &nbsp; &nbsp; &nbsp; &nbsp;<font class='negOutcome'>You receive: <strong>0</strong></font></div>","null","8","Kiwi Kash","Fruit/Kiwi.png","Lost","0.8,0.35","14","0.8","110","23","",""
"html-keyboard-response","79","207797","0.0-11.0-1.23","63615888b5606b24a845f73e","bdp_rwlrn","Tue Mar 14 2023 19:39:22 GMT-0400 (Eastern Daylight Time)","438849","Trustworthy,Untrustworthy","","234","","","","decision","","<div class='trialDiv'><img src='Fruit/lemon.png'><br><font class='baseline'><strong>Lucky Lemons</strong><p>Choose number of points to bet.</font><div class='respPicDiv'><img src='img/responseButtonOffersNo0L.png' class='respPic'></div></div>","5","8","Lucky Lemons","Fruit/lemon.png","Won","0.35,0.65","10","0.35","115","24","",""
"html-keyboard-response","80","208061","0.0-11.0-2.23","63615888b5606b24a845f73e","bdp_rwlrn","Tue Mar 14 2023 19:39:22 GMT-0400 (Eastern Daylight Time)","438849","Trustworthy,Untrustworthy","","null","","","","decisionFB","","<div class='trialDiv'><img src='Fruit/lemon.png'><br><font class='baseline'><strong>Lucky Lemons</strong><p>Choose number of points to bet.</font><div class='respPicDiv'><img src='img/responseButtonOffersNo0L5.png' class='respPic'></div></div>","null","8","Lucky Lemons","Fruit/lemon.png","Won","0.35,0.65","10","0.35","110","24","",""
"html-keyboard-response","81","209066","0.0-11.0-3.23","63615888b5606b24a845f73e","bdp_rwlrn","Tue Mar 14 2023 19:39:22 GMT-0400 (Eastern Daylight Time)","438849","Trustworthy,Untrustworthy","","null","","","","feedback","","<div class='respPicDiv'><img src='img/responseButtonOffersNo0_wht.png' class='respPic'></div><div class='trialDiv'><img src='Fruit/lemon.png'><br><font class='baseline'><strong>Lucky Lemons</strong><p><strong><font class='posOutcome'>You WON</font><p>You bet: 5</strong></font> &nbsp; &nbsp; &nbsp; &nbsp; &nbsp; &nbsp;<font class='posOutcome'>you receive: <strong>10</strong></font></div>","null","8","Lucky Lemons","Fruit/lemon.png","Won","0.35,0.65","10","0.35","120","24","",""
"html-keyboard-response","82","209147","0.0-11.0-1.24","63615888b5606b24a845f73e","bdp_rwlrn","Tue Mar 14 2023 19:39:22 GMT-0400 (Eastern Daylight Time)","438849","Trustworthy,Untrustworthy","","80","","","","decision","","<div class='trialDiv'><img src='Fruit/Kiwi.png'><br><font class='baseline'><strong>Kiwi Kash</strong><p>Choose number of points to bet.</font><div class='respPicDiv'><img src='img/responseButtonOffersNo0L.png' class='respPic'></div></div>","5","9","Kiwi Kash","Fruit/Kiwi.png","Won","0.8,0.35","14","0.8","125","25","",""
"html-keyboard-response","83","209403","0.0-11.0-2.24","63615888b5606b24a845f73e","bdp_rwlrn","Tue Mar 14 2023 19:39:22 GMT-0400 (Eastern Daylight Time)","438849","Trustworthy,Untrustworthy","","null","","","","decisionFB","","<div class='trialDiv'><img src='Fruit/Kiwi.png'><br><font class='baseline'><strong>Kiwi Kash</strong><p>Choose number of points to bet.</font><div class='respPicDiv'><img src='img/responseButtonOffersNo0L5.png' class='respPic'></div></div>","null","9","Kiwi Kash","Fruit/Kiwi.png","Won","0.8,0.35","14","0.8","120","25","",""
"html-keyboard-response","84","210418","0.0-11.0-3.24","63615888b5606b24a845f73e","bdp_rwlrn","Tue Mar 14 2023 19:39:22 GMT-0400 (Eastern Daylight Time)","438849","Trustworthy,Untrustworthy","","null","","","","feedback","","<div class='respPicDiv'><img src='img/responseButtonOffersNo0_wht.png' class='respPic'></div><div class='trialDiv'><img src='Fruit/Kiwi.png'><br><font class='baseline'><strong>Kiwi Kash</strong><p><strong><font class='posOutcome'>You WON</font><p>You bet: 5</strong></font> &nbsp; &nbsp; &nbsp; &nbsp; &nbsp; &nbsp;<font class='posOutcome'>you receive: <strong>10</strong></font></div>","null","9","Kiwi Kash","Fruit/Kiwi.png","Won","0.8,0.35","14","0.8","130","25","",""
"html-keyboard-response","85","210636","0.0-11.0-1.25","63615888b5606b24a845f73e","bdp_rwlrn","Tue Mar 14 2023 19:39:22 GMT-0400 (Eastern Daylight Time)","438849","Trustworthy,Untrustworthy","","217","","","","decision","","<div class='trialDiv'><img src='Fruit/lemon.png'><br><font class='baseline'><strong>Lucky Lemons</strong><p>Choose number of points to bet.</font><div class='respPicDiv'><img src='img/responseButtonOffersNo0L.png' class='respPic'></div></div>","5","9","Lucky Lemons","Fruit/lemon.png","Lost","0.35,0.65","10","0.35","135","26","",""
"html-keyboard-response","86","210892","0.0-11.0-2.25","63615888b5606b24a845f73e","bdp_rwlrn","Tue Mar 14 2023 19:39:22 GMT-0400 (Eastern Daylight Time)","438849","Trustworthy,Untrustworthy","","null","","","","decisionFB","","<div class='trialDiv'><img src='Fruit/lemon.png'><br><font class='baseline'><strong>Lucky Lemons</strong><p>Choose number of points to bet.</font><div class='respPicDiv'><img src='img/responseButtonOffersNo0L5.png' class='respPic'></div></div>","null","9","Lucky Lemons","Fruit/lemon.png","Lost","0.35,0.65","10","0.35","130","26","",""
"html-keyboard-response","87","211900","0.0-11.0-3.25","63615888b5606b24a845f73e","bdp_rwlrn","Tue Mar 14 2023 19:39:22 GMT-0400 (Eastern Daylight Time)","438849","Trustworthy,Untrustworthy","","null","","","","feedback","","<div class='respPicDiv'><img src='img/responseButtonOffersNo0_wht.png' class='respPic'></div><div class='trialDiv'><img src='Fruit/lemon.png'><br><font class='baseline'><strong>Lucky Lemons</strong><p><strong><font class='negOutcome'>You LOST</font><p>You bet: 5</strong></font> &nbsp; &nbsp; &nbsp; &nbsp; &nbsp; &nbsp;<font class='negOutcome'>You receive: <strong>0</strong></font></div>","null","9","Lucky Lemons","Fruit/lemon.png","Lost","0.35,0.65","10","0.35","130","26","",""
"html-keyboard-response","88","212038","0.0-11.0-1.26","63615888b5606b24a845f73e","bdp_rwlrn","Tue Mar 14 2023 19:39:22 GMT-0400 (Eastern Daylight Time)","438849","Trustworthy,Untrustworthy","","138","","","","decision","","<div class='trialDiv'><img src='Fruit/watermelon.png'><br><font class='baseline'><strong>Watermelon Win$</strong><p>Choose number of points to bet.</font><div class='respPicDiv'><img src='img/responseButtonOffersNo0L.png' class='respPic'></div></div>","5","9","Watermelon Win$","Fruit/watermelon.png","Won","0.2,0.65","9","0.2","135","27","",""
"html-keyboard-response","89","212296","0.0-11.0-2.26","63615888b5606b24a845f73e","bdp_rwlrn","Tue Mar 14 2023 19:39:22 GMT-0400 (Eastern Daylight Time)","438849","Trustworthy,Untrustworthy","","null","","","","decisionFB","","<div class='trialDiv'><img src='Fruit/watermelon.png'><br><font class='baseline'><strong>Watermelon Win$</strong><p>Choose number of points to bet.</font><div class='respPicDiv'><img src='img/responseButtonOffersNo0L5.png' class='respPic'></div></div>","null","9","Watermelon Win$","Fruit/watermelon.png","Won","0.2,0.65","9","0.2","130","27","",""
"html-keyboard-response","90","213308","0.0-11.0-3.26","63615888b5606b24a845f73e","bdp_rwlrn","Tue Mar 14 2023 19:39:22 GMT-0400 (Eastern Daylight Time)","438849","Trustworthy,Untrustworthy","","null","","","","feedback","","<div class='respPicDiv'><img src='img/responseButtonOffersNo0_wht.png' class='respPic'></div><div class='trialDiv'><img src='Fruit/watermelon.png'><br><font class='baseline'><strong>Watermelon Win$</strong><p><strong><font class='posOutcome'>You WON</font><p>You bet: 5</strong></font> &nbsp; &nbsp; &nbsp; &nbsp; &nbsp; &nbsp;<font class='posOutcome'>you receive: <strong>10</strong></font></div>","null","9","Watermelon Win$","Fruit/watermelon.png","Won","0.2,0.65","9","0.2","140","27","",""
"html-keyboard-response","91","213381","0.0-11.0-1.27","63615888b5606b24a845f73e","bdp_rwlrn","Tue Mar 14 2023 19:39:22 GMT-0400 (Eastern Daylight Time)","438849","Trustworthy,Untrustworthy","","73","","","","decision","","<div class='trialDiv'><img src='Fruit/lemon.png'><br><font class='baseline'><strong>Lucky Lemons</strong><p>Choose number of points to bet.</font><div class='respPicDiv'><img src='img/responseButtonOffersNo0L.png' class='respPic'></div></div>","5","10","Lucky Lemons","Fruit/lemon.png","Lost","0.35,0.65","10","0.35","145","28","",""
"html-keyboard-response","92","213646","0.0-11.0-2.27","63615888b5606b24a845f73e","bdp_rwlrn","Tue Mar 14 2023 19:39:22 GMT-0400 (Eastern Daylight Time)","438849","Trustworthy,Untrustworthy","","null","","","","decisionFB","","<div class='trialDiv'><img src='Fruit/lemon.png'><br><font class='baseline'><strong>Lucky Lemons</strong><p>Choose number of points to bet.</font><div class='respPicDiv'><img src='img/responseButtonOffersNo0L5.png' class='respPic'></div></div>","null","10","Lucky Lemons","Fruit/lemon.png","Lost","0.35,0.65","10","0.35","140","28","",""
"html-keyboard-response","93","214649","0.0-11.0-3.27","63615888b5606b24a845f73e","bdp_rwlrn","Tue Mar 14 2023 19:39:22 GMT-0400 (Eastern Daylight Time)","438849","Trustworthy,Untrustworthy","","null","","","","feedback","","<div class='respPicDiv'><img src='img/responseButtonOffersNo0_wht.png' class='respPic'></div><div class='trialDiv'><img src='Fruit/lemon.png'><br><font class='baseline'><strong>Lucky Lemons</strong><p><strong><font class='negOutcome'>You LOST</font><p>You bet: 5</strong></font> &nbsp; &nbsp; &nbsp; &nbsp; &nbsp; &nbsp;<font class='negOutcome'>You receive: <strong>0</strong></font></div>","null","10","Lucky Lemons","Fruit/lemon.png","Lost","0.35,0.65","10","0.35","140","28","",""
"html-keyboard-response","94","215296","0.0-11.0-1.28","63615888b5606b24a845f73e","bdp_rwlrn","Tue Mar 14 2023 19:39:22 GMT-0400 (Eastern Daylight Time)","438849","Trustworthy,Untrustworthy","","647","","","","decision","","<div class='trialDiv'><img src='Fruit/watermelon.png'><br><font class='baseline'><strong>Watermelon Win$</strong><p>Choose number of points to bet.</font><div class='respPicDiv'><img src='img/responseButtonOffersNo0L.png' class='respPic'></div></div>","5","10","Watermelon Win$","Fruit/watermelon.png","Won","0.2,0.65","9","0.2","145","29","",""
"html-keyboard-response","95","215554","0.0-11.0-2.28","63615888b5606b24a845f73e","bdp_rwlrn","Tue Mar 14 2023 19:39:22 GMT-0400 (Eastern Daylight Time)","438849","Trustworthy,Untrustworthy","","null","","","","decisionFB","","<div class='trialDiv'><img src='Fruit/watermelon.png'><br><font class='baseline'><strong>Watermelon Win$</strong><p>Choose number of points to bet.</font><div class='respPicDiv'><img src='img/responseButtonOffersNo0L5.png' class='respPic'></div></div>","null","10","Watermelon Win$","Fruit/watermelon.png","Won","0.2,0.65","9","0.2","140","29","",""
"html-keyboard-response","96","216558","0.0-11.0-3.28","63615888b5606b24a845f73e","bdp_rwlrn","Tue Mar 14 2023 19:39:22 GMT-0400 (Eastern Daylight Time)","438849","Trustworthy,Untrustworthy","","null","","","","feedback","","<div class='respPicDiv'><img src='img/responseButtonOffersNo0_wht.png' class='respPic'></div><div class='trialDiv'><img src='Fruit/watermelon.png'><br><font class='baseline'><strong>Watermelon Win$</strong><p><strong><font class='posOutcome'>You WON</font><p>You bet: 5</strong></font> &nbsp; &nbsp; &nbsp; &nbsp; &nbsp; &nbsp;<font class='posOutcome'>you receive: <strong>10</strong></font></div>","null","10","Watermelon Win$","Fruit/watermelon.png","Won","0.2,0.65","9","0.2","150","29","",""
"html-keyboard-response","97","216769","0.0-11.0-1.29","63615888b5606b24a845f73e","bdp_rwlrn","Tue Mar 14 2023 19:39:22 GMT-0400 (Eastern Daylight Time)","438849","Trustworthy,Untrustworthy","","211","","","","decision","","<div class='trialDiv'><img src='Fruit/Kiwi.png'><br><font class='baseline'><strong>Kiwi Kash</strong><p>Choose number of points to bet.</font><div class='respPicDiv'><img src='img/responseButtonOffersNo0L.png' class='respPic'></div></div>","5","10","Kiwi Kash","Fruit/Kiwi.png","Lost","0.8,0.35","14","0.8","155","30","",""
"html-keyboard-response","98","217030","0.0-11.0-2.29","63615888b5606b24a845f73e","bdp_rwlrn","Tue Mar 14 2023 19:39:22 GMT-0400 (Eastern Daylight Time)","438849","Trustworthy,Untrustworthy","","null","","","","decisionFB","","<div class='trialDiv'><img src='Fruit/Kiwi.png'><br><font class='baseline'><strong>Kiwi Kash</strong><p>Choose number of points to bet.</font><div class='respPicDiv'><img src='img/responseButtonOffersNo0L5.png' class='respPic'></div></div>","null","10","Kiwi Kash","Fruit/Kiwi.png","Lost","0.8,0.35","14","0.8","150","30","",""
"html-keyboard-response","99","218039","0.0-11.0-3.29","63615888b5606b24a845f73e","bdp_rwlrn","Tue Mar 14 2023 19:39:22 GMT-0400 (Eastern Daylight Time)","438849","Trustworthy,Untrustworthy","","null","","","","feedback","","<div class='respPicDiv'><img src='img/responseButtonOffersNo0_wht.png' class='respPic'></div><div class='trialDiv'><img src='Fruit/Kiwi.png'><br><font class='baseline'><strong>Kiwi Kash</strong><p><strong><font class='negOutcome'>You LOST</font><p>You bet: 5</strong></font> &nbsp; &nbsp; &nbsp; &nbsp; &nbsp; &nbsp;<font class='negOutcome'>You receive: <strong>0</strong></font></div>","null","10","Kiwi Kash","Fruit/Kiwi.png","Lost","0.8,0.35","14","0.8","150","30","",""
"html-keyboard-response","100","218420","0.0-11.0-1.30","63615888b5606b24a845f73e","bdp_rwlrn","Tue Mar 14 2023 19:39:22 GMT-0400 (Eastern Daylight Time)","438849","Trustworthy,Untrustworthy","","380","","","","decision","","<div class='trialDiv'><img src='Fruit/lemon.png'><br><font class='baseline'><strong>Lucky Lemons</strong><p>Choose number of points to bet.</font><div class='respPicDiv'><img src='img/responseButtonOffersNo0L.png' class='respPic'></div></div>","5","11","Lucky Lemons","Fruit/lemon.png","Lost","0.35,0.65","10","0.35","155","31","",""
"html-keyboard-response","101","218682","0.0-11.0-2.30","63615888b5606b24a845f73e","bdp_rwlrn","Tue Mar 14 2023 19:39:22 GMT-0400 (Eastern Daylight Time)","438849","Trustworthy,Untrustworthy","","null","","","","decisionFB","","<div class='trialDiv'><img src='Fruit/lemon.png'><br><font class='baseline'><strong>Lucky Lemons</strong><p>Choose number of points to bet.</font><div class='respPicDiv'><img src='img/responseButtonOffersNo0L5.png' class='respPic'></div></div>","null","11","Lucky Lemons","Fruit/lemon.png","Lost","0.35,0.65","10","0.35","150","31","",""
"html-keyboard-response","102","219693","0.0-11.0-3.30","63615888b5606b24a845f73e","bdp_rwlrn","Tue Mar 14 2023 19:39:22 GMT-0400 (Eastern Daylight Time)","438849","Trustworthy,Untrustworthy","","null","","","","feedback","","<div class='respPicDiv'><img src='img/responseButtonOffersNo0_wht.png' class='respPic'></div><div class='trialDiv'><img src='Fruit/lemon.png'><br><font class='baseline'><strong>Lucky Lemons</strong><p><strong><font class='negOutcome'>You LOST</font><p>You bet: 5</strong></font> &nbsp; &nbsp; &nbsp; &nbsp; &nbsp; &nbsp;<font class='negOutcome'>You receive: <strong>0</strong></font></div>","null","11","Lucky Lemons","Fruit/lemon.png","Lost","0.35,0.65","10","0.35","150","31","",""
"html-keyboard-response","103","220252","0.0-11.0-1.31","63615888b5606b24a845f73e","bdp_rwlrn","Tue Mar 14 2023 19:39:22 GMT-0400 (Eastern Daylight Time)","438849","Trustworthy,Untrustworthy","","559","","","","decision","","<div class='trialDiv'><img src='Fruit/watermelon.png'><br><font class='baseline'><strong>Watermelon Win$</strong><p>Choose number of points to bet.</font><div class='respPicDiv'><img src='img/responseButtonOffersNo0L.png' class='respPic'></div></div>","5","11","Watermelon Win$","Fruit/watermelon.png","Won","0.2,0.65","9","0.2","155","32","",""
"html-keyboard-response","104","220518","0.0-11.0-2.31","63615888b5606b24a845f73e","bdp_rwlrn","Tue Mar 14 2023 19:39:22 GMT-0400 (Eastern Daylight Time)","438849","Trustworthy,Untrustworthy","","null","","","","decisionFB","","<div class='trialDiv'><img src='Fruit/watermelon.png'><br><font class='baseline'><strong>Watermelon Win$</strong><p>Choose number of points to bet.</font><div class='respPicDiv'><img src='img/responseButtonOffersNo0L5.png' class='respPic'></div></div>","null","11","Watermelon Win$","Fruit/watermelon.png","Won","0.2,0.65","9","0.2","150","32","",""
"html-keyboard-response","105","221524","0.0-11.0-3.31","63615888b5606b24a845f73e","bdp_rwlrn","Tue Mar 14 2023 19:39:22 GMT-0400 (Eastern Daylight Time)","438849","Trustworthy,Untrustworthy","","null","","","","feedback","","<div class='respPicDiv'><img src='img/responseButtonOffersNo0_wht.png' class='respPic'></div><div class='trialDiv'><img src='Fruit/watermelon.png'><br><font class='baseline'><strong>Watermelon Win$</strong><p><strong><font class='posOutcome'>You WON</font><p>You bet: 5</strong></font> &nbsp; &nbsp; &nbsp; &nbsp; &nbsp; &nbsp;<font class='posOutcome'>you receive: <strong>10</strong></font></div>","null","11","Watermelon Win$","Fruit/watermelon.png","Won","0.2,0.65","9","0.2","160","32","",""
"html-keyboard-response","106","221732","0.0-11.0-1.32","63615888b5606b24a845f73e","bdp_rwlrn","Tue Mar 14 2023 19:39:22 GMT-0400 (Eastern Daylight Time)","438849","Trustworthy,Untrustworthy","","208","","","","decision","","<div class='trialDiv'><img src='Fruit/Kiwi.png'><br><font class='baseline'><strong>Kiwi Kash</strong><p>Choose number of points to bet.</font><div class='respPicDiv'><img src='img/responseButtonOffersNo0L.png' class='respPic'></div></div>","5","11","Kiwi Kash","Fruit/Kiwi.png","Won","0.8,0.35","14","0.8","165","33","",""
"html-keyboard-response","107","221996","0.0-11.0-2.32","63615888b5606b24a845f73e","bdp_rwlrn","Tue Mar 14 2023 19:39:22 GMT-0400 (Eastern Daylight Time)","438849","Trustworthy,Untrustworthy","","null","","","","decisionFB","","<div class='trialDiv'><img src='Fruit/Kiwi.png'><br><font class='baseline'><strong>Kiwi Kash</strong><p>Choose number of points to bet.</font><div class='respPicDiv'><img src='img/responseButtonOffersNo0L5.png' class='respPic'></div></div>","null","11","Kiwi Kash","Fruit/Kiwi.png","Won","0.8,0.35","14","0.8","160","33","",""
"html-keyboard-response","108","223007","0.0-11.0-3.32","63615888b5606b24a845f73e","bdp_rwlrn","Tue Mar 14 2023 19:39:22 GMT-0400 (Eastern Daylight Time)","438849","Trustworthy,Untrustworthy","","null","","","","feedback","","<div class='respPicDiv'><img src='img/responseButtonOffersNo0_wht.png' class='respPic'></div><div class='trialDiv'><img src='Fruit/Kiwi.png'><br><font class='baseline'><strong>Kiwi Kash</strong><p><strong><font class='posOutcome'>You WON</font><p>You bet: 5</strong></font> &nbsp; &nbsp; &nbsp; &nbsp; &nbsp; &nbsp;<font class='posOutcome'>you receive: <strong>10</strong></font></div>","null","11","Kiwi Kash","Fruit/Kiwi.png","Won","0.8,0.35","14","0.8","170","33","",""
"html-keyboard-response","109","224605","0.0-11.0-1.33","63615888b5606b24a845f73e","bdp_rwlrn","Tue Mar 14 2023 19:39:22 GMT-0400 (Eastern Daylight Time)","438849","Trustworthy,Untrustworthy","","1598","","","","decision","","<div class='trialDiv'><img src='Fruit/watermelon.png'><br><font class='baseline'><strong>Watermelon Win$</strong><p>Choose number of points to bet.</font><div class='respPicDiv'><img src='img/responseButtonOffersNo0L.png' class='respPic'></div></div>","5","12","Watermelon Win$","Fruit/watermelon.png","Lost","0.2,0.65","9","0.2","175","34","",""
"html-keyboard-response","110","224867","0.0-11.0-2.33","63615888b5606b24a845f73e","bdp_rwlrn","Tue Mar 14 2023 19:39:22 GMT-0400 (Eastern Daylight Time)","438849","Trustworthy,Untrustworthy","","null","","","","decisionFB","","<div class='trialDiv'><img src='Fruit/watermelon.png'><br><font class='baseline'><strong>Watermelon Win$</strong><p>Choose number of points to bet.</font><div class='respPicDiv'><img src='img/responseButtonOffersNo0L5.png' class='respPic'></div></div>","null","12","Watermelon Win$","Fruit/watermelon.png","Lost","0.2,0.65","9","0.2","170","34","",""
"html-keyboard-response","111","225874","0.0-11.0-3.33","63615888b5606b24a845f73e","bdp_rwlrn","Tue Mar 14 2023 19:39:22 GMT-0400 (Eastern Daylight Time)","438849","Trustworthy,Untrustworthy","","null","","","","feedback","","<div class='respPicDiv'><img src='img/responseButtonOffersNo0_wht.png' class='respPic'></div><div class='trialDiv'><img src='Fruit/watermelon.png'><br><font class='baseline'><strong>Watermelon Win$</strong><p><strong><font class='negOutcome'>You LOST</font><p>You bet: 5</strong></font> &nbsp; &nbsp; &nbsp; &nbsp; &nbsp; &nbsp;<font class='negOutcome'>You receive: <strong>0</strong></font></div>","null","12","Watermelon Win$","Fruit/watermelon.png","Lost","0.2,0.65","9","0.2","170","34","",""
"html-keyboard-response","112","226797","0.0-11.0-1.34","63615888b5606b24a845f73e","bdp_rwlrn","Tue Mar 14 2023 19:39:22 GMT-0400 (Eastern Daylight Time)","438849","Trustworthy,Untrustworthy","","922","","","","decision","","<div class='trialDiv'><img src='Fruit/Kiwi.png'><br><font class='baseline'><strong>Kiwi Kash</strong><p>Choose number of points to bet.</font><div class='respPicDiv'><img src='img/responseButtonOffersNo0L.png' class='respPic'></div></div>","5","12","Kiwi Kash","Fruit/Kiwi.png","Won","0.8,0.35","14","0.8","175","35","",""
"html-keyboard-response","113","227061","0.0-11.0-2.34","63615888b5606b24a845f73e","bdp_rwlrn","Tue Mar 14 2023 19:39:22 GMT-0400 (Eastern Daylight Time)","438849","Trustworthy,Untrustworthy","","null","","","","decisionFB","","<div class='trialDiv'><img src='Fruit/Kiwi.png'><br><font class='baseline'><strong>Kiwi Kash</strong><p>Choose number of points to bet.</font><div class='respPicDiv'><img src='img/responseButtonOffersNo0L5.png' class='respPic'></div></div>","null","12","Kiwi Kash","Fruit/Kiwi.png","Won","0.8,0.35","14","0.8","170","35","",""
"html-keyboard-response","114","228064","0.0-11.0-3.34","63615888b5606b24a845f73e","bdp_rwlrn","Tue Mar 14 2023 19:39:22 GMT-0400 (Eastern Daylight Time)","438849","Trustworthy,Untrustworthy","","null","","","","feedback","","<div class='respPicDiv'><img src='img/responseButtonOffersNo0_wht.png' class='respPic'></div><div class='trialDiv'><img src='Fruit/Kiwi.png'><br><font class='baseline'><strong>Kiwi Kash</strong><p><strong><font class='posOutcome'>You WON</font><p>You bet: 5</strong></font> &nbsp; &nbsp; &nbsp; &nbsp; &nbsp; &nbsp;<font class='posOutcome'>you receive: <strong>10</strong></font></div>","null","12","Kiwi Kash","Fruit/Kiwi.png","Won","0.8,0.35","14","0.8","180","35","",""
"html-keyboard-response","115","228653","0.0-11.0-1.35","63615888b5606b24a845f73e","bdp_rwlrn","Tue Mar 14 2023 19:39:22 GMT-0400 (Eastern Daylight Time)","438849","Trustworthy,Untrustworthy","","588","","","","decision","","<div class='trialDiv'><img src='Fruit/lemon.png'><br><font class='baseline'><strong>Lucky Lemons</strong><p>Choose number of points to bet.</font><div class='respPicDiv'><img src='img/responseButtonOffersNo0L.png' class='respPic'></div></div>","5","12","Lucky Lemons","Fruit/lemon.png","Lost","0.35,0.65","10","0.35","185","36","",""
"html-keyboard-response","116","228907","0.0-11.0-2.35","63615888b5606b24a845f73e","bdp_rwlrn","Tue Mar 14 2023 19:39:22 GMT-0400 (Eastern Daylight Time)","438849","Trustworthy,Untrustworthy","","null","","","","decisionFB","","<div class='trialDiv'><img src='Fruit/lemon.png'><br><font class='baseline'><strong>Lucky Lemons</strong><p>Choose number of points to bet.</font><div class='respPicDiv'><img src='img/responseButtonOffersNo0L5.png' class='respPic'></div></div>","null","12","Lucky Lemons","Fruit/lemon.png","Lost","0.35,0.65","10","0.35","180","36","",""
"html-keyboard-response","117","229919","0.0-11.0-3.35","63615888b5606b24a845f73e","bdp_rwlrn","Tue Mar 14 2023 19:39:22 GMT-0400 (Eastern Daylight Time)","438849","Trustworthy,Untrustworthy","","null","","","","feedback","","<div class='respPicDiv'><img src='img/responseButtonOffersNo0_wht.png' class='respPic'></div><div class='trialDiv'><img src='Fruit/lemon.png'><br><font class='baseline'><strong>Lucky Lemons</strong><p><strong><font class='negOutcome'>You LOST</font><p>You bet: 5</strong></font> &nbsp; &nbsp; &nbsp; &nbsp; &nbsp; &nbsp;<font class='negOutcome'>You receive: <strong>0</strong></font></div>","null","12","Lucky Lemons","Fruit/lemon.png","Lost","0.35,0.65","10","0.35","180","36","",""
"html-keyboard-response","118","230286","0.0-11.0-1.36","63615888b5606b24a845f73e","bdp_rwlrn","Tue Mar 14 2023 19:39:22 GMT-0400 (Eastern Daylight Time)","438849","Trustworthy,Untrustworthy","","366","","","","decision","","<div class='trialDiv'><img src='Fruit/watermelon.png'><br><font class='baseline'><strong>Watermelon Win$</strong><p>Choose number of points to bet.</font><div class='respPicDiv'><img src='img/responseButtonOffersNo0L.png' class='respPic'></div></div>","5","13","Watermelon Win$","Fruit/watermelon.png","Lost","0.2,0.65","9","0.2","185","37","",""
"html-keyboard-response","119","230544","0.0-11.0-2.36","63615888b5606b24a845f73e","bdp_rwlrn","Tue Mar 14 2023 19:39:22 GMT-0400 (Eastern Daylight Time)","438849","Trustworthy,Untrustworthy","","null","","","","decisionFB","","<div class='trialDiv'><img src='Fruit/watermelon.png'><br><font class='baseline'><strong>Watermelon Win$</strong><p>Choose number of points to bet.</font><div class='respPicDiv'><img src='img/responseButtonOffersNo0L5.png' class='respPic'></div></div>","null","13","Watermelon Win$","Fruit/watermelon.png","Lost","0.2,0.65","9","0.2","180","37","",""
"html-keyboard-response","120","231546","0.0-11.0-3.36","63615888b5606b24a845f73e","bdp_rwlrn","Tue Mar 14 2023 19:39:22 GMT-0400 (Eastern Daylight Time)","438849","Trustworthy,Untrustworthy","","null","","","","feedback","","<div class='respPicDiv'><img src='img/responseButtonOffersNo0_wht.png' class='respPic'></div><div class='trialDiv'><img src='Fruit/watermelon.png'><br><font class='baseline'><strong>Watermelon Win$</strong><p><strong><font class='negOutcome'>You LOST</font><p>You bet: 5</strong></font> &nbsp; &nbsp; &nbsp; &nbsp; &nbsp; &nbsp;<font class='negOutcome'>You receive: <strong>0</strong></font></div>","null","13","Watermelon Win$","Fruit/watermelon.png","Lost","0.2,0.65","9","0.2","180","37","",""
"html-keyboard-response","121","231631","0.0-11.0-1.37","63615888b5606b24a845f73e","bdp_rwlrn","Tue Mar 14 2023 19:39:22 GMT-0400 (Eastern Daylight Time)","438849","Trustworthy,Untrustworthy","","85","","","","decision","","<div class='trialDiv'><img src='Fruit/lemon.png'><br><font class='baseline'><strong>Lucky Lemons</strong><p>Choose number of points to bet.</font><div class='respPicDiv'><img src='img/responseButtonOffersNo0L.png' class='respPic'></div></div>","5","13","Lucky Lemons","Fruit/lemon.png","Lost","0.35,0.65","10","0.35","185","38","",""
"html-keyboard-response","122","231885","0.0-11.0-2.37","63615888b5606b24a845f73e","bdp_rwlrn","Tue Mar 14 2023 19:39:22 GMT-0400 (Eastern Daylight Time)","438849","Trustworthy,Untrustworthy","","null","","","","decisionFB","","<div class='trialDiv'><img src='Fruit/lemon.png'><br><font class='baseline'><strong>Lucky Lemons</strong><p>Choose number of points to bet.</font><div class='respPicDiv'><img src='img/responseButtonOffersNo0L5.png' class='respPic'></div></div>","null","13","Lucky Lemons","Fruit/lemon.png","Lost","0.35,0.65","10","0.35","180","38","",""
"html-keyboard-response","123","232896","0.0-11.0-3.37","63615888b5606b24a845f73e","bdp_rwlrn","Tue Mar 14 2023 19:39:22 GMT-0400 (Eastern Daylight Time)","438849","Trustworthy,Untrustworthy","","null","","","","feedback","","<div class='respPicDiv'><img src='img/responseButtonOffersNo0_wht.png' class='respPic'></div><div class='trialDiv'><img src='Fruit/lemon.png'><br><font class='baseline'><strong>Lucky Lemons</strong><p><strong><font class='negOutcome'>You LOST</font><p>You bet: 5</strong></font> &nbsp; &nbsp; &nbsp; &nbsp; &nbsp; &nbsp;<font class='negOutcome'>You receive: <strong>0</strong></font></div>","null","13","Lucky Lemons","Fruit/lemon.png","Lost","0.35,0.65","10","0.35","180","38","",""
"html-keyboard-response","124","233586","0.0-11.0-1.38","63615888b5606b24a845f73e","bdp_rwlrn","Tue Mar 14 2023 19:39:22 GMT-0400 (Eastern Daylight Time)","438849","Trustworthy,Untrustworthy","","690","","","","decision","","<div class='trialDiv'><img src='Fruit/Kiwi.png'><br><font class='baseline'><strong>Kiwi Kash</strong><p>Choose number of points to bet.</font><div class='respPicDiv'><img src='img/responseButtonOffersNo0L.png' class='respPic'></div></div>","5","13","Kiwi Kash","Fruit/Kiwi.png","Won","0.8,0.35","14","0.8","185","39","",""
"html-keyboard-response","125","233849","0.0-11.0-2.38","63615888b5606b24a845f73e","bdp_rwlrn","Tue Mar 14 2023 19:39:22 GMT-0400 (Eastern Daylight Time)","438849","Trustworthy,Untrustworthy","","null","","","","decisionFB","","<div class='trialDiv'><img src='Fruit/Kiwi.png'><br><font class='baseline'><strong>Kiwi Kash</strong><p>Choose number of points to bet.</font><div class='respPicDiv'><img src='img/responseButtonOffersNo0L5.png' class='respPic'></div></div>","null","13","Kiwi Kash","Fruit/Kiwi.png","Won","0.8,0.35","14","0.8","180","39","",""
"html-keyboard-response","126","234858","0.0-11.0-3.38","63615888b5606b24a845f73e","bdp_rwlrn","Tue Mar 14 2023 19:39:22 GMT-0400 (Eastern Daylight Time)","438849","Trustworthy,Untrustworthy","","null","","","","feedback","","<div class='respPicDiv'><img src='img/responseButtonOffersNo0_wht.png' class='respPic'></div><div class='trialDiv'><img src='Fruit/Kiwi.png'><br><font class='baseline'><strong>Kiwi Kash</strong><p><strong><font class='posOutcome'>You WON</font><p>You bet: 5</strong></font> &nbsp; &nbsp; &nbsp; &nbsp; &nbsp; &nbsp;<font class='posOutcome'>you receive: <strong>10</strong></font></div>","null","13","Kiwi Kash","Fruit/Kiwi.png","Won","0.8,0.35","14","0.8","190","39","",""
"html-keyboard-response","127","235428","0.0-11.0-1.39","63615888b5606b24a845f73e","bdp_rwlrn","Tue Mar 14 2023 19:39:22 GMT-0400 (Eastern Daylight Time)","438849","Trustworthy,Untrustworthy","","569","","","","decision","","<div class='trialDiv'><img src='Fruit/watermelon.png'><br><font class='baseline'><strong>Watermelon Win$</strong><p>Choose number of points to bet.</font><div class='respPicDiv'><img src='img/responseButtonOffersNo0L.png' class='respPic'></div></div>","5","14","Watermelon Win$","Fruit/watermelon.png","Won","0.2,0.65","9","0.2","195","40","",""
"html-keyboard-response","128","235684","0.0-11.0-2.39","63615888b5606b24a845f73e","bdp_rwlrn","Tue Mar 14 2023 19:39:22 GMT-0400 (Eastern Daylight Time)","438849","Trustworthy,Untrustworthy","","null","","","","decisionFB","","<div class='trialDiv'><img src='Fruit/watermelon.png'><br><font class='baseline'><strong>Watermelon Win$</strong><p>Choose number of points to bet.</font><div class='respPicDiv'><img src='img/responseButtonOffersNo0L5.png' class='respPic'></div></div>","null","14","Watermelon Win$","Fruit/watermelon.png","Won","0.2,0.65","9","0.2","190","40","",""
"html-keyboard-response","129","236688","0.0-11.0-3.39","63615888b5606b24a845f73e","bdp_rwlrn","Tue Mar 14 2023 19:39:22 GMT-0400 (Eastern Daylight Time)","438849","Trustworthy,Untrustworthy","","null","","","","feedback","","<div class='respPicDiv'><img src='img/responseButtonOffersNo0_wht.png' class='respPic'></div><div class='trialDiv'><img src='Fruit/watermelon.png'><br><font class='baseline'><strong>Watermelon Win$</strong><p><strong><font class='posOutcome'>You WON</font><p>You bet: 5</strong></font> &nbsp; &nbsp; &nbsp; &nbsp; &nbsp; &nbsp;<font class='posOutcome'>you receive: <strong>10</strong></font></div>","null","14","Watermelon Win$","Fruit/watermelon.png","Won","0.2,0.65","9","0.2","200","40","",""
"html-keyboard-response","130","238337","0.0-11.0-1.40","63615888b5606b24a845f73e","bdp_rwlrn","Tue Mar 14 2023 19:39:22 GMT-0400 (Eastern Daylight Time)","438849","Trustworthy,Untrustworthy","","1648","","","","decision","","<div class='trialDiv'><img src='Fruit/lemon.png'><br><font class='baseline'><strong>Lucky Lemons</strong><p>Choose number of points to bet.</font><div class='respPicDiv'><img src='img/responseButtonOffersNo0L.png' class='respPic'></div></div>","5","14","Lucky Lemons","Fruit/lemon.png","Won","0.35,0.65","10","0.35","205","41","",""
"html-keyboard-response","131","238596","0.0-11.0-2.40","63615888b5606b24a845f73e","bdp_rwlrn","Tue Mar 14 2023 19:39:22 GMT-0400 (Eastern Daylight Time)","438849","Trustworthy,Untrustworthy","","null","","","","decisionFB","","<div class='trialDiv'><img src='Fruit/lemon.png'><br><font class='baseline'><strong>Lucky Lemons</strong><p>Choose number of points to bet.</font><div class='respPicDiv'><img src='img/responseButtonOffersNo0L5.png' class='respPic'></div></div>","null","14","Lucky Lemons","Fruit/lemon.png","Won","0.35,0.65","10","0.35","200","41","",""
"html-keyboard-response","132","239608","0.0-11.0-3.40","63615888b5606b24a845f73e","bdp_rwlrn","Tue Mar 14 2023 19:39:22 GMT-0400 (Eastern Daylight Time)","438849","Trustworthy,Untrustworthy","","null","","","","feedback","","<div class='respPicDiv'><img src='img/responseButtonOffersNo0_wht.png' class='respPic'></div><div class='trialDiv'><img src='Fruit/lemon.png'><br><font class='baseline'><strong>Lucky Lemons</strong><p><strong><font class='posOutcome'>You WON</font><p>You bet: 5</strong></font> &nbsp; &nbsp; &nbsp; &nbsp; &nbsp; &nbsp;<font class='posOutcome'>you receive: <strong>10</strong></font></div>","null","14","Lucky Lemons","Fruit/lemon.png","Won","0.35,0.65","10","0.35","210","41","",""
"html-keyboard-response","133","240858","0.0-11.0-1.41","63615888b5606b24a845f73e","bdp_rwlrn","Tue Mar 14 2023 19:39:22 GMT-0400 (Eastern Daylight Time)","438849","Trustworthy,Untrustworthy","","1249","","","","decision","","<div class='trialDiv'><img src='Fruit/Kiwi.png'><br><font class='baseline'><strong>Kiwi Kash</strong><p>Choose number of points to bet.</font><div class='respPicDiv'><img src='img/responseButtonOffersNo0L.png' class='respPic'></div></div>","5","14","Kiwi Kash","Fruit/Kiwi.png","Won","0.8,0.35","14","0.8","215","42","",""
"html-keyboard-response","134","241111","0.0-11.0-2.41","63615888b5606b24a845f73e","bdp_rwlrn","Tue Mar 14 2023 19:39:22 GMT-0400 (Eastern Daylight Time)","438849","Trustworthy,Untrustworthy","","null","","","","decisionFB","","<div class='trialDiv'><img src='Fruit/Kiwi.png'><br><font class='baseline'><strong>Kiwi Kash</strong><p>Choose number of points to bet.</font><div class='respPicDiv'><img src='img/responseButtonOffersNo0L5.png' class='respPic'></div></div>","null","14","Kiwi Kash","Fruit/Kiwi.png","Won","0.8,0.35","14","0.8","210","42","",""
"html-keyboard-response","135","242113","0.0-11.0-3.41","63615888b5606b24a845f73e","bdp_rwlrn","Tue Mar 14 2023 19:39:22 GMT-0400 (Eastern Daylight Time)","438849","Trustworthy,Untrustworthy","","null","","","","feedback","","<div class='respPicDiv'><img src='img/responseButtonOffersNo0_wht.png' class='respPic'></div><div class='trialDiv'><img src='Fruit/Kiwi.png'><br><font class='baseline'><strong>Kiwi Kash</strong><p><strong><font class='posOutcome'>You WON</font><p>You bet: 5</strong></font> &nbsp; &nbsp; &nbsp; &nbsp; &nbsp; &nbsp;<font class='posOutcome'>you receive: <strong>10</strong></font></div>","null","14","Kiwi Kash","Fruit/Kiwi.png","Won","0.8,0.35","14","0.8","220","42","",""
"html-keyboard-response","136","242962","0.0-11.0-1.42","63615888b5606b24a845f73e","bdp_rwlrn","Tue Mar 14 2023 19:39:22 GMT-0400 (Eastern Daylight Time)","438849","Trustworthy,Untrustworthy","","847","","","","decision","","<div class='trialDiv'><img src='Fruit/watermelon.png'><br><font class='baseline'><strong>Watermelon Win$</strong><p>Choose number of points to bet.</font><div class='respPicDiv'><img src='img/responseButtonOffersNo0L.png' class='respPic'></div></div>","5","15","Watermelon Win$","Fruit/watermelon.png","Won","0.2,0.65","9","0.2","225","43","",""
"html-keyboard-response","137","243219","0.0-11.0-2.42","63615888b5606b24a845f73e","bdp_rwlrn","Tue Mar 14 2023 19:39:22 GMT-0400 (Eastern Daylight Time)","438849","Trustworthy,Untrustworthy","","null","","","","decisionFB","","<div class='trialDiv'><img src='Fruit/watermelon.png'><br><font class='baseline'><strong>Watermelon Win$</strong><p>Choose number of points to bet.</font><div class='respPicDiv'><img src='img/responseButtonOffersNo0L5.png' class='respPic'></div></div>","null","15","Watermelon Win$","Fruit/watermelon.png","Won","0.2,0.65","9","0.2","220","43","",""
"html-keyboard-response","138","244234","0.0-11.0-3.42","63615888b5606b24a845f73e","bdp_rwlrn","Tue Mar 14 2023 19:39:22 GMT-0400 (Eastern Daylight Time)","438849","Trustworthy,Untrustworthy","","null","","","","feedback","","<div class='respPicDiv'><img src='img/responseButtonOffersNo0_wht.png' class='respPic'></div><div class='trialDiv'><img src='Fruit/watermelon.png'><br><font class='baseline'><strong>Watermelon Win$</strong><p><strong><font class='posOutcome'>You WON</font><p>You bet: 5</strong></font> &nbsp; &nbsp; &nbsp; &nbsp; &nbsp; &nbsp;<font class='posOutcome'>you receive: <strong>10</strong></font></div>","null","15","Watermelon Win$","Fruit/watermelon.png","Won","0.2,0.65","9","0.2","230","43","",""
"html-keyboard-response","139","244245","0.0-11.0-1.43","63615888b5606b24a845f73e","bdp_rwlrn","Tue Mar 14 2023 19:39:22 GMT-0400 (Eastern Daylight Time)","438849","Trustworthy,Untrustworthy","","10","","","","decision","","<div class='trialDiv'><img src='Fruit/Kiwi.png'><br><font class='baseline'><strong>Kiwi Kash</strong><p>Choose number of points to bet.</font><div class='respPicDiv'><img src='img/responseButtonOffersNo0L.png' class='respPic'></div></div>","5","15","Kiwi Kash","Fruit/Kiwi.png","Lost","0.8,0.35","14","0.8","235","44","",""
"html-keyboard-response","140","244500","0.0-11.0-2.43","63615888b5606b24a845f73e","bdp_rwlrn","Tue Mar 14 2023 19:39:22 GMT-0400 (Eastern Daylight Time)","438849","Trustworthy,Untrustworthy","","null","","","","decisionFB","","<div class='trialDiv'><img src='Fruit/Kiwi.png'><br><font class='baseline'><strong>Kiwi Kash</strong><p>Choose number of points to bet.</font><div class='respPicDiv'><img src='img/responseButtonOffersNo0L5.png' class='respPic'></div></div>","null","15","Kiwi Kash","Fruit/Kiwi.png","Lost","0.8,0.35","14","0.8","230","44","",""
"html-keyboard-response","141","245510","0.0-11.0-3.43","63615888b5606b24a845f73e","bdp_rwlrn","Tue Mar 14 2023 19:39:22 GMT-0400 (Eastern Daylight Time)","438849","Trustworthy,Untrustworthy","","null","","","","feedback","","<div class='respPicDiv'><img src='img/responseButtonOffersNo0_wht.png' class='respPic'></div><div class='trialDiv'><img src='Fruit/Kiwi.png'><br><font class='baseline'><strong>Kiwi Kash</strong><p><strong><font class='negOutcome'>You LOST</font><p>You bet: 5</strong></font> &nbsp; &nbsp; &nbsp; &nbsp; &nbsp; &nbsp;<font class='negOutcome'>You receive: <strong>0</strong></font></div>","null","15","Kiwi Kash","Fruit/Kiwi.png","Lost","0.8,0.35","14","0.8","230","44","",""
"html-keyboard-response","142","245960","0.0-11.0-1.44","63615888b5606b24a845f73e","bdp_rwlrn","Tue Mar 14 2023 19:39:22 GMT-0400 (Eastern Daylight Time)","438849","Trustworthy,Untrustworthy","","450","","","","decision","","<div class='trialDiv'><img src='Fruit/lemon.png'><br><font class='baseline'><strong>Lucky Lemons</strong><p>Choose number of points to bet.</font><div class='respPicDiv'><img src='img/responseButtonOffersNo0L.png' class='respPic'></div></div>","5","15","Lucky Lemons","Fruit/lemon.png","Won","0.35,0.65","10","0.35","235","45","",""
"html-keyboard-response","143","246214","0.0-11.0-2.44","63615888b5606b24a845f73e","bdp_rwlrn","Tue Mar 14 2023 19:39:22 GMT-0400 (Eastern Daylight Time)","438849","Trustworthy,Untrustworthy","","null","","","","decisionFB","","<div class='trialDiv'><img src='Fruit/lemon.png'><br><font class='baseline'><strong>Lucky Lemons</strong><p>Choose number of points to bet.</font><div class='respPicDiv'><img src='img/responseButtonOffersNo0L5.png' class='respPic'></div></div>","null","15","Lucky Lemons","Fruit/lemon.png","Won","0.35,0.65","10","0.35","230","45","",""
"html-keyboard-response","144","247227","0.0-11.0-3.44","63615888b5606b24a845f73e","bdp_rwlrn","Tue Mar 14 2023 19:39:22 GMT-0400 (Eastern Daylight Time)","438849","Trustworthy,Untrustworthy","","null","","","","feedback","","<div class='respPicDiv'><img src='img/responseButtonOffersNo0_wht.png' class='respPic'></div><div class='trialDiv'><img src='Fruit/lemon.png'><br><font class='baseline'><strong>Lucky Lemons</strong><p><strong><font class='posOutcome'>You WON</font><p>You bet: 5</strong></font> &nbsp; &nbsp; &nbsp; &nbsp; &nbsp; &nbsp;<font class='posOutcome'>you receive: <strong>10</strong></font></div>","null","15","Lucky Lemons","Fruit/lemon.png","Won","0.35,0.65","10","0.35","240","45","",""
"html-keyboard-response","145","247722","0.0-11.0-1.45","63615888b5606b24a845f73e","bdp_rwlrn","Tue Mar 14 2023 19:39:22 GMT-0400 (Eastern Daylight Time)","438849","Trustworthy,Untrustworthy","","494","","","","decision","","<div class='trialDiv'><img src='Fruit/watermelon.png'><br><font class='baseline'><strong>Watermelon Win$</strong><p>Choose number of points to bet.</font><div class='respPicDiv'><img src='img/responseButtonOffersNo0L.png' class='respPic'></div></div>","5","16","Watermelon Win$","Fruit/watermelon.png","Lost","0.2,0.65","9","0.2","245","46","",""
"html-keyboard-response","146","247981","0.0-11.0-2.45","63615888b5606b24a845f73e","bdp_rwlrn","Tue Mar 14 2023 19:39:22 GMT-0400 (Eastern Daylight Time)","438849","Trustworthy,Untrustworthy","","null","","","","decisionFB","","<div class='trialDiv'><img src='Fruit/watermelon.png'><br><font class='baseline'><strong>Watermelon Win$</strong><p>Choose number of points to bet.</font><div class='respPicDiv'><img src='img/responseButtonOffersNo0L5.png' class='respPic'></div></div>","null","16","Watermelon Win$","Fruit/watermelon.png","Lost","0.2,0.65","9","0.2","240","46","",""
"html-keyboard-response","147","248987","0.0-11.0-3.45","63615888b5606b24a845f73e","bdp_rwlrn","Tue Mar 14 2023 19:39:22 GMT-0400 (Eastern Daylight Time)","438849","Trustworthy,Untrustworthy","","null","","","","feedback","","<div class='respPicDiv'><img src='img/responseButtonOffersNo0_wht.png' class='respPic'></div><div class='trialDiv'><img src='Fruit/watermelon.png'><br><font class='baseline'><strong>Watermelon Win$</strong><p><strong><font class='negOutcome'>You LOST</font><p>You bet: 5</strong></font> &nbsp; &nbsp; &nbsp; &nbsp; &nbsp; &nbsp;<font class='negOutcome'>You receive: <strong>0</strong></font></div>","null","16","Watermelon Win$","Fruit/watermelon.png","Lost","0.2,0.65","9","0.2","240","46","",""
"html-keyboard-response","148","249122","0.0-11.0-1.46","63615888b5606b24a845f73e","bdp_rwlrn","Tue Mar 14 2023 19:39:22 GMT-0400 (Eastern Daylight Time)","438849","Trustworthy,Untrustworthy","","135","","","","decision","","<div class='trialDiv'><img src='Fruit/lemon.png'><br><font class='baseline'><strong>Lucky Lemons</strong><p>Choose number of points to bet.</font><div class='respPicDiv'><img src='img/responseButtonOffersNo0L.png' class='respPic'></div></div>","5","16","Lucky Lemons","Fruit/lemon.png","Won","0.35,0.65","10","0.35","245","47","",""
"html-keyboard-response","149","249378","0.0-11.0-2.46","63615888b5606b24a845f73e","bdp_rwlrn","Tue Mar 14 2023 19:39:22 GMT-0400 (Eastern Daylight Time)","438849","Trustworthy,Untrustworthy","","null","","","","decisionFB","","<div class='trialDiv'><img src='Fruit/lemon.png'><br><font class='baseline'><strong>Lucky Lemons</strong><p>Choose number of points to bet.</font><div class='respPicDiv'><img src='img/responseButtonOffersNo0L5.png' class='respPic'></div></div>","null","16","Lucky Lemons","Fruit/lemon.png","Won","0.35,0.65","10","0.35","240","47","",""
"html-keyboard-response","150","250390","0.0-11.0-3.46","63615888b5606b24a845f73e","bdp_rwlrn","Tue Mar 14 2023 19:39:22 GMT-0400 (Eastern Daylight Time)","438849","Trustworthy,Untrustworthy","","null","","","","feedback","","<div class='respPicDiv'><img src='img/responseButtonOffersNo0_wht.png' class='respPic'></div><div class='trialDiv'><img src='Fruit/lemon.png'><br><font class='baseline'><strong>Lucky Lemons</strong><p><strong><font class='posOutcome'>You WON</font><p>You bet: 5</strong></font> &nbsp; &nbsp; &nbsp; &nbsp; &nbsp; &nbsp;<font class='posOutcome'>you receive: <strong>10</strong></font></div>","null","16","Lucky Lemons","Fruit/lemon.png","Won","0.35,0.65","10","0.35","250","47","",""
"html-keyboard-response","151","251079","0.0-11.0-1.47","63615888b5606b24a845f73e","bdp_rwlrn","Tue Mar 14 2023 19:39:22 GMT-0400 (Eastern Daylight Time)","438849","Trustworthy,Untrustworthy","","689","","","","decision","","<div class='trialDiv'><img src='Fruit/Kiwi.png'><br><font class='baseline'><strong>Kiwi Kash</strong><p>Choose number of points to bet.</font><div class='respPicDiv'><img src='img/responseButtonOffersNo0L.png' class='respPic'></div></div>","5","16","Kiwi Kash","Fruit/Kiwi.png","Lost","0.8,0.35","14","0.8","255","48","",""
"html-keyboard-response","152","251340","0.0-11.0-2.47","63615888b5606b24a845f73e","bdp_rwlrn","Tue Mar 14 2023 19:39:22 GMT-0400 (Eastern Daylight Time)","438849","Trustworthy,Untrustworthy","","null","","","","decisionFB","","<div class='trialDiv'><img src='Fruit/Kiwi.png'><br><font class='baseline'><strong>Kiwi Kash</strong><p>Choose number of points to bet.</font><div class='respPicDiv'><img src='img/responseButtonOffersNo0L5.png' class='respPic'></div></div>","null","16","Kiwi Kash","Fruit/Kiwi.png","Lost","0.8,0.35","14","0.8","250","48","",""
"html-keyboard-response","153","252343","0.0-11.0-3.47","63615888b5606b24a845f73e","bdp_rwlrn","Tue Mar 14 2023 19:39:22 GMT-0400 (Eastern Daylight Time)","438849","Trustworthy,Untrustworthy","","null","","","","feedback","","<div class='respPicDiv'><img src='img/responseButtonOffersNo0_wht.png' class='respPic'></div><div class='trialDiv'><img src='Fruit/Kiwi.png'><br><font class='baseline'><strong>Kiwi Kash</strong><p><strong><font class='negOutcome'>You LOST</font><p>You bet: 5</strong></font> &nbsp; &nbsp; &nbsp; &nbsp; &nbsp; &nbsp;<font class='negOutcome'>You receive: <strong>0</strong></font></div>","null","16","Kiwi Kash","Fruit/Kiwi.png","Lost","0.8,0.35","14","0.8","250","48","",""
"html-keyboard-response","154","252827","0.0-11.0-1.48","63615888b5606b24a845f73e","bdp_rwlrn","Tue Mar 14 2023 19:39:22 GMT-0400 (Eastern Daylight Time)","438849","Trustworthy,Untrustworthy","","484","","","","decision","","<div class='trialDiv'><img src='Fruit/lemon.png'><br><font class='baseline'><strong>Lucky Lemons</strong><p>Choose number of points to bet.</font><div class='respPicDiv'><img src='img/responseButtonOffersNo0L.png' class='respPic'></div></div>","5","17","Lucky Lemons","Fruit/lemon.png","Lost","0.35,0.65","10","0.35","255","49","",""
"html-keyboard-response","155","253093","0.0-11.0-2.48","63615888b5606b24a845f73e","bdp_rwlrn","Tue Mar 14 2023 19:39:22 GMT-0400 (Eastern Daylight Time)","438849","Trustworthy,Untrustworthy","","null","","","","decisionFB","","<div class='trialDiv'><img src='Fruit/lemon.png'><br><font class='baseline'><strong>Lucky Lemons</strong><p>Choose number of points to bet.</font><div class='respPicDiv'><img src='img/responseButtonOffersNo0L5.png' class='respPic'></div></div>","null","17","Lucky Lemons","Fruit/lemon.png","Lost","0.35,0.65","10","0.35","250","49","",""
"html-keyboard-response","156","254109","0.0-11.0-3.48","63615888b5606b24a845f73e","bdp_rwlrn","Tue Mar 14 2023 19:39:22 GMT-0400 (Eastern Daylight Time)","438849","Trustworthy,Untrustworthy","","null","","","","feedback","","<div class='respPicDiv'><img src='img/responseButtonOffersNo0_wht.png' class='respPic'></div><div class='trialDiv'><img src='Fruit/lemon.png'><br><font class='baseline'><strong>Lucky Lemons</strong><p><strong><font class='negOutcome'>You LOST</font><p>You bet: 5</strong></font> &nbsp; &nbsp; &nbsp; &nbsp; &nbsp; &nbsp;<font class='negOutcome'>You receive: <strong>0</strong></font></div>","null","17","Lucky Lemons","Fruit/lemon.png","Lost","0.35,0.65","10","0.35","250","49","",""
"html-keyboard-response","157","254648","0.0-11.0-1.49","63615888b5606b24a845f73e","bdp_rwlrn","Tue Mar 14 2023 19:39:22 GMT-0400 (Eastern Daylight Time)","438849","Trustworthy,Untrustworthy","","538","","","","decision","","<div class='trialDiv'><img src='Fruit/Kiwi.png'><br><font class='baseline'><strong>Kiwi Kash</strong><p>Choose number of points to bet.</font><div class='respPicDiv'><img src='img/responseButtonOffersNo0L.png' class='respPic'></div></div>","5","17","Kiwi Kash","Fruit/Kiwi.png","Lost","0.8,0.35","14","0.8","255","50","",""
"html-keyboard-response","158","254907","0.0-11.0-2.49","63615888b5606b24a845f73e","bdp_rwlrn","Tue Mar 14 2023 19:39:22 GMT-0400 (Eastern Daylight Time)","438849","Trustworthy,Untrustworthy","","null","","","","decisionFB","","<div class='trialDiv'><img src='Fruit/Kiwi.png'><br><font class='baseline'><strong>Kiwi Kash</strong><p>Choose number of points to bet.</font><div class='respPicDiv'><img src='img/responseButtonOffersNo0L5.png' class='respPic'></div></div>","null","17","Kiwi Kash","Fruit/Kiwi.png","Lost","0.8,0.35","14","0.8","250","50","",""
"html-keyboard-response","159","255909","0.0-11.0-3.49","63615888b5606b24a845f73e","bdp_rwlrn","Tue Mar 14 2023 19:39:22 GMT-0400 (Eastern Daylight Time)","438849","Trustworthy,Untrustworthy","","null","","","","feedback","","<div class='respPicDiv'><img src='img/responseButtonOffersNo0_wht.png' class='respPic'></div><div class='trialDiv'><img src='Fruit/Kiwi.png'><br><font class='baseline'><strong>Kiwi Kash</strong><p><strong><font class='negOutcome'>You LOST</font><p>You bet: 5</strong></font> &nbsp; &nbsp; &nbsp; &nbsp; &nbsp; &nbsp;<font class='negOutcome'>You receive: <strong>0</strong></font></div>","null","17","Kiwi Kash","Fruit/Kiwi.png","Lost","0.8,0.35","14","0.8","250","50","",""
"html-keyboard-response","160","256485","0.0-11.0-1.50","63615888b5606b24a845f73e","bdp_rwlrn","Tue Mar 14 2023 19:39:22 GMT-0400 (Eastern Daylight Time)","438849","Trustworthy,Untrustworthy","","576","","","","decision","","<div class='trialDiv'><img src='Fruit/watermelon.png'><br><font class='baseline'><strong>Watermelon Win$</strong><p>Choose number of points to bet.</font><div class='respPicDiv'><img src='img/responseButtonOffersNo0L.png' class='respPic'></div></div>","5","17","Watermelon Win$","Fruit/watermelon.png","Won","0.2,0.65","9","0.2","255","51","",""
"html-keyboard-response","161","256738","0.0-11.0-2.50","63615888b5606b24a845f73e","bdp_rwlrn","Tue Mar 14 2023 19:39:22 GMT-0400 (Eastern Daylight Time)","438849","Trustworthy,Untrustworthy","","null","","","","decisionFB","","<div class='trialDiv'><img src='Fruit/watermelon.png'><br><font class='baseline'><strong>Watermelon Win$</strong><p>Choose number of points to bet.</font><div class='respPicDiv'><img src='img/responseButtonOffersNo0L5.png' class='respPic'></div></div>","null","17","Watermelon Win$","Fruit/watermelon.png","Won","0.2,0.65","9","0.2","250","51","",""
"html-keyboard-response","162","257749","0.0-11.0-3.50","63615888b5606b24a845f73e","bdp_rwlrn","Tue Mar 14 2023 19:39:22 GMT-0400 (Eastern Daylight Time)","438849","Trustworthy,Untrustworthy","","null","","","","feedback","","<div class='respPicDiv'><img src='img/responseButtonOffersNo0_wht.png' class='respPic'></div><div class='trialDiv'><img src='Fruit/watermelon.png'><br><font class='baseline'><strong>Watermelon Win$</strong><p><strong><font class='posOutcome'>You WON</font><p>You bet: 5</strong></font> &nbsp; &nbsp; &nbsp; &nbsp; &nbsp; &nbsp;<font class='posOutcome'>you receive: <strong>10</strong></font></div>","null","17","Watermelon Win$","Fruit/watermelon.png","Won","0.2,0.65","9","0.2","260","51","",""
"html-keyboard-response","163","257792","0.0-11.0-1.51","63615888b5606b24a845f73e","bdp_rwlrn","Tue Mar 14 2023 19:39:22 GMT-0400 (Eastern Daylight Time)","438849","Trustworthy,Untrustworthy","","41","","","","decision","","<div class='trialDiv'><img src='Fruit/Kiwi.png'><br><font class='baseline'><strong>Kiwi Kash</strong><p>Choose number of points to bet.</font><div class='respPicDiv'><img src='img/responseButtonOffersNo0L.png' class='respPic'></div></div>","5","18","Kiwi Kash","Fruit/Kiwi.png","Won","0.8,0.35","14","0.8","265","52","",""
