"event","trial","time","trialtype","subject_id","task","startTime","totalTime","labels","trial_type","trial_index","time_elapsed","internal_node_id","view_history","rt","numBlurs","success","stimulus","key_press","ltround","name","fileID","outcome","lottotype","lottoswpt","lottocurrpshare","point_total","round","faceID","face"
"focus","0","0","focusevent","63d842d3e9626bd5fe5c17b1","bdp_rwlrn","Fri Mar 10 2023 11:59:19 GMT-0800 (Pacific Standard Time)","675732","Trustworthy,Untrustworthy","","","","","","","","","","","","","","","","","","","","",""
"","","","","63d842d3e9626bd5fe5c17b1","bdp_rwlrn","Fri Mar 10 2023 11:59:19 GMT-0800 (Pacific Standard Time)","675732","Trustworthy,Untrustworthy","pavlovia","0","6","0.0-0.0","","","","","","","","","","","","","","","","",""
"","","","","63d842d3e9626bd5fe5c17b1","bdp_rwlrn","Fri Mar 10 2023 11:59:19 GMT-0800 (Pacific Standard Time)","675732","Trustworthy,Untrustworthy","instructions","1","6567","0.0-1.0","[{""page_index"":0,""viewing_time"":6561}]","6561","","","","","","","","","","","","","","",""
"blur","2","293511","blurevent","63d842d3e9626bd5fe5c17b1","bdp_rwlrn","Fri Mar 10 2023 11:59:19 GMT-0800 (Pacific Standard Time)","675732","Trustworthy,Untrustworthy","","","","","","","1","","","","","","","","","","","","","",""
"focus","2","304173","focusevent","63d842d3e9626bd5fe5c17b1","bdp_rwlrn","Fri Mar 10 2023 11:59:19 GMT-0800 (Pacific Standard Time)","675732","Trustworthy,Untrustworthy","","","","","","","","","","","","","","","","","","","","",""
"fullscreenexit","2","305143","fullscreenexit","63d842d3e9626bd5fe5c17b1","bdp_rwlrn","Fri Mar 10 2023 11:59:19 GMT-0800 (Pacific Standard Time)","675732","Trustworthy,Untrustworthy","","","","","","","","","","","","","","","","","","","","",""
"","","","","63d842d3e9626bd5fe5c17b1","bdp_rwlrn","Fri Mar 10 2023 11:59:19 GMT-0800 (Pacific Standard Time)","675732","Trustworthy,Untrustworthy","fullscreen","2","305947","0.0-2.0","","","","true","","","","","","","","","","","","",""
"","","","fullscreenfail","63d842d3e9626bd5fe5c17b1","bdp_rwlrn","Fri Mar 10 2023 11:59:19 GMT-0800 (Pacific Standard Time)","675732","Trustworthy,Untrustworthy","image-keyboard-response","3","312447","0.0-3.0-0.0","","6499","","","","32","","","","","","","","","","",""
"","","","","63d842d3e9626bd5fe5c17b1","bdp_rwlrn","Fri Mar 10 2023 11:59:19 GMT-0800 (Pacific Standard Time)","675732","Trustworthy,Untrustworthy","instructions","4","380276","0.0-4.0","[{""page_index"":0,""viewing_time"":12301},{""page_index"":1,""viewing_time"":5277},{""page_index"":2,""viewing_time"":13436},{""page_index"":3,""viewing_time"":7468},{""page_index"":4,""viewing_time"":26510},{""page_index"":5,""viewing_time"":2574}]","67566","","","","","","","","","","","","","","",""
"","","","","63d842d3e9626bd5fe5c17b1","bdp_rwlrn","Fri Mar 10 2023 11:59:19 GMT-0800 (Pacific Standard Time)","675732","Trustworthy,Untrustworthy","html-keyboard-response","5","384668","0.0-5.0","","4392","","","<div class='header' style='text-align:left; position: absolute; top: 5%; left: 5%;'><small>Task 1 of 5</small></div><div class='instruxDiv'><p><strong>1) What is the maximum number of points you can choose to bet on a lottery?</strong></p><p>a) 0</p><p>b) 1</p><p>c) 5</p>","C","","","","","","","","","","",""
"","","","","63d842d3e9626bd5fe5c17b1","bdp_rwlrn","Fri Mar 10 2023 11:59:19 GMT-0800 (Pacific Standard Time)","675732","Trustworthy,Untrustworthy","html-keyboard-response","6","385922","0.0-6.0","","1145","","","<div class='header' style='text-align:left; position: absolute; top: 5%; left: 5%;'><small>Task 1 of 5</small></div><div class='instruxDiv'><p><strong>1) What is the maximum number of points you can choose to bet on a lottery?</strong></p><p>a) 1</p><p>b) 1</p><p style='color:#00FF00'>c) 5</p><h3 style='color:#00FF00'>Correct!</h3><h3 class='center-content'>The correct response is c).</h3><h3 class='center-content'>The maximum number of points you can choose to bet on a lottery is 5 points.</h3><p><em>Press SPACEBAR to continue</em></p></div>"," ","","","","","","","","","","",""
"","","","","63d842d3e9626bd5fe5c17b1","bdp_rwlrn","Fri Mar 10 2023 11:59:19 GMT-0800 (Pacific Standard Time)","675732","Trustworthy,Untrustworthy","html-keyboard-response","7","388766","0.0-7.0","","2741","","","<div class='header' style='text-align:left; position: absolute; top: 5%; left: 5%;'><small>Task 1 of 5</small></div><div class='instruxDiv'><p><strong>2) How many points can you win each round?</strong></p><p>a) 10 points</p><p>b) Double what you bet</p><p>c) Quadruple what you bet</p>","B","","","","","","","","","","",""
"","","","","63d842d3e9626bd5fe5c17b1","bdp_rwlrn","Fri Mar 10 2023 11:59:19 GMT-0800 (Pacific Standard Time)","675732","Trustworthy,Untrustworthy","html-keyboard-response","8","389700","0.0-8.0","","818","","","<div class='header' style='text-align:left; position: absolute; top: 5%; left: 5%;'><small>Task 1 of 5</small></div><div class='instruxDiv'><p><strong>2) How many points can you win each round?</strong></p><p>a) 10 points</p><p style='color:#00FF00'>b) Double what you bet</p><p>c) Quadruple what you bet</p><h3 style='color:#00FF00'>Correct!</h3><h3 class='center-content'>The correct response is b).</h3><h3 class='center-content'>You can win double the amount of points you bet.</h3><p><em>Press SPACEBAR to continue</em></p></div>"," ","","","","","","","","","","",""
"","","","","63d842d3e9626bd5fe5c17b1","bdp_rwlrn","Fri Mar 10 2023 11:59:19 GMT-0800 (Pacific Standard Time)","675732","Trustworthy,Untrustworthy","html-keyboard-response","9","394820","0.0-9.0","","null","","","<div class='header' style='text-align:left; position: absolute; top: 5%; left: 5%;'><small>Task 1 of 5</small></div><div class='instruxDiv'><p>Thank you for completing the quiz<p>These are the actual lotteries you will be playing in the next block:<p><div class='tc' align='center'><img class='introPic' src='Fruit/lime.png'><br><strong>Limin' Large</strong></div><div class='bl' align='center'><img class='introPic' src='Fruit/plums1.png'><br><strong>Plum Powerball</strong></div><div class='br' align='center'><img class='introPic' src='Fruit/watermelon.png'><br><strong>Watermelon Win$</strong></div></div><p>Across <strong>66 rounds</strong> you will play each lottery <strong>22 times</strong> (in random order).<p style='align:center; color:white'><font <em>Press SPACEBAR to continue</em></p>","null","","","","","","","","","","",""
"","","","","63d842d3e9626bd5fe5c17b1","bdp_rwlrn","Fri Mar 10 2023 11:59:19 GMT-0800 (Pacific Standard Time)","675732","Trustworthy,Untrustworthy","instructions","10","403918","0.0-10.0","[{""page_index"":0,""viewing_time"":3319},{""page_index"":1,""viewing_time"":5779}]","9098","","","","","","","","","","","","","","",""
"","","","decision","63d842d3e9626bd5fe5c17b1","bdp_rwlrn","Fri Mar 10 2023 11:59:19 GMT-0800 (Pacific Standard Time)","675732","Trustworthy,Untrustworthy","html-keyboard-response","11","405617","0.0-11.0-1.0","","1585","","","<div class='trialDiv'><img src='Fruit/plums1.png'><br><font class='baseline'><strong>Plum Powerball</strong><p>Choose number of points to bet.</font><div class='respPicDiv'><img src='img/responseButtonOffersNo0L.png' class='respPic'></div></div>","4","1","Plum Powerball","Fruit/plums1.png","Lost","0.65,0.35","12","0.65","5","1","",""
"","","","decisionFB","63d842d3e9626bd5fe5c17b1","bdp_rwlrn","Fri Mar 10 2023 11:59:19 GMT-0800 (Pacific Standard Time)","675732","Trustworthy,Untrustworthy","html-keyboard-response","12","405880","0.0-11.0-2.0","","null","","","<div class='trialDiv'><img src='Fruit/plums1.png'><br><font class='baseline'><strong>Plum Powerball</strong><p>Choose number of points to bet.</font><div class='respPicDiv'><img src='img/responseButtonOffersNo0L4.png' class='respPic'></div></div>","null","1","Plum Powerball","Fruit/plums1.png","Lost","0.65,0.35","12","0.65","1","1","",""
"","","","feedback","63d842d3e9626bd5fe5c17b1","bdp_rwlrn","Fri Mar 10 2023 11:59:19 GMT-0800 (Pacific Standard Time)","675732","Trustworthy,Untrustworthy","html-keyboard-response","13","406882","0.0-11.0-3.0","","null","","","<div class='respPicDiv'><img src='img/responseButtonOffersNo0_wht.png' class='respPic'></div><div class='trialDiv'><img src='Fruit/plums1.png'><br><font class='baseline'><strong>Plum Powerball</strong><p><strong><font class='negOutcome'>You LOST</font><p>You bet: 4</strong></font> &nbsp; &nbsp; &nbsp; &nbsp; &nbsp; &nbsp;<font class='negOutcome'>You receive: <strong>0</strong></font></div>","null","1","Plum Powerball","Fruit/plums1.png","Lost","0.65,0.35","12","0.65","1","1","",""
"","","","decision","63d842d3e9626bd5fe5c17b1","bdp_rwlrn","Fri Mar 10 2023 11:59:19 GMT-0800 (Pacific Standard Time)","675732","Trustworthy,Untrustworthy","html-keyboard-response","14","408446","0.0-11.0-1.1","","1564","","","<div class='trialDiv'><img src='Fruit/lime.png'><br><font class='baseline'><strong>Limin' Large</strong><p>Choose number of points to bet.</font><div class='respPicDiv'><img src='img/responseButtonOffersNo0L.png' class='respPic'></div></div>","5","1","Limin' Large","Fruit/lime.png","Lost","0.35,0.8","8","0.35","6","2","",""
"","","","decisionFB","63d842d3e9626bd5fe5c17b1","bdp_rwlrn","Fri Mar 10 2023 11:59:19 GMT-0800 (Pacific Standard Time)","675732","Trustworthy,Untrustworthy","html-keyboard-response","15","408702","0.0-11.0-2.1","","null","","","<div class='trialDiv'><img src='Fruit/lime.png'><br><font class='baseline'><strong>Limin' Large</strong><p>Choose number of points to bet.</font><div class='respPicDiv'><img src='img/responseButtonOffersNo0L5.png' class='respPic'></div></div>","null","1","Limin' Large","Fruit/lime.png","Lost","0.35,0.8","8","0.35","1","2","",""
"","","","feedback","63d842d3e9626bd5fe5c17b1","bdp_rwlrn","Fri Mar 10 2023 11:59:19 GMT-0800 (Pacific Standard Time)","675732","Trustworthy,Untrustworthy","html-keyboard-response","16","409705","0.0-11.0-3.1","","null","","","<div class='respPicDiv'><img src='img/responseButtonOffersNo0_wht.png' class='respPic'></div><div class='trialDiv'><img src='Fruit/lime.png'><br><font class='baseline'><strong>Limin' Large</strong><p><strong><font class='negOutcome'>You LOST</font><p>You bet: 5</strong></font> &nbsp; &nbsp; &nbsp; &nbsp; &nbsp; &nbsp;<font class='negOutcome'>You receive: <strong>0</strong></font></div>","null","1","Limin' Large","Fruit/lime.png","Lost","0.35,0.8","8","0.35","1","2","",""
"","","","decision","63d842d3e9626bd5fe5c17b1","bdp_rwlrn","Fri Mar 10 2023 11:59:19 GMT-0800 (Pacific Standard Time)","675732","Trustworthy,Untrustworthy","html-keyboard-response","17","409952","0.0-11.0-1.2","","246","","","<div class='trialDiv'><img src='Fruit/watermelon.png'><br><font class='baseline'><strong>Watermelon Win$</strong><p>Choose number of points to bet.</font><div class='respPicDiv'><img src='img/responseButtonOffersNo0L.png' class='respPic'></div></div>","5","1","Watermelon Win$","Fruit/watermelon.png","Won","0.8,0.35","9","0.8","6","3","",""
"","","","decisionFB","63d842d3e9626bd5fe5c17b1","bdp_rwlrn","Fri Mar 10 2023 11:59:19 GMT-0800 (Pacific Standard Time)","675732","Trustworthy,Untrustworthy","html-keyboard-response","18","410214","0.0-11.0-2.2","","null","","","<div class='trialDiv'><img src='Fruit/watermelon.png'><br><font class='baseline'><strong>Watermelon Win$</strong><p>Choose number of points to bet.</font><div class='respPicDiv'><img src='img/responseButtonOffersNo0L5.png' class='respPic'></div></div>","null","1","Watermelon Win$","Fruit/watermelon.png","Won","0.8,0.35","9","0.8","1","3","",""
"","","","feedback","63d842d3e9626bd5fe5c17b1","bdp_rwlrn","Fri Mar 10 2023 11:59:19 GMT-0800 (Pacific Standard Time)","675732","Trustworthy,Untrustworthy","html-keyboard-response","19","411217","0.0-11.0-3.2","","null","","","<div class='respPicDiv'><img src='img/responseButtonOffersNo0_wht.png' class='respPic'></div><div class='trialDiv'><img src='Fruit/watermelon.png'><br><font class='baseline'><strong>Watermelon Win$</strong><p><strong><font class='posOutcome'>You WON</font><p>You bet: 5</strong></font> &nbsp; &nbsp; &nbsp; &nbsp; &nbsp; &nbsp;<font class='posOutcome'>you receive: <strong>10</strong></font></div>","null","1","Watermelon Win$","Fruit/watermelon.png","Won","0.8,0.35","9","0.8","11","3","",""
"","","","decision","63d842d3e9626bd5fe5c17b1","bdp_rwlrn","Fri Mar 10 2023 11:59:19 GMT-0800 (Pacific Standard Time)","675732","Trustworthy,Untrustworthy","html-keyboard-response","20","412328","0.0-11.0-1.3","","1111","","","<div class='trialDiv'><img src='Fruit/lime.png'><br><font class='baseline'><strong>Limin' Large</strong><p>Choose number of points to bet.</font><div class='respPicDiv'><img src='img/responseButtonOffersNo0L.png' class='respPic'></div></div>","5","2","Limin' Large","Fruit/lime.png","Won","0.35,0.8","8","0.35","16","4","",""
"","","","decisionFB","63d842d3e9626bd5fe5c17b1","bdp_rwlrn","Fri Mar 10 2023 11:59:19 GMT-0800 (Pacific Standard Time)","675732","Trustworthy,Untrustworthy","html-keyboard-response","21","412589","0.0-11.0-2.3","","null","","","<div class='trialDiv'><img src='Fruit/lime.png'><br><font class='baseline'><strong>Limin' Large</strong><p>Choose number of points to bet.</font><div class='respPicDiv'><img src='img/responseButtonOffersNo0L5.png' class='respPic'></div></div>","null","2","Limin' Large","Fruit/lime.png","Won","0.35,0.8","8","0.35","11","4","",""
"","","","feedback","63d842d3e9626bd5fe5c17b1","bdp_rwlrn","Fri Mar 10 2023 11:59:19 GMT-0800 (Pacific Standard Time)","675732","Trustworthy,Untrustworthy","html-keyboard-response","22","413593","0.0-11.0-3.3","","null","","","<div class='respPicDiv'><img src='img/responseButtonOffersNo0_wht.png' class='respPic'></div><div class='trialDiv'><img src='Fruit/lime.png'><br><font class='baseline'><strong>Limin' Large</strong><p><strong><font class='posOutcome'>You WON</font><p>You bet: 5</strong></font> &nbsp; &nbsp; &nbsp; &nbsp; &nbsp; &nbsp;<font class='posOutcome'>you receive: <strong>10</strong></font></div>","null","2","Limin' Large","Fruit/lime.png","Won","0.35,0.8","8","0.35","21","4","",""
"","","","decision","63d842d3e9626bd5fe5c17b1","bdp_rwlrn","Fri Mar 10 2023 11:59:19 GMT-0800 (Pacific Standard Time)","675732","Trustworthy,Untrustworthy","html-keyboard-response","23","413938","0.0-11.0-1.4","","344","","","<div class='trialDiv'><img src='Fruit/watermelon.png'><br><font class='baseline'><strong>Watermelon Win$</strong><p>Choose number of points to bet.</font><div class='respPicDiv'><img src='img/responseButtonOffersNo0L.png' class='respPic'></div></div>","5","2","Watermelon Win$","Fruit/watermelon.png","Won","0.8,0.35","9","0.8","26","5","",""
"","","","decisionFB","63d842d3e9626bd5fe5c17b1","bdp_rwlrn","Fri Mar 10 2023 11:59:19 GMT-0800 (Pacific Standard Time)","675732","Trustworthy,Untrustworthy","html-keyboard-response","24","414195","0.0-11.0-2.4","","null","","","<div class='trialDiv'><img src='Fruit/watermelon.png'><br><font class='baseline'><strong>Watermelon Win$</strong><p>Choose number of points to bet.</font><div class='respPicDiv'><img src='img/responseButtonOffersNo0L5.png' class='respPic'></div></div>","null","2","Watermelon Win$","Fruit/watermelon.png","Won","0.8,0.35","9","0.8","21","5","",""
"","","","feedback","63d842d3e9626bd5fe5c17b1","bdp_rwlrn","Fri Mar 10 2023 11:59:19 GMT-0800 (Pacific Standard Time)","675732","Trustworthy,Untrustworthy","html-keyboard-response","25","415200","0.0-11.0-3.4","","null","","","<div class='respPicDiv'><img src='img/responseButtonOffersNo0_wht.png' class='respPic'></div><div class='trialDiv'><img src='Fruit/watermelon.png'><br><font class='baseline'><strong>Watermelon Win$</strong><p><strong><font class='posOutcome'>You WON</font><p>You bet: 5</strong></font> &nbsp; &nbsp; &nbsp; &nbsp; &nbsp; &nbsp;<font class='posOutcome'>you receive: <strong>10</strong></font></div>","null","2","Watermelon Win$","Fruit/watermelon.png","Won","0.8,0.35","9","0.8","31","5","",""
"","","","decision","63d842d3e9626bd5fe5c17b1","bdp_rwlrn","Fri Mar 10 2023 11:59:19 GMT-0800 (Pacific Standard Time)","675732","Trustworthy,Untrustworthy","html-keyboard-response","26","415672","0.0-11.0-1.5","","472","","","<div class='trialDiv'><img src='Fruit/plums1.png'><br><font class='baseline'><strong>Plum Powerball</strong><p>Choose number of points to bet.</font><div class='respPicDiv'><img src='img/responseButtonOffersNo0L.png' class='respPic'></div></div>","5","2","Plum Powerball","Fruit/plums1.png","Lost","0.65,0.35","12","0.65","36","6","",""
"","","","decisionFB","63d842d3e9626bd5fe5c17b1","bdp_rwlrn","Fri Mar 10 2023 11:59:19 GMT-0800 (Pacific Standard Time)","675732","Trustworthy,Untrustworthy","html-keyboard-response","27","415926","0.0-11.0-2.5","","null","","","<div class='trialDiv'><img src='Fruit/plums1.png'><br><font class='baseline'><strong>Plum Powerball</strong><p>Choose number of points to bet.</font><div class='respPicDiv'><img src='img/responseButtonOffersNo0L5.png' class='respPic'></div></div>","null","2","Plum Powerball","Fruit/plums1.png","Lost","0.65,0.35","12","0.65","31","6","",""
"","","","feedback","63d842d3e9626bd5fe5c17b1","bdp_rwlrn","Fri Mar 10 2023 11:59:19 GMT-0800 (Pacific Standard Time)","675732","Trustworthy,Untrustworthy","html-keyboard-response","28","416932","0.0-11.0-3.5","","null","","","<div class='respPicDiv'><img src='img/responseButtonOffersNo0_wht.png' class='respPic'></div><div class='trialDiv'><img src='Fruit/plums1.png'><br><font class='baseline'><strong>Plum Powerball</strong><p><strong><font class='negOutcome'>You LOST</font><p>You bet: 5</strong></font> &nbsp; &nbsp; &nbsp; &nbsp; &nbsp; &nbsp;<font class='negOutcome'>You receive: <strong>0</strong></font></div>","null","2","Plum Powerball","Fruit/plums1.png","Lost","0.65,0.35","12","0.65","31","6","",""
"","","","decision","63d842d3e9626bd5fe5c17b1","bdp_rwlrn","Fri Mar 10 2023 11:59:19 GMT-0800 (Pacific Standard Time)","675732","Trustworthy,Untrustworthy","html-keyboard-response","29","417921","0.0-11.0-1.6","","987","","","<div class='trialDiv'><img src='Fruit/watermelon.png'><br><font class='baseline'><strong>Watermelon Win$</strong><p>Choose number of points to bet.</font><div class='respPicDiv'><img src='img/responseButtonOffersNo0L.png' class='respPic'></div></div>","5","3","Watermelon Win$","Fruit/watermelon.png","Won","0.8,0.35","9","0.8","36","7","",""
"","","","decisionFB","63d842d3e9626bd5fe5c17b1","bdp_rwlrn","Fri Mar 10 2023 11:59:19 GMT-0800 (Pacific Standard Time)","675732","Trustworthy,Untrustworthy","html-keyboard-response","30","418185","0.0-11.0-2.6","","null","","","<div class='trialDiv'><img src='Fruit/watermelon.png'><br><font class='baseline'><strong>Watermelon Win$</strong><p>Choose number of points to bet.</font><div class='respPicDiv'><img src='img/responseButtonOffersNo0L5.png' class='respPic'></div></div>","null","3","Watermelon Win$","Fruit/watermelon.png","Won","0.8,0.35","9","0.8","31","7","",""
"","","","feedback","63d842d3e9626bd5fe5c17b1","bdp_rwlrn","Fri Mar 10 2023 11:59:19 GMT-0800 (Pacific Standard Time)","675732","Trustworthy,Untrustworthy","html-keyboard-response","31","419190","0.0-11.0-3.6","","null","","","<div class='respPicDiv'><img src='img/responseButtonOffersNo0_wht.png' class='respPic'></div><div class='trialDiv'><img src='Fruit/watermelon.png'><br><font class='baseline'><strong>Watermelon Win$</strong><p><strong><font class='posOutcome'>You WON</font><p>You bet: 5</strong></font> &nbsp; &nbsp; &nbsp; &nbsp; &nbsp; &nbsp;<font class='posOutcome'>you receive: <strong>10</strong></font></div>","null","3","Watermelon Win$","Fruit/watermelon.png","Won","0.8,0.35","9","0.8","41","7","",""
"","","","decision","63d842d3e9626bd5fe5c17b1","bdp_rwlrn","Fri Mar 10 2023 11:59:19 GMT-0800 (Pacific Standard Time)","675732","Trustworthy,Untrustworthy","html-keyboard-response","32","419644","0.0-11.0-1.7","","453","","","<div class='trialDiv'><img src='Fruit/plums1.png'><br><font class='baseline'><strong>Plum Powerball</strong><p>Choose number of points to bet.</font><div class='respPicDiv'><img src='img/responseButtonOffersNo0L.png' class='respPic'></div></div>","1","3","Plum Powerball","Fruit/plums1.png","Won","0.65,0.35","12","0.65","46","8","",""
"","","","decisionFB","63d842d3e9626bd5fe5c17b1","bdp_rwlrn","Fri Mar 10 2023 11:59:19 GMT-0800 (Pacific Standard Time)","675732","Trustworthy,Untrustworthy","html-keyboard-response","33","419900","0.0-11.0-2.7","","null","","","<div class='trialDiv'><img src='Fruit/plums1.png'><br><font class='baseline'><strong>Plum Powerball</strong><p>Choose number of points to bet.</font><div class='respPicDiv'><img src='img/responseButtonOffersNo0L1.png' class='respPic'></div></div>","null","3","Plum Powerball","Fruit/plums1.png","Won","0.65,0.35","12","0.65","45","8","",""
"","","","feedback","63d842d3e9626bd5fe5c17b1","bdp_rwlrn","Fri Mar 10 2023 11:59:19 GMT-0800 (Pacific Standard Time)","675732","Trustworthy,Untrustworthy","html-keyboard-response","34","420902","0.0-11.0-3.7","","null","","","<div class='respPicDiv'><img src='img/responseButtonOffersNo0_wht.png' class='respPic'></div><div class='trialDiv'><img src='Fruit/plums1.png'><br><font class='baseline'><strong>Plum Powerball</strong><p><strong><font class='posOutcome'>You WON</font><p>You bet: 1</strong></font> &nbsp; &nbsp; &nbsp; &nbsp; &nbsp; &nbsp;<font class='posOutcome'>you receive: <strong>2</strong></font></div>","null","3","Plum Powerball","Fruit/plums1.png","Won","0.65,0.35","12","0.65","47","8","",""
"","","","decision","63d842d3e9626bd5fe5c17b1","bdp_rwlrn","Fri Mar 10 2023 11:59:19 GMT-0800 (Pacific Standard Time)","675732","Trustworthy,Untrustworthy","html-keyboard-response","35","421013","0.0-11.0-1.8","","111","","","<div class='trialDiv'><img src='Fruit/lime.png'><br><font class='baseline'><strong>Limin' Large</strong><p>Choose number of points to bet.</font><div class='respPicDiv'><img src='img/responseButtonOffersNo0L.png' class='respPic'></div></div>","5","3","Limin' Large","Fruit/lime.png","Won","0.35,0.8","8","0.35","52","9","",""
"","","","decisionFB","63d842d3e9626bd5fe5c17b1","bdp_rwlrn","Fri Mar 10 2023 11:59:19 GMT-0800 (Pacific Standard Time)","675732","Trustworthy,Untrustworthy","html-keyboard-response","36","421273","0.0-11.0-2.8","","null","","","<div class='trialDiv'><img src='Fruit/lime.png'><br><font class='baseline'><strong>Limin' Large</strong><p>Choose number of points to bet.</font><div class='respPicDiv'><img src='img/responseButtonOffersNo0L5.png' class='respPic'></div></div>","null","3","Limin' Large","Fruit/lime.png","Won","0.35,0.8","8","0.35","47","9","",""
"","","","feedback","63d842d3e9626bd5fe5c17b1","bdp_rwlrn","Fri Mar 10 2023 11:59:19 GMT-0800 (Pacific Standard Time)","675732","Trustworthy,Untrustworthy","html-keyboard-response","37","422275","0.0-11.0-3.8","","null","","","<div class='respPicDiv'><img src='img/responseButtonOffersNo0_wht.png' class='respPic'></div><div class='trialDiv'><img src='Fruit/lime.png'><br><font class='baseline'><strong>Limin' Large</strong><p><strong><font class='posOutcome'>You WON</font><p>You bet: 5</strong></font> &nbsp; &nbsp; &nbsp; &nbsp; &nbsp; &nbsp;<font class='posOutcome'>you receive: <strong>10</strong></font></div>","null","3","Limin' Large","Fruit/lime.png","Won","0.35,0.8","8","0.35","57","9","",""
"","","","decision","63d842d3e9626bd5fe5c17b1","bdp_rwlrn","Fri Mar 10 2023 11:59:19 GMT-0800 (Pacific Standard Time)","675732","Trustworthy,Untrustworthy","html-keyboard-response","38","422463","0.0-11.0-1.9","","188","","","<div class='trialDiv'><img src='Fruit/plums1.png'><br><font class='baseline'><strong>Plum Powerball</strong><p>Choose number of points to bet.</font><div class='respPicDiv'><img src='img/responseButtonOffersNo0L.png' class='respPic'></div></div>","5","4","Plum Powerball","Fruit/plums1.png","Won","0.65,0.35","12","0.65","62","10","",""
"","","","decisionFB","63d842d3e9626bd5fe5c17b1","bdp_rwlrn","Fri Mar 10 2023 11:59:19 GMT-0800 (Pacific Standard Time)","675732","Trustworthy,Untrustworthy","html-keyboard-response","39","422721","0.0-11.0-2.9","","null","","","<div class='trialDiv'><img src='Fruit/plums1.png'><br><font class='baseline'><strong>Plum Powerball</strong><p>Choose number of points to bet.</font><div class='respPicDiv'><img src='img/responseButtonOffersNo0L5.png' class='respPic'></div></div>","null","4","Plum Powerball","Fruit/plums1.png","Won","0.65,0.35","12","0.65","57","10","",""
"","","","feedback","63d842d3e9626bd5fe5c17b1","bdp_rwlrn","Fri Mar 10 2023 11:59:19 GMT-0800 (Pacific Standard Time)","675732","Trustworthy,Untrustworthy","html-keyboard-response","40","423722","0.0-11.0-3.9","","null","","","<div class='respPicDiv'><img src='img/responseButtonOffersNo0_wht.png' class='respPic'></div><div class='trialDiv'><img src='Fruit/plums1.png'><br><font class='baseline'><strong>Plum Powerball</strong><p><strong><font class='posOutcome'>You WON</font><p>You bet: 5</strong></font> &nbsp; &nbsp; &nbsp; &nbsp; &nbsp; &nbsp;<font class='posOutcome'>you receive: <strong>10</strong></font></div>","null","4","Plum Powerball","Fruit/plums1.png","Won","0.65,0.35","12","0.65","67","10","",""
"","","","decision","63d842d3e9626bd5fe5c17b1","bdp_rwlrn","Fri Mar 10 2023 11:59:19 GMT-0800 (Pacific Standard Time)","675732","Trustworthy,Untrustworthy","html-keyboard-response","41","423811","0.0-11.0-1.10","","89","","","<div class='trialDiv'><img src='Fruit/watermelon.png'><br><font class='baseline'><strong>Watermelon Win$</strong><p>Choose number of points to bet.</font><div class='respPicDiv'><img src='img/responseButtonOffersNo0L.png' class='respPic'></div></div>","5","4","Watermelon Win$","Fruit/watermelon.png","Won","0.8,0.35","9","0.8","72","11","",""
"","","","decisionFB","63d842d3e9626bd5fe5c17b1","bdp_rwlrn","Fri Mar 10 2023 11:59:19 GMT-0800 (Pacific Standard Time)","675732","Trustworthy,Untrustworthy","html-keyboard-response","42","424061","0.0-11.0-2.10","","null","","","<div class='trialDiv'><img src='Fruit/watermelon.png'><br><font class='baseline'><strong>Watermelon Win$</strong><p>Choose number of points to bet.</font><div class='respPicDiv'><img src='img/responseButtonOffersNo0L5.png' class='respPic'></div></div>","null","4","Watermelon Win$","Fruit/watermelon.png","Won","0.8,0.35","9","0.8","67","11","",""
"","","","feedback","63d842d3e9626bd5fe5c17b1","bdp_rwlrn","Fri Mar 10 2023 11:59:19 GMT-0800 (Pacific Standard Time)","675732","Trustworthy,Untrustworthy","html-keyboard-response","43","425064","0.0-11.0-3.10","","null","","","<div class='respPicDiv'><img src='img/responseButtonOffersNo0_wht.png' class='respPic'></div><div class='trialDiv'><img src='Fruit/watermelon.png'><br><font class='baseline'><strong>Watermelon Win$</strong><p><strong><font class='posOutcome'>You WON</font><p>You bet: 5</strong></font> &nbsp; &nbsp; &nbsp; &nbsp; &nbsp; &nbsp;<font class='posOutcome'>you receive: <strong>10</strong></font></div>","null","4","Watermelon Win$","Fruit/watermelon.png","Won","0.8,0.35","9","0.8","77","11","",""
"","","","decision","63d842d3e9626bd5fe5c17b1","bdp_rwlrn","Fri Mar 10 2023 11:59:19 GMT-0800 (Pacific Standard Time)","675732","Trustworthy,Untrustworthy","html-keyboard-response","44","425441","0.0-11.0-1.11","","375","","","<div class='trialDiv'><img src='Fruit/lime.png'><br><font class='baseline'><strong>Limin' Large</strong><p>Choose number of points to bet.</font><div class='respPicDiv'><img src='img/responseButtonOffersNo0L.png' class='respPic'></div></div>","5","4","Limin' Large","Fruit/lime.png","Lost","0.35,0.8","8","0.35","82","12","",""
"","","","decisionFB","63d842d3e9626bd5fe5c17b1","bdp_rwlrn","Fri Mar 10 2023 11:59:19 GMT-0800 (Pacific Standard Time)","675732","Trustworthy,Untrustworthy","html-keyboard-response","45","425699","0.0-11.0-2.11","","null","","","<div class='trialDiv'><img src='Fruit/lime.png'><br><font class='baseline'><strong>Limin' Large</strong><p>Choose number of points to bet.</font><div class='respPicDiv'><img src='img/responseButtonOffersNo0L5.png' class='respPic'></div></div>","null","4","Limin' Large","Fruit/lime.png","Lost","0.35,0.8","8","0.35","77","12","",""
"","","","feedback","63d842d3e9626bd5fe5c17b1","bdp_rwlrn","Fri Mar 10 2023 11:59:19 GMT-0800 (Pacific Standard Time)","675732","Trustworthy,Untrustworthy","html-keyboard-response","46","426701","0.0-11.0-3.11","","null","","","<div class='respPicDiv'><img src='img/responseButtonOffersNo0_wht.png' class='respPic'></div><div class='trialDiv'><img src='Fruit/lime.png'><br><font class='baseline'><strong>Limin' Large</strong><p><strong><font class='negOutcome'>You LOST</font><p>You bet: 5</strong></font> &nbsp; &nbsp; &nbsp; &nbsp; &nbsp; &nbsp;<font class='negOutcome'>You receive: <strong>0</strong></font></div>","null","4","Limin' Large","Fruit/lime.png","Lost","0.35,0.8","8","0.35","77","12","",""
"","","","decision","63d842d3e9626bd5fe5c17b1","bdp_rwlrn","Fri Mar 10 2023 11:59:19 GMT-0800 (Pacific Standard Time)","675732","Trustworthy,Untrustworthy","html-keyboard-response","47","427277","0.0-11.0-1.12","","575","","","<div class='trialDiv'><img src='Fruit/watermelon.png'><br><font class='baseline'><strong>Watermelon Win$</strong><p>Choose number of points to bet.</font><div class='respPicDiv'><img src='img/responseButtonOffersNo0L.png' class='respPic'></div></div>","5","5","Watermelon Win$","Fruit/watermelon.png","Won","0.8,0.35","9","0.8","82","13","",""
"","","","decisionFB","63d842d3e9626bd5fe5c17b1","bdp_rwlrn","Fri Mar 10 2023 11:59:19 GMT-0800 (Pacific Standard Time)","675732","Trustworthy,Untrustworthy","html-keyboard-response","48","427535","0.0-11.0-2.12","","null","","","<div class='trialDiv'><img src='Fruit/watermelon.png'><br><font class='baseline'><strong>Watermelon Win$</strong><p>Choose number of points to bet.</font><div class='respPicDiv'><img src='img/responseButtonOffersNo0L5.png' class='respPic'></div></div>","null","5","Watermelon Win$","Fruit/watermelon.png","Won","0.8,0.35","9","0.8","77","13","",""
"","","","feedback","63d842d3e9626bd5fe5c17b1","bdp_rwlrn","Fri Mar 10 2023 11:59:19 GMT-0800 (Pacific Standard Time)","675732","Trustworthy,Untrustworthy","html-keyboard-response","49","428536","0.0-11.0-3.12","","null","","","<div class='respPicDiv'><img src='img/responseButtonOffersNo0_wht.png' class='respPic'></div><div class='trialDiv'><img src='Fruit/watermelon.png'><br><font class='baseline'><strong>Watermelon Win$</strong><p><strong><font class='posOutcome'>You WON</font><p>You bet: 5</strong></font> &nbsp; &nbsp; &nbsp; &nbsp; &nbsp; &nbsp;<font class='posOutcome'>you receive: <strong>10</strong></font></div>","null","5","Watermelon Win$","Fruit/watermelon.png","Won","0.8,0.35","9","0.8","87","13","",""
"","","","decision","63d842d3e9626bd5fe5c17b1","bdp_rwlrn","Fri Mar 10 2023 11:59:19 GMT-0800 (Pacific Standard Time)","675732","Trustworthy,Untrustworthy","html-keyboard-response","50","428555","0.0-11.0-1.13","","19","","","<div class='trialDiv'><img src='Fruit/lime.png'><br><font class='baseline'><strong>Limin' Large</strong><p>Choose number of points to bet.</font><div class='respPicDiv'><img src='img/responseButtonOffersNo0L.png' class='respPic'></div></div>","5","5","Limin' Large","Fruit/lime.png","Lost","0.35,0.8","8","0.35","92","14","",""
"","","","decisionFB","63d842d3e9626bd5fe5c17b1","bdp_rwlrn","Fri Mar 10 2023 11:59:19 GMT-0800 (Pacific Standard Time)","675732","Trustworthy,Untrustworthy","html-keyboard-response","51","428814","0.0-11.0-2.13","","null","","","<div class='trialDiv'><img src='Fruit/lime.png'><br><font class='baseline'><strong>Limin' Large</strong><p>Choose number of points to bet.</font><div class='respPicDiv'><img src='img/responseButtonOffersNo0L5.png' class='respPic'></div></div>","null","5","Limin' Large","Fruit/lime.png","Lost","0.35,0.8","8","0.35","87","14","",""
"","","","feedback","63d842d3e9626bd5fe5c17b1","bdp_rwlrn","Fri Mar 10 2023 11:59:19 GMT-0800 (Pacific Standard Time)","675732","Trustworthy,Untrustworthy","html-keyboard-response","52","429817","0.0-11.0-3.13","","null","","","<div class='respPicDiv'><img src='img/responseButtonOffersNo0_wht.png' class='respPic'></div><div class='trialDiv'><img src='Fruit/lime.png'><br><font class='baseline'><strong>Limin' Large</strong><p><strong><font class='negOutcome'>You LOST</font><p>You bet: 5</strong></font> &nbsp; &nbsp; &nbsp; &nbsp; &nbsp; &nbsp;<font class='negOutcome'>You receive: <strong>0</strong></font></div>","null","5","Limin' Large","Fruit/lime.png","Lost","0.35,0.8","8","0.35","87","14","",""
"","","","decision","63d842d3e9626bd5fe5c17b1","bdp_rwlrn","Fri Mar 10 2023 11:59:19 GMT-0800 (Pacific Standard Time)","675732","Trustworthy,Untrustworthy","html-keyboard-response","53","429849","0.0-11.0-1.14","","31","","","<div class='trialDiv'><img src='Fruit/plums1.png'><br><font class='baseline'><strong>Plum Powerball</strong><p>Choose number of points to bet.</font><div class='respPicDiv'><img src='img/responseButtonOffersNo0L.png' class='respPic'></div></div>","5","5","Plum Powerball","Fruit/plums1.png","Lost","0.65,0.35","12","0.65","92","15","",""
"","","","decisionFB","63d842d3e9626bd5fe5c17b1","bdp_rwlrn","Fri Mar 10 2023 11:59:19 GMT-0800 (Pacific Standard Time)","675732","Trustworthy,Untrustworthy","html-keyboard-response","54","430111","0.0-11.0-2.14","","null","","","<div class='trialDiv'><img src='Fruit/plums1.png'><br><font class='baseline'><strong>Plum Powerball</strong><p>Choose number of points to bet.</font><div class='respPicDiv'><img src='img/responseButtonOffersNo0L5.png' class='respPic'></div></div>","null","5","Plum Powerball","Fruit/plums1.png","Lost","0.65,0.35","12","0.65","87","15","",""
"","","","feedback","63d842d3e9626bd5fe5c17b1","bdp_rwlrn","Fri Mar 10 2023 11:59:19 GMT-0800 (Pacific Standard Time)","675732","Trustworthy,Untrustworthy","html-keyboard-response","55","431112","0.0-11.0-3.14","","null","","","<div class='respPicDiv'><img src='img/responseButtonOffersNo0_wht.png' class='respPic'></div><div class='trialDiv'><img src='Fruit/plums1.png'><br><font class='baseline'><strong>Plum Powerball</strong><p><strong><font class='negOutcome'>You LOST</font><p>You bet: 5</strong></font> &nbsp; &nbsp; &nbsp; &nbsp; &nbsp; &nbsp;<font class='negOutcome'>You receive: <strong>0</strong></font></div>","null","5","Plum Powerball","Fruit/plums1.png","Lost","0.65,0.35","12","0.65","87","15","",""
"","","","decision","63d842d3e9626bd5fe5c17b1","bdp_rwlrn","Fri Mar 10 2023 11:59:19 GMT-0800 (Pacific Standard Time)","675732","Trustworthy,Untrustworthy","html-keyboard-response","56","431225","0.0-11.0-1.15","","113","","","<div class='trialDiv'><img src='Fruit/lime.png'><br><font class='baseline'><strong>Limin' Large</strong><p>Choose number of points to bet.</font><div class='respPicDiv'><img src='img/responseButtonOffersNo0L.png' class='respPic'></div></div>","5","6","Limin' Large","Fruit/lime.png","Lost","0.35,0.8","8","0.35","92","16","",""
"","","","decisionFB","63d842d3e9626bd5fe5c17b1","bdp_rwlrn","Fri Mar 10 2023 11:59:19 GMT-0800 (Pacific Standard Time)","675732","Trustworthy,Untrustworthy","html-keyboard-response","57","431482","0.0-11.0-2.15","","null","","","<div class='trialDiv'><img src='Fruit/lime.png'><br><font class='baseline'><strong>Limin' Large</strong><p>Choose number of points to bet.</font><div class='respPicDiv'><img src='img/responseButtonOffersNo0L5.png' class='respPic'></div></div>","null","6","Limin' Large","Fruit/lime.png","Lost","0.35,0.8","8","0.35","87","16","",""
"","","","feedback","63d842d3e9626bd5fe5c17b1","bdp_rwlrn","Fri Mar 10 2023 11:59:19 GMT-0800 (Pacific Standard Time)","675732","Trustworthy,Untrustworthy","html-keyboard-response","58","432485","0.0-11.0-3.15","","null","","","<div class='respPicDiv'><img src='img/responseButtonOffersNo0_wht.png' class='respPic'></div><div class='trialDiv'><img src='Fruit/lime.png'><br><font class='baseline'><strong>Limin' Large</strong><p><strong><font class='negOutcome'>You LOST</font><p>You bet: 5</strong></font> &nbsp; &nbsp; &nbsp; &nbsp; &nbsp; &nbsp;<font class='negOutcome'>You receive: <strong>0</strong></font></div>","null","6","Limin' Large","Fruit/lime.png","Lost","0.35,0.8","8","0.35","87","16","",""
"","","","decision","63d842d3e9626bd5fe5c17b1","bdp_rwlrn","Fri Mar 10 2023 11:59:19 GMT-0800 (Pacific Standard Time)","675732","Trustworthy,Untrustworthy","html-keyboard-response","59","432485","0.0-11.0-1.16","","0","","","<div class='trialDiv'><img src='Fruit/watermelon.png'><br><font class='baseline'><strong>Watermelon Win$</strong><p>Choose number of points to bet.</font><div class='respPicDiv'><img src='img/responseButtonOffersNo0L.png' class='respPic'></div></div>","5","6","Watermelon Win$","Fruit/watermelon.png","Won","0.8,0.35","9","0.8","92","17","",""
"","","","decisionFB","63d842d3e9626bd5fe5c17b1","bdp_rwlrn","Fri Mar 10 2023 11:59:19 GMT-0800 (Pacific Standard Time)","675732","Trustworthy,Untrustworthy","html-keyboard-response","60","432746","0.0-11.0-2.16","","null","","","<div class='trialDiv'><img src='Fruit/watermelon.png'><br><font class='baseline'><strong>Watermelon Win$</strong><p>Choose number of points to bet.</font><div class='respPicDiv'><img src='img/responseButtonOffersNo0L5.png' class='respPic'></div></div>","null","6","Watermelon Win$","Fruit/watermelon.png","Won","0.8,0.35","9","0.8","87","17","",""
"","","","feedback","63d842d3e9626bd5fe5c17b1","bdp_rwlrn","Fri Mar 10 2023 11:59:19 GMT-0800 (Pacific Standard Time)","675732","Trustworthy,Untrustworthy","html-keyboard-response","61","433748","0.0-11.0-3.16","","null","","","<div class='respPicDiv'><img src='img/responseButtonOffersNo0_wht.png' class='respPic'></div><div class='trialDiv'><img src='Fruit/watermelon.png'><br><font class='baseline'><strong>Watermelon Win$</strong><p><strong><font class='posOutcome'>You WON</font><p>You bet: 5</strong></font> &nbsp; &nbsp; &nbsp; &nbsp; &nbsp; &nbsp;<font class='posOutcome'>you receive: <strong>10</strong></font></div>","null","6","Watermelon Win$","Fruit/watermelon.png","Won","0.8,0.35","9","0.8","97","17","",""
"","","","decision","63d842d3e9626bd5fe5c17b1","bdp_rwlrn","Fri Mar 10 2023 11:59:19 GMT-0800 (Pacific Standard Time)","675732","Trustworthy,Untrustworthy","html-keyboard-response","62","433766","0.0-11.0-1.17","","17","","","<div class='trialDiv'><img src='Fruit/plums1.png'><br><font class='baseline'><strong>Plum Powerball</strong><p>Choose number of points to bet.</font><div class='respPicDiv'><img src='img/responseButtonOffersNo0L.png' class='respPic'></div></div>","5","6","Plum Powerball","Fruit/plums1.png","Lost","0.65,0.35","12","0.65","102","18","",""
"","","","decisionFB","63d842d3e9626bd5fe5c17b1","bdp_rwlrn","Fri Mar 10 2023 11:59:19 GMT-0800 (Pacific Standard Time)","675732","Trustworthy,Untrustworthy","html-keyboard-response","63","434027","0.0-11.0-2.17","","null","","","<div class='trialDiv'><img src='Fruit/plums1.png'><br><font class='baseline'><strong>Plum Powerball</strong><p>Choose number of points to bet.</font><div class='respPicDiv'><img src='img/responseButtonOffersNo0L5.png' class='respPic'></div></div>","null","6","Plum Powerball","Fruit/plums1.png","Lost","0.65,0.35","12","0.65","97","18","",""
"","","","feedback","63d842d3e9626bd5fe5c17b1","bdp_rwlrn","Fri Mar 10 2023 11:59:19 GMT-0800 (Pacific Standard Time)","675732","Trustworthy,Untrustworthy","html-keyboard-response","64","435033","0.0-11.0-3.17","","null","","","<div class='respPicDiv'><img src='img/responseButtonOffersNo0_wht.png' class='respPic'></div><div class='trialDiv'><img src='Fruit/plums1.png'><br><font class='baseline'><strong>Plum Powerball</strong><p><strong><font class='negOutcome'>You LOST</font><p>You bet: 5</strong></font> &nbsp; &nbsp; &nbsp; &nbsp; &nbsp; &nbsp;<font class='negOutcome'>You receive: <strong>0</strong></font></div>","null","6","Plum Powerball","Fruit/plums1.png","Lost","0.65,0.35","12","0.65","97","18","",""
"","","","decision","63d842d3e9626bd5fe5c17b1","bdp_rwlrn","Fri Mar 10 2023 11:59:19 GMT-0800 (Pacific Standard Time)","675732","Trustworthy,Untrustworthy","html-keyboard-response","65","435143","0.0-11.0-1.18","","110","","","<div class='trialDiv'><img src='Fruit/watermelon.png'><br><font class='baseline'><strong>Watermelon Win$</strong><p>Choose number of points to bet.</font><div class='respPicDiv'><img src='img/responseButtonOffersNo0L.png' class='respPic'></div></div>","5","7","Watermelon Win$","Fruit/watermelon.png","Won","0.8,0.35","9","0.8","102","19","",""
"","","","decisionFB","63d842d3e9626bd5fe5c17b1","bdp_rwlrn","Fri Mar 10 2023 11:59:19 GMT-0800 (Pacific Standard Time)","675732","Trustworthy,Untrustworthy","html-keyboard-response","66","435403","0.0-11.0-2.18","","null","","","<div class='trialDiv'><img src='Fruit/watermelon.png'><br><font class='baseline'><strong>Watermelon Win$</strong><p>Choose number of points to bet.</font><div class='respPicDiv'><img src='img/responseButtonOffersNo0L5.png' class='respPic'></div></div>","null","7","Watermelon Win$","Fruit/watermelon.png","Won","0.8,0.35","9","0.8","97","19","",""
"","","","feedback","63d842d3e9626bd5fe5c17b1","bdp_rwlrn","Fri Mar 10 2023 11:59:19 GMT-0800 (Pacific Standard Time)","675732","Trustworthy,Untrustworthy","html-keyboard-response","67","436411","0.0-11.0-3.18","","null","","","<div class='respPicDiv'><img src='img/responseButtonOffersNo0_wht.png' class='respPic'></div><div class='trialDiv'><img src='Fruit/watermelon.png'><br><font class='baseline'><strong>Watermelon Win$</strong><p><strong><font class='posOutcome'>You WON</font><p>You bet: 5</strong></font> &nbsp; &nbsp; &nbsp; &nbsp; &nbsp; &nbsp;<font class='posOutcome'>you receive: <strong>10</strong></font></div>","null","7","Watermelon Win$","Fruit/watermelon.png","Won","0.8,0.35","9","0.8","107","19","",""
"","","","decision","63d842d3e9626bd5fe5c17b1","bdp_rwlrn","Fri Mar 10 2023 11:59:19 GMT-0800 (Pacific Standard Time)","675732","Trustworthy,Untrustworthy","html-keyboard-response","68","436413","0.0-11.0-1.19","","2","","","<div class='trialDiv'><img src='Fruit/plums1.png'><br><font class='baseline'><strong>Plum Powerball</strong><p>Choose number of points to bet.</font><div class='respPicDiv'><img src='img/responseButtonOffersNo0L.png' class='respPic'></div></div>","5","7","Plum Powerball","Fruit/plums1.png","Won","0.65,0.35","12","0.65","112","20","",""
"","","","decisionFB","63d842d3e9626bd5fe5c17b1","bdp_rwlrn","Fri Mar 10 2023 11:59:19 GMT-0800 (Pacific Standard Time)","675732","Trustworthy,Untrustworthy","html-keyboard-response","69","436675","0.0-11.0-2.19","","null","","","<div class='trialDiv'><img src='Fruit/plums1.png'><br><font class='baseline'><strong>Plum Powerball</strong><p>Choose number of points to bet.</font><div class='respPicDiv'><img src='img/responseButtonOffersNo0L5.png' class='respPic'></div></div>","null","7","Plum Powerball","Fruit/plums1.png","Won","0.65,0.35","12","0.65","107","20","",""
"","","","feedback","63d842d3e9626bd5fe5c17b1","bdp_rwlrn","Fri Mar 10 2023 11:59:19 GMT-0800 (Pacific Standard Time)","675732","Trustworthy,Untrustworthy","html-keyboard-response","70","437678","0.0-11.0-3.19","","null","","","<div class='respPicDiv'><img src='img/responseButtonOffersNo0_wht.png' class='respPic'></div><div class='trialDiv'><img src='Fruit/plums1.png'><br><font class='baseline'><strong>Plum Powerball</strong><p><strong><font class='posOutcome'>You WON</font><p>You bet: 5</strong></font> &nbsp; &nbsp; &nbsp; &nbsp; &nbsp; &nbsp;<font class='posOutcome'>you receive: <strong>10</strong></font></div>","null","7","Plum Powerball","Fruit/plums1.png","Won","0.65,0.35","12","0.65","117","20","",""
"","","","decision","63d842d3e9626bd5fe5c17b1","bdp_rwlrn","Fri Mar 10 2023 11:59:19 GMT-0800 (Pacific Standard Time)","675732","Trustworthy,Untrustworthy","html-keyboard-response","71","438201","0.0-11.0-1.20","","523","","","<div class='trialDiv'><img src='Fruit/lime.png'><br><font class='baseline'><strong>Limin' Large</strong><p>Choose number of points to bet.</font><div class='respPicDiv'><img src='img/responseButtonOffersNo0L.png' class='respPic'></div></div>","5","7","Limin' Large","Fruit/lime.png","Won","0.35,0.8","8","0.35","122","21","",""
"","","","decisionFB","63d842d3e9626bd5fe5c17b1","bdp_rwlrn","Fri Mar 10 2023 11:59:19 GMT-0800 (Pacific Standard Time)","675732","Trustworthy,Untrustworthy","html-keyboard-response","72","438466","0.0-11.0-2.20","","null","","","<div class='trialDiv'><img src='Fruit/lime.png'><br><font class='baseline'><strong>Limin' Large</strong><p>Choose number of points to bet.</font><div class='respPicDiv'><img src='img/responseButtonOffersNo0L5.png' class='respPic'></div></div>","null","7","Limin' Large","Fruit/lime.png","Won","0.35,0.8","8","0.35","117","21","",""
"","","","feedback","63d842d3e9626bd5fe5c17b1","bdp_rwlrn","Fri Mar 10 2023 11:59:19 GMT-0800 (Pacific Standard Time)","675732","Trustworthy,Untrustworthy","html-keyboard-response","73","439470","0.0-11.0-3.20","","null","","","<div class='respPicDiv'><img src='img/responseButtonOffersNo0_wht.png' class='respPic'></div><div class='trialDiv'><img src='Fruit/lime.png'><br><font class='baseline'><strong>Limin' Large</strong><p><strong><font class='posOutcome'>You WON</font><p>You bet: 5</strong></font> &nbsp; &nbsp; &nbsp; &nbsp; &nbsp; &nbsp;<font class='posOutcome'>you receive: <strong>10</strong></font></div>","null","7","Limin' Large","Fruit/lime.png","Won","0.35,0.8","8","0.35","127","21","",""
"","","","decision","63d842d3e9626bd5fe5c17b1","bdp_rwlrn","Fri Mar 10 2023 11:59:19 GMT-0800 (Pacific Standard Time)","675732","Trustworthy,Untrustworthy","html-keyboard-response","74","439487","0.0-11.0-1.21","","16","","","<div class='trialDiv'><img src='Fruit/watermelon.png'><br><font class='baseline'><strong>Watermelon Win$</strong><p>Choose number of points to bet.</font><div class='respPicDiv'><img src='img/responseButtonOffersNo0L.png' class='respPic'></div></div>","5","8","Watermelon Win$","Fruit/watermelon.png","Won","0.8,0.35","9","0.8","132","22","",""
"","","","decisionFB","63d842d3e9626bd5fe5c17b1","bdp_rwlrn","Fri Mar 10 2023 11:59:19 GMT-0800 (Pacific Standard Time)","675732","Trustworthy,Untrustworthy","html-keyboard-response","75","439748","0.0-11.0-2.21","","null","","","<div class='trialDiv'><img src='Fruit/watermelon.png'><br><font class='baseline'><strong>Watermelon Win$</strong><p>Choose number of points to bet.</font><div class='respPicDiv'><img src='img/responseButtonOffersNo0L5.png' class='respPic'></div></div>","null","8","Watermelon Win$","Fruit/watermelon.png","Won","0.8,0.35","9","0.8","127","22","",""
"","","","feedback","63d842d3e9626bd5fe5c17b1","bdp_rwlrn","Fri Mar 10 2023 11:59:19 GMT-0800 (Pacific Standard Time)","675732","Trustworthy,Untrustworthy","html-keyboard-response","76","440749","0.0-11.0-3.21","","null","","","<div class='respPicDiv'><img src='img/responseButtonOffersNo0_wht.png' class='respPic'></div><div class='trialDiv'><img src='Fruit/watermelon.png'><br><font class='baseline'><strong>Watermelon Win$</strong><p><strong><font class='posOutcome'>You WON</font><p>You bet: 5</strong></font> &nbsp; &nbsp; &nbsp; &nbsp; &nbsp; &nbsp;<font class='posOutcome'>you receive: <strong>10</strong></font></div>","null","8","Watermelon Win$","Fruit/watermelon.png","Won","0.8,0.35","9","0.8","137","22","",""
"","","","decision","63d842d3e9626bd5fe5c17b1","bdp_rwlrn","Fri Mar 10 2023 11:59:19 GMT-0800 (Pacific Standard Time)","675732","Trustworthy,Untrustworthy","html-keyboard-response","77","440759","0.0-11.0-1.22","","10","","","<div class='trialDiv'><img src='Fruit/lime.png'><br><font class='baseline'><strong>Limin' Large</strong><p>Choose number of points to bet.</font><div class='respPicDiv'><img src='img/responseButtonOffersNo0L.png' class='respPic'></div></div>","5","8","Limin' Large","Fruit/lime.png","Lost","0.35,0.8","8","0.35","142","23","",""
"","","","decisionFB","63d842d3e9626bd5fe5c17b1","bdp_rwlrn","Fri Mar 10 2023 11:59:19 GMT-0800 (Pacific Standard Time)","675732","Trustworthy,Untrustworthy","html-keyboard-response","78","441011","0.0-11.0-2.22","","null","","","<div class='trialDiv'><img src='Fruit/lime.png'><br><font class='baseline'><strong>Limin' Large</strong><p>Choose number of points to bet.</font><div class='respPicDiv'><img src='img/responseButtonOffersNo0L5.png' class='respPic'></div></div>","null","8","Limin' Large","Fruit/lime.png","Lost","0.35,0.8","8","0.35","137","23","",""
"","","","feedback","63d842d3e9626bd5fe5c17b1","bdp_rwlrn","Fri Mar 10 2023 11:59:19 GMT-0800 (Pacific Standard Time)","675732","Trustworthy,Untrustworthy","html-keyboard-response","79","442012","0.0-11.0-3.22","","null","","","<div class='respPicDiv'><img src='img/responseButtonOffersNo0_wht.png' class='respPic'></div><div class='trialDiv'><img src='Fruit/lime.png'><br><font class='baseline'><strong>Limin' Large</strong><p><strong><font class='negOutcome'>You LOST</font><p>You bet: 5</strong></font> &nbsp; &nbsp; &nbsp; &nbsp; &nbsp; &nbsp;<font class='negOutcome'>You receive: <strong>0</strong></font></div>","null","8","Limin' Large","Fruit/lime.png","Lost","0.35,0.8","8","0.35","137","23","",""
"","","","decision","63d842d3e9626bd5fe5c17b1","bdp_rwlrn","Fri Mar 10 2023 11:59:19 GMT-0800 (Pacific Standard Time)","675732","Trustworthy,Untrustworthy","html-keyboard-response","80","442051","0.0-11.0-1.23","","38","","","<div class='trialDiv'><img src='Fruit/plums1.png'><br><font class='baseline'><strong>Plum Powerball</strong><p>Choose number of points to bet.</font><div class='respPicDiv'><img src='img/responseButtonOffersNo0L.png' class='respPic'></div></div>","5","8","Plum Powerball","Fruit/plums1.png","Won","0.65,0.35","12","0.65","142","24","",""
"","","","decisionFB","63d842d3e9626bd5fe5c17b1","bdp_rwlrn","Fri Mar 10 2023 11:59:19 GMT-0800 (Pacific Standard Time)","675732","Trustworthy,Untrustworthy","html-keyboard-response","81","442307","0.0-11.0-2.23","","null","","","<div class='trialDiv'><img src='Fruit/plums1.png'><br><font class='baseline'><strong>Plum Powerball</strong><p>Choose number of points to bet.</font><div class='respPicDiv'><img src='img/responseButtonOffersNo0L5.png' class='respPic'></div></div>","null","8","Plum Powerball","Fruit/plums1.png","Won","0.65,0.35","12","0.65","137","24","",""
"","","","feedback","63d842d3e9626bd5fe5c17b1","bdp_rwlrn","Fri Mar 10 2023 11:59:19 GMT-0800 (Pacific Standard Time)","675732","Trustworthy,Untrustworthy","html-keyboard-response","82","443309","0.0-11.0-3.23","","null","","","<div class='respPicDiv'><img src='img/responseButtonOffersNo0_wht.png' class='respPic'></div><div class='trialDiv'><img src='Fruit/plums1.png'><br><font class='baseline'><strong>Plum Powerball</strong><p><strong><font class='posOutcome'>You WON</font><p>You bet: 5</strong></font> &nbsp; &nbsp; &nbsp; &nbsp; &nbsp; &nbsp;<font class='posOutcome'>you receive: <strong>10</strong></font></div>","null","8","Plum Powerball","Fruit/plums1.png","Won","0.65,0.35","12","0.65","147","24","",""
"","","","decision","63d842d3e9626bd5fe5c17b1","bdp_rwlrn","Fri Mar 10 2023 11:59:19 GMT-0800 (Pacific Standard Time)","675732","Trustworthy,Untrustworthy","html-keyboard-response","83","443835","0.0-11.0-1.24","","525","","","<div class='trialDiv'><img src='Fruit/lime.png'><br><font class='baseline'><strong>Limin' Large</strong><p>Choose number of points to bet.</font><div class='respPicDiv'><img src='img/responseButtonOffersNo0L.png' class='respPic'></div></div>","5","9","Limin' Large","Fruit/lime.png","Won","0.35,0.8","8","0.35","152","25","",""
"","","","decisionFB","63d842d3e9626bd5fe5c17b1","bdp_rwlrn","Fri Mar 10 2023 11:59:19 GMT-0800 (Pacific Standard Time)","675732","Trustworthy,Untrustworthy","html-keyboard-response","84","444097","0.0-11.0-2.24","","null","","","<div class='trialDiv'><img src='Fruit/lime.png'><br><font class='baseline'><strong>Limin' Large</strong><p>Choose number of points to bet.</font><div class='respPicDiv'><img src='img/responseButtonOffersNo0L5.png' class='respPic'></div></div>","null","9","Limin' Large","Fruit/lime.png","Won","0.35,0.8","8","0.35","147","25","",""
"","","","feedback","63d842d3e9626bd5fe5c17b1","bdp_rwlrn","Fri Mar 10 2023 11:59:19 GMT-0800 (Pacific Standard Time)","675732","Trustworthy,Untrustworthy","html-keyboard-response","85","445099","0.0-11.0-3.24","","null","","","<div class='respPicDiv'><img src='img/responseButtonOffersNo0_wht.png' class='respPic'></div><div class='trialDiv'><img src='Fruit/lime.png'><br><font class='baseline'><strong>Limin' Large</strong><p><strong><font class='posOutcome'>You WON</font><p>You bet: 5</strong></font> &nbsp; &nbsp; &nbsp; &nbsp; &nbsp; &nbsp;<font class='posOutcome'>you receive: <strong>10</strong></font></div>","null","9","Limin' Large","Fruit/lime.png","Won","0.35,0.8","8","0.35","157","25","",""
"","","","decision","63d842d3e9626bd5fe5c17b1","bdp_rwlrn","Fri Mar 10 2023 11:59:19 GMT-0800 (Pacific Standard Time)","675732","Trustworthy,Untrustworthy","html-keyboard-response","86","445531","0.0-11.0-1.25","","432","","","<div class='trialDiv'><img src='Fruit/plums1.png'><br><font class='baseline'><strong>Plum Powerball</strong><p>Choose number of points to bet.</font><div class='respPicDiv'><img src='img/responseButtonOffersNo0L.png' class='respPic'></div></div>","1","9","Plum Powerball","Fruit/plums1.png","Won","0.65,0.35","12","0.65","162","26","",""
"","","","decisionFB","63d842d3e9626bd5fe5c17b1","bdp_rwlrn","Fri Mar 10 2023 11:59:19 GMT-0800 (Pacific Standard Time)","675732","Trustworthy,Untrustworthy","html-keyboard-response","87","445793","0.0-11.0-2.25","","null","","","<div class='trialDiv'><img src='Fruit/plums1.png'><br><font class='baseline'><strong>Plum Powerball</strong><p>Choose number of points to bet.</font><div class='respPicDiv'><img src='img/responseButtonOffersNo0L1.png' class='respPic'></div></div>","null","9","Plum Powerball","Fruit/plums1.png","Won","0.65,0.35","12","0.65","161","26","",""
"","","","feedback","63d842d3e9626bd5fe5c17b1","bdp_rwlrn","Fri Mar 10 2023 11:59:19 GMT-0800 (Pacific Standard Time)","675732","Trustworthy,Untrustworthy","html-keyboard-response","88","446798","0.0-11.0-3.25","","null","","","<div class='respPicDiv'><img src='img/responseButtonOffersNo0_wht.png' class='respPic'></div><div class='trialDiv'><img src='Fruit/plums1.png'><br><font class='baseline'><strong>Plum Powerball</strong><p><strong><font class='posOutcome'>You WON</font><p>You bet: 1</strong></font> &nbsp; &nbsp; &nbsp; &nbsp; &nbsp; &nbsp;<font class='posOutcome'>you receive: <strong>2</strong></font></div>","null","9","Plum Powerball","Fruit/plums1.png","Won","0.65,0.35","12","0.65","163","26","",""
"","","","decision","63d842d3e9626bd5fe5c17b1","bdp_rwlrn","Fri Mar 10 2023 11:59:19 GMT-0800 (Pacific Standard Time)","675732","Trustworthy,Untrustworthy","html-keyboard-response","89","446852","0.0-11.0-1.26","","54","","","<div class='trialDiv'><img src='Fruit/watermelon.png'><br><font class='baseline'><strong>Watermelon Win$</strong><p>Choose number of points to bet.</font><div class='respPicDiv'><img src='img/responseButtonOffersNo0L.png' class='respPic'></div></div>","1","9","Watermelon Win$","Fruit/watermelon.png","Lost","0.8,0.35","9","0.8","168","27","",""
"","","","decisionFB","63d842d3e9626bd5fe5c17b1","bdp_rwlrn","Fri Mar 10 2023 11:59:19 GMT-0800 (Pacific Standard Time)","675732","Trustworthy,Untrustworthy","html-keyboard-response","90","447107","0.0-11.0-2.26","","null","","","<div class='trialDiv'><img src='Fruit/watermelon.png'><br><font class='baseline'><strong>Watermelon Win$</strong><p>Choose number of points to bet.</font><div class='respPicDiv'><img src='img/responseButtonOffersNo0L1.png' class='respPic'></div></div>","null","9","Watermelon Win$","Fruit/watermelon.png","Lost","0.8,0.35","9","0.8","167","27","",""
"","","","feedback","63d842d3e9626bd5fe5c17b1","bdp_rwlrn","Fri Mar 10 2023 11:59:19 GMT-0800 (Pacific Standard Time)","675732","Trustworthy,Untrustworthy","html-keyboard-response","91","448110","0.0-11.0-3.26","","null","","","<div class='respPicDiv'><img src='img/responseButtonOffersNo0_wht.png' class='respPic'></div><div class='trialDiv'><img src='Fruit/watermelon.png'><br><font class='baseline'><strong>Watermelon Win$</strong><p><strong><font class='negOutcome'>You LOST</font><p>You bet: 1</strong></font> &nbsp; &nbsp; &nbsp; &nbsp; &nbsp; &nbsp;<font class='negOutcome'>You receive: <strong>0</strong></font></div>","null","9","Watermelon Win$","Fruit/watermelon.png","Lost","0.8,0.35","9","0.8","167","27","",""
"","","","decision","63d842d3e9626bd5fe5c17b1","bdp_rwlrn","Fri Mar 10 2023 11:59:19 GMT-0800 (Pacific Standard Time)","675732","Trustworthy,Untrustworthy","html-keyboard-response","92","448297","0.0-11.0-1.27","","187","","","<div class='trialDiv'><img src='Fruit/lime.png'><br><font class='baseline'><strong>Limin' Large</strong><p>Choose number of points to bet.</font><div class='respPicDiv'><img src='img/responseButtonOffersNo0L.png' class='respPic'></div></div>","5","10","Limin' Large","Fruit/lime.png","Won","0.35,0.8","8","0.35","172","28","",""
"","","","decisionFB","63d842d3e9626bd5fe5c17b1","bdp_rwlrn","Fri Mar 10 2023 11:59:19 GMT-0800 (Pacific Standard Time)","675732","Trustworthy,Untrustworthy","html-keyboard-response","93","448557","0.0-11.0-2.27","","null","","","<div class='trialDiv'><img src='Fruit/lime.png'><br><font class='baseline'><strong>Limin' Large</strong><p>Choose number of points to bet.</font><div class='respPicDiv'><img src='img/responseButtonOffersNo0L5.png' class='respPic'></div></div>","null","10","Limin' Large","Fruit/lime.png","Won","0.35,0.8","8","0.35","167","28","",""
"","","","feedback","63d842d3e9626bd5fe5c17b1","bdp_rwlrn","Fri Mar 10 2023 11:59:19 GMT-0800 (Pacific Standard Time)","675732","Trustworthy,Untrustworthy","html-keyboard-response","94","449563","0.0-11.0-3.27","","null","","","<div class='respPicDiv'><img src='img/responseButtonOffersNo0_wht.png' class='respPic'></div><div class='trialDiv'><img src='Fruit/lime.png'><br><font class='baseline'><strong>Limin' Large</strong><p><strong><font class='posOutcome'>You WON</font><p>You bet: 5</strong></font> &nbsp; &nbsp; &nbsp; &nbsp; &nbsp; &nbsp;<font class='posOutcome'>you receive: <strong>10</strong></font></div>","null","10","Limin' Large","Fruit/lime.png","Won","0.35,0.8","8","0.35","177","28","",""
"","","","decision","63d842d3e9626bd5fe5c17b1","bdp_rwlrn","Fri Mar 10 2023 11:59:19 GMT-0800 (Pacific Standard Time)","675732","Trustworthy,Untrustworthy","html-keyboard-response","95","449611","0.0-11.0-1.28","","48","","","<div class='trialDiv'><img src='Fruit/plums1.png'><br><font class='baseline'><strong>Plum Powerball</strong><p>Choose number of points to bet.</font><div class='respPicDiv'><img src='img/responseButtonOffersNo0L.png' class='respPic'></div></div>","1","10","Plum Powerball","Fruit/plums1.png","Won","0.65,0.35","12","0.65","182","29","",""
"","","","decisionFB","63d842d3e9626bd5fe5c17b1","bdp_rwlrn","Fri Mar 10 2023 11:59:19 GMT-0800 (Pacific Standard Time)","675732","Trustworthy,Untrustworthy","html-keyboard-response","96","449872","0.0-11.0-2.28","","null","","","<div class='trialDiv'><img src='Fruit/plums1.png'><br><font class='baseline'><strong>Plum Powerball</strong><p>Choose number of points to bet.</font><div class='respPicDiv'><img src='img/responseButtonOffersNo0L1.png' class='respPic'></div></div>","null","10","Plum Powerball","Fruit/plums1.png","Won","0.65,0.35","12","0.65","181","29","",""
"","","","feedback","63d842d3e9626bd5fe5c17b1","bdp_rwlrn","Fri Mar 10 2023 11:59:19 GMT-0800 (Pacific Standard Time)","675732","Trustworthy,Untrustworthy","html-keyboard-response","97","450873","0.0-11.0-3.28","","null","","","<div class='respPicDiv'><img src='img/responseButtonOffersNo0_wht.png' class='respPic'></div><div class='trialDiv'><img src='Fruit/plums1.png'><br><font class='baseline'><strong>Plum Powerball</strong><p><strong><font class='posOutcome'>You WON</font><p>You bet: 1</strong></font> &nbsp; &nbsp; &nbsp; &nbsp; &nbsp; &nbsp;<font class='posOutcome'>you receive: <strong>2</strong></font></div>","null","10","Plum Powerball","Fruit/plums1.png","Won","0.65,0.35","12","0.65","183","29","",""
"","","","decision","63d842d3e9626bd5fe5c17b1","bdp_rwlrn","Fri Mar 10 2023 11:59:19 GMT-0800 (Pacific Standard Time)","675732","Trustworthy,Untrustworthy","html-keyboard-response","98","451047","0.0-11.0-1.29","","174","","","<div class='trialDiv'><img src='Fruit/watermelon.png'><br><font class='baseline'><strong>Watermelon Win$</strong><p>Choose number of points to bet.</font><div class='respPicDiv'><img src='img/responseButtonOffersNo0L.png' class='respPic'></div></div>","1","10","Watermelon Win$","Fruit/watermelon.png","Lost","0.8,0.35","9","0.8","188","30","",""
"","","","decisionFB","63d842d3e9626bd5fe5c17b1","bdp_rwlrn","Fri Mar 10 2023 11:59:19 GMT-0800 (Pacific Standard Time)","675732","Trustworthy,Untrustworthy","html-keyboard-response","99","451305","0.0-11.0-2.29","","null","","","<div class='trialDiv'><img src='Fruit/watermelon.png'><br><font class='baseline'><strong>Watermelon Win$</strong><p>Choose number of points to bet.</font><div class='respPicDiv'><img src='img/responseButtonOffersNo0L1.png' class='respPic'></div></div>","null","10","Watermelon Win$","Fruit/watermelon.png","Lost","0.8,0.35","9","0.8","187","30","",""
"","","","feedback","63d842d3e9626bd5fe5c17b1","bdp_rwlrn","Fri Mar 10 2023 11:59:19 GMT-0800 (Pacific Standard Time)","675732","Trustworthy,Untrustworthy","html-keyboard-response","100","452308","0.0-11.0-3.29","","null","","","<div class='respPicDiv'><img src='img/responseButtonOffersNo0_wht.png' class='respPic'></div><div class='trialDiv'><img src='Fruit/watermelon.png'><br><font class='baseline'><strong>Watermelon Win$</strong><p><strong><font class='negOutcome'>You LOST</font><p>You bet: 1</strong></font> &nbsp; &nbsp; &nbsp; &nbsp; &nbsp; &nbsp;<font class='negOutcome'>You receive: <strong>0</strong></font></div>","null","10","Watermelon Win$","Fruit/watermelon.png","Lost","0.8,0.35","9","0.8","187","30","",""
"","","","decision","63d842d3e9626bd5fe5c17b1","bdp_rwlrn","Fri Mar 10 2023 11:59:19 GMT-0800 (Pacific Standard Time)","675732","Trustworthy,Untrustworthy","html-keyboard-response","101","452429","0.0-11.0-1.30","","121","","","<div class='trialDiv'><img src='Fruit/lime.png'><br><font class='baseline'><strong>Limin' Large</strong><p>Choose number of points to bet.</font><div class='respPicDiv'><img src='img/responseButtonOffersNo0L.png' class='respPic'></div></div>","5","11","Limin' Large","Fruit/lime.png","Won","0.35,0.8","8","0.35","192","31","",""
"","","","decisionFB","63d842d3e9626bd5fe5c17b1","bdp_rwlrn","Fri Mar 10 2023 11:59:19 GMT-0800 (Pacific Standard Time)","675732","Trustworthy,Untrustworthy","html-keyboard-response","102","452692","0.0-11.0-2.30","","null","","","<div class='trialDiv'><img src='Fruit/lime.png'><br><font class='baseline'><strong>Limin' Large</strong><p>Choose number of points to bet.</font><div class='respPicDiv'><img src='img/responseButtonOffersNo0L5.png' class='respPic'></div></div>","null","11","Limin' Large","Fruit/lime.png","Won","0.35,0.8","8","0.35","187","31","",""
"","","","feedback","63d842d3e9626bd5fe5c17b1","bdp_rwlrn","Fri Mar 10 2023 11:59:19 GMT-0800 (Pacific Standard Time)","675732","Trustworthy,Untrustworthy","html-keyboard-response","103","453695","0.0-11.0-3.30","","null","","","<div class='respPicDiv'><img src='img/responseButtonOffersNo0_wht.png' class='respPic'></div><div class='trialDiv'><img src='Fruit/lime.png'><br><font class='baseline'><strong>Limin' Large</strong><p><strong><font class='posOutcome'>You WON</font><p>You bet: 5</strong></font> &nbsp; &nbsp; &nbsp; &nbsp; &nbsp; &nbsp;<font class='posOutcome'>you receive: <strong>10</strong></font></div>","null","11","Limin' Large","Fruit/lime.png","Won","0.35,0.8","8","0.35","197","31","",""
"","","","decision","63d842d3e9626bd5fe5c17b1","bdp_rwlrn","Fri Mar 10 2023 11:59:19 GMT-0800 (Pacific Standard Time)","675732","Trustworthy,Untrustworthy","html-keyboard-response","104","453731","0.0-11.0-1.31","","36","","","<div class='trialDiv'><img src='Fruit/watermelon.png'><br><font class='baseline'><strong>Watermelon Win$</strong><p>Choose number of points to bet.</font><div class='respPicDiv'><img src='img/responseButtonOffersNo0L.png' class='respPic'></div></div>","1","11","Watermelon Win$","Fruit/watermelon.png","Lost","0.8,0.35","9","0.8","202","32","",""
"","","","decisionFB","63d842d3e9626bd5fe5c17b1","bdp_rwlrn","Fri Mar 10 2023 11:59:19 GMT-0800 (Pacific Standard Time)","675732","Trustworthy,Untrustworthy","html-keyboard-response","105","453987","0.0-11.0-2.31","","null","","","<div class='trialDiv'><img src='Fruit/watermelon.png'><br><font class='baseline'><strong>Watermelon Win$</strong><p>Choose number of points to bet.</font><div class='respPicDiv'><img src='img/responseButtonOffersNo0L1.png' class='respPic'></div></div>","null","11","Watermelon Win$","Fruit/watermelon.png","Lost","0.8,0.35","9","0.8","201","32","",""
"","","","feedback","63d842d3e9626bd5fe5c17b1","bdp_rwlrn","Fri Mar 10 2023 11:59:19 GMT-0800 (Pacific Standard Time)","675732","Trustworthy,Untrustworthy","html-keyboard-response","106","454990","0.0-11.0-3.31","","null","","","<div class='respPicDiv'><img src='img/responseButtonOffersNo0_wht.png' class='respPic'></div><div class='trialDiv'><img src='Fruit/watermelon.png'><br><font class='baseline'><strong>Watermelon Win$</strong><p><strong><font class='negOutcome'>You LOST</font><p>You bet: 1</strong></font> &nbsp; &nbsp; &nbsp; &nbsp; &nbsp; &nbsp;<font class='negOutcome'>You receive: <strong>0</strong></font></div>","null","11","Watermelon Win$","Fruit/watermelon.png","Lost","0.8,0.35","9","0.8","201","32","",""
"","","","decision","63d842d3e9626bd5fe5c17b1","bdp_rwlrn","Fri Mar 10 2023 11:59:19 GMT-0800 (Pacific Standard Time)","675732","Trustworthy,Untrustworthy","html-keyboard-response","107","455047","0.0-11.0-1.32","","57","","","<div class='trialDiv'><img src='Fruit/plums1.png'><br><font class='baseline'><strong>Plum Powerball</strong><p>Choose number of points to bet.</font><div class='respPicDiv'><img src='img/responseButtonOffersNo0L.png' class='respPic'></div></div>","5","11","Plum Powerball","Fruit/plums1.png","Won","0.65,0.35","12","0.65","206","33","",""
"","","","decisionFB","63d842d3e9626bd5fe5c17b1","bdp_rwlrn","Fri Mar 10 2023 11:59:19 GMT-0800 (Pacific Standard Time)","675732","Trustworthy,Untrustworthy","html-keyboard-response","108","455299","0.0-11.0-2.32","","null","","","<div class='trialDiv'><img src='Fruit/plums1.png'><br><font class='baseline'><strong>Plum Powerball</strong><p>Choose number of points to bet.</font><div class='respPicDiv'><img src='img/responseButtonOffersNo0L5.png' class='respPic'></div></div>","null","11","Plum Powerball","Fruit/plums1.png","Won","0.65,0.35","12","0.65","201","33","",""
"","","","feedback","63d842d3e9626bd5fe5c17b1","bdp_rwlrn","Fri Mar 10 2023 11:59:19 GMT-0800 (Pacific Standard Time)","675732","Trustworthy,Untrustworthy","html-keyboard-response","109","456301","0.0-11.0-3.32","","null","","","<div class='respPicDiv'><img src='img/responseButtonOffersNo0_wht.png' class='respPic'></div><div class='trialDiv'><img src='Fruit/plums1.png'><br><font class='baseline'><strong>Plum Powerball</strong><p><strong><font class='posOutcome'>You WON</font><p>You bet: 5</strong></font> &nbsp; &nbsp; &nbsp; &nbsp; &nbsp; &nbsp;<font class='posOutcome'>you receive: <strong>10</strong></font></div>","null","11","Plum Powerball","Fruit/plums1.png","Won","0.65,0.35","12","0.65","211","33","",""
"","","","decision","63d842d3e9626bd5fe5c17b1","bdp_rwlrn","Fri Mar 10 2023 11:59:19 GMT-0800 (Pacific Standard Time)","675732","Trustworthy,Untrustworthy","html-keyboard-response","110","456324","0.0-11.0-1.33","","22","","","<div class='trialDiv'><img src='Fruit/lime.png'><br><font class='baseline'><strong>Limin' Large</strong><p>Choose number of points to bet.</font><div class='respPicDiv'><img src='img/responseButtonOffersNo0L.png' class='respPic'></div></div>","1","12","Limin' Large","Fruit/lime.png","Won","0.35,0.8","8","0.35","216","34","",""
"","","","decisionFB","63d842d3e9626bd5fe5c17b1","bdp_rwlrn","Fri Mar 10 2023 11:59:19 GMT-0800 (Pacific Standard Time)","675732","Trustworthy,Untrustworthy","html-keyboard-response","111","456579","0.0-11.0-2.33","","null","","","<div class='trialDiv'><img src='Fruit/lime.png'><br><font class='baseline'><strong>Limin' Large</strong><p>Choose number of points to bet.</font><div class='respPicDiv'><img src='img/responseButtonOffersNo0L1.png' class='respPic'></div></div>","null","12","Limin' Large","Fruit/lime.png","Won","0.35,0.8","8","0.35","215","34","",""
"","","","feedback","63d842d3e9626bd5fe5c17b1","bdp_rwlrn","Fri Mar 10 2023 11:59:19 GMT-0800 (Pacific Standard Time)","675732","Trustworthy,Untrustworthy","html-keyboard-response","112","457584","0.0-11.0-3.33","","null","","","<div class='respPicDiv'><img src='img/responseButtonOffersNo0_wht.png' class='respPic'></div><div class='trialDiv'><img src='Fruit/lime.png'><br><font class='baseline'><strong>Limin' Large</strong><p><strong><font class='posOutcome'>You WON</font><p>You bet: 1</strong></font> &nbsp; &nbsp; &nbsp; &nbsp; &nbsp; &nbsp;<font class='posOutcome'>you receive: <strong>2</strong></font></div>","null","12","Limin' Large","Fruit/lime.png","Won","0.35,0.8","8","0.35","217","34","",""
"","","","decision","63d842d3e9626bd5fe5c17b1","bdp_rwlrn","Fri Mar 10 2023 11:59:19 GMT-0800 (Pacific Standard Time)","675732","Trustworthy,Untrustworthy","html-keyboard-response","113","457621","0.0-11.0-1.34","","36","","","<div class='trialDiv'><img src='Fruit/watermelon.png'><br><font class='baseline'><strong>Watermelon Win$</strong><p>Choose number of points to bet.</font><div class='respPicDiv'><img src='img/responseButtonOffersNo0L.png' class='respPic'></div></div>","1","12","Watermelon Win$","Fruit/watermelon.png","Won","0.8,0.35","9","0.8","222","35","",""
"","","","decisionFB","63d842d3e9626bd5fe5c17b1","bdp_rwlrn","Fri Mar 10 2023 11:59:19 GMT-0800 (Pacific Standard Time)","675732","Trustworthy,Untrustworthy","html-keyboard-response","114","457877","0.0-11.0-2.34","","null","","","<div class='trialDiv'><img src='Fruit/watermelon.png'><br><font class='baseline'><strong>Watermelon Win$</strong><p>Choose number of points to bet.</font><div class='respPicDiv'><img src='img/responseButtonOffersNo0L1.png' class='respPic'></div></div>","null","12","Watermelon Win$","Fruit/watermelon.png","Won","0.8,0.35","9","0.8","221","35","",""
"","","","feedback","63d842d3e9626bd5fe5c17b1","bdp_rwlrn","Fri Mar 10 2023 11:59:19 GMT-0800 (Pacific Standard Time)","675732","Trustworthy,Untrustworthy","html-keyboard-response","115","458878","0.0-11.0-3.34","","null","","","<div class='respPicDiv'><img src='img/responseButtonOffersNo0_wht.png' class='respPic'></div><div class='trialDiv'><img src='Fruit/watermelon.png'><br><font class='baseline'><strong>Watermelon Win$</strong><p><strong><font class='posOutcome'>You WON</font><p>You bet: 1</strong></font> &nbsp; &nbsp; &nbsp; &nbsp; &nbsp; &nbsp;<font class='posOutcome'>you receive: <strong>2</strong></font></div>","null","12","Watermelon Win$","Fruit/watermelon.png","Won","0.8,0.35","9","0.8","223","35","",""
"","","","decision","63d842d3e9626bd5fe5c17b1","bdp_rwlrn","Fri Mar 10 2023 11:59:19 GMT-0800 (Pacific Standard Time)","675732","Trustworthy,Untrustworthy","html-keyboard-response","116","458951","0.0-11.0-1.35","","73","","","<div class='trialDiv'><img src='Fruit/plums1.png'><br><font class='baseline'><strong>Plum Powerball</strong><p>Choose number of points to bet.</font><div class='respPicDiv'><img src='img/responseButtonOffersNo0L.png' class='respPic'></div></div>","1","12","Plum Powerball","Fruit/plums1.png","Lost","0.65,0.35","12","0.65","228","36","",""
"","","","decisionFB","63d842d3e9626bd5fe5c17b1","bdp_rwlrn","Fri Mar 10 2023 11:59:19 GMT-0800 (Pacific Standard Time)","675732","Trustworthy,Untrustworthy","html-keyboard-response","117","459202","0.0-11.0-2.35","","null","","","<div class='trialDiv'><img src='Fruit/plums1.png'><br><font class='baseline'><strong>Plum Powerball</strong><p>Choose number of points to bet.</font><div class='respPicDiv'><img src='img/responseButtonOffersNo0L1.png' class='respPic'></div></div>","null","12","Plum Powerball","Fruit/plums1.png","Lost","0.65,0.35","12","0.65","227","36","",""
"","","","feedback","63d842d3e9626bd5fe5c17b1","bdp_rwlrn","Fri Mar 10 2023 11:59:19 GMT-0800 (Pacific Standard Time)","675732","Trustworthy,Untrustworthy","html-keyboard-response","118","460205","0.0-11.0-3.35","","null","","","<div class='respPicDiv'><img src='img/responseButtonOffersNo0_wht.png' class='respPic'></div><div class='trialDiv'><img src='Fruit/plums1.png'><br><font class='baseline'><strong>Plum Powerball</strong><p><strong><font class='negOutcome'>You LOST</font><p>You bet: 1</strong></font> &nbsp; &nbsp; &nbsp; &nbsp; &nbsp; &nbsp;<font class='negOutcome'>You receive: <strong>0</strong></font></div>","null","12","Plum Powerball","Fruit/plums1.png","Lost","0.65,0.35","12","0.65","227","36","",""
"","","","decision","63d842d3e9626bd5fe5c17b1","bdp_rwlrn","Fri Mar 10 2023 11:59:19 GMT-0800 (Pacific Standard Time)","675732","Trustworthy,Untrustworthy","html-keyboard-response","119","460265","0.0-11.0-1.36","","60","","","<div class='trialDiv'><img src='Fruit/lime.png'><br><font class='baseline'><strong>Limin' Large</strong><p>Choose number of points to bet.</font><div class='respPicDiv'><img src='img/responseButtonOffersNo0L.png' class='respPic'></div></div>","5","13","Limin' Large","Fruit/lime.png","Lost","0.35,0.8","8","0.35","232","37","",""
"","","","decisionFB","63d842d3e9626bd5fe5c17b1","bdp_rwlrn","Fri Mar 10 2023 11:59:19 GMT-0800 (Pacific Standard Time)","675732","Trustworthy,Untrustworthy","html-keyboard-response","120","460528","0.0-11.0-2.36","","null","","","<div class='trialDiv'><img src='Fruit/lime.png'><br><font class='baseline'><strong>Limin' Large</strong><p>Choose number of points to bet.</font><div class='respPicDiv'><img src='img/responseButtonOffersNo0L5.png' class='respPic'></div></div>","null","13","Limin' Large","Fruit/lime.png","Lost","0.35,0.8","8","0.35","227","37","",""
"","","","feedback","63d842d3e9626bd5fe5c17b1","bdp_rwlrn","Fri Mar 10 2023 11:59:19 GMT-0800 (Pacific Standard Time)","675732","Trustworthy,Untrustworthy","html-keyboard-response","121","461529","0.0-11.0-3.36","","null","","","<div class='respPicDiv'><img src='img/responseButtonOffersNo0_wht.png' class='respPic'></div><div class='trialDiv'><img src='Fruit/lime.png'><br><font class='baseline'><strong>Limin' Large</strong><p><strong><font class='negOutcome'>You LOST</font><p>You bet: 5</strong></font> &nbsp; &nbsp; &nbsp; &nbsp; &nbsp; &nbsp;<font class='negOutcome'>You receive: <strong>0</strong></font></div>","null","13","Limin' Large","Fruit/lime.png","Lost","0.35,0.8","8","0.35","227","37","",""
"","","","decision","63d842d3e9626bd5fe5c17b1","bdp_rwlrn","Fri Mar 10 2023 11:59:19 GMT-0800 (Pacific Standard Time)","675732","Trustworthy,Untrustworthy","html-keyboard-response","122","461557","0.0-11.0-1.37","","26","","","<div class='trialDiv'><img src='Fruit/plums1.png'><br><font class='baseline'><strong>Plum Powerball</strong><p>Choose number of points to bet.</font><div class='respPicDiv'><img src='img/responseButtonOffersNo0L.png' class='respPic'></div></div>","5","13","Plum Powerball","Fruit/plums1.png","Lost","0.65,0.35","12","0.65","232","38","",""
"","","","decisionFB","63d842d3e9626bd5fe5c17b1","bdp_rwlrn","Fri Mar 10 2023 11:59:19 GMT-0800 (Pacific Standard Time)","675732","Trustworthy,Untrustworthy","html-keyboard-response","123","461808","0.0-11.0-2.37","","null","","","<div class='trialDiv'><img src='Fruit/plums1.png'><br><font class='baseline'><strong>Plum Powerball</strong><p>Choose number of points to bet.</font><div class='respPicDiv'><img src='img/responseButtonOffersNo0L5.png' class='respPic'></div></div>","null","13","Plum Powerball","Fruit/plums1.png","Lost","0.65,0.35","12","0.65","227","38","",""
"","","","feedback","63d842d3e9626bd5fe5c17b1","bdp_rwlrn","Fri Mar 10 2023 11:59:19 GMT-0800 (Pacific Standard Time)","675732","Trustworthy,Untrustworthy","html-keyboard-response","124","462812","0.0-11.0-3.37","","null","","","<div class='respPicDiv'><img src='img/responseButtonOffersNo0_wht.png' class='respPic'></div><div class='trialDiv'><img src='Fruit/plums1.png'><br><font class='baseline'><strong>Plum Powerball</strong><p><strong><font class='negOutcome'>You LOST</font><p>You bet: 5</strong></font> &nbsp; &nbsp; &nbsp; &nbsp; &nbsp; &nbsp;<font class='negOutcome'>You receive: <strong>0</strong></font></div>","null","13","Plum Powerball","Fruit/plums1.png","Lost","0.65,0.35","12","0.65","227","38","",""
"","","","decision","63d842d3e9626bd5fe5c17b1","bdp_rwlrn","Fri Mar 10 2023 11:59:19 GMT-0800 (Pacific Standard Time)","675732","Trustworthy,Untrustworthy","html-keyboard-response","125","462825","0.0-11.0-1.38","","13","","","<div class='trialDiv'><img src='Fruit/watermelon.png'><br><font class='baseline'><strong>Watermelon Win$</strong><p>Choose number of points to bet.</font><div class='respPicDiv'><img src='img/responseButtonOffersNo0L.png' class='respPic'></div></div>","5","13","Watermelon Win$","Fruit/watermelon.png","Won","0.8,0.35","9","0.8","232","39","",""
"","","","decisionFB","63d842d3e9626bd5fe5c17b1","bdp_rwlrn","Fri Mar 10 2023 11:59:19 GMT-0800 (Pacific Standard Time)","675732","Trustworthy,Untrustworthy","html-keyboard-response","126","463089","0.0-11.0-2.38","","null","","","<div class='trialDiv'><img src='Fruit/watermelon.png'><br><font class='baseline'><strong>Watermelon Win$</strong><p>Choose number of points to bet.</font><div class='respPicDiv'><img src='img/responseButtonOffersNo0L5.png' class='respPic'></div></div>","null","13","Watermelon Win$","Fruit/watermelon.png","Won","0.8,0.35","9","0.8","227","39","",""
"","","","feedback","63d842d3e9626bd5fe5c17b1","bdp_rwlrn","Fri Mar 10 2023 11:59:19 GMT-0800 (Pacific Standard Time)","675732","Trustworthy,Untrustworthy","html-keyboard-response","127","464092","0.0-11.0-3.38","","null","","","<div class='respPicDiv'><img src='img/responseButtonOffersNo0_wht.png' class='respPic'></div><div class='trialDiv'><img src='Fruit/watermelon.png'><br><font class='baseline'><strong>Watermelon Win$</strong><p><strong><font class='posOutcome'>You WON</font><p>You bet: 5</strong></font> &nbsp; &nbsp; &nbsp; &nbsp; &nbsp; &nbsp;<font class='posOutcome'>you receive: <strong>10</strong></font></div>","null","13","Watermelon Win$","Fruit/watermelon.png","Won","0.8,0.35","9","0.8","237","39","",""
"","","","decision","63d842d3e9626bd5fe5c17b1","bdp_rwlrn","Fri Mar 10 2023 11:59:19 GMT-0800 (Pacific Standard Time)","675732","Trustworthy,Untrustworthy","html-keyboard-response","128","464165","0.0-11.0-1.39","","73","","","<div class='trialDiv'><img src='Fruit/lime.png'><br><font class='baseline'><strong>Limin' Large</strong><p>Choose number of points to bet.</font><div class='respPicDiv'><img src='img/responseButtonOffersNo0L.png' class='respPic'></div></div>","5","14","Limin' Large","Fruit/lime.png","Won","0.35,0.8","8","0.35","242","40","",""
"","","","decisionFB","63d842d3e9626bd5fe5c17b1","bdp_rwlrn","Fri Mar 10 2023 11:59:19 GMT-0800 (Pacific Standard Time)","675732","Trustworthy,Untrustworthy","html-keyboard-response","129","464416","0.0-11.0-2.39","","null","","","<div class='trialDiv'><img src='Fruit/lime.png'><br><font class='baseline'><strong>Limin' Large</strong><p>Choose number of points to bet.</font><div class='respPicDiv'><img src='img/responseButtonOffersNo0L5.png' class='respPic'></div></div>","null","14","Limin' Large","Fruit/lime.png","Won","0.35,0.8","8","0.35","237","40","",""
"","","","feedback","63d842d3e9626bd5fe5c17b1","bdp_rwlrn","Fri Mar 10 2023 11:59:19 GMT-0800 (Pacific Standard Time)","675732","Trustworthy,Untrustworthy","html-keyboard-response","130","465417","0.0-11.0-3.39","","null","","","<div class='respPicDiv'><img src='img/responseButtonOffersNo0_wht.png' class='respPic'></div><div class='trialDiv'><img src='Fruit/lime.png'><br><font class='baseline'><strong>Limin' Large</strong><p><strong><font class='posOutcome'>You WON</font><p>You bet: 5</strong></font> &nbsp; &nbsp; &nbsp; &nbsp; &nbsp; &nbsp;<font class='posOutcome'>you receive: <strong>10</strong></font></div>","null","14","Limin' Large","Fruit/lime.png","Won","0.35,0.8","8","0.35","247","40","",""
"","","","decision","63d842d3e9626bd5fe5c17b1","bdp_rwlrn","Fri Mar 10 2023 11:59:19 GMT-0800 (Pacific Standard Time)","675732","Trustworthy,Untrustworthy","html-keyboard-response","131","465421","0.0-11.0-1.40","","4","","","<div class='trialDiv'><img src='Fruit/plums1.png'><br><font class='baseline'><strong>Plum Powerball</strong><p>Choose number of points to bet.</font><div class='respPicDiv'><img src='img/responseButtonOffersNo0L.png' class='respPic'></div></div>","5","14","Plum Powerball","Fruit/plums1.png","Lost","0.65,0.35","12","0.65","252","41","",""
"","","","decisionFB","63d842d3e9626bd5fe5c17b1","bdp_rwlrn","Fri Mar 10 2023 11:59:19 GMT-0800 (Pacific Standard Time)","675732","Trustworthy,Untrustworthy","html-keyboard-response","132","465679","0.0-11.0-2.40","","null","","","<div class='trialDiv'><img src='Fruit/plums1.png'><br><font class='baseline'><strong>Plum Powerball</strong><p>Choose number of points to bet.</font><div class='respPicDiv'><img src='img/responseButtonOffersNo0L5.png' class='respPic'></div></div>","null","14","Plum Powerball","Fruit/plums1.png","Lost","0.65,0.35","12","0.65","247","41","",""
"","","","feedback","63d842d3e9626bd5fe5c17b1","bdp_rwlrn","Fri Mar 10 2023 11:59:19 GMT-0800 (Pacific Standard Time)","675732","Trustworthy,Untrustworthy","html-keyboard-response","133","466684","0.0-11.0-3.40","","null","","","<div class='respPicDiv'><img src='img/responseButtonOffersNo0_wht.png' class='respPic'></div><div class='trialDiv'><img src='Fruit/plums1.png'><br><font class='baseline'><strong>Plum Powerball</strong><p><strong><font class='negOutcome'>You LOST</font><p>You bet: 5</strong></font> &nbsp; &nbsp; &nbsp; &nbsp; &nbsp; &nbsp;<font class='negOutcome'>You receive: <strong>0</strong></font></div>","null","14","Plum Powerball","Fruit/plums1.png","Lost","0.65,0.35","12","0.65","247","41","",""
"","","","decision","63d842d3e9626bd5fe5c17b1","bdp_rwlrn","Fri Mar 10 2023 11:59:19 GMT-0800 (Pacific Standard Time)","675732","Trustworthy,Untrustworthy","html-keyboard-response","134","467131","0.0-11.0-1.41","","447","","","<div class='trialDiv'><img src='Fruit/watermelon.png'><br><font class='baseline'><strong>Watermelon Win$</strong><p>Choose number of points to bet.</font><div class='respPicDiv'><img src='img/responseButtonOffersNo0L.png' class='respPic'></div></div>","5","14","Watermelon Win$","Fruit/watermelon.png","Lost","0.8,0.35","9","0.8","252","42","",""
"","","","decisionFB","63d842d3e9626bd5fe5c17b1","bdp_rwlrn","Fri Mar 10 2023 11:59:19 GMT-0800 (Pacific Standard Time)","675732","Trustworthy,Untrustworthy","html-keyboard-response","135","467392","0.0-11.0-2.41","","null","","","<div class='trialDiv'><img src='Fruit/watermelon.png'><br><font class='baseline'><strong>Watermelon Win$</strong><p>Choose number of points to bet.</font><div class='respPicDiv'><img src='img/responseButtonOffersNo0L5.png' class='respPic'></div></div>","null","14","Watermelon Win$","Fruit/watermelon.png","Lost","0.8,0.35","9","0.8","247","42","",""
"","","","feedback","63d842d3e9626bd5fe5c17b1","bdp_rwlrn","Fri Mar 10 2023 11:59:19 GMT-0800 (Pacific Standard Time)","675732","Trustworthy,Untrustworthy","html-keyboard-response","136","468394","0.0-11.0-3.41","","null","","","<div class='respPicDiv'><img src='img/responseButtonOffersNo0_wht.png' class='respPic'></div><div class='trialDiv'><img src='Fruit/watermelon.png'><br><font class='baseline'><strong>Watermelon Win$</strong><p><strong><font class='negOutcome'>You LOST</font><p>You bet: 5</strong></font> &nbsp; &nbsp; &nbsp; &nbsp; &nbsp; &nbsp;<font class='negOutcome'>You receive: <strong>0</strong></font></div>","null","14","Watermelon Win$","Fruit/watermelon.png","Lost","0.8,0.35","9","0.8","247","42","",""
"","","","decision","63d842d3e9626bd5fe5c17b1","bdp_rwlrn","Fri Mar 10 2023 11:59:19 GMT-0800 (Pacific Standard Time)","675732","Trustworthy,Untrustworthy","html-keyboard-response","137","468877","0.0-11.0-1.42","","483","","","<div class='trialDiv'><img src='Fruit/lime.png'><br><font class='baseline'><strong>Limin' Large</strong><p>Choose number of points to bet.</font><div class='respPicDiv'><img src='img/responseButtonOffersNo0L.png' class='respPic'></div></div>","5","15","Limin' Large","Fruit/lime.png","Won","0.35,0.8","8","0.35","252","43","",""
"","","","decisionFB","63d842d3e9626bd5fe5c17b1","bdp_rwlrn","Fri Mar 10 2023 11:59:19 GMT-0800 (Pacific Standard Time)","675732","Trustworthy,Untrustworthy","html-keyboard-response","138","469134","0.0-11.0-2.42","","null","","","<div class='trialDiv'><img src='Fruit/lime.png'><br><font class='baseline'><strong>Limin' Large</strong><p>Choose number of points to bet.</font><div class='respPicDiv'><img src='img/responseButtonOffersNo0L5.png' class='respPic'></div></div>","null","15","Limin' Large","Fruit/lime.png","Won","0.35,0.8","8","0.35","247","43","",""
"","","","feedback","63d842d3e9626bd5fe5c17b1","bdp_rwlrn","Fri Mar 10 2023 11:59:19 GMT-0800 (Pacific Standard Time)","675732","Trustworthy,Untrustworthy","html-keyboard-response","139","470137","0.0-11.0-3.42","","null","","","<div class='respPicDiv'><img src='img/responseButtonOffersNo0_wht.png' class='respPic'></div><div class='trialDiv'><img src='Fruit/lime.png'><br><font class='baseline'><strong>Limin' Large</strong><p><strong><font class='posOutcome'>You WON</font><p>You bet: 5</strong></font> &nbsp; &nbsp; &nbsp; &nbsp; &nbsp; &nbsp;<font class='posOutcome'>you receive: <strong>10</strong></font></div>","null","15","Limin' Large","Fruit/lime.png","Won","0.35,0.8","8","0.35","257","43","",""
"","","","decision","63d842d3e9626bd5fe5c17b1","bdp_rwlrn","Fri Mar 10 2023 11:59:19 GMT-0800 (Pacific Standard Time)","675732","Trustworthy,Untrustworthy","html-keyboard-response","140","470607","0.0-11.0-1.43","","469","","","<div class='trialDiv'><img src='Fruit/plums1.png'><br><font class='baseline'><strong>Plum Powerball</strong><p>Choose number of points to bet.</font><div class='respPicDiv'><img src='img/responseButtonOffersNo0L.png' class='respPic'></div></div>","5","15","Plum Powerball","Fruit/plums1.png","Lost","0.65,0.35","12","0.65","262","44","",""
"","","","decisionFB","63d842d3e9626bd5fe5c17b1","bdp_rwlrn","Fri Mar 10 2023 11:59:19 GMT-0800 (Pacific Standard Time)","675732","Trustworthy,Untrustworthy","html-keyboard-response","141","470863","0.0-11.0-2.43","","null","","","<div class='trialDiv'><img src='Fruit/plums1.png'><br><font class='baseline'><strong>Plum Powerball</strong><p>Choose number of points to bet.</font><div class='respPicDiv'><img src='img/responseButtonOffersNo0L5.png' class='respPic'></div></div>","null","15","Plum Powerball","Fruit/plums1.png","Lost","0.65,0.35","12","0.65","257","44","",""
"","","","feedback","63d842d3e9626bd5fe5c17b1","bdp_rwlrn","Fri Mar 10 2023 11:59:19 GMT-0800 (Pacific Standard Time)","675732","Trustworthy,Untrustworthy","html-keyboard-response","142","471864","0.0-11.0-3.43","","null","","","<div class='respPicDiv'><img src='img/responseButtonOffersNo0_wht.png' class='respPic'></div><div class='trialDiv'><img src='Fruit/plums1.png'><br><font class='baseline'><strong>Plum Powerball</strong><p><strong><font class='negOutcome'>You LOST</font><p>You bet: 5</strong></font> &nbsp; &nbsp; &nbsp; &nbsp; &nbsp; &nbsp;<font class='negOutcome'>You receive: <strong>0</strong></font></div>","null","15","Plum Powerball","Fruit/plums1.png","Lost","0.65,0.35","12","0.65","257","44","",""
"","","","decision","63d842d3e9626bd5fe5c17b1","bdp_rwlrn","Fri Mar 10 2023 11:59:19 GMT-0800 (Pacific Standard Time)","675732","Trustworthy,Untrustworthy","html-keyboard-response","143","472023","0.0-11.0-1.44","","159","","","<div class='trialDiv'><img src='Fruit/watermelon.png'><br><font class='baseline'><strong>Watermelon Win$</strong><p>Choose number of points to bet.</font><div class='respPicDiv'><img src='img/responseButtonOffersNo0L.png' class='respPic'></div></div>","5","15","Watermelon Win$","Fruit/watermelon.png","Won","0.8,0.35","9","0.8","262","45","",""
"","","","decisionFB","63d842d3e9626bd5fe5c17b1","bdp_rwlrn","Fri Mar 10 2023 11:59:19 GMT-0800 (Pacific Standard Time)","675732","Trustworthy,Untrustworthy","html-keyboard-response","144","472281","0.0-11.0-2.44","","null","","","<div class='trialDiv'><img src='Fruit/watermelon.png'><br><font class='baseline'><strong>Watermelon Win$</strong><p>Choose number of points to bet.</font><div class='respPicDiv'><img src='img/responseButtonOffersNo0L5.png' class='respPic'></div></div>","null","15","Watermelon Win$","Fruit/watermelon.png","Won","0.8,0.35","9","0.8","257","45","",""
"","","","feedback","63d842d3e9626bd5fe5c17b1","bdp_rwlrn","Fri Mar 10 2023 11:59:19 GMT-0800 (Pacific Standard Time)","675732","Trustworthy,Untrustworthy","html-keyboard-response","145","473284","0.0-11.0-3.44","","null","","","<div class='respPicDiv'><img src='img/responseButtonOffersNo0_wht.png' class='respPic'></div><div class='trialDiv'><img src='Fruit/watermelon.png'><br><font class='baseline'><strong>Watermelon Win$</strong><p><strong><font class='posOutcome'>You WON</font><p>You bet: 5</strong></font> &nbsp; &nbsp; &nbsp; &nbsp; &nbsp; &nbsp;<font class='posOutcome'>you receive: <strong>10</strong></font></div>","null","15","Watermelon Win$","Fruit/watermelon.png","Won","0.8,0.35","9","0.8","267","45","",""
"","","","decision","63d842d3e9626bd5fe5c17b1","bdp_rwlrn","Fri Mar 10 2023 11:59:19 GMT-0800 (Pacific Standard Time)","675732","Trustworthy,Untrustworthy","html-keyboard-response","146","473537","0.0-11.0-1.45","","253","","","<div class='trialDiv'><img src='Fruit/lime.png'><br><font class='baseline'><strong>Limin' Large</strong><p>Choose number of points to bet.</font><div class='respPicDiv'><img src='img/responseButtonOffersNo0L.png' class='respPic'></div></div>","1","16","Limin' Large","Fruit/lime.png","Won","0.35,0.8","8","0.35","272","46","",""
"","","","decisionFB","63d842d3e9626bd5fe5c17b1","bdp_rwlrn","Fri Mar 10 2023 11:59:19 GMT-0800 (Pacific Standard Time)","675732","Trustworthy,Untrustworthy","html-keyboard-response","147","473791","0.0-11.0-2.45","","null","","","<div class='trialDiv'><img src='Fruit/lime.png'><br><font class='baseline'><strong>Limin' Large</strong><p>Choose number of points to bet.</font><div class='respPicDiv'><img src='img/responseButtonOffersNo0L1.png' class='respPic'></div></div>","null","16","Limin' Large","Fruit/lime.png","Won","0.35,0.8","8","0.35","271","46","",""
"","","","feedback","63d842d3e9626bd5fe5c17b1","bdp_rwlrn","Fri Mar 10 2023 11:59:19 GMT-0800 (Pacific Standard Time)","675732","Trustworthy,Untrustworthy","html-keyboard-response","148","474793","0.0-11.0-3.45","","null","","","<div class='respPicDiv'><img src='img/responseButtonOffersNo0_wht.png' class='respPic'></div><div class='trialDiv'><img src='Fruit/lime.png'><br><font class='baseline'><strong>Limin' Large</strong><p><strong><font class='posOutcome'>You WON</font><p>You bet: 1</strong></font> &nbsp; &nbsp; &nbsp; &nbsp; &nbsp; &nbsp;<font class='posOutcome'>you receive: <strong>2</strong></font></div>","null","16","Limin' Large","Fruit/lime.png","Won","0.35,0.8","8","0.35","273","46","",""
"","","","decision","63d842d3e9626bd5fe5c17b1","bdp_rwlrn","Fri Mar 10 2023 11:59:19 GMT-0800 (Pacific Standard Time)","675732","Trustworthy,Untrustworthy","html-keyboard-response","149","474885","0.0-11.0-1.46","","91","","","<div class='trialDiv'><img src='Fruit/watermelon.png'><br><font class='baseline'><strong>Watermelon Win$</strong><p>Choose number of points to bet.</font><div class='respPicDiv'><img src='img/responseButtonOffersNo0L.png' class='respPic'></div></div>","1","16","Watermelon Win$","Fruit/watermelon.png","Lost","0.8,0.35","9","0.8","278","47","",""
"","","","decisionFB","63d842d3e9626bd5fe5c17b1","bdp_rwlrn","Fri Mar 10 2023 11:59:19 GMT-0800 (Pacific Standard Time)","675732","Trustworthy,Untrustworthy","html-keyboard-response","150","475148","0.0-11.0-2.46","","null","","","<div class='trialDiv'><img src='Fruit/watermelon.png'><br><font class='baseline'><strong>Watermelon Win$</strong><p>Choose number of points to bet.</font><div class='respPicDiv'><img src='img/responseButtonOffersNo0L1.png' class='respPic'></div></div>","null","16","Watermelon Win$","Fruit/watermelon.png","Lost","0.8,0.35","9","0.8","277","47","",""
"","","","feedback","63d842d3e9626bd5fe5c17b1","bdp_rwlrn","Fri Mar 10 2023 11:59:19 GMT-0800 (Pacific Standard Time)","675732","Trustworthy,Untrustworthy","html-keyboard-response","151","476151","0.0-11.0-3.46","","null","","","<div class='respPicDiv'><img src='img/responseButtonOffersNo0_wht.png' class='respPic'></div><div class='trialDiv'><img src='Fruit/watermelon.png'><br><font class='baseline'><strong>Watermelon Win$</strong><p><strong><font class='negOutcome'>You LOST</font><p>You bet: 1</strong></font> &nbsp; &nbsp; &nbsp; &nbsp; &nbsp; &nbsp;<font class='negOutcome'>You receive: <strong>0</strong></font></div>","null","16","Watermelon Win$","Fruit/watermelon.png","Lost","0.8,0.35","9","0.8","277","47","",""
"","","","decision","63d842d3e9626bd5fe5c17b1","bdp_rwlrn","Fri Mar 10 2023 11:59:19 GMT-0800 (Pacific Standard Time)","675732","Trustworthy,Untrustworthy","html-keyboard-response","152","476181","0.0-11.0-1.47","","29","","","<div class='trialDiv'><img src='Fruit/plums1.png'><br><font class='baseline'><strong>Plum Powerball</strong><p>Choose number of points to bet.</font><div class='respPicDiv'><img src='img/responseButtonOffersNo0L.png' class='respPic'></div></div>","5","16","Plum Powerball","Fruit/plums1.png","Won","0.65,0.35","12","0.65","282","48","",""
"","","","decisionFB","63d842d3e9626bd5fe5c17b1","bdp_rwlrn","Fri Mar 10 2023 11:59:19 GMT-0800 (Pacific Standard Time)","675732","Trustworthy,Untrustworthy","html-keyboard-response","153","476446","0.0-11.0-2.47","","null","","","<div class='trialDiv'><img src='Fruit/plums1.png'><br><font class='baseline'><strong>Plum Powerball</strong><p>Choose number of points to bet.</font><div class='respPicDiv'><img src='img/responseButtonOffersNo0L5.png' class='respPic'></div></div>","null","16","Plum Powerball","Fruit/plums1.png","Won","0.65,0.35","12","0.65","277","48","",""
"","","","feedback","63d842d3e9626bd5fe5c17b1","bdp_rwlrn","Fri Mar 10 2023 11:59:19 GMT-0800 (Pacific Standard Time)","675732","Trustworthy,Untrustworthy","html-keyboard-response","154","477447","0.0-11.0-3.47","","null","","","<div class='respPicDiv'><img src='img/responseButtonOffersNo0_wht.png' class='respPic'></div><div class='trialDiv'><img src='Fruit/plums1.png'><br><font class='baseline'><strong>Plum Powerball</strong><p><strong><font class='posOutcome'>You WON</font><p>You bet: 5</strong></font> &nbsp; &nbsp; &nbsp; &nbsp; &nbsp; &nbsp;<font class='posOutcome'>you receive: <strong>10</strong></font></div>","null","16","Plum Powerball","Fruit/plums1.png","Won","0.65,0.35","12","0.65","287","48","",""
"","","","decision","63d842d3e9626bd5fe5c17b1","bdp_rwlrn","Fri Mar 10 2023 11:59:19 GMT-0800 (Pacific Standard Time)","675732","Trustworthy,Untrustworthy","html-keyboard-response","155","477455","0.0-11.0-1.48","","7","","","<div class='trialDiv'><img src='Fruit/watermelon.png'><br><font class='baseline'><strong>Watermelon Win$</strong><p>Choose number of points to bet.</font><div class='respPicDiv'><img src='img/responseButtonOffersNo0L.png' class='respPic'></div></div>","1","17","Watermelon Win$","Fruit/watermelon.png","Lost","0.8,0.35","9","0.8","292","49","",""
"","","","decisionFB","63d842d3e9626bd5fe5c17b1","bdp_rwlrn","Fri Mar 10 2023 11:59:19 GMT-0800 (Pacific Standard Time)","675732","Trustworthy,Untrustworthy","html-keyboard-response","156","477709","0.0-11.0-2.48","","null","","","<div class='trialDiv'><img src='Fruit/watermelon.png'><br><font class='baseline'><strong>Watermelon Win$</strong><p>Choose number of points to bet.</font><div class='respPicDiv'><img src='img/responseButtonOffersNo0L1.png' class='respPic'></div></div>","null","17","Watermelon Win$","Fruit/watermelon.png","Lost","0.8,0.35","9","0.8","291","49","",""
"","","","feedback","63d842d3e9626bd5fe5c17b1","bdp_rwlrn","Fri Mar 10 2023 11:59:19 GMT-0800 (Pacific Standard Time)","675732","Trustworthy,Untrustworthy","html-keyboard-response","157","478713","0.0-11.0-3.48","","null","","","<div class='respPicDiv'><img src='img/responseButtonOffersNo0_wht.png' class='respPic'></div><div class='trialDiv'><img src='Fruit/watermelon.png'><br><font class='baseline'><strong>Watermelon Win$</strong><p><strong><font class='negOutcome'>You LOST</font><p>You bet: 1</strong></font> &nbsp; &nbsp; &nbsp; &nbsp; &nbsp; &nbsp;<font class='negOutcome'>You receive: <strong>0</strong></font></div>","null","17","Watermelon Win$","Fruit/watermelon.png","Lost","0.8,0.35","9","0.8","291","49","",""
"","","","decision","63d842d3e9626bd5fe5c17b1","bdp_rwlrn","Fri Mar 10 2023 11:59:19 GMT-0800 (Pacific Standard Time)","675732","Trustworthy,Untrustworthy","html-keyboard-response","158","478807","0.0-11.0-1.49","","93","","","<div class='trialDiv'><img src='Fruit/plums1.png'><br><font class='baseline'><strong>Plum Powerball</strong><p>Choose number of points to bet.</font><div class='respPicDiv'><img src='img/responseButtonOffersNo0L.png' class='respPic'></div></div>","5","17","Plum Powerball","Fruit/plums1.png","Lost","0.65,0.35","12","0.65","296","50","",""
"","","","decisionFB","63d842d3e9626bd5fe5c17b1","bdp_rwlrn","Fri Mar 10 2023 11:59:19 GMT-0800 (Pacific Standard Time)","675732","Trustworthy,Untrustworthy","html-keyboard-response","159","479068","0.0-11.0-2.49","","null","","","<div class='trialDiv'><img src='Fruit/plums1.png'><br><font class='baseline'><strong>Plum Powerball</strong><p>Choose number of points to bet.</font><div class='respPicDiv'><img src='img/responseButtonOffersNo0L5.png' class='respPic'></div></div>","null","17","Plum Powerball","Fruit/plums1.png","Lost","0.65,0.35","12","0.65","291","50","",""
"","","","feedback","63d842d3e9626bd5fe5c17b1","bdp_rwlrn","Fri Mar 10 2023 11:59:19 GMT-0800 (Pacific Standard Time)","675732","Trustworthy,Untrustworthy","html-keyboard-response","160","480071","0.0-11.0-3.49","","null","","","<div class='respPicDiv'><img src='img/responseButtonOffersNo0_wht.png' class='respPic'></div><div class='trialDiv'><img src='Fruit/plums1.png'><br><font class='baseline'><strong>Plum Powerball</strong><p><strong><font class='negOutcome'>You LOST</font><p>You bet: 5</strong></font> &nbsp; &nbsp; &nbsp; &nbsp; &nbsp; &nbsp;<font class='negOutcome'>You receive: <strong>0</strong></font></div>","null","17","Plum Powerball","Fruit/plums1.png","Lost","0.65,0.35","12","0.65","291","50","",""
"","","","decision","63d842d3e9626bd5fe5c17b1","bdp_rwlrn","Fri Mar 10 2023 11:59:19 GMT-0800 (Pacific Standard Time)","675732","Trustworthy,Untrustworthy","html-keyboard-response","161","480493","0.0-11.0-1.50","","421","","","<div class='trialDiv'><img src='Fruit/lime.png'><br><font class='baseline'><strong>Limin' Large</strong><p>Choose number of points to bet.</font><div class='respPicDiv'><img src='img/responseButtonOffersNo0L.png' class='respPic'></div></div>","5","17","Limin' Large","Fruit/lime.png","Lost","0.35,0.8","8","0.35","296","51","",""
