"trial_type","trial_index","time_elapsed","internal_node_id","subject_id","task","startTime","totalTime","labels","view_history","rt","event","trial","time","trialtype","success","numBlurs","stimulus","key_press","ltround","name","fileID","outcome","lottotype","lottoswpt","lottocurrpshare","point_total","round","faceID","face"
"pavlovia","0","2","0.0-0.0","63034df51d918e1e3b97e5ce","bdp_rwlrn","Wed Mar 15 2023 23:30:11 GMT-0400 (Eastern Daylight Time)","731497","Trustworthy,Untrustworthy","","","","","","","","","","","","","","","","","","","","",""
"instructions","1","6485","0.0-1.0","63034df51d918e1e3b97e5ce","bdp_rwlrn","Wed Mar 15 2023 23:30:11 GMT-0400 (Eastern Daylight Time)","731497","Trustworthy,Untrustworthy","[{""page_index"":0,""viewing_time"":6483}]","6483","","","","","","","","","","","","","","","","","","",""
"","","","","63034df51d918e1e3b97e5ce","bdp_rwlrn","Wed Mar 15 2023 23:30:11 GMT-0400 (Eastern Daylight Time)","731497","Trustworthy,Untrustworthy","","","fullscreenenter","2","8414","fullscreenenter","","","","","","","","","","","","","","",""
"fullscreen","2","9398","0.0-2.0","63034df51d918e1e3b97e5ce","bdp_rwlrn","Wed Mar 15 2023 23:30:11 GMT-0400 (Eastern Daylight Time)","731497","Trustworthy,Untrustworthy","","","","","","","true","","","","","","","","","","","","","",""
"","","","","63034df51d918e1e3b97e5ce","bdp_rwlrn","Wed Mar 15 2023 23:30:11 GMT-0400 (Eastern Daylight Time)","731497","Trustworthy,Untrustworthy","","","blur","3","30454","blurevent","","1","","","","","","","","","","","","",""
"","","","","63034df51d918e1e3b97e5ce","bdp_rwlrn","Wed Mar 15 2023 23:30:11 GMT-0400 (Eastern Daylight Time)","731497","Trustworthy,Untrustworthy","","","focus","3","38133","focusevent","","","","","","","","","","","","","","",""
"instructions","3","149425","0.0-4.0","63034df51d918e1e3b97e5ce","bdp_rwlrn","Wed Mar 15 2023 23:30:11 GMT-0400 (Eastern Daylight Time)","731497","Trustworthy,Untrustworthy","[{""page_index"":0,""viewing_time"":17015},{""page_index"":1,""viewing_time"":45640},{""page_index"":2,""viewing_time"":11370},{""page_index"":3,""viewing_time"":9585},{""page_index"":4,""viewing_time"":40307},{""page_index"":5,""viewing_time"":16109}]","140027","","","","","","","","","","","","","","","","","","",""
"html-keyboard-response","4","155312","0.0-5.0","63034df51d918e1e3b97e5ce","bdp_rwlrn","Wed Mar 15 2023 23:30:11 GMT-0400 (Eastern Daylight Time)","731497","Trustworthy,Untrustworthy","","5886","","","","","","","<div class='header' style='text-align:left; position: absolute; top: 5%; left: 5%;'><small>Task 1 of 5</small></div><div class='instruxDiv'><p><strong>1) What is the maximum number of points you can choose to bet on a lottery?</strong></p><p>a) 0</p><p>b) 1</p><p>c) 5</p>","C","","","","","","","","","","",""
"html-keyboard-response","5","158512","0.0-6.0","63034df51d918e1e3b97e5ce","bdp_rwlrn","Wed Mar 15 2023 23:30:11 GMT-0400 (Eastern Daylight Time)","731497","Trustworthy,Untrustworthy","","3091","","","","","","","<div class='header' style='text-align:left; position: absolute; top: 5%; left: 5%;'><small>Task 1 of 5</small></div><div class='instruxDiv'><p><strong>1) What is the maximum number of points you can choose to bet on a lottery?</strong></p><p>a) 1</p><p>b) 1</p><p style='color:#00FF00'>c) 5</p><h3 style='color:#00FF00'>Correct!</h3><h3 class='center-content'>The correct response is c).</h3><h3 class='center-content'>The maximum number of points you can choose to bet on a lottery is 5 points.</h3><p><em>Press SPACEBAR to continue</em></p></div>"," ","","","","","","","","","","",""
"html-keyboard-response","6","164623","0.0-7.0","63034df51d918e1e3b97e5ce","bdp_rwlrn","Wed Mar 15 2023 23:30:11 GMT-0400 (Eastern Daylight Time)","731497","Trustworthy,Untrustworthy","","6002","","","","","","","<div class='header' style='text-align:left; position: absolute; top: 5%; left: 5%;'><small>Task 1 of 5</small></div><div class='instruxDiv'><p><strong>2) How many points can you win each round?</strong></p><p>a) 10 points</p><p>b) Double what you bet</p><p>c) Quadruple what you bet</p>","B","","","","","","","","","","",""
"html-keyboard-response","7","166158","0.0-8.0","63034df51d918e1e3b97e5ce","bdp_rwlrn","Wed Mar 15 2023 23:30:11 GMT-0400 (Eastern Daylight Time)","731497","Trustworthy,Untrustworthy","","1425","","","","","","","<div class='header' style='text-align:left; position: absolute; top: 5%; left: 5%;'><small>Task 1 of 5</small></div><div class='instruxDiv'><p><strong>2) How many points can you win each round?</strong></p><p>a) 10 points</p><p style='color:#00FF00'>b) Double what you bet</p><p>c) Quadruple what you bet</p><h3 style='color:#00FF00'>Correct!</h3><h3 class='center-content'>The correct response is b).</h3><h3 class='center-content'>You can win double the amount of points you bet.</h3><p><em>Press SPACEBAR to continue</em></p></div>"," ","","","","","","","","","","",""
"html-keyboard-response","8","171274","0.0-9.0","63034df51d918e1e3b97e5ce","bdp_rwlrn","Wed Mar 15 2023 23:30:11 GMT-0400 (Eastern Daylight Time)","731497","Trustworthy,Untrustworthy","","null","","","","","","","<div class='header' style='text-align:left; position: absolute; top: 5%; left: 5%;'><small>Task 1 of 5</small></div><div class='instruxDiv'><p>Thank you for completing the quiz<p>These are the actual lotteries you will be playing in the next block:<p><div class='tc' align='center'><img class='introPic' src='Fruit/pears.png'><br><strong>Pears Aplenty</strong></div><div class='bl' align='center'><img class='introPic' src='Fruit/mango.png'><br><strong>Mega Mangos</strong></div><div class='br' align='center'><img class='introPic' src='Fruit/orange.png'><br><strong>Odds are Orange</strong></div></div><p>Across <strong>66 rounds</strong> you will play each lottery <strong>22 times</strong> (in random order).<p style='align:center; color:white'><font <em>Press SPACEBAR to continue</em></p>","null","","","","","","","","","","",""
"instructions","9","190153","0.0-10.0","63034df51d918e1e3b97e5ce","bdp_rwlrn","Wed Mar 15 2023 23:30:11 GMT-0400 (Eastern Daylight Time)","731497","Trustworthy,Untrustworthy","[{""page_index"":0,""viewing_time"":13747},{""page_index"":1,""viewing_time"":5132}]","18879","","","","","","","","","","","","","","","","","","",""
"html-keyboard-response","10","197609","0.0-11.0-1.0","63034df51d918e1e3b97e5ce","bdp_rwlrn","Wed Mar 15 2023 23:30:11 GMT-0400 (Eastern Daylight Time)","731497","Trustworthy,Untrustworthy","","7346","","","","decision","","","<div class='trialDiv'><img src='Fruit/mango.png'><br><font class='baseline'><strong>Mega Mangos</strong><p>Choose number of points to bet.</font><div class='respPicDiv'><img src='img/responseButtonOffersNo0L.png' class='respPic'></div></div>","3","1","Mega Mangos","Fruit/mango.png","Won","0.65,0.2","10","0.65","5","1","",""
"html-keyboard-response","11","197867","0.0-11.0-2.0","63034df51d918e1e3b97e5ce","bdp_rwlrn","Wed Mar 15 2023 23:30:11 GMT-0400 (Eastern Daylight Time)","731497","Trustworthy,Untrustworthy","","null","","","","decisionFB","","","<div class='trialDiv'><img src='Fruit/mango.png'><br><font class='baseline'><strong>Mega Mangos</strong><p>Choose number of points to bet.</font><div class='respPicDiv'><img src='img/responseButtonOffersNo0L3.png' class='respPic'></div></div>","null","1","Mega Mangos","Fruit/mango.png","Won","0.65,0.2","10","0.65","2","1","",""
"html-keyboard-response","12","198868","0.0-11.0-3.0","63034df51d918e1e3b97e5ce","bdp_rwlrn","Wed Mar 15 2023 23:30:11 GMT-0400 (Eastern Daylight Time)","731497","Trustworthy,Untrustworthy","","null","","","","feedback","","","<div class='respPicDiv'><img src='img/responseButtonOffersNo0_wht.png' class='respPic'></div><div class='trialDiv'><img src='Fruit/mango.png'><br><font class='baseline'><strong>Mega Mangos</strong><p><strong><font class='posOutcome'>You WON</font><p>You bet: 3</strong></font> &nbsp; &nbsp; &nbsp; &nbsp; &nbsp; &nbsp;<font class='posOutcome'>you receive: <strong>6</strong></font></div>","null","1","Mega Mangos","Fruit/mango.png","Won","0.65,0.2","10","0.65","8","1","",""
"html-keyboard-response","13","204214","0.0-11.0-1.1","63034df51d918e1e3b97e5ce","bdp_rwlrn","Wed Mar 15 2023 23:30:11 GMT-0400 (Eastern Daylight Time)","731497","Trustworthy,Untrustworthy","","5345","","","","decision","","","<div class='trialDiv'><img src='Fruit/orange.png'><br><font class='baseline'><strong>Odds are Orange</strong><p>Choose number of points to bet.</font><div class='respPicDiv'><img src='img/responseButtonOffersNo0L.png' class='respPic'></div></div>","3","1","Odds are Orange","Fruit/orange.png","Lost","0.65,0.35","10","0.65","13","2","",""
"html-keyboard-response","14","204469","0.0-11.0-2.1","63034df51d918e1e3b97e5ce","bdp_rwlrn","Wed Mar 15 2023 23:30:11 GMT-0400 (Eastern Daylight Time)","731497","Trustworthy,Untrustworthy","","null","","","","decisionFB","","","<div class='trialDiv'><img src='Fruit/orange.png'><br><font class='baseline'><strong>Odds are Orange</strong><p>Choose number of points to bet.</font><div class='respPicDiv'><img src='img/responseButtonOffersNo0L3.png' class='respPic'></div></div>","null","1","Odds are Orange","Fruit/orange.png","Lost","0.65,0.35","10","0.65","10","2","",""
"html-keyboard-response","15","205477","0.0-11.0-3.1","63034df51d918e1e3b97e5ce","bdp_rwlrn","Wed Mar 15 2023 23:30:11 GMT-0400 (Eastern Daylight Time)","731497","Trustworthy,Untrustworthy","","null","","","","feedback","","","<div class='respPicDiv'><img src='img/responseButtonOffersNo0_wht.png' class='respPic'></div><div class='trialDiv'><img src='Fruit/orange.png'><br><font class='baseline'><strong>Odds are Orange</strong><p><strong><font class='negOutcome'>You LOST</font><p>You bet: 3</strong></font> &nbsp; &nbsp; &nbsp; &nbsp; &nbsp; &nbsp;<font class='negOutcome'>You receive: <strong>0</strong></font></div>","null","1","Odds are Orange","Fruit/orange.png","Lost","0.65,0.35","10","0.65","10","2","",""
"html-keyboard-response","16","207048","0.0-11.0-1.2","63034df51d918e1e3b97e5ce","bdp_rwlrn","Wed Mar 15 2023 23:30:11 GMT-0400 (Eastern Daylight Time)","731497","Trustworthy,Untrustworthy","","1570","","","","decision","","","<div class='trialDiv'><img src='Fruit/pears.png'><br><font class='baseline'><strong>Pears Aplenty</strong><p>Choose number of points to bet.</font><div class='respPicDiv'><img src='img/responseButtonOffersNo0L.png' class='respPic'></div></div>","3","1","Pears Aplenty","Fruit/pears.png","Lost","0.2,0.65","11","0.2","15","3","",""
"html-keyboard-response","17","207301","0.0-11.0-2.2","63034df51d918e1e3b97e5ce","bdp_rwlrn","Wed Mar 15 2023 23:30:11 GMT-0400 (Eastern Daylight Time)","731497","Trustworthy,Untrustworthy","","null","","","","decisionFB","","","<div class='trialDiv'><img src='Fruit/pears.png'><br><font class='baseline'><strong>Pears Aplenty</strong><p>Choose number of points to bet.</font><div class='respPicDiv'><img src='img/responseButtonOffersNo0L3.png' class='respPic'></div></div>","null","1","Pears Aplenty","Fruit/pears.png","Lost","0.2,0.65","11","0.2","12","3","",""
"html-keyboard-response","18","208312","0.0-11.0-3.2","63034df51d918e1e3b97e5ce","bdp_rwlrn","Wed Mar 15 2023 23:30:11 GMT-0400 (Eastern Daylight Time)","731497","Trustworthy,Untrustworthy","","null","","","","feedback","","","<div class='respPicDiv'><img src='img/responseButtonOffersNo0_wht.png' class='respPic'></div><div class='trialDiv'><img src='Fruit/pears.png'><br><font class='baseline'><strong>Pears Aplenty</strong><p><strong><font class='negOutcome'>You LOST</font><p>You bet: 3</strong></font> &nbsp; &nbsp; &nbsp; &nbsp; &nbsp; &nbsp;<font class='negOutcome'>You receive: <strong>0</strong></font></div>","null","1","Pears Aplenty","Fruit/pears.png","Lost","0.2,0.65","11","0.2","12","3","",""
"html-keyboard-response","19","210543","0.0-11.0-1.3","63034df51d918e1e3b97e5ce","bdp_rwlrn","Wed Mar 15 2023 23:30:11 GMT-0400 (Eastern Daylight Time)","731497","Trustworthy,Untrustworthy","","2230","","","","decision","","","<div class='trialDiv'><img src='Fruit/mango.png'><br><font class='baseline'><strong>Mega Mangos</strong><p>Choose number of points to bet.</font><div class='respPicDiv'><img src='img/responseButtonOffersNo0L.png' class='respPic'></div></div>","4","2","Mega Mangos","Fruit/mango.png","Won","0.65,0.2","10","0.65","17","4","",""
"html-keyboard-response","20","210808","0.0-11.0-2.3","63034df51d918e1e3b97e5ce","bdp_rwlrn","Wed Mar 15 2023 23:30:11 GMT-0400 (Eastern Daylight Time)","731497","Trustworthy,Untrustworthy","","null","","","","decisionFB","","","<div class='trialDiv'><img src='Fruit/mango.png'><br><font class='baseline'><strong>Mega Mangos</strong><p>Choose number of points to bet.</font><div class='respPicDiv'><img src='img/responseButtonOffersNo0L4.png' class='respPic'></div></div>","null","2","Mega Mangos","Fruit/mango.png","Won","0.65,0.2","10","0.65","13","4","",""
"html-keyboard-response","21","211816","0.0-11.0-3.3","63034df51d918e1e3b97e5ce","bdp_rwlrn","Wed Mar 15 2023 23:30:11 GMT-0400 (Eastern Daylight Time)","731497","Trustworthy,Untrustworthy","","null","","","","feedback","","","<div class='respPicDiv'><img src='img/responseButtonOffersNo0_wht.png' class='respPic'></div><div class='trialDiv'><img src='Fruit/mango.png'><br><font class='baseline'><strong>Mega Mangos</strong><p><strong><font class='posOutcome'>You WON</font><p>You bet: 4</strong></font> &nbsp; &nbsp; &nbsp; &nbsp; &nbsp; &nbsp;<font class='posOutcome'>you receive: <strong>8</strong></font></div>","null","2","Mega Mangos","Fruit/mango.png","Won","0.65,0.2","10","0.65","21","4","",""
"html-keyboard-response","22","214029","0.0-11.0-1.4","63034df51d918e1e3b97e5ce","bdp_rwlrn","Wed Mar 15 2023 23:30:11 GMT-0400 (Eastern Daylight Time)","731497","Trustworthy,Untrustworthy","","2212","","","","decision","","","<div class='trialDiv'><img src='Fruit/orange.png'><br><font class='baseline'><strong>Odds are Orange</strong><p>Choose number of points to bet.</font><div class='respPicDiv'><img src='img/responseButtonOffersNo0L.png' class='respPic'></div></div>","2","2","Odds are Orange","Fruit/orange.png","Won","0.65,0.35","10","0.65","26","5","",""
"html-keyboard-response","23","214295","0.0-11.0-2.4","63034df51d918e1e3b97e5ce","bdp_rwlrn","Wed Mar 15 2023 23:30:11 GMT-0400 (Eastern Daylight Time)","731497","Trustworthy,Untrustworthy","","null","","","","decisionFB","","","<div class='trialDiv'><img src='Fruit/orange.png'><br><font class='baseline'><strong>Odds are Orange</strong><p>Choose number of points to bet.</font><div class='respPicDiv'><img src='img/responseButtonOffersNo0L2.png' class='respPic'></div></div>","null","2","Odds are Orange","Fruit/orange.png","Won","0.65,0.35","10","0.65","24","5","",""
"html-keyboard-response","24","215311","0.0-11.0-3.4","63034df51d918e1e3b97e5ce","bdp_rwlrn","Wed Mar 15 2023 23:30:11 GMT-0400 (Eastern Daylight Time)","731497","Trustworthy,Untrustworthy","","null","","","","feedback","","","<div class='respPicDiv'><img src='img/responseButtonOffersNo0_wht.png' class='respPic'></div><div class='trialDiv'><img src='Fruit/orange.png'><br><font class='baseline'><strong>Odds are Orange</strong><p><strong><font class='posOutcome'>You WON</font><p>You bet: 2</strong></font> &nbsp; &nbsp; &nbsp; &nbsp; &nbsp; &nbsp;<font class='posOutcome'>you receive: <strong>4</strong></font></div>","null","2","Odds are Orange","Fruit/orange.png","Won","0.65,0.35","10","0.65","28","5","",""
"html-keyboard-response","25","221548","0.0-11.0-1.5","63034df51d918e1e3b97e5ce","bdp_rwlrn","Wed Mar 15 2023 23:30:11 GMT-0400 (Eastern Daylight Time)","731497","Trustworthy,Untrustworthy","","6236","","","","decision","","","<div class='trialDiv'><img src='Fruit/pears.png'><br><font class='baseline'><strong>Pears Aplenty</strong><p>Choose number of points to bet.</font><div class='respPicDiv'><img src='img/responseButtonOffersNo0L.png' class='respPic'></div></div>","2","2","Pears Aplenty","Fruit/pears.png","Won","0.2,0.65","11","0.2","33","6","",""
"html-keyboard-response","26","221814","0.0-11.0-2.5","63034df51d918e1e3b97e5ce","bdp_rwlrn","Wed Mar 15 2023 23:30:11 GMT-0400 (Eastern Daylight Time)","731497","Trustworthy,Untrustworthy","","null","","","","decisionFB","","","<div class='trialDiv'><img src='Fruit/pears.png'><br><font class='baseline'><strong>Pears Aplenty</strong><p>Choose number of points to bet.</font><div class='respPicDiv'><img src='img/responseButtonOffersNo0L2.png' class='respPic'></div></div>","null","2","Pears Aplenty","Fruit/pears.png","Won","0.2,0.65","11","0.2","31","6","",""
"html-keyboard-response","27","222820","0.0-11.0-3.5","63034df51d918e1e3b97e5ce","bdp_rwlrn","Wed Mar 15 2023 23:30:11 GMT-0400 (Eastern Daylight Time)","731497","Trustworthy,Untrustworthy","","null","","","","feedback","","","<div class='respPicDiv'><img src='img/responseButtonOffersNo0_wht.png' class='respPic'></div><div class='trialDiv'><img src='Fruit/pears.png'><br><font class='baseline'><strong>Pears Aplenty</strong><p><strong><font class='posOutcome'>You WON</font><p>You bet: 2</strong></font> &nbsp; &nbsp; &nbsp; &nbsp; &nbsp; &nbsp;<font class='posOutcome'>you receive: <strong>4</strong></font></div>","null","2","Pears Aplenty","Fruit/pears.png","Won","0.2,0.65","11","0.2","35","6","",""
"html-keyboard-response","28","225952","0.0-11.0-1.6","63034df51d918e1e3b97e5ce","bdp_rwlrn","Wed Mar 15 2023 23:30:11 GMT-0400 (Eastern Daylight Time)","731497","Trustworthy,Untrustworthy","","3131","","","","decision","","","<div class='trialDiv'><img src='Fruit/orange.png'><br><font class='baseline'><strong>Odds are Orange</strong><p>Choose number of points to bet.</font><div class='respPicDiv'><img src='img/responseButtonOffersNo0L.png' class='respPic'></div></div>","3","3","Odds are Orange","Fruit/orange.png","Won","0.65,0.35","10","0.65","40","7","",""
"html-keyboard-response","29","226207","0.0-11.0-2.6","63034df51d918e1e3b97e5ce","bdp_rwlrn","Wed Mar 15 2023 23:30:11 GMT-0400 (Eastern Daylight Time)","731497","Trustworthy,Untrustworthy","","null","","","","decisionFB","","","<div class='trialDiv'><img src='Fruit/orange.png'><br><font class='baseline'><strong>Odds are Orange</strong><p>Choose number of points to bet.</font><div class='respPicDiv'><img src='img/responseButtonOffersNo0L3.png' class='respPic'></div></div>","null","3","Odds are Orange","Fruit/orange.png","Won","0.65,0.35","10","0.65","37","7","",""
"html-keyboard-response","30","227223","0.0-11.0-3.6","63034df51d918e1e3b97e5ce","bdp_rwlrn","Wed Mar 15 2023 23:30:11 GMT-0400 (Eastern Daylight Time)","731497","Trustworthy,Untrustworthy","","null","","","","feedback","","","<div class='respPicDiv'><img src='img/responseButtonOffersNo0_wht.png' class='respPic'></div><div class='trialDiv'><img src='Fruit/orange.png'><br><font class='baseline'><strong>Odds are Orange</strong><p><strong><font class='posOutcome'>You WON</font><p>You bet: 3</strong></font> &nbsp; &nbsp; &nbsp; &nbsp; &nbsp; &nbsp;<font class='posOutcome'>you receive: <strong>6</strong></font></div>","null","3","Odds are Orange","Fruit/orange.png","Won","0.65,0.35","10","0.65","43","7","",""
"html-keyboard-response","31","231691","0.0-11.0-1.7","63034df51d918e1e3b97e5ce","bdp_rwlrn","Wed Mar 15 2023 23:30:11 GMT-0400 (Eastern Daylight Time)","731497","Trustworthy,Untrustworthy","","4467","","","","decision","","","<div class='trialDiv'><img src='Fruit/mango.png'><br><font class='baseline'><strong>Mega Mangos</strong><p>Choose number of points to bet.</font><div class='respPicDiv'><img src='img/responseButtonOffersNo0L.png' class='respPic'></div></div>","4","3","Mega Mangos","Fruit/mango.png","Won","0.65,0.2","10","0.65","48","8","",""
"html-keyboard-response","32","231948","0.0-11.0-2.7","63034df51d918e1e3b97e5ce","bdp_rwlrn","Wed Mar 15 2023 23:30:11 GMT-0400 (Eastern Daylight Time)","731497","Trustworthy,Untrustworthy","","null","","","","decisionFB","","","<div class='trialDiv'><img src='Fruit/mango.png'><br><font class='baseline'><strong>Mega Mangos</strong><p>Choose number of points to bet.</font><div class='respPicDiv'><img src='img/responseButtonOffersNo0L4.png' class='respPic'></div></div>","null","3","Mega Mangos","Fruit/mango.png","Won","0.65,0.2","10","0.65","44","8","",""
"html-keyboard-response","33","232956","0.0-11.0-3.7","63034df51d918e1e3b97e5ce","bdp_rwlrn","Wed Mar 15 2023 23:30:11 GMT-0400 (Eastern Daylight Time)","731497","Trustworthy,Untrustworthy","","null","","","","feedback","","","<div class='respPicDiv'><img src='img/responseButtonOffersNo0_wht.png' class='respPic'></div><div class='trialDiv'><img src='Fruit/mango.png'><br><font class='baseline'><strong>Mega Mangos</strong><p><strong><font class='posOutcome'>You WON</font><p>You bet: 4</strong></font> &nbsp; &nbsp; &nbsp; &nbsp; &nbsp; &nbsp;<font class='posOutcome'>you receive: <strong>8</strong></font></div>","null","3","Mega Mangos","Fruit/mango.png","Won","0.65,0.2","10","0.65","52","8","",""
"html-keyboard-response","34","236218","0.0-11.0-1.8","63034df51d918e1e3b97e5ce","bdp_rwlrn","Wed Mar 15 2023 23:30:11 GMT-0400 (Eastern Daylight Time)","731497","Trustworthy,Untrustworthy","","3260","","","","decision","","","<div class='trialDiv'><img src='Fruit/pears.png'><br><font class='baseline'><strong>Pears Aplenty</strong><p>Choose number of points to bet.</font><div class='respPicDiv'><img src='img/responseButtonOffersNo0L.png' class='respPic'></div></div>","3","3","Pears Aplenty","Fruit/pears.png","Lost","0.2,0.65","11","0.2","57","9","",""
"html-keyboard-response","35","236478","0.0-11.0-2.8","63034df51d918e1e3b97e5ce","bdp_rwlrn","Wed Mar 15 2023 23:30:11 GMT-0400 (Eastern Daylight Time)","731497","Trustworthy,Untrustworthy","","null","","","","decisionFB","","","<div class='trialDiv'><img src='Fruit/pears.png'><br><font class='baseline'><strong>Pears Aplenty</strong><p>Choose number of points to bet.</font><div class='respPicDiv'><img src='img/responseButtonOffersNo0L3.png' class='respPic'></div></div>","null","3","Pears Aplenty","Fruit/pears.png","Lost","0.2,0.65","11","0.2","54","9","",""
"html-keyboard-response","36","237482","0.0-11.0-3.8","63034df51d918e1e3b97e5ce","bdp_rwlrn","Wed Mar 15 2023 23:30:11 GMT-0400 (Eastern Daylight Time)","731497","Trustworthy,Untrustworthy","","null","","","","feedback","","","<div class='respPicDiv'><img src='img/responseButtonOffersNo0_wht.png' class='respPic'></div><div class='trialDiv'><img src='Fruit/pears.png'><br><font class='baseline'><strong>Pears Aplenty</strong><p><strong><font class='negOutcome'>You LOST</font><p>You bet: 3</strong></font> &nbsp; &nbsp; &nbsp; &nbsp; &nbsp; &nbsp;<font class='negOutcome'>You receive: <strong>0</strong></font></div>","null","3","Pears Aplenty","Fruit/pears.png","Lost","0.2,0.65","11","0.2","54","9","",""
"html-keyboard-response","37","240980","0.0-11.0-1.9","63034df51d918e1e3b97e5ce","bdp_rwlrn","Wed Mar 15 2023 23:30:11 GMT-0400 (Eastern Daylight Time)","731497","Trustworthy,Untrustworthy","","3497","","","","decision","","","<div class='trialDiv'><img src='Fruit/mango.png'><br><font class='baseline'><strong>Mega Mangos</strong><p>Choose number of points to bet.</font><div class='respPicDiv'><img src='img/responseButtonOffersNo0L.png' class='respPic'></div></div>","4","4","Mega Mangos","Fruit/mango.png","Won","0.65,0.2","10","0.65","59","10","",""
"html-keyboard-response","38","241233","0.0-11.0-2.9","63034df51d918e1e3b97e5ce","bdp_rwlrn","Wed Mar 15 2023 23:30:11 GMT-0400 (Eastern Daylight Time)","731497","Trustworthy,Untrustworthy","","null","","","","decisionFB","","","<div class='trialDiv'><img src='Fruit/mango.png'><br><font class='baseline'><strong>Mega Mangos</strong><p>Choose number of points to bet.</font><div class='respPicDiv'><img src='img/responseButtonOffersNo0L4.png' class='respPic'></div></div>","null","4","Mega Mangos","Fruit/mango.png","Won","0.65,0.2","10","0.65","55","10","",""
"html-keyboard-response","39","242248","0.0-11.0-3.9","63034df51d918e1e3b97e5ce","bdp_rwlrn","Wed Mar 15 2023 23:30:11 GMT-0400 (Eastern Daylight Time)","731497","Trustworthy,Untrustworthy","","null","","","","feedback","","","<div class='respPicDiv'><img src='img/responseButtonOffersNo0_wht.png' class='respPic'></div><div class='trialDiv'><img src='Fruit/mango.png'><br><font class='baseline'><strong>Mega Mangos</strong><p><strong><font class='posOutcome'>You WON</font><p>You bet: 4</strong></font> &nbsp; &nbsp; &nbsp; &nbsp; &nbsp; &nbsp;<font class='posOutcome'>you receive: <strong>8</strong></font></div>","null","4","Mega Mangos","Fruit/mango.png","Won","0.65,0.2","10","0.65","63","10","",""
"html-keyboard-response","40","246575","0.0-11.0-1.10","63034df51d918e1e3b97e5ce","bdp_rwlrn","Wed Mar 15 2023 23:30:11 GMT-0400 (Eastern Daylight Time)","731497","Trustworthy,Untrustworthy","","4326","","","","decision","","","<div class='trialDiv'><img src='Fruit/orange.png'><br><font class='baseline'><strong>Odds are Orange</strong><p>Choose number of points to bet.</font><div class='respPicDiv'><img src='img/responseButtonOffersNo0L.png' class='respPic'></div></div>","4","4","Odds are Orange","Fruit/orange.png","Lost","0.65,0.35","10","0.65","68","11","",""
"html-keyboard-response","41","246830","0.0-11.0-2.10","63034df51d918e1e3b97e5ce","bdp_rwlrn","Wed Mar 15 2023 23:30:11 GMT-0400 (Eastern Daylight Time)","731497","Trustworthy,Untrustworthy","","null","","","","decisionFB","","","<div class='trialDiv'><img src='Fruit/orange.png'><br><font class='baseline'><strong>Odds are Orange</strong><p>Choose number of points to bet.</font><div class='respPicDiv'><img src='img/responseButtonOffersNo0L4.png' class='respPic'></div></div>","null","4","Odds are Orange","Fruit/orange.png","Lost","0.65,0.35","10","0.65","64","11","",""
"html-keyboard-response","42","247844","0.0-11.0-3.10","63034df51d918e1e3b97e5ce","bdp_rwlrn","Wed Mar 15 2023 23:30:11 GMT-0400 (Eastern Daylight Time)","731497","Trustworthy,Untrustworthy","","null","","","","feedback","","","<div class='respPicDiv'><img src='img/responseButtonOffersNo0_wht.png' class='respPic'></div><div class='trialDiv'><img src='Fruit/orange.png'><br><font class='baseline'><strong>Odds are Orange</strong><p><strong><font class='negOutcome'>You LOST</font><p>You bet: 4</strong></font> &nbsp; &nbsp; &nbsp; &nbsp; &nbsp; &nbsp;<font class='negOutcome'>You receive: <strong>0</strong></font></div>","null","4","Odds are Orange","Fruit/orange.png","Lost","0.65,0.35","10","0.65","64","11","",""
"html-keyboard-response","43","251091","0.0-11.0-1.11","63034df51d918e1e3b97e5ce","bdp_rwlrn","Wed Mar 15 2023 23:30:11 GMT-0400 (Eastern Daylight Time)","731497","Trustworthy,Untrustworthy","","3246","","","","decision","","","<div class='trialDiv'><img src='Fruit/pears.png'><br><font class='baseline'><strong>Pears Aplenty</strong><p>Choose number of points to bet.</font><div class='respPicDiv'><img src='img/responseButtonOffersNo0L.png' class='respPic'></div></div>","2","4","Pears Aplenty","Fruit/pears.png","Won","0.2,0.65","11","0.2","69","12","",""
"html-keyboard-response","44","251347","0.0-11.0-2.11","63034df51d918e1e3b97e5ce","bdp_rwlrn","Wed Mar 15 2023 23:30:11 GMT-0400 (Eastern Daylight Time)","731497","Trustworthy,Untrustworthy","","null","","","","decisionFB","","","<div class='trialDiv'><img src='Fruit/pears.png'><br><font class='baseline'><strong>Pears Aplenty</strong><p>Choose number of points to bet.</font><div class='respPicDiv'><img src='img/responseButtonOffersNo0L2.png' class='respPic'></div></div>","null","4","Pears Aplenty","Fruit/pears.png","Won","0.2,0.65","11","0.2","67","12","",""
"html-keyboard-response","45","252355","0.0-11.0-3.11","63034df51d918e1e3b97e5ce","bdp_rwlrn","Wed Mar 15 2023 23:30:11 GMT-0400 (Eastern Daylight Time)","731497","Trustworthy,Untrustworthy","","null","","","","feedback","","","<div class='respPicDiv'><img src='img/responseButtonOffersNo0_wht.png' class='respPic'></div><div class='trialDiv'><img src='Fruit/pears.png'><br><font class='baseline'><strong>Pears Aplenty</strong><p><strong><font class='posOutcome'>You WON</font><p>You bet: 2</strong></font> &nbsp; &nbsp; &nbsp; &nbsp; &nbsp; &nbsp;<font class='posOutcome'>you receive: <strong>4</strong></font></div>","null","4","Pears Aplenty","Fruit/pears.png","Won","0.2,0.65","11","0.2","71","12","",""
"html-keyboard-response","46","255044","0.0-11.0-1.12","63034df51d918e1e3b97e5ce","bdp_rwlrn","Wed Mar 15 2023 23:30:11 GMT-0400 (Eastern Daylight Time)","731497","Trustworthy,Untrustworthy","","2689","","","","decision","","","<div class='trialDiv'><img src='Fruit/mango.png'><br><font class='baseline'><strong>Mega Mangos</strong><p>Choose number of points to bet.</font><div class='respPicDiv'><img src='img/responseButtonOffersNo0L.png' class='respPic'></div></div>","5","5","Mega Mangos","Fruit/mango.png","Won","0.65,0.2","10","0.65","76","13","",""
"html-keyboard-response","47","255308","0.0-11.0-2.12","63034df51d918e1e3b97e5ce","bdp_rwlrn","Wed Mar 15 2023 23:30:11 GMT-0400 (Eastern Daylight Time)","731497","Trustworthy,Untrustworthy","","null","","","","decisionFB","","","<div class='trialDiv'><img src='Fruit/mango.png'><br><font class='baseline'><strong>Mega Mangos</strong><p>Choose number of points to bet.</font><div class='respPicDiv'><img src='img/responseButtonOffersNo0L5.png' class='respPic'></div></div>","null","5","Mega Mangos","Fruit/mango.png","Won","0.65,0.2","10","0.65","71","13","",""
"html-keyboard-response","48","256320","0.0-11.0-3.12","63034df51d918e1e3b97e5ce","bdp_rwlrn","Wed Mar 15 2023 23:30:11 GMT-0400 (Eastern Daylight Time)","731497","Trustworthy,Untrustworthy","","null","","","","feedback","","","<div class='respPicDiv'><img src='img/responseButtonOffersNo0_wht.png' class='respPic'></div><div class='trialDiv'><img src='Fruit/mango.png'><br><font class='baseline'><strong>Mega Mangos</strong><p><strong><font class='posOutcome'>You WON</font><p>You bet: 5</strong></font> &nbsp; &nbsp; &nbsp; &nbsp; &nbsp; &nbsp;<font class='posOutcome'>you receive: <strong>10</strong></font></div>","null","5","Mega Mangos","Fruit/mango.png","Won","0.65,0.2","10","0.65","81","13","",""
"html-keyboard-response","49","260191","0.0-11.0-1.13","63034df51d918e1e3b97e5ce","bdp_rwlrn","Wed Mar 15 2023 23:30:11 GMT-0400 (Eastern Daylight Time)","731497","Trustworthy,Untrustworthy","","3871","","","","decision","","","<div class='trialDiv'><img src='Fruit/pears.png'><br><font class='baseline'><strong>Pears Aplenty</strong><p>Choose number of points to bet.</font><div class='respPicDiv'><img src='img/responseButtonOffersNo0L.png' class='respPic'></div></div>","3","5","Pears Aplenty","Fruit/pears.png","Lost","0.2,0.65","11","0.2","86","14","",""
"html-keyboard-response","50","260448","0.0-11.0-2.13","63034df51d918e1e3b97e5ce","bdp_rwlrn","Wed Mar 15 2023 23:30:11 GMT-0400 (Eastern Daylight Time)","731497","Trustworthy,Untrustworthy","","null","","","","decisionFB","","","<div class='trialDiv'><img src='Fruit/pears.png'><br><font class='baseline'><strong>Pears Aplenty</strong><p>Choose number of points to bet.</font><div class='respPicDiv'><img src='img/responseButtonOffersNo0L3.png' class='respPic'></div></div>","null","5","Pears Aplenty","Fruit/pears.png","Lost","0.2,0.65","11","0.2","83","14","",""
"html-keyboard-response","51","261456","0.0-11.0-3.13","63034df51d918e1e3b97e5ce","bdp_rwlrn","Wed Mar 15 2023 23:30:11 GMT-0400 (Eastern Daylight Time)","731497","Trustworthy,Untrustworthy","","null","","","","feedback","","","<div class='respPicDiv'><img src='img/responseButtonOffersNo0_wht.png' class='respPic'></div><div class='trialDiv'><img src='Fruit/pears.png'><br><font class='baseline'><strong>Pears Aplenty</strong><p><strong><font class='negOutcome'>You LOST</font><p>You bet: 3</strong></font> &nbsp; &nbsp; &nbsp; &nbsp; &nbsp; &nbsp;<font class='negOutcome'>You receive: <strong>0</strong></font></div>","null","5","Pears Aplenty","Fruit/pears.png","Lost","0.2,0.65","11","0.2","83","14","",""
"html-keyboard-response","52","263045","0.0-11.0-1.14","63034df51d918e1e3b97e5ce","bdp_rwlrn","Wed Mar 15 2023 23:30:11 GMT-0400 (Eastern Daylight Time)","731497","Trustworthy,Untrustworthy","","1588","","","","decision","","","<div class='trialDiv'><img src='Fruit/orange.png'><br><font class='baseline'><strong>Odds are Orange</strong><p>Choose number of points to bet.</font><div class='respPicDiv'><img src='img/responseButtonOffersNo0L.png' class='respPic'></div></div>","3","5","Odds are Orange","Fruit/orange.png","Lost","0.65,0.35","10","0.65","88","15","",""
"html-keyboard-response","53","263306","0.0-11.0-2.14","63034df51d918e1e3b97e5ce","bdp_rwlrn","Wed Mar 15 2023 23:30:11 GMT-0400 (Eastern Daylight Time)","731497","Trustworthy,Untrustworthy","","null","","","","decisionFB","","","<div class='trialDiv'><img src='Fruit/orange.png'><br><font class='baseline'><strong>Odds are Orange</strong><p>Choose number of points to bet.</font><div class='respPicDiv'><img src='img/responseButtonOffersNo0L3.png' class='respPic'></div></div>","null","5","Odds are Orange","Fruit/orange.png","Lost","0.65,0.35","10","0.65","85","15","",""
"html-keyboard-response","54","264309","0.0-11.0-3.14","63034df51d918e1e3b97e5ce","bdp_rwlrn","Wed Mar 15 2023 23:30:11 GMT-0400 (Eastern Daylight Time)","731497","Trustworthy,Untrustworthy","","null","","","","feedback","","","<div class='respPicDiv'><img src='img/responseButtonOffersNo0_wht.png' class='respPic'></div><div class='trialDiv'><img src='Fruit/orange.png'><br><font class='baseline'><strong>Odds are Orange</strong><p><strong><font class='negOutcome'>You LOST</font><p>You bet: 3</strong></font> &nbsp; &nbsp; &nbsp; &nbsp; &nbsp; &nbsp;<font class='negOutcome'>You receive: <strong>0</strong></font></div>","null","5","Odds are Orange","Fruit/orange.png","Lost","0.65,0.35","10","0.65","85","15","",""
"html-keyboard-response","55","267227","0.0-11.0-1.15","63034df51d918e1e3b97e5ce","bdp_rwlrn","Wed Mar 15 2023 23:30:11 GMT-0400 (Eastern Daylight Time)","731497","Trustworthy,Untrustworthy","","2917","","","","decision","","","<div class='trialDiv'><img src='Fruit/pears.png'><br><font class='baseline'><strong>Pears Aplenty</strong><p>Choose number of points to bet.</font><div class='respPicDiv'><img src='img/responseButtonOffersNo0L.png' class='respPic'></div></div>","1","6","Pears Aplenty","Fruit/pears.png","Lost","0.2,0.65","11","0.2","90","16","",""
"html-keyboard-response","56","267490","0.0-11.0-2.15","63034df51d918e1e3b97e5ce","bdp_rwlrn","Wed Mar 15 2023 23:30:11 GMT-0400 (Eastern Daylight Time)","731497","Trustworthy,Untrustworthy","","null","","","","decisionFB","","","<div class='trialDiv'><img src='Fruit/pears.png'><br><font class='baseline'><strong>Pears Aplenty</strong><p>Choose number of points to bet.</font><div class='respPicDiv'><img src='img/responseButtonOffersNo0L1.png' class='respPic'></div></div>","null","6","Pears Aplenty","Fruit/pears.png","Lost","0.2,0.65","11","0.2","89","16","",""
"html-keyboard-response","57","268492","0.0-11.0-3.15","63034df51d918e1e3b97e5ce","bdp_rwlrn","Wed Mar 15 2023 23:30:11 GMT-0400 (Eastern Daylight Time)","731497","Trustworthy,Untrustworthy","","null","","","","feedback","","","<div class='respPicDiv'><img src='img/responseButtonOffersNo0_wht.png' class='respPic'></div><div class='trialDiv'><img src='Fruit/pears.png'><br><font class='baseline'><strong>Pears Aplenty</strong><p><strong><font class='negOutcome'>You LOST</font><p>You bet: 1</strong></font> &nbsp; &nbsp; &nbsp; &nbsp; &nbsp; &nbsp;<font class='negOutcome'>You receive: <strong>0</strong></font></div>","null","6","Pears Aplenty","Fruit/pears.png","Lost","0.2,0.65","11","0.2","89","16","",""
"html-keyboard-response","58","269964","0.0-11.0-1.16","63034df51d918e1e3b97e5ce","bdp_rwlrn","Wed Mar 15 2023 23:30:11 GMT-0400 (Eastern Daylight Time)","731497","Trustworthy,Untrustworthy","","1471","","","","decision","","","<div class='trialDiv'><img src='Fruit/orange.png'><br><font class='baseline'><strong>Odds are Orange</strong><p>Choose number of points to bet.</font><div class='respPicDiv'><img src='img/responseButtonOffersNo0L.png' class='respPic'></div></div>","2","6","Odds are Orange","Fruit/orange.png","Won","0.65,0.35","10","0.65","94","17","",""
"html-keyboard-response","59","270218","0.0-11.0-2.16","63034df51d918e1e3b97e5ce","bdp_rwlrn","Wed Mar 15 2023 23:30:11 GMT-0400 (Eastern Daylight Time)","731497","Trustworthy,Untrustworthy","","null","","","","decisionFB","","","<div class='trialDiv'><img src='Fruit/orange.png'><br><font class='baseline'><strong>Odds are Orange</strong><p>Choose number of points to bet.</font><div class='respPicDiv'><img src='img/responseButtonOffersNo0L2.png' class='respPic'></div></div>","null","6","Odds are Orange","Fruit/orange.png","Won","0.65,0.35","10","0.65","92","17","",""
"html-keyboard-response","60","271225","0.0-11.0-3.16","63034df51d918e1e3b97e5ce","bdp_rwlrn","Wed Mar 15 2023 23:30:11 GMT-0400 (Eastern Daylight Time)","731497","Trustworthy,Untrustworthy","","null","","","","feedback","","","<div class='respPicDiv'><img src='img/responseButtonOffersNo0_wht.png' class='respPic'></div><div class='trialDiv'><img src='Fruit/orange.png'><br><font class='baseline'><strong>Odds are Orange</strong><p><strong><font class='posOutcome'>You WON</font><p>You bet: 2</strong></font> &nbsp; &nbsp; &nbsp; &nbsp; &nbsp; &nbsp;<font class='posOutcome'>you receive: <strong>4</strong></font></div>","null","6","Odds are Orange","Fruit/orange.png","Won","0.65,0.35","10","0.65","96","17","",""
"html-keyboard-response","61","272894","0.0-11.0-1.17","63034df51d918e1e3b97e5ce","bdp_rwlrn","Wed Mar 15 2023 23:30:11 GMT-0400 (Eastern Daylight Time)","731497","Trustworthy,Untrustworthy","","1669","","","","decision","","","<div class='trialDiv'><img src='Fruit/mango.png'><br><font class='baseline'><strong>Mega Mangos</strong><p>Choose number of points to bet.</font><div class='respPicDiv'><img src='img/responseButtonOffersNo0L.png' class='respPic'></div></div>","5","6","Mega Mangos","Fruit/mango.png","Won","0.65,0.2","10","0.65","101","18","",""
"html-keyboard-response","62","273153","0.0-11.0-2.17","63034df51d918e1e3b97e5ce","bdp_rwlrn","Wed Mar 15 2023 23:30:11 GMT-0400 (Eastern Daylight Time)","731497","Trustworthy,Untrustworthy","","null","","","","decisionFB","","","<div class='trialDiv'><img src='Fruit/mango.png'><br><font class='baseline'><strong>Mega Mangos</strong><p>Choose number of points to bet.</font><div class='respPicDiv'><img src='img/responseButtonOffersNo0L5.png' class='respPic'></div></div>","null","6","Mega Mangos","Fruit/mango.png","Won","0.65,0.2","10","0.65","96","18","",""
"html-keyboard-response","63","274167","0.0-11.0-3.17","63034df51d918e1e3b97e5ce","bdp_rwlrn","Wed Mar 15 2023 23:30:11 GMT-0400 (Eastern Daylight Time)","731497","Trustworthy,Untrustworthy","","null","","","","feedback","","","<div class='respPicDiv'><img src='img/responseButtonOffersNo0_wht.png' class='respPic'></div><div class='trialDiv'><img src='Fruit/mango.png'><br><font class='baseline'><strong>Mega Mangos</strong><p><strong><font class='posOutcome'>You WON</font><p>You bet: 5</strong></font> &nbsp; &nbsp; &nbsp; &nbsp; &nbsp; &nbsp;<font class='posOutcome'>you receive: <strong>10</strong></font></div>","null","6","Mega Mangos","Fruit/mango.png","Won","0.65,0.2","10","0.65","106","18","",""
"html-keyboard-response","64","276679","0.0-11.0-1.18","63034df51d918e1e3b97e5ce","bdp_rwlrn","Wed Mar 15 2023 23:30:11 GMT-0400 (Eastern Daylight Time)","731497","Trustworthy,Untrustworthy","","2510","","","","decision","","","<div class='trialDiv'><img src='Fruit/pears.png'><br><font class='baseline'><strong>Pears Aplenty</strong><p>Choose number of points to bet.</font><div class='respPicDiv'><img src='img/responseButtonOffersNo0L.png' class='respPic'></div></div>","2","7","Pears Aplenty","Fruit/pears.png","Lost","0.2,0.65","11","0.2","111","19","",""
"html-keyboard-response","65","276930","0.0-11.0-2.18","63034df51d918e1e3b97e5ce","bdp_rwlrn","Wed Mar 15 2023 23:30:11 GMT-0400 (Eastern Daylight Time)","731497","Trustworthy,Untrustworthy","","null","","","","decisionFB","","","<div class='trialDiv'><img src='Fruit/pears.png'><br><font class='baseline'><strong>Pears Aplenty</strong><p>Choose number of points to bet.</font><div class='respPicDiv'><img src='img/responseButtonOffersNo0L2.png' class='respPic'></div></div>","null","7","Pears Aplenty","Fruit/pears.png","Lost","0.2,0.65","11","0.2","109","19","",""
"html-keyboard-response","66","277932","0.0-11.0-3.18","63034df51d918e1e3b97e5ce","bdp_rwlrn","Wed Mar 15 2023 23:30:11 GMT-0400 (Eastern Daylight Time)","731497","Trustworthy,Untrustworthy","","null","","","","feedback","","","<div class='respPicDiv'><img src='img/responseButtonOffersNo0_wht.png' class='respPic'></div><div class='trialDiv'><img src='Fruit/pears.png'><br><font class='baseline'><strong>Pears Aplenty</strong><p><strong><font class='negOutcome'>You LOST</font><p>You bet: 2</strong></font> &nbsp; &nbsp; &nbsp; &nbsp; &nbsp; &nbsp;<font class='negOutcome'>You receive: <strong>0</strong></font></div>","null","7","Pears Aplenty","Fruit/pears.png","Lost","0.2,0.65","11","0.2","109","19","",""
"html-keyboard-response","67","279387","0.0-11.0-1.19","63034df51d918e1e3b97e5ce","bdp_rwlrn","Wed Mar 15 2023 23:30:11 GMT-0400 (Eastern Daylight Time)","731497","Trustworthy,Untrustworthy","","1454","","","","decision","","","<div class='trialDiv'><img src='Fruit/mango.png'><br><font class='baseline'><strong>Mega Mangos</strong><p>Choose number of points to bet.</font><div class='respPicDiv'><img src='img/responseButtonOffersNo0L.png' class='respPic'></div></div>","5","7","Mega Mangos","Fruit/mango.png","Won","0.65,0.2","10","0.65","114","20","",""
"html-keyboard-response","68","279650","0.0-11.0-2.19","63034df51d918e1e3b97e5ce","bdp_rwlrn","Wed Mar 15 2023 23:30:11 GMT-0400 (Eastern Daylight Time)","731497","Trustworthy,Untrustworthy","","null","","","","decisionFB","","","<div class='trialDiv'><img src='Fruit/mango.png'><br><font class='baseline'><strong>Mega Mangos</strong><p>Choose number of points to bet.</font><div class='respPicDiv'><img src='img/responseButtonOffersNo0L5.png' class='respPic'></div></div>","null","7","Mega Mangos","Fruit/mango.png","Won","0.65,0.2","10","0.65","109","20","",""
"html-keyboard-response","69","280660","0.0-11.0-3.19","63034df51d918e1e3b97e5ce","bdp_rwlrn","Wed Mar 15 2023 23:30:11 GMT-0400 (Eastern Daylight Time)","731497","Trustworthy,Untrustworthy","","null","","","","feedback","","","<div class='respPicDiv'><img src='img/responseButtonOffersNo0_wht.png' class='respPic'></div><div class='trialDiv'><img src='Fruit/mango.png'><br><font class='baseline'><strong>Mega Mangos</strong><p><strong><font class='posOutcome'>You WON</font><p>You bet: 5</strong></font> &nbsp; &nbsp; &nbsp; &nbsp; &nbsp; &nbsp;<font class='posOutcome'>you receive: <strong>10</strong></font></div>","null","7","Mega Mangos","Fruit/mango.png","Won","0.65,0.2","10","0.65","119","20","",""
"html-keyboard-response","70","282211","0.0-11.0-1.20","63034df51d918e1e3b97e5ce","bdp_rwlrn","Wed Mar 15 2023 23:30:11 GMT-0400 (Eastern Daylight Time)","731497","Trustworthy,Untrustworthy","","1550","","","","decision","","","<div class='trialDiv'><img src='Fruit/orange.png'><br><font class='baseline'><strong>Odds are Orange</strong><p>Choose number of points to bet.</font><div class='respPicDiv'><img src='img/responseButtonOffersNo0L.png' class='respPic'></div></div>","2","7","Odds are Orange","Fruit/orange.png","Lost","0.65,0.35","10","0.65","124","21","",""
"html-keyboard-response","71","282467","0.0-11.0-2.20","63034df51d918e1e3b97e5ce","bdp_rwlrn","Wed Mar 15 2023 23:30:11 GMT-0400 (Eastern Daylight Time)","731497","Trustworthy,Untrustworthy","","null","","","","decisionFB","","","<div class='trialDiv'><img src='Fruit/orange.png'><br><font class='baseline'><strong>Odds are Orange</strong><p>Choose number of points to bet.</font><div class='respPicDiv'><img src='img/responseButtonOffersNo0L2.png' class='respPic'></div></div>","null","7","Odds are Orange","Fruit/orange.png","Lost","0.65,0.35","10","0.65","122","21","",""
"html-keyboard-response","72","283481","0.0-11.0-3.20","63034df51d918e1e3b97e5ce","bdp_rwlrn","Wed Mar 15 2023 23:30:11 GMT-0400 (Eastern Daylight Time)","731497","Trustworthy,Untrustworthy","","null","","","","feedback","","","<div class='respPicDiv'><img src='img/responseButtonOffersNo0_wht.png' class='respPic'></div><div class='trialDiv'><img src='Fruit/orange.png'><br><font class='baseline'><strong>Odds are Orange</strong><p><strong><font class='negOutcome'>You LOST</font><p>You bet: 2</strong></font> &nbsp; &nbsp; &nbsp; &nbsp; &nbsp; &nbsp;<font class='negOutcome'>You receive: <strong>0</strong></font></div>","null","7","Odds are Orange","Fruit/orange.png","Lost","0.65,0.35","10","0.65","122","21","",""
"html-keyboard-response","73","285100","0.0-11.0-1.21","63034df51d918e1e3b97e5ce","bdp_rwlrn","Wed Mar 15 2023 23:30:11 GMT-0400 (Eastern Daylight Time)","731497","Trustworthy,Untrustworthy","","1618","","","","decision","","","<div class='trialDiv'><img src='Fruit/mango.png'><br><font class='baseline'><strong>Mega Mangos</strong><p>Choose number of points to bet.</font><div class='respPicDiv'><img src='img/responseButtonOffersNo0L.png' class='respPic'></div></div>","5","8","Mega Mangos","Fruit/mango.png","Won","0.65,0.2","10","0.65","127","22","",""
"html-keyboard-response","74","285354","0.0-11.0-2.21","63034df51d918e1e3b97e5ce","bdp_rwlrn","Wed Mar 15 2023 23:30:11 GMT-0400 (Eastern Daylight Time)","731497","Trustworthy,Untrustworthy","","null","","","","decisionFB","","","<div class='trialDiv'><img src='Fruit/mango.png'><br><font class='baseline'><strong>Mega Mangos</strong><p>Choose number of points to bet.</font><div class='respPicDiv'><img src='img/responseButtonOffersNo0L5.png' class='respPic'></div></div>","null","8","Mega Mangos","Fruit/mango.png","Won","0.65,0.2","10","0.65","122","22","",""
"html-keyboard-response","75","286364","0.0-11.0-3.21","63034df51d918e1e3b97e5ce","bdp_rwlrn","Wed Mar 15 2023 23:30:11 GMT-0400 (Eastern Daylight Time)","731497","Trustworthy,Untrustworthy","","null","","","","feedback","","","<div class='respPicDiv'><img src='img/responseButtonOffersNo0_wht.png' class='respPic'></div><div class='trialDiv'><img src='Fruit/mango.png'><br><font class='baseline'><strong>Mega Mangos</strong><p><strong><font class='posOutcome'>You WON</font><p>You bet: 5</strong></font> &nbsp; &nbsp; &nbsp; &nbsp; &nbsp; &nbsp;<font class='posOutcome'>you receive: <strong>10</strong></font></div>","null","8","Mega Mangos","Fruit/mango.png","Won","0.65,0.2","10","0.65","132","22","",""
"html-keyboard-response","76","290168","0.0-11.0-1.22","63034df51d918e1e3b97e5ce","bdp_rwlrn","Wed Mar 15 2023 23:30:11 GMT-0400 (Eastern Daylight Time)","731497","Trustworthy,Untrustworthy","","3803","","","","decision","","","<div class='trialDiv'><img src='Fruit/pears.png'><br><font class='baseline'><strong>Pears Aplenty</strong><p>Choose number of points to bet.</font><div class='respPicDiv'><img src='img/responseButtonOffersNo0L.png' class='respPic'></div></div>","3","8","Pears Aplenty","Fruit/pears.png","Lost","0.2,0.65","11","0.2","137","23","",""
"html-keyboard-response","77","290433","0.0-11.0-2.22","63034df51d918e1e3b97e5ce","bdp_rwlrn","Wed Mar 15 2023 23:30:11 GMT-0400 (Eastern Daylight Time)","731497","Trustworthy,Untrustworthy","","null","","","","decisionFB","","","<div class='trialDiv'><img src='Fruit/pears.png'><br><font class='baseline'><strong>Pears Aplenty</strong><p>Choose number of points to bet.</font><div class='respPicDiv'><img src='img/responseButtonOffersNo0L3.png' class='respPic'></div></div>","null","8","Pears Aplenty","Fruit/pears.png","Lost","0.2,0.65","11","0.2","134","23","",""
"html-keyboard-response","78","291445","0.0-11.0-3.22","63034df51d918e1e3b97e5ce","bdp_rwlrn","Wed Mar 15 2023 23:30:11 GMT-0400 (Eastern Daylight Time)","731497","Trustworthy,Untrustworthy","","null","","","","feedback","","","<div class='respPicDiv'><img src='img/responseButtonOffersNo0_wht.png' class='respPic'></div><div class='trialDiv'><img src='Fruit/pears.png'><br><font class='baseline'><strong>Pears Aplenty</strong><p><strong><font class='negOutcome'>You LOST</font><p>You bet: 3</strong></font> &nbsp; &nbsp; &nbsp; &nbsp; &nbsp; &nbsp;<font class='negOutcome'>You receive: <strong>0</strong></font></div>","null","8","Pears Aplenty","Fruit/pears.png","Lost","0.2,0.65","11","0.2","134","23","",""
"html-keyboard-response","79","292640","0.0-11.0-1.23","63034df51d918e1e3b97e5ce","bdp_rwlrn","Wed Mar 15 2023 23:30:11 GMT-0400 (Eastern Daylight Time)","731497","Trustworthy,Untrustworthy","","1194","","","","decision","","","<div class='trialDiv'><img src='Fruit/orange.png'><br><font class='baseline'><strong>Odds are Orange</strong><p>Choose number of points to bet.</font><div class='respPicDiv'><img src='img/responseButtonOffersNo0L.png' class='respPic'></div></div>","2","8","Odds are Orange","Fruit/orange.png","Won","0.65,0.35","10","0.65","139","24","",""
"html-keyboard-response","80","292896","0.0-11.0-2.23","63034df51d918e1e3b97e5ce","bdp_rwlrn","Wed Mar 15 2023 23:30:11 GMT-0400 (Eastern Daylight Time)","731497","Trustworthy,Untrustworthy","","null","","","","decisionFB","","","<div class='trialDiv'><img src='Fruit/orange.png'><br><font class='baseline'><strong>Odds are Orange</strong><p>Choose number of points to bet.</font><div class='respPicDiv'><img src='img/responseButtonOffersNo0L2.png' class='respPic'></div></div>","null","8","Odds are Orange","Fruit/orange.png","Won","0.65,0.35","10","0.65","137","24","",""
"html-keyboard-response","81","293910","0.0-11.0-3.23","63034df51d918e1e3b97e5ce","bdp_rwlrn","Wed Mar 15 2023 23:30:11 GMT-0400 (Eastern Daylight Time)","731497","Trustworthy,Untrustworthy","","null","","","","feedback","","","<div class='respPicDiv'><img src='img/responseButtonOffersNo0_wht.png' class='respPic'></div><div class='trialDiv'><img src='Fruit/orange.png'><br><font class='baseline'><strong>Odds are Orange</strong><p><strong><font class='posOutcome'>You WON</font><p>You bet: 2</strong></font> &nbsp; &nbsp; &nbsp; &nbsp; &nbsp; &nbsp;<font class='posOutcome'>you receive: <strong>4</strong></font></div>","null","8","Odds are Orange","Fruit/orange.png","Won","0.65,0.35","10","0.65","141","24","",""
"html-keyboard-response","82","295711","0.0-11.0-1.24","63034df51d918e1e3b97e5ce","bdp_rwlrn","Wed Mar 15 2023 23:30:11 GMT-0400 (Eastern Daylight Time)","731497","Trustworthy,Untrustworthy","","1800","","","","decision","","","<div class='trialDiv'><img src='Fruit/pears.png'><br><font class='baseline'><strong>Pears Aplenty</strong><p>Choose number of points to bet.</font><div class='respPicDiv'><img src='img/responseButtonOffersNo0L.png' class='respPic'></div></div>","1","9","Pears Aplenty","Fruit/pears.png","Won","0.2,0.65","11","0.2","146","25","",""
"html-keyboard-response","83","295966","0.0-11.0-2.24","63034df51d918e1e3b97e5ce","bdp_rwlrn","Wed Mar 15 2023 23:30:11 GMT-0400 (Eastern Daylight Time)","731497","Trustworthy,Untrustworthy","","null","","","","decisionFB","","","<div class='trialDiv'><img src='Fruit/pears.png'><br><font class='baseline'><strong>Pears Aplenty</strong><p>Choose number of points to bet.</font><div class='respPicDiv'><img src='img/responseButtonOffersNo0L1.png' class='respPic'></div></div>","null","9","Pears Aplenty","Fruit/pears.png","Won","0.2,0.65","11","0.2","145","25","",""
"html-keyboard-response","84","296977","0.0-11.0-3.24","63034df51d918e1e3b97e5ce","bdp_rwlrn","Wed Mar 15 2023 23:30:11 GMT-0400 (Eastern Daylight Time)","731497","Trustworthy,Untrustworthy","","null","","","","feedback","","","<div class='respPicDiv'><img src='img/responseButtonOffersNo0_wht.png' class='respPic'></div><div class='trialDiv'><img src='Fruit/pears.png'><br><font class='baseline'><strong>Pears Aplenty</strong><p><strong><font class='posOutcome'>You WON</font><p>You bet: 1</strong></font> &nbsp; &nbsp; &nbsp; &nbsp; &nbsp; &nbsp;<font class='posOutcome'>you receive: <strong>2</strong></font></div>","null","9","Pears Aplenty","Fruit/pears.png","Won","0.2,0.65","11","0.2","147","25","",""
"html-keyboard-response","85","298287","0.0-11.0-1.25","63034df51d918e1e3b97e5ce","bdp_rwlrn","Wed Mar 15 2023 23:30:11 GMT-0400 (Eastern Daylight Time)","731497","Trustworthy,Untrustworthy","","1309","","","","decision","","","<div class='trialDiv'><img src='Fruit/mango.png'><br><font class='baseline'><strong>Mega Mangos</strong><p>Choose number of points to bet.</font><div class='respPicDiv'><img src='img/responseButtonOffersNo0L.png' class='respPic'></div></div>","5","9","Mega Mangos","Fruit/mango.png","Won","0.65,0.2","10","0.65","152","26","",""
"html-keyboard-response","86","298551","0.0-11.0-2.25","63034df51d918e1e3b97e5ce","bdp_rwlrn","Wed Mar 15 2023 23:30:11 GMT-0400 (Eastern Daylight Time)","731497","Trustworthy,Untrustworthy","","null","","","","decisionFB","","","<div class='trialDiv'><img src='Fruit/mango.png'><br><font class='baseline'><strong>Mega Mangos</strong><p>Choose number of points to bet.</font><div class='respPicDiv'><img src='img/responseButtonOffersNo0L5.png' class='respPic'></div></div>","null","9","Mega Mangos","Fruit/mango.png","Won","0.65,0.2","10","0.65","147","26","",""
"html-keyboard-response","87","299567","0.0-11.0-3.25","63034df51d918e1e3b97e5ce","bdp_rwlrn","Wed Mar 15 2023 23:30:11 GMT-0400 (Eastern Daylight Time)","731497","Trustworthy,Untrustworthy","","null","","","","feedback","","","<div class='respPicDiv'><img src='img/responseButtonOffersNo0_wht.png' class='respPic'></div><div class='trialDiv'><img src='Fruit/mango.png'><br><font class='baseline'><strong>Mega Mangos</strong><p><strong><font class='posOutcome'>You WON</font><p>You bet: 5</strong></font> &nbsp; &nbsp; &nbsp; &nbsp; &nbsp; &nbsp;<font class='posOutcome'>you receive: <strong>10</strong></font></div>","null","9","Mega Mangos","Fruit/mango.png","Won","0.65,0.2","10","0.65","157","26","",""
"html-keyboard-response","88","303123","0.0-11.0-1.26","63034df51d918e1e3b97e5ce","bdp_rwlrn","Wed Mar 15 2023 23:30:11 GMT-0400 (Eastern Daylight Time)","731497","Trustworthy,Untrustworthy","","3555","","","","decision","","","<div class='trialDiv'><img src='Fruit/orange.png'><br><font class='baseline'><strong>Odds are Orange</strong><p>Choose number of points to bet.</font><div class='respPicDiv'><img src='img/responseButtonOffersNo0L.png' class='respPic'></div></div>","3","9","Odds are Orange","Fruit/orange.png","Won","0.65,0.35","10","0.65","162","27","",""
"html-keyboard-response","89","303385","0.0-11.0-2.26","63034df51d918e1e3b97e5ce","bdp_rwlrn","Wed Mar 15 2023 23:30:11 GMT-0400 (Eastern Daylight Time)","731497","Trustworthy,Untrustworthy","","null","","","","decisionFB","","","<div class='trialDiv'><img src='Fruit/orange.png'><br><font class='baseline'><strong>Odds are Orange</strong><p>Choose number of points to bet.</font><div class='respPicDiv'><img src='img/responseButtonOffersNo0L3.png' class='respPic'></div></div>","null","9","Odds are Orange","Fruit/orange.png","Won","0.65,0.35","10","0.65","159","27","",""
"html-keyboard-response","90","304401","0.0-11.0-3.26","63034df51d918e1e3b97e5ce","bdp_rwlrn","Wed Mar 15 2023 23:30:11 GMT-0400 (Eastern Daylight Time)","731497","Trustworthy,Untrustworthy","","null","","","","feedback","","","<div class='respPicDiv'><img src='img/responseButtonOffersNo0_wht.png' class='respPic'></div><div class='trialDiv'><img src='Fruit/orange.png'><br><font class='baseline'><strong>Odds are Orange</strong><p><strong><font class='posOutcome'>You WON</font><p>You bet: 3</strong></font> &nbsp; &nbsp; &nbsp; &nbsp; &nbsp; &nbsp;<font class='posOutcome'>you receive: <strong>6</strong></font></div>","null","9","Odds are Orange","Fruit/orange.png","Won","0.65,0.35","10","0.65","165","27","",""
"html-keyboard-response","91","308010","0.0-11.0-1.27","63034df51d918e1e3b97e5ce","bdp_rwlrn","Wed Mar 15 2023 23:30:11 GMT-0400 (Eastern Daylight Time)","731497","Trustworthy,Untrustworthy","","3608","","","","decision","","","<div class='trialDiv'><img src='Fruit/mango.png'><br><font class='baseline'><strong>Mega Mangos</strong><p>Choose number of points to bet.</font><div class='respPicDiv'><img src='img/responseButtonOffersNo0L.png' class='respPic'></div></div>","5","10","Mega Mangos","Fruit/mango.png","Lost","0.65,0.2","10","0.65","170","28","",""
"html-keyboard-response","92","308262","0.0-11.0-2.27","63034df51d918e1e3b97e5ce","bdp_rwlrn","Wed Mar 15 2023 23:30:11 GMT-0400 (Eastern Daylight Time)","731497","Trustworthy,Untrustworthy","","null","","","","decisionFB","","","<div class='trialDiv'><img src='Fruit/mango.png'><br><font class='baseline'><strong>Mega Mangos</strong><p>Choose number of points to bet.</font><div class='respPicDiv'><img src='img/responseButtonOffersNo0L5.png' class='respPic'></div></div>","null","10","Mega Mangos","Fruit/mango.png","Lost","0.65,0.2","10","0.65","165","28","",""
"html-keyboard-response","93","309264","0.0-11.0-3.27","63034df51d918e1e3b97e5ce","bdp_rwlrn","Wed Mar 15 2023 23:30:11 GMT-0400 (Eastern Daylight Time)","731497","Trustworthy,Untrustworthy","","null","","","","feedback","","","<div class='respPicDiv'><img src='img/responseButtonOffersNo0_wht.png' class='respPic'></div><div class='trialDiv'><img src='Fruit/mango.png'><br><font class='baseline'><strong>Mega Mangos</strong><p><strong><font class='negOutcome'>You LOST</font><p>You bet: 5</strong></font> &nbsp; &nbsp; &nbsp; &nbsp; &nbsp; &nbsp;<font class='negOutcome'>You receive: <strong>0</strong></font></div>","null","10","Mega Mangos","Fruit/mango.png","Lost","0.65,0.2","10","0.65","165","28","",""
"html-keyboard-response","94","313585","0.0-11.0-1.28","63034df51d918e1e3b97e5ce","bdp_rwlrn","Wed Mar 15 2023 23:30:11 GMT-0400 (Eastern Daylight Time)","731497","Trustworthy,Untrustworthy","","4320","","","","decision","","","<div class='trialDiv'><img src='Fruit/orange.png'><br><font class='baseline'><strong>Odds are Orange</strong><p>Choose number of points to bet.</font><div class='respPicDiv'><img src='img/responseButtonOffersNo0L.png' class='respPic'></div></div>","2","10","Odds are Orange","Fruit/orange.png","Won","0.65,0.35","10","0.65","170","29","",""
"html-keyboard-response","95","313840","0.0-11.0-2.28","63034df51d918e1e3b97e5ce","bdp_rwlrn","Wed Mar 15 2023 23:30:11 GMT-0400 (Eastern Daylight Time)","731497","Trustworthy,Untrustworthy","","null","","","","decisionFB","","","<div class='trialDiv'><img src='Fruit/orange.png'><br><font class='baseline'><strong>Odds are Orange</strong><p>Choose number of points to bet.</font><div class='respPicDiv'><img src='img/responseButtonOffersNo0L2.png' class='respPic'></div></div>","null","10","Odds are Orange","Fruit/orange.png","Won","0.65,0.35","10","0.65","168","29","",""
"html-keyboard-response","96","314855","0.0-11.0-3.28","63034df51d918e1e3b97e5ce","bdp_rwlrn","Wed Mar 15 2023 23:30:11 GMT-0400 (Eastern Daylight Time)","731497","Trustworthy,Untrustworthy","","null","","","","feedback","","","<div class='respPicDiv'><img src='img/responseButtonOffersNo0_wht.png' class='respPic'></div><div class='trialDiv'><img src='Fruit/orange.png'><br><font class='baseline'><strong>Odds are Orange</strong><p><strong><font class='posOutcome'>You WON</font><p>You bet: 2</strong></font> &nbsp; &nbsp; &nbsp; &nbsp; &nbsp; &nbsp;<font class='posOutcome'>you receive: <strong>4</strong></font></div>","null","10","Odds are Orange","Fruit/orange.png","Won","0.65,0.35","10","0.65","172","29","",""
"html-keyboard-response","97","316441","0.0-11.0-1.29","63034df51d918e1e3b97e5ce","bdp_rwlrn","Wed Mar 15 2023 23:30:11 GMT-0400 (Eastern Daylight Time)","731497","Trustworthy,Untrustworthy","","1585","","","","decision","","","<div class='trialDiv'><img src='Fruit/pears.png'><br><font class='baseline'><strong>Pears Aplenty</strong><p>Choose number of points to bet.</font><div class='respPicDiv'><img src='img/responseButtonOffersNo0L.png' class='respPic'></div></div>","1","10","Pears Aplenty","Fruit/pears.png","Lost","0.2,0.65","11","0.2","177","30","",""
"html-keyboard-response","98","316697","0.0-11.0-2.29","63034df51d918e1e3b97e5ce","bdp_rwlrn","Wed Mar 15 2023 23:30:11 GMT-0400 (Eastern Daylight Time)","731497","Trustworthy,Untrustworthy","","null","","","","decisionFB","","","<div class='trialDiv'><img src='Fruit/pears.png'><br><font class='baseline'><strong>Pears Aplenty</strong><p>Choose number of points to bet.</font><div class='respPicDiv'><img src='img/responseButtonOffersNo0L1.png' class='respPic'></div></div>","null","10","Pears Aplenty","Fruit/pears.png","Lost","0.2,0.65","11","0.2","176","30","",""
"html-keyboard-response","99","317710","0.0-11.0-3.29","63034df51d918e1e3b97e5ce","bdp_rwlrn","Wed Mar 15 2023 23:30:11 GMT-0400 (Eastern Daylight Time)","731497","Trustworthy,Untrustworthy","","null","","","","feedback","","","<div class='respPicDiv'><img src='img/responseButtonOffersNo0_wht.png' class='respPic'></div><div class='trialDiv'><img src='Fruit/pears.png'><br><font class='baseline'><strong>Pears Aplenty</strong><p><strong><font class='negOutcome'>You LOST</font><p>You bet: 1</strong></font> &nbsp; &nbsp; &nbsp; &nbsp; &nbsp; &nbsp;<font class='negOutcome'>You receive: <strong>0</strong></font></div>","null","10","Pears Aplenty","Fruit/pears.png","Lost","0.2,0.65","11","0.2","176","30","",""
"html-keyboard-response","100","318725","0.0-11.0-1.30","63034df51d918e1e3b97e5ce","bdp_rwlrn","Wed Mar 15 2023 23:30:11 GMT-0400 (Eastern Daylight Time)","731497","Trustworthy,Untrustworthy","","1014","","","","decision","","","<div class='trialDiv'><img src='Fruit/mango.png'><br><font class='baseline'><strong>Mega Mangos</strong><p>Choose number of points to bet.</font><div class='respPicDiv'><img src='img/responseButtonOffersNo0L.png' class='respPic'></div></div>","5","11","Mega Mangos","Fruit/mango.png","Lost","0.65,0.2","10","0.65","181","31","",""
"html-keyboard-response","101","318977","0.0-11.0-2.30","63034df51d918e1e3b97e5ce","bdp_rwlrn","Wed Mar 15 2023 23:30:11 GMT-0400 (Eastern Daylight Time)","731497","Trustworthy,Untrustworthy","","null","","","","decisionFB","","","<div class='trialDiv'><img src='Fruit/mango.png'><br><font class='baseline'><strong>Mega Mangos</strong><p>Choose number of points to bet.</font><div class='respPicDiv'><img src='img/responseButtonOffersNo0L5.png' class='respPic'></div></div>","null","11","Mega Mangos","Fruit/mango.png","Lost","0.65,0.2","10","0.65","176","31","",""
"html-keyboard-response","102","319990","0.0-11.0-3.30","63034df51d918e1e3b97e5ce","bdp_rwlrn","Wed Mar 15 2023 23:30:11 GMT-0400 (Eastern Daylight Time)","731497","Trustworthy,Untrustworthy","","null","","","","feedback","","","<div class='respPicDiv'><img src='img/responseButtonOffersNo0_wht.png' class='respPic'></div><div class='trialDiv'><img src='Fruit/mango.png'><br><font class='baseline'><strong>Mega Mangos</strong><p><strong><font class='negOutcome'>You LOST</font><p>You bet: 5</strong></font> &nbsp; &nbsp; &nbsp; &nbsp; &nbsp; &nbsp;<font class='negOutcome'>You receive: <strong>0</strong></font></div>","null","11","Mega Mangos","Fruit/mango.png","Lost","0.65,0.2","10","0.65","176","31","",""
"html-keyboard-response","103","324058","0.0-11.0-1.31","63034df51d918e1e3b97e5ce","bdp_rwlrn","Wed Mar 15 2023 23:30:11 GMT-0400 (Eastern Daylight Time)","731497","Trustworthy,Untrustworthy","","4067","","","","decision","","","<div class='trialDiv'><img src='Fruit/orange.png'><br><font class='baseline'><strong>Odds are Orange</strong><p>Choose number of points to bet.</font><div class='respPicDiv'><img src='img/responseButtonOffersNo0L.png' class='respPic'></div></div>","2","11","Odds are Orange","Fruit/orange.png","Lost","0.65,0.35","10","0.65","181","32","",""
"html-keyboard-response","104","324322","0.0-11.0-2.31","63034df51d918e1e3b97e5ce","bdp_rwlrn","Wed Mar 15 2023 23:30:11 GMT-0400 (Eastern Daylight Time)","731497","Trustworthy,Untrustworthy","","null","","","","decisionFB","","","<div class='trialDiv'><img src='Fruit/orange.png'><br><font class='baseline'><strong>Odds are Orange</strong><p>Choose number of points to bet.</font><div class='respPicDiv'><img src='img/responseButtonOffersNo0L2.png' class='respPic'></div></div>","null","11","Odds are Orange","Fruit/orange.png","Lost","0.65,0.35","10","0.65","179","32","",""
"html-keyboard-response","105","325331","0.0-11.0-3.31","63034df51d918e1e3b97e5ce","bdp_rwlrn","Wed Mar 15 2023 23:30:11 GMT-0400 (Eastern Daylight Time)","731497","Trustworthy,Untrustworthy","","null","","","","feedback","","","<div class='respPicDiv'><img src='img/responseButtonOffersNo0_wht.png' class='respPic'></div><div class='trialDiv'><img src='Fruit/orange.png'><br><font class='baseline'><strong>Odds are Orange</strong><p><strong><font class='negOutcome'>You LOST</font><p>You bet: 2</strong></font> &nbsp; &nbsp; &nbsp; &nbsp; &nbsp; &nbsp;<font class='negOutcome'>You receive: <strong>0</strong></font></div>","null","11","Odds are Orange","Fruit/orange.png","Lost","0.65,0.35","10","0.65","179","32","",""
"html-keyboard-response","106","327262","0.0-11.0-1.32","63034df51d918e1e3b97e5ce","bdp_rwlrn","Wed Mar 15 2023 23:30:11 GMT-0400 (Eastern Daylight Time)","731497","Trustworthy,Untrustworthy","","1930","","","","decision","","","<div class='trialDiv'><img src='Fruit/pears.png'><br><font class='baseline'><strong>Pears Aplenty</strong><p>Choose number of points to bet.</font><div class='respPicDiv'><img src='img/responseButtonOffersNo0L.png' class='respPic'></div></div>","1","11","Pears Aplenty","Fruit/pears.png","Won","0.2,0.65","11","0.2","184","33","",""
"html-keyboard-response","107","327515","0.0-11.0-2.32","63034df51d918e1e3b97e5ce","bdp_rwlrn","Wed Mar 15 2023 23:30:11 GMT-0400 (Eastern Daylight Time)","731497","Trustworthy,Untrustworthy","","null","","","","decisionFB","","","<div class='trialDiv'><img src='Fruit/pears.png'><br><font class='baseline'><strong>Pears Aplenty</strong><p>Choose number of points to bet.</font><div class='respPicDiv'><img src='img/responseButtonOffersNo0L1.png' class='respPic'></div></div>","null","11","Pears Aplenty","Fruit/pears.png","Won","0.2,0.65","11","0.2","183","33","",""
"html-keyboard-response","108","328529","0.0-11.0-3.32","63034df51d918e1e3b97e5ce","bdp_rwlrn","Wed Mar 15 2023 23:30:11 GMT-0400 (Eastern Daylight Time)","731497","Trustworthy,Untrustworthy","","null","","","","feedback","","","<div class='respPicDiv'><img src='img/responseButtonOffersNo0_wht.png' class='respPic'></div><div class='trialDiv'><img src='Fruit/pears.png'><br><font class='baseline'><strong>Pears Aplenty</strong><p><strong><font class='posOutcome'>You WON</font><p>You bet: 1</strong></font> &nbsp; &nbsp; &nbsp; &nbsp; &nbsp; &nbsp;<font class='posOutcome'>you receive: <strong>2</strong></font></div>","null","11","Pears Aplenty","Fruit/pears.png","Won","0.2,0.65","11","0.2","185","33","",""
"html-keyboard-response","109","330207","0.0-11.0-1.33","63034df51d918e1e3b97e5ce","bdp_rwlrn","Wed Mar 15 2023 23:30:11 GMT-0400 (Eastern Daylight Time)","731497","Trustworthy,Untrustworthy","","1676","","","","decision","","","<div class='trialDiv'><img src='Fruit/mango.png'><br><font class='baseline'><strong>Mega Mangos</strong><p>Choose number of points to bet.</font><div class='respPicDiv'><img src='img/responseButtonOffersNo0L.png' class='respPic'></div></div>","5","12","Mega Mangos","Fruit/mango.png","Won","0.65,0.2","10","0.65","190","34","",""
"html-keyboard-response","110","330472","0.0-11.0-2.33","63034df51d918e1e3b97e5ce","bdp_rwlrn","Wed Mar 15 2023 23:30:11 GMT-0400 (Eastern Daylight Time)","731497","Trustworthy,Untrustworthy","","null","","","","decisionFB","","","<div class='trialDiv'><img src='Fruit/mango.png'><br><font class='baseline'><strong>Mega Mangos</strong><p>Choose number of points to bet.</font><div class='respPicDiv'><img src='img/responseButtonOffersNo0L5.png' class='respPic'></div></div>","null","12","Mega Mangos","Fruit/mango.png","Won","0.65,0.2","10","0.65","185","34","",""
"html-keyboard-response","111","331485","0.0-11.0-3.33","63034df51d918e1e3b97e5ce","bdp_rwlrn","Wed Mar 15 2023 23:30:11 GMT-0400 (Eastern Daylight Time)","731497","Trustworthy,Untrustworthy","","null","","","","feedback","","","<div class='respPicDiv'><img src='img/responseButtonOffersNo0_wht.png' class='respPic'></div><div class='trialDiv'><img src='Fruit/mango.png'><br><font class='baseline'><strong>Mega Mangos</strong><p><strong><font class='posOutcome'>You WON</font><p>You bet: 5</strong></font> &nbsp; &nbsp; &nbsp; &nbsp; &nbsp; &nbsp;<font class='posOutcome'>you receive: <strong>10</strong></font></div>","null","12","Mega Mangos","Fruit/mango.png","Won","0.65,0.2","10","0.65","195","34","",""
"html-keyboard-response","112","335649","0.0-11.0-1.34","63034df51d918e1e3b97e5ce","bdp_rwlrn","Wed Mar 15 2023 23:30:11 GMT-0400 (Eastern Daylight Time)","731497","Trustworthy,Untrustworthy","","4163","","","","decision","","","<div class='trialDiv'><img src='Fruit/orange.png'><br><font class='baseline'><strong>Odds are Orange</strong><p>Choose number of points to bet.</font><div class='respPicDiv'><img src='img/responseButtonOffersNo0L.png' class='respPic'></div></div>","3","12","Odds are Orange","Fruit/orange.png","Won","0.65,0.35","10","0.65","200","35","",""
"html-keyboard-response","113","335903","0.0-11.0-2.34","63034df51d918e1e3b97e5ce","bdp_rwlrn","Wed Mar 15 2023 23:30:11 GMT-0400 (Eastern Daylight Time)","731497","Trustworthy,Untrustworthy","","null","","","","decisionFB","","","<div class='trialDiv'><img src='Fruit/orange.png'><br><font class='baseline'><strong>Odds are Orange</strong><p>Choose number of points to bet.</font><div class='respPicDiv'><img src='img/responseButtonOffersNo0L3.png' class='respPic'></div></div>","null","12","Odds are Orange","Fruit/orange.png","Won","0.65,0.35","10","0.65","197","35","",""
"html-keyboard-response","114","336912","0.0-11.0-3.34","63034df51d918e1e3b97e5ce","bdp_rwlrn","Wed Mar 15 2023 23:30:11 GMT-0400 (Eastern Daylight Time)","731497","Trustworthy,Untrustworthy","","null","","","","feedback","","","<div class='respPicDiv'><img src='img/responseButtonOffersNo0_wht.png' class='respPic'></div><div class='trialDiv'><img src='Fruit/orange.png'><br><font class='baseline'><strong>Odds are Orange</strong><p><strong><font class='posOutcome'>You WON</font><p>You bet: 3</strong></font> &nbsp; &nbsp; &nbsp; &nbsp; &nbsp; &nbsp;<font class='posOutcome'>you receive: <strong>6</strong></font></div>","null","12","Odds are Orange","Fruit/orange.png","Won","0.65,0.35","10","0.65","203","35","",""
"html-keyboard-response","115","338404","0.0-11.0-1.35","63034df51d918e1e3b97e5ce","bdp_rwlrn","Wed Mar 15 2023 23:30:11 GMT-0400 (Eastern Daylight Time)","731497","Trustworthy,Untrustworthy","","1491","","","","decision","","","<div class='trialDiv'><img src='Fruit/pears.png'><br><font class='baseline'><strong>Pears Aplenty</strong><p>Choose number of points to bet.</font><div class='respPicDiv'><img src='img/responseButtonOffersNo0L.png' class='respPic'></div></div>","2","12","Pears Aplenty","Fruit/pears.png","Lost","0.2,0.65","11","0.2","208","36","",""
"html-keyboard-response","116","338667","0.0-11.0-2.35","63034df51d918e1e3b97e5ce","bdp_rwlrn","Wed Mar 15 2023 23:30:11 GMT-0400 (Eastern Daylight Time)","731497","Trustworthy,Untrustworthy","","null","","","","decisionFB","","","<div class='trialDiv'><img src='Fruit/pears.png'><br><font class='baseline'><strong>Pears Aplenty</strong><p>Choose number of points to bet.</font><div class='respPicDiv'><img src='img/responseButtonOffersNo0L2.png' class='respPic'></div></div>","null","12","Pears Aplenty","Fruit/pears.png","Lost","0.2,0.65","11","0.2","206","36","",""
"html-keyboard-response","117","339676","0.0-11.0-3.35","63034df51d918e1e3b97e5ce","bdp_rwlrn","Wed Mar 15 2023 23:30:11 GMT-0400 (Eastern Daylight Time)","731497","Trustworthy,Untrustworthy","","null","","","","feedback","","","<div class='respPicDiv'><img src='img/responseButtonOffersNo0_wht.png' class='respPic'></div><div class='trialDiv'><img src='Fruit/pears.png'><br><font class='baseline'><strong>Pears Aplenty</strong><p><strong><font class='negOutcome'>You LOST</font><p>You bet: 2</strong></font> &nbsp; &nbsp; &nbsp; &nbsp; &nbsp; &nbsp;<font class='negOutcome'>You receive: <strong>0</strong></font></div>","null","12","Pears Aplenty","Fruit/pears.png","Lost","0.2,0.65","11","0.2","206","36","",""
"html-keyboard-response","118","344096","0.0-11.0-1.36","63034df51d918e1e3b97e5ce","bdp_rwlrn","Wed Mar 15 2023 23:30:11 GMT-0400 (Eastern Daylight Time)","731497","Trustworthy,Untrustworthy","","4419","","","","decision","","","<div class='trialDiv'><img src='Fruit/orange.png'><br><font class='baseline'><strong>Odds are Orange</strong><p>Choose number of points to bet.</font><div class='respPicDiv'><img src='img/responseButtonOffersNo0L.png' class='respPic'></div></div>","3","13","Odds are Orange","Fruit/orange.png","Lost","0.65,0.35","10","0.65","211","37","",""
"html-keyboard-response","119","344351","0.0-11.0-2.36","63034df51d918e1e3b97e5ce","bdp_rwlrn","Wed Mar 15 2023 23:30:11 GMT-0400 (Eastern Daylight Time)","731497","Trustworthy,Untrustworthy","","null","","","","decisionFB","","","<div class='trialDiv'><img src='Fruit/orange.png'><br><font class='baseline'><strong>Odds are Orange</strong><p>Choose number of points to bet.</font><div class='respPicDiv'><img src='img/responseButtonOffersNo0L3.png' class='respPic'></div></div>","null","13","Odds are Orange","Fruit/orange.png","Lost","0.65,0.35","10","0.65","208","37","",""
"html-keyboard-response","120","345362","0.0-11.0-3.36","63034df51d918e1e3b97e5ce","bdp_rwlrn","Wed Mar 15 2023 23:30:11 GMT-0400 (Eastern Daylight Time)","731497","Trustworthy,Untrustworthy","","null","","","","feedback","","","<div class='respPicDiv'><img src='img/responseButtonOffersNo0_wht.png' class='respPic'></div><div class='trialDiv'><img src='Fruit/orange.png'><br><font class='baseline'><strong>Odds are Orange</strong><p><strong><font class='negOutcome'>You LOST</font><p>You bet: 3</strong></font> &nbsp; &nbsp; &nbsp; &nbsp; &nbsp; &nbsp;<font class='negOutcome'>You receive: <strong>0</strong></font></div>","null","13","Odds are Orange","Fruit/orange.png","Lost","0.65,0.35","10","0.65","208","37","",""
"html-keyboard-response","121","348195","0.0-11.0-1.37","63034df51d918e1e3b97e5ce","bdp_rwlrn","Wed Mar 15 2023 23:30:11 GMT-0400 (Eastern Daylight Time)","731497","Trustworthy,Untrustworthy","","2831","","","","decision","","","<div class='trialDiv'><img src='Fruit/pears.png'><br><font class='baseline'><strong>Pears Aplenty</strong><p>Choose number of points to bet.</font><div class='respPicDiv'><img src='img/responseButtonOffersNo0L.png' class='respPic'></div></div>","2","13","Pears Aplenty","Fruit/pears.png","Won","0.2,0.65","11","0.2","213","38","",""
"html-keyboard-response","122","348454","0.0-11.0-2.37","63034df51d918e1e3b97e5ce","bdp_rwlrn","Wed Mar 15 2023 23:30:11 GMT-0400 (Eastern Daylight Time)","731497","Trustworthy,Untrustworthy","","null","","","","decisionFB","","","<div class='trialDiv'><img src='Fruit/pears.png'><br><font class='baseline'><strong>Pears Aplenty</strong><p>Choose number of points to bet.</font><div class='respPicDiv'><img src='img/responseButtonOffersNo0L2.png' class='respPic'></div></div>","null","13","Pears Aplenty","Fruit/pears.png","Won","0.2,0.65","11","0.2","211","38","",""
"html-keyboard-response","123","349468","0.0-11.0-3.37","63034df51d918e1e3b97e5ce","bdp_rwlrn","Wed Mar 15 2023 23:30:11 GMT-0400 (Eastern Daylight Time)","731497","Trustworthy,Untrustworthy","","null","","","","feedback","","","<div class='respPicDiv'><img src='img/responseButtonOffersNo0_wht.png' class='respPic'></div><div class='trialDiv'><img src='Fruit/pears.png'><br><font class='baseline'><strong>Pears Aplenty</strong><p><strong><font class='posOutcome'>You WON</font><p>You bet: 2</strong></font> &nbsp; &nbsp; &nbsp; &nbsp; &nbsp; &nbsp;<font class='posOutcome'>you receive: <strong>4</strong></font></div>","null","13","Pears Aplenty","Fruit/pears.png","Won","0.2,0.65","11","0.2","215","38","",""
"html-keyboard-response","124","350355","0.0-11.0-1.38","63034df51d918e1e3b97e5ce","bdp_rwlrn","Wed Mar 15 2023 23:30:11 GMT-0400 (Eastern Daylight Time)","731497","Trustworthy,Untrustworthy","","886","","","","decision","","","<div class='trialDiv'><img src='Fruit/mango.png'><br><font class='baseline'><strong>Mega Mangos</strong><p>Choose number of points to bet.</font><div class='respPicDiv'><img src='img/responseButtonOffersNo0L.png' class='respPic'></div></div>","5","13","Mega Mangos","Fruit/mango.png","Lost","0.65,0.2","10","0.65","220","39","",""
"html-keyboard-response","125","350607","0.0-11.0-2.38","63034df51d918e1e3b97e5ce","bdp_rwlrn","Wed Mar 15 2023 23:30:11 GMT-0400 (Eastern Daylight Time)","731497","Trustworthy,Untrustworthy","","null","","","","decisionFB","","","<div class='trialDiv'><img src='Fruit/mango.png'><br><font class='baseline'><strong>Mega Mangos</strong><p>Choose number of points to bet.</font><div class='respPicDiv'><img src='img/responseButtonOffersNo0L5.png' class='respPic'></div></div>","null","13","Mega Mangos","Fruit/mango.png","Lost","0.65,0.2","10","0.65","215","39","",""
"html-keyboard-response","126","351622","0.0-11.0-3.38","63034df51d918e1e3b97e5ce","bdp_rwlrn","Wed Mar 15 2023 23:30:11 GMT-0400 (Eastern Daylight Time)","731497","Trustworthy,Untrustworthy","","null","","","","feedback","","","<div class='respPicDiv'><img src='img/responseButtonOffersNo0_wht.png' class='respPic'></div><div class='trialDiv'><img src='Fruit/mango.png'><br><font class='baseline'><strong>Mega Mangos</strong><p><strong><font class='negOutcome'>You LOST</font><p>You bet: 5</strong></font> &nbsp; &nbsp; &nbsp; &nbsp; &nbsp; &nbsp;<font class='negOutcome'>You receive: <strong>0</strong></font></div>","null","13","Mega Mangos","Fruit/mango.png","Lost","0.65,0.2","10","0.65","215","39","",""
"html-keyboard-response","127","354159","0.0-11.0-1.39","63034df51d918e1e3b97e5ce","bdp_rwlrn","Wed Mar 15 2023 23:30:11 GMT-0400 (Eastern Daylight Time)","731497","Trustworthy,Untrustworthy","","2536","","","","decision","","","<div class='trialDiv'><img src='Fruit/pears.png'><br><font class='baseline'><strong>Pears Aplenty</strong><p>Choose number of points to bet.</font><div class='respPicDiv'><img src='img/responseButtonOffersNo0L.png' class='respPic'></div></div>","3","14","Pears Aplenty","Fruit/pears.png","Won","0.2,0.65","11","0.2","220","40","",""
"html-keyboard-response","128","354419","0.0-11.0-2.39","63034df51d918e1e3b97e5ce","bdp_rwlrn","Wed Mar 15 2023 23:30:11 GMT-0400 (Eastern Daylight Time)","731497","Trustworthy,Untrustworthy","","null","","","","decisionFB","","","<div class='trialDiv'><img src='Fruit/pears.png'><br><font class='baseline'><strong>Pears Aplenty</strong><p>Choose number of points to bet.</font><div class='respPicDiv'><img src='img/responseButtonOffersNo0L3.png' class='respPic'></div></div>","null","14","Pears Aplenty","Fruit/pears.png","Won","0.2,0.65","11","0.2","217","40","",""
"html-keyboard-response","129","355426","0.0-11.0-3.39","63034df51d918e1e3b97e5ce","bdp_rwlrn","Wed Mar 15 2023 23:30:11 GMT-0400 (Eastern Daylight Time)","731497","Trustworthy,Untrustworthy","","null","","","","feedback","","","<div class='respPicDiv'><img src='img/responseButtonOffersNo0_wht.png' class='respPic'></div><div class='trialDiv'><img src='Fruit/pears.png'><br><font class='baseline'><strong>Pears Aplenty</strong><p><strong><font class='posOutcome'>You WON</font><p>You bet: 3</strong></font> &nbsp; &nbsp; &nbsp; &nbsp; &nbsp; &nbsp;<font class='posOutcome'>you receive: <strong>6</strong></font></div>","null","14","Pears Aplenty","Fruit/pears.png","Won","0.2,0.65","11","0.2","223","40","",""
"html-keyboard-response","130","356593","0.0-11.0-1.40","63034df51d918e1e3b97e5ce","bdp_rwlrn","Wed Mar 15 2023 23:30:11 GMT-0400 (Eastern Daylight Time)","731497","Trustworthy,Untrustworthy","","1166","","","","decision","","","<div class='trialDiv'><img src='Fruit/mango.png'><br><font class='baseline'><strong>Mega Mangos</strong><p>Choose number of points to bet.</font><div class='respPicDiv'><img src='img/responseButtonOffersNo0L.png' class='respPic'></div></div>","5","14","Mega Mangos","Fruit/mango.png","Lost","0.65,0.2","10","0.65","228","41","",""
"html-keyboard-response","131","356849","0.0-11.0-2.40","63034df51d918e1e3b97e5ce","bdp_rwlrn","Wed Mar 15 2023 23:30:11 GMT-0400 (Eastern Daylight Time)","731497","Trustworthy,Untrustworthy","","null","","","","decisionFB","","","<div class='trialDiv'><img src='Fruit/mango.png'><br><font class='baseline'><strong>Mega Mangos</strong><p>Choose number of points to bet.</font><div class='respPicDiv'><img src='img/responseButtonOffersNo0L5.png' class='respPic'></div></div>","null","14","Mega Mangos","Fruit/mango.png","Lost","0.65,0.2","10","0.65","223","41","",""
"html-keyboard-response","132","357860","0.0-11.0-3.40","63034df51d918e1e3b97e5ce","bdp_rwlrn","Wed Mar 15 2023 23:30:11 GMT-0400 (Eastern Daylight Time)","731497","Trustworthy,Untrustworthy","","null","","","","feedback","","","<div class='respPicDiv'><img src='img/responseButtonOffersNo0_wht.png' class='respPic'></div><div class='trialDiv'><img src='Fruit/mango.png'><br><font class='baseline'><strong>Mega Mangos</strong><p><strong><font class='negOutcome'>You LOST</font><p>You bet: 5</strong></font> &nbsp; &nbsp; &nbsp; &nbsp; &nbsp; &nbsp;<font class='negOutcome'>You receive: <strong>0</strong></font></div>","null","14","Mega Mangos","Fruit/mango.png","Lost","0.65,0.2","10","0.65","223","41","",""
"html-keyboard-response","133","361308","0.0-11.0-1.41","63034df51d918e1e3b97e5ce","bdp_rwlrn","Wed Mar 15 2023 23:30:11 GMT-0400 (Eastern Daylight Time)","731497","Trustworthy,Untrustworthy","","3447","","","","decision","","","<div class='trialDiv'><img src='Fruit/orange.png'><br><font class='baseline'><strong>Odds are Orange</strong><p>Choose number of points to bet.</font><div class='respPicDiv'><img src='img/responseButtonOffersNo0L.png' class='respPic'></div></div>","3","14","Odds are Orange","Fruit/orange.png","Won","0.65,0.35","10","0.65","228","42","",""
"html-keyboard-response","134","361574","0.0-11.0-2.41","63034df51d918e1e3b97e5ce","bdp_rwlrn","Wed Mar 15 2023 23:30:11 GMT-0400 (Eastern Daylight Time)","731497","Trustworthy,Untrustworthy","","null","","","","decisionFB","","","<div class='trialDiv'><img src='Fruit/orange.png'><br><font class='baseline'><strong>Odds are Orange</strong><p>Choose number of points to bet.</font><div class='respPicDiv'><img src='img/responseButtonOffersNo0L3.png' class='respPic'></div></div>","null","14","Odds are Orange","Fruit/orange.png","Won","0.65,0.35","10","0.65","225","42","",""
"html-keyboard-response","135","362588","0.0-11.0-3.41","63034df51d918e1e3b97e5ce","bdp_rwlrn","Wed Mar 15 2023 23:30:11 GMT-0400 (Eastern Daylight Time)","731497","Trustworthy,Untrustworthy","","null","","","","feedback","","","<div class='respPicDiv'><img src='img/responseButtonOffersNo0_wht.png' class='respPic'></div><div class='trialDiv'><img src='Fruit/orange.png'><br><font class='baseline'><strong>Odds are Orange</strong><p><strong><font class='posOutcome'>You WON</font><p>You bet: 3</strong></font> &nbsp; &nbsp; &nbsp; &nbsp; &nbsp; &nbsp;<font class='posOutcome'>you receive: <strong>6</strong></font></div>","null","14","Odds are Orange","Fruit/orange.png","Won","0.65,0.35","10","0.65","231","42","",""
"html-keyboard-response","136","363710","0.0-11.0-1.42","63034df51d918e1e3b97e5ce","bdp_rwlrn","Wed Mar 15 2023 23:30:11 GMT-0400 (Eastern Daylight Time)","731497","Trustworthy,Untrustworthy","","1121","","","","decision","","","<div class='trialDiv'><img src='Fruit/mango.png'><br><font class='baseline'><strong>Mega Mangos</strong><p>Choose number of points to bet.</font><div class='respPicDiv'><img src='img/responseButtonOffersNo0L.png' class='respPic'></div></div>","4","15","Mega Mangos","Fruit/mango.png","Lost","0.65,0.2","10","0.65","236","43","",""
"html-keyboard-response","137","363970","0.0-11.0-2.42","63034df51d918e1e3b97e5ce","bdp_rwlrn","Wed Mar 15 2023 23:30:11 GMT-0400 (Eastern Daylight Time)","731497","Trustworthy,Untrustworthy","","null","","","","decisionFB","","","<div class='trialDiv'><img src='Fruit/mango.png'><br><font class='baseline'><strong>Mega Mangos</strong><p>Choose number of points to bet.</font><div class='respPicDiv'><img src='img/responseButtonOffersNo0L4.png' class='respPic'></div></div>","null","15","Mega Mangos","Fruit/mango.png","Lost","0.65,0.2","10","0.65","232","43","",""
"html-keyboard-response","138","364975","0.0-11.0-3.42","63034df51d918e1e3b97e5ce","bdp_rwlrn","Wed Mar 15 2023 23:30:11 GMT-0400 (Eastern Daylight Time)","731497","Trustworthy,Untrustworthy","","null","","","","feedback","","","<div class='respPicDiv'><img src='img/responseButtonOffersNo0_wht.png' class='respPic'></div><div class='trialDiv'><img src='Fruit/mango.png'><br><font class='baseline'><strong>Mega Mangos</strong><p><strong><font class='negOutcome'>You LOST</font><p>You bet: 4</strong></font> &nbsp; &nbsp; &nbsp; &nbsp; &nbsp; &nbsp;<font class='negOutcome'>You receive: <strong>0</strong></font></div>","null","15","Mega Mangos","Fruit/mango.png","Lost","0.65,0.2","10","0.65","232","43","",""
"html-keyboard-response","139","366019","0.0-11.0-1.43","63034df51d918e1e3b97e5ce","bdp_rwlrn","Wed Mar 15 2023 23:30:11 GMT-0400 (Eastern Daylight Time)","731497","Trustworthy,Untrustworthy","","1043","","","","decision","","","<div class='trialDiv'><img src='Fruit/pears.png'><br><font class='baseline'><strong>Pears Aplenty</strong><p>Choose number of points to bet.</font><div class='respPicDiv'><img src='img/responseButtonOffersNo0L.png' class='respPic'></div></div>","2","15","Pears Aplenty","Fruit/pears.png","Lost","0.2,0.65","11","0.2","237","44","",""
"html-keyboard-response","140","366282","0.0-11.0-2.43","63034df51d918e1e3b97e5ce","bdp_rwlrn","Wed Mar 15 2023 23:30:11 GMT-0400 (Eastern Daylight Time)","731497","Trustworthy,Untrustworthy","","null","","","","decisionFB","","","<div class='trialDiv'><img src='Fruit/pears.png'><br><font class='baseline'><strong>Pears Aplenty</strong><p>Choose number of points to bet.</font><div class='respPicDiv'><img src='img/responseButtonOffersNo0L2.png' class='respPic'></div></div>","null","15","Pears Aplenty","Fruit/pears.png","Lost","0.2,0.65","11","0.2","235","44","",""
"html-keyboard-response","141","367294","0.0-11.0-3.43","63034df51d918e1e3b97e5ce","bdp_rwlrn","Wed Mar 15 2023 23:30:11 GMT-0400 (Eastern Daylight Time)","731497","Trustworthy,Untrustworthy","","null","","","","feedback","","","<div class='respPicDiv'><img src='img/responseButtonOffersNo0_wht.png' class='respPic'></div><div class='trialDiv'><img src='Fruit/pears.png'><br><font class='baseline'><strong>Pears Aplenty</strong><p><strong><font class='negOutcome'>You LOST</font><p>You bet: 2</strong></font> &nbsp; &nbsp; &nbsp; &nbsp; &nbsp; &nbsp;<font class='negOutcome'>You receive: <strong>0</strong></font></div>","null","15","Pears Aplenty","Fruit/pears.png","Lost","0.2,0.65","11","0.2","235","44","",""
"html-keyboard-response","142","372219","0.0-11.0-1.44","63034df51d918e1e3b97e5ce","bdp_rwlrn","Wed Mar 15 2023 23:30:11 GMT-0400 (Eastern Daylight Time)","731497","Trustworthy,Untrustworthy","","4924","","","","decision","","","<div class='trialDiv'><img src='Fruit/orange.png'><br><font class='baseline'><strong>Odds are Orange</strong><p>Choose number of points to bet.</font><div class='respPicDiv'><img src='img/responseButtonOffersNo0L.png' class='respPic'></div></div>","3","15","Odds are Orange","Fruit/orange.png","Lost","0.65,0.35","10","0.65","240","45","",""
"html-keyboard-response","143","372477","0.0-11.0-2.44","63034df51d918e1e3b97e5ce","bdp_rwlrn","Wed Mar 15 2023 23:30:11 GMT-0400 (Eastern Daylight Time)","731497","Trustworthy,Untrustworthy","","null","","","","decisionFB","","","<div class='trialDiv'><img src='Fruit/orange.png'><br><font class='baseline'><strong>Odds are Orange</strong><p>Choose number of points to bet.</font><div class='respPicDiv'><img src='img/responseButtonOffersNo0L3.png' class='respPic'></div></div>","null","15","Odds are Orange","Fruit/orange.png","Lost","0.65,0.35","10","0.65","237","45","",""
"html-keyboard-response","144","373490","0.0-11.0-3.44","63034df51d918e1e3b97e5ce","bdp_rwlrn","Wed Mar 15 2023 23:30:11 GMT-0400 (Eastern Daylight Time)","731497","Trustworthy,Untrustworthy","","null","","","","feedback","","","<div class='respPicDiv'><img src='img/responseButtonOffersNo0_wht.png' class='respPic'></div><div class='trialDiv'><img src='Fruit/orange.png'><br><font class='baseline'><strong>Odds are Orange</strong><p><strong><font class='negOutcome'>You LOST</font><p>You bet: 3</strong></font> &nbsp; &nbsp; &nbsp; &nbsp; &nbsp; &nbsp;<font class='negOutcome'>You receive: <strong>0</strong></font></div>","null","15","Odds are Orange","Fruit/orange.png","Lost","0.65,0.35","10","0.65","237","45","",""
"html-keyboard-response","145","374510","0.0-11.0-1.45","63034df51d918e1e3b97e5ce","bdp_rwlrn","Wed Mar 15 2023 23:30:11 GMT-0400 (Eastern Daylight Time)","731497","Trustworthy,Untrustworthy","","1018","","","","decision","","","<div class='trialDiv'><img src='Fruit/mango.png'><br><font class='baseline'><strong>Mega Mangos</strong><p>Choose number of points to bet.</font><div class='respPicDiv'><img src='img/responseButtonOffersNo0L.png' class='respPic'></div></div>","4","16","Mega Mangos","Fruit/mango.png","Lost","0.65,0.2","10","0.65","242","46","",""
"html-keyboard-response","146","374768","0.0-11.0-2.45","63034df51d918e1e3b97e5ce","bdp_rwlrn","Wed Mar 15 2023 23:30:11 GMT-0400 (Eastern Daylight Time)","731497","Trustworthy,Untrustworthy","","null","","","","decisionFB","","","<div class='trialDiv'><img src='Fruit/mango.png'><br><font class='baseline'><strong>Mega Mangos</strong><p>Choose number of points to bet.</font><div class='respPicDiv'><img src='img/responseButtonOffersNo0L4.png' class='respPic'></div></div>","null","16","Mega Mangos","Fruit/mango.png","Lost","0.65,0.2","10","0.65","238","46","",""
"html-keyboard-response","147","375779","0.0-11.0-3.45","63034df51d918e1e3b97e5ce","bdp_rwlrn","Wed Mar 15 2023 23:30:11 GMT-0400 (Eastern Daylight Time)","731497","Trustworthy,Untrustworthy","","null","","","","feedback","","","<div class='respPicDiv'><img src='img/responseButtonOffersNo0_wht.png' class='respPic'></div><div class='trialDiv'><img src='Fruit/mango.png'><br><font class='baseline'><strong>Mega Mangos</strong><p><strong><font class='negOutcome'>You LOST</font><p>You bet: 4</strong></font> &nbsp; &nbsp; &nbsp; &nbsp; &nbsp; &nbsp;<font class='negOutcome'>You receive: <strong>0</strong></font></div>","null","16","Mega Mangos","Fruit/mango.png","Lost","0.65,0.2","10","0.65","238","46","",""
"html-keyboard-response","148","376370","0.0-11.0-1.46","63034df51d918e1e3b97e5ce","bdp_rwlrn","Wed Mar 15 2023 23:30:11 GMT-0400 (Eastern Daylight Time)","731497","Trustworthy,Untrustworthy","","590","","","","decision","","","<div class='trialDiv'><img src='Fruit/pears.png'><br><font class='baseline'><strong>Pears Aplenty</strong><p>Choose number of points to bet.</font><div class='respPicDiv'><img src='img/responseButtonOffersNo0L.png' class='respPic'></div></div>","1","16","Pears Aplenty","Fruit/pears.png","Won","0.2,0.65","11","0.2","243","47","",""
"html-keyboard-response","149","376622","0.0-11.0-2.46","63034df51d918e1e3b97e5ce","bdp_rwlrn","Wed Mar 15 2023 23:30:11 GMT-0400 (Eastern Daylight Time)","731497","Trustworthy,Untrustworthy","","null","","","","decisionFB","","","<div class='trialDiv'><img src='Fruit/pears.png'><br><font class='baseline'><strong>Pears Aplenty</strong><p>Choose number of points to bet.</font><div class='respPicDiv'><img src='img/responseButtonOffersNo0L1.png' class='respPic'></div></div>","null","16","Pears Aplenty","Fruit/pears.png","Won","0.2,0.65","11","0.2","242","47","",""
"html-keyboard-response","150","377635","0.0-11.0-3.46","63034df51d918e1e3b97e5ce","bdp_rwlrn","Wed Mar 15 2023 23:30:11 GMT-0400 (Eastern Daylight Time)","731497","Trustworthy,Untrustworthy","","null","","","","feedback","","","<div class='respPicDiv'><img src='img/responseButtonOffersNo0_wht.png' class='respPic'></div><div class='trialDiv'><img src='Fruit/pears.png'><br><font class='baseline'><strong>Pears Aplenty</strong><p><strong><font class='posOutcome'>You WON</font><p>You bet: 1</strong></font> &nbsp; &nbsp; &nbsp; &nbsp; &nbsp; &nbsp;<font class='posOutcome'>you receive: <strong>2</strong></font></div>","null","16","Pears Aplenty","Fruit/pears.png","Won","0.2,0.65","11","0.2","244","47","",""
"html-keyboard-response","151","377930","0.0-11.0-1.47","63034df51d918e1e3b97e5ce","bdp_rwlrn","Wed Mar 15 2023 23:30:11 GMT-0400 (Eastern Daylight Time)","731497","Trustworthy,Untrustworthy","","294","","","","decision","","","<div class='trialDiv'><img src='Fruit/orange.png'><br><font class='baseline'><strong>Odds are Orange</strong><p>Choose number of points to bet.</font><div class='respPicDiv'><img src='img/responseButtonOffersNo0L.png' class='respPic'></div></div>","2","16","Odds are Orange","Fruit/orange.png","Lost","0.65,0.35","10","0.65","249","48","",""
"html-keyboard-response","152","378184","0.0-11.0-2.47","63034df51d918e1e3b97e5ce","bdp_rwlrn","Wed Mar 15 2023 23:30:11 GMT-0400 (Eastern Daylight Time)","731497","Trustworthy,Untrustworthy","","null","","","","decisionFB","","","<div class='trialDiv'><img src='Fruit/orange.png'><br><font class='baseline'><strong>Odds are Orange</strong><p>Choose number of points to bet.</font><div class='respPicDiv'><img src='img/responseButtonOffersNo0L2.png' class='respPic'></div></div>","null","16","Odds are Orange","Fruit/orange.png","Lost","0.65,0.35","10","0.65","247","48","",""
"html-keyboard-response","153","379197","0.0-11.0-3.47","63034df51d918e1e3b97e5ce","bdp_rwlrn","Wed Mar 15 2023 23:30:11 GMT-0400 (Eastern Daylight Time)","731497","Trustworthy,Untrustworthy","","null","","","","feedback","","","<div class='respPicDiv'><img src='img/responseButtonOffersNo0_wht.png' class='respPic'></div><div class='trialDiv'><img src='Fruit/orange.png'><br><font class='baseline'><strong>Odds are Orange</strong><p><strong><font class='negOutcome'>You LOST</font><p>You bet: 2</strong></font> &nbsp; &nbsp; &nbsp; &nbsp; &nbsp; &nbsp;<font class='negOutcome'>You receive: <strong>0</strong></font></div>","null","16","Odds are Orange","Fruit/orange.png","Lost","0.65,0.35","10","0.65","247","48","",""
"html-keyboard-response","154","379698","0.0-11.0-1.48","63034df51d918e1e3b97e5ce","bdp_rwlrn","Wed Mar 15 2023 23:30:11 GMT-0400 (Eastern Daylight Time)","731497","Trustworthy,Untrustworthy","","500","","","","decision","","","<div class='trialDiv'><img src='Fruit/mango.png'><br><font class='baseline'><strong>Mega Mangos</strong><p>Choose number of points to bet.</font><div class='respPicDiv'><img src='img/responseButtonOffersNo0L.png' class='respPic'></div></div>","3","17","Mega Mangos","Fruit/mango.png","Lost","0.65,0.2","10","0.65","252","49","",""
"html-keyboard-response","155","379964","0.0-11.0-2.48","63034df51d918e1e3b97e5ce","bdp_rwlrn","Wed Mar 15 2023 23:30:11 GMT-0400 (Eastern Daylight Time)","731497","Trustworthy,Untrustworthy","","null","","","","decisionFB","","","<div class='trialDiv'><img src='Fruit/mango.png'><br><font class='baseline'><strong>Mega Mangos</strong><p>Choose number of points to bet.</font><div class='respPicDiv'><img src='img/responseButtonOffersNo0L3.png' class='respPic'></div></div>","null","17","Mega Mangos","Fruit/mango.png","Lost","0.65,0.2","10","0.65","249","49","",""
"html-keyboard-response","156","380975","0.0-11.0-3.48","63034df51d918e1e3b97e5ce","bdp_rwlrn","Wed Mar 15 2023 23:30:11 GMT-0400 (Eastern Daylight Time)","731497","Trustworthy,Untrustworthy","","null","","","","feedback","","","<div class='respPicDiv'><img src='img/responseButtonOffersNo0_wht.png' class='respPic'></div><div class='trialDiv'><img src='Fruit/mango.png'><br><font class='baseline'><strong>Mega Mangos</strong><p><strong><font class='negOutcome'>You LOST</font><p>You bet: 3</strong></font> &nbsp; &nbsp; &nbsp; &nbsp; &nbsp; &nbsp;<font class='negOutcome'>You receive: <strong>0</strong></font></div>","null","17","Mega Mangos","Fruit/mango.png","Lost","0.65,0.2","10","0.65","249","49","",""
"html-keyboard-response","157","381508","0.0-11.0-1.49","63034df51d918e1e3b97e5ce","bdp_rwlrn","Wed Mar 15 2023 23:30:11 GMT-0400 (Eastern Daylight Time)","731497","Trustworthy,Untrustworthy","","532","","","","decision","","","<div class='trialDiv'><img src='Fruit/pears.png'><br><font class='baseline'><strong>Pears Aplenty</strong><p>Choose number of points to bet.</font><div class='respPicDiv'><img src='img/responseButtonOffersNo0L.png' class='respPic'></div></div>","4","17","Pears Aplenty","Fruit/pears.png","Won","0.2,0.65","11","0.2","254","50","",""
"html-keyboard-response","158","381771","0.0-11.0-2.49","63034df51d918e1e3b97e5ce","bdp_rwlrn","Wed Mar 15 2023 23:30:11 GMT-0400 (Eastern Daylight Time)","731497","Trustworthy,Untrustworthy","","null","","","","decisionFB","","","<div class='trialDiv'><img src='Fruit/pears.png'><br><font class='baseline'><strong>Pears Aplenty</strong><p>Choose number of points to bet.</font><div class='respPicDiv'><img src='img/responseButtonOffersNo0L4.png' class='respPic'></div></div>","null","17","Pears Aplenty","Fruit/pears.png","Won","0.2,0.65","11","0.2","250","50","",""
"html-keyboard-response","159","382772","0.0-11.0-3.49","63034df51d918e1e3b97e5ce","bdp_rwlrn","Wed Mar 15 2023 23:30:11 GMT-0400 (Eastern Daylight Time)","731497","Trustworthy,Untrustworthy","","null","","","","feedback","","","<div class='respPicDiv'><img src='img/responseButtonOffersNo0_wht.png' class='respPic'></div><div class='trialDiv'><img src='Fruit/pears.png'><br><font class='baseline'><strong>Pears Aplenty</strong><p><strong><font class='posOutcome'>You WON</font><p>You bet: 4</strong></font> &nbsp; &nbsp; &nbsp; &nbsp; &nbsp; &nbsp;<font class='posOutcome'>you receive: <strong>8</strong></font></div>","null","17","Pears Aplenty","Fruit/pears.png","Won","0.2,0.65","11","0.2","258","50","",""
"html-keyboard-response","160","397799","0.0-11.0-1.50","63034df51d918e1e3b97e5ce","bdp_rwlrn","Wed Mar 15 2023 23:30:11 GMT-0400 (Eastern Daylight Time)","731497","Trustworthy,Untrustworthy","","15025","","","","decision","","","<div class='trialDiv'><img src='Fruit/orange.png'><br><font class='baseline'><strong>Odds are Orange</strong><p>Choose number of points to bet.</font><div class='respPicDiv'><img src='img/responseButtonOffersNo0L.png' class='respPic'></div></div>","4","17","Odds are Orange","Fruit/orange.png","Lost","0.65,0.35","10","0.65","263","51","",""
"html-keyboard-response","161","398052","0.0-11.0-2.50","63034df51d918e1e3b97e5ce","bdp_rwlrn","Wed Mar 15 2023 23:30:11 GMT-0400 (Eastern Daylight Time)","731497","Trustworthy,Untrustworthy","","null","","","","decisionFB","","","<div class='trialDiv'><img src='Fruit/orange.png'><br><font class='baseline'><strong>Odds are Orange</strong><p>Choose number of points to bet.</font><div class='respPicDiv'><img src='img/responseButtonOffersNo0L4.png' class='respPic'></div></div>","null","17","Odds are Orange","Fruit/orange.png","Lost","0.65,0.35","10","0.65","259","51","",""
