"event","trial","time","trialtype","subject_id","task","startTime","totalTime","labels","trial_type","trial_index","time_elapsed","internal_node_id","view_history","rt","success","stimulus","key_press","ltround","name","fileID","outcome","lottotype","lottoswpt","lottocurrpshare","point_total","round","faceID","face"
"focus","0","0","focusevent","63b82398bbe6a599972413ad","bdp_rwlrn","Mon Mar 13 2023 15:05:40 GMT-0400 (Eastern Daylight Time)","540142","Untrustworthy,Trustworthy","","","","","","","","","","","","","","","","","","","",""
"","","","","63b82398bbe6a599972413ad","bdp_rwlrn","Mon Mar 13 2023 15:05:40 GMT-0400 (Eastern Daylight Time)","540142","Untrustworthy,Trustworthy","pavlovia","0","2","0.0-0.0","","","","","","","","","","","","","","","",""
"","","","","63b82398bbe6a599972413ad","bdp_rwlrn","Mon Mar 13 2023 15:05:40 GMT-0400 (Eastern Daylight Time)","540142","Untrustworthy,Trustworthy","instructions","1","124152","0.0-1.0","[{""page_index"":0,""viewing_time"":124149}]","124149","","","","","","","","","","","","","",""
"fullscreenexit","2","132744","fullscreenexit","63b82398bbe6a599972413ad","bdp_rwlrn","Mon Mar 13 2023 15:05:40 GMT-0400 (Eastern Daylight Time)","540142","Untrustworthy,Trustworthy","","","","","","","","","","","","","","","","","","","",""
"","","","","63b82398bbe6a599972413ad","bdp_rwlrn","Mon Mar 13 2023 15:05:40 GMT-0400 (Eastern Daylight Time)","540142","Untrustworthy,Trustworthy","fullscreen","2","133512","0.0-2.0","","","true","","","","","","","","","","","","",""
"","","","fullscreenfail","63b82398bbe6a599972413ad","bdp_rwlrn","Mon Mar 13 2023 15:05:40 GMT-0400 (Eastern Daylight Time)","540142","Untrustworthy,Trustworthy","image-keyboard-response","3","136829","0.0-3.0-0.0","","3314","","","32","","","","","","","","","","",""
"","","","","63b82398bbe6a599972413ad","bdp_rwlrn","Mon Mar 13 2023 15:05:40 GMT-0400 (Eastern Daylight Time)","540142","Untrustworthy,Trustworthy","instructions","4","202601","0.0-4.0","[{""page_index"":0,""viewing_time"":9550},{""page_index"":1,""viewing_time"":11903},{""page_index"":2,""viewing_time"":6505},{""page_index"":3,""viewing_time"":7673},{""page_index"":4,""viewing_time"":26574},{""page_index"":5,""viewing_time"":3310}]","65515","","","","","","","","","","","","","",""
"","","","","63b82398bbe6a599972413ad","bdp_rwlrn","Mon Mar 13 2023 15:05:40 GMT-0400 (Eastern Daylight Time)","540142","Untrustworthy,Trustworthy","html-keyboard-response","5","206767","0.0-5.0","","4165","","<div class='header' style='text-align:left; position: absolute; top: 5%; left: 5%;'><small>Task 3 of 5</small></div><div class='instruxDiv'><p><strong>1) What is the maximum number of points you can choose to bet on a lottery?</strong></p><p>a) 0</p><p>b) 1</p><p>c) 5</p>","C","","","","","","","","","","",""
"","","","","63b82398bbe6a599972413ad","bdp_rwlrn","Mon Mar 13 2023 15:05:40 GMT-0400 (Eastern Daylight Time)","540142","Untrustworthy,Trustworthy","html-keyboard-response","6","207757","0.0-6.0","","887","","<div class='header' style='text-align:left; position: absolute; top: 5%; left: 5%;'><small>Task 3 of 5</small></div><div class='instruxDiv'><p><strong>1) What is the maximum number of points you can choose to bet on a lottery?</strong></p><p>a) 1</p><p>b) 1</p><p style='color:#00FF00'>c) 5</p><h3 style='color:#00FF00'>Correct!</h3><h3 class='center-content'>The correct response is c).</h3><h3 class='center-content'>The maximum number of points you can choose to bet on a lottery is 5 points.</h3><p><em>Press SPACEBAR to continue</em></p></div>"," ","","","","","","","","","","",""
"","","","","63b82398bbe6a599972413ad","bdp_rwlrn","Mon Mar 13 2023 15:05:40 GMT-0400 (Eastern Daylight Time)","540142","Untrustworthy,Trustworthy","html-keyboard-response","7","212652","0.0-7.0","","4786","","<div class='header' style='text-align:left; position: absolute; top: 5%; left: 5%;'><small>Task 3 of 5</small></div><div class='instruxDiv'><p><strong>2) How many points can you win each round?</strong></p><p>a) 10 points</p><p>b) Double what you bet</p><p>c) Quadruple what you bet</p>","B","","","","","","","","","","",""
"","","","","63b82398bbe6a599972413ad","bdp_rwlrn","Mon Mar 13 2023 15:05:40 GMT-0400 (Eastern Daylight Time)","540142","Untrustworthy,Trustworthy","html-keyboard-response","8","213640","0.0-8.0","","867","","<div class='header' style='text-align:left; position: absolute; top: 5%; left: 5%;'><small>Task 3 of 5</small></div><div class='instruxDiv'><p><strong>2) How many points can you win each round?</strong></p><p>a) 10 points</p><p style='color:#00FF00'>b) Double what you bet</p><p>c) Quadruple what you bet</p><h3 style='color:#00FF00'>Correct!</h3><h3 class='center-content'>The correct response is b).</h3><h3 class='center-content'>You can win double the amount of points you bet.</h3><p><em>Press SPACEBAR to continue</em></p></div>"," ","","","","","","","","","","",""
"","","","","63b82398bbe6a599972413ad","bdp_rwlrn","Mon Mar 13 2023 15:05:40 GMT-0400 (Eastern Daylight Time)","540142","Untrustworthy,Trustworthy","html-keyboard-response","9","218756","0.0-9.0","","null","","<div class='header' style='text-align:left; position: absolute; top: 5%; left: 5%;'><small>Task 3 of 5</small></div><div class='instruxDiv'><p>Thank you for completing the quiz<p>These are the actual lotteries you will be playing in the next block:<p><div class='tc' align='center'><img class='introPic' src='Fruit/melon.png'><br><strong>Melon Millions</strong></div><div class='bl' align='center'><img class='introPic' src='Fruit/pears.png'><br><strong>Pears Aplenty</strong></div><div class='br' align='center'><img class='introPic' src='Fruit/pineapple.png'><br><strong>Primo Pineapple</strong></div></div><p>Across <strong>66 rounds</strong> you will play each lottery <strong>22 times</strong> (in random order).<p style='align:center; color:white'><font <em>Press SPACEBAR to continue</em></p>","null","","","","","","","","","","",""
"","","","","63b82398bbe6a599972413ad","bdp_rwlrn","Mon Mar 13 2023 15:05:40 GMT-0400 (Eastern Daylight Time)","540142","Untrustworthy,Trustworthy","instructions","10","222101","0.0-10.0","[{""page_index"":0,""viewing_time"":1075},{""page_index"":1,""viewing_time"":2268}]","3343","","","","","","","","","","","","","",""
"","","","decision","63b82398bbe6a599972413ad","bdp_rwlrn","Mon Mar 13 2023 15:05:40 GMT-0400 (Eastern Daylight Time)","540142","Untrustworthy,Trustworthy","html-keyboard-response","11","224667","0.0-11.0-1.0","","2453","","<div class='trialDiv'><img src='Fruit/pineapple.png'><br><font class='baseline'><strong>Primo Pineapple</strong><p>Choose number of points to bet.</font><div class='respPicDiv'><img src='img/responseButtonOffersNo0L.png' class='respPic'></div></div>","3","1","Primo Pineapple","Fruit/pineapple.png","Lost","0.35,0.8","12","0.35","5","1","",""
"","","","decisionFB","63b82398bbe6a599972413ad","bdp_rwlrn","Mon Mar 13 2023 15:05:40 GMT-0400 (Eastern Daylight Time)","540142","Untrustworthy,Trustworthy","html-keyboard-response","12","224925","0.0-11.0-2.0","","null","","<div class='trialDiv'><img src='Fruit/pineapple.png'><br><font class='baseline'><strong>Primo Pineapple</strong><p>Choose number of points to bet.</font><div class='respPicDiv'><img src='img/responseButtonOffersNo0L3.png' class='respPic'></div></div>","null","1","Primo Pineapple","Fruit/pineapple.png","Lost","0.35,0.8","12","0.35","2","1","",""
"","","","feedback","63b82398bbe6a599972413ad","bdp_rwlrn","Mon Mar 13 2023 15:05:40 GMT-0400 (Eastern Daylight Time)","540142","Untrustworthy,Trustworthy","html-keyboard-response","13","225934","0.0-11.0-3.0","","null","","<div class='respPicDiv'><img src='img/responseButtonOffersNo0_wht.png' class='respPic'></div><div class='trialDiv'><img src='Fruit/pineapple.png'><br><font class='baseline'><strong>Primo Pineapple</strong><p><strong><font class='negOutcome'>You LOST</font><p>You bet: 3</strong></font> &nbsp; &nbsp; &nbsp; &nbsp; &nbsp; &nbsp;<font class='negOutcome'>You receive: <strong>0</strong></font></div>","null","1","Primo Pineapple","Fruit/pineapple.png","Lost","0.35,0.8","12","0.35","2","1","",""
"","","","decision","63b82398bbe6a599972413ad","bdp_rwlrn","Mon Mar 13 2023 15:05:40 GMT-0400 (Eastern Daylight Time)","540142","Untrustworthy,Trustworthy","html-keyboard-response","14","227071","0.0-11.0-1.1","","1136","","<div class='trialDiv'><img src='Fruit/pears.png'><br><font class='baseline'><strong>Pears Aplenty</strong><p>Choose number of points to bet.</font><div class='respPicDiv'><img src='img/responseButtonOffersNo0L.png' class='respPic'></div></div>","3","1","Pears Aplenty","Fruit/pears.png","Won","0.8,0.2","8","0.8","7","2","",""
"","","","decisionFB","63b82398bbe6a599972413ad","bdp_rwlrn","Mon Mar 13 2023 15:05:40 GMT-0400 (Eastern Daylight Time)","540142","Untrustworthy,Trustworthy","html-keyboard-response","15","227324","0.0-11.0-2.1","","null","","<div class='trialDiv'><img src='Fruit/pears.png'><br><font class='baseline'><strong>Pears Aplenty</strong><p>Choose number of points to bet.</font><div class='respPicDiv'><img src='img/responseButtonOffersNo0L3.png' class='respPic'></div></div>","null","1","Pears Aplenty","Fruit/pears.png","Won","0.8,0.2","8","0.8","4","2","",""
"","","","feedback","63b82398bbe6a599972413ad","bdp_rwlrn","Mon Mar 13 2023 15:05:40 GMT-0400 (Eastern Daylight Time)","540142","Untrustworthy,Trustworthy","html-keyboard-response","16","228339","0.0-11.0-3.1","","null","","<div class='respPicDiv'><img src='img/responseButtonOffersNo0_wht.png' class='respPic'></div><div class='trialDiv'><img src='Fruit/pears.png'><br><font class='baseline'><strong>Pears Aplenty</strong><p><strong><font class='posOutcome'>You WON</font><p>You bet: 3</strong></font> &nbsp; &nbsp; &nbsp; &nbsp; &nbsp; &nbsp;<font class='posOutcome'>you receive: <strong>6</strong></font></div>","null","1","Pears Aplenty","Fruit/pears.png","Won","0.8,0.2","8","0.8","10","2","",""
"","","","decision","63b82398bbe6a599972413ad","bdp_rwlrn","Mon Mar 13 2023 15:05:40 GMT-0400 (Eastern Daylight Time)","540142","Untrustworthy,Trustworthy","html-keyboard-response","17","229125","0.0-11.0-1.2","","785","","<div class='trialDiv'><img src='Fruit/melon.png'><br><font class='baseline'><strong>Melon Millions</strong><p>Choose number of points to bet.</font><div class='respPicDiv'><img src='img/responseButtonOffersNo0L.png' class='respPic'></div></div>","3","1","Melon Millions","Fruit/melon.png","Won","0.65,0.2","14","0.65","15","3","",""
"","","","decisionFB","63b82398bbe6a599972413ad","bdp_rwlrn","Mon Mar 13 2023 15:05:40 GMT-0400 (Eastern Daylight Time)","540142","Untrustworthy,Trustworthy","html-keyboard-response","18","229378","0.0-11.0-2.2","","null","","<div class='trialDiv'><img src='Fruit/melon.png'><br><font class='baseline'><strong>Melon Millions</strong><p>Choose number of points to bet.</font><div class='respPicDiv'><img src='img/responseButtonOffersNo0L3.png' class='respPic'></div></div>","null","1","Melon Millions","Fruit/melon.png","Won","0.65,0.2","14","0.65","12","3","",""
"","","","feedback","63b82398bbe6a599972413ad","bdp_rwlrn","Mon Mar 13 2023 15:05:40 GMT-0400 (Eastern Daylight Time)","540142","Untrustworthy,Trustworthy","html-keyboard-response","19","230391","0.0-11.0-3.2","","null","","<div class='respPicDiv'><img src='img/responseButtonOffersNo0_wht.png' class='respPic'></div><div class='trialDiv'><img src='Fruit/melon.png'><br><font class='baseline'><strong>Melon Millions</strong><p><strong><font class='posOutcome'>You WON</font><p>You bet: 3</strong></font> &nbsp; &nbsp; &nbsp; &nbsp; &nbsp; &nbsp;<font class='posOutcome'>you receive: <strong>6</strong></font></div>","null","1","Melon Millions","Fruit/melon.png","Won","0.65,0.2","14","0.65","18","3","",""
"","","","decision","63b82398bbe6a599972413ad","bdp_rwlrn","Mon Mar 13 2023 15:05:40 GMT-0400 (Eastern Daylight Time)","540142","Untrustworthy,Trustworthy","html-keyboard-response","20","231309","0.0-11.0-1.3","","916","","<div class='trialDiv'><img src='Fruit/pineapple.png'><br><font class='baseline'><strong>Primo Pineapple</strong><p>Choose number of points to bet.</font><div class='respPicDiv'><img src='img/responseButtonOffersNo0L.png' class='respPic'></div></div>","2","2","Primo Pineapple","Fruit/pineapple.png","Lost","0.35,0.8","12","0.35","23","4","",""
"","","","decisionFB","63b82398bbe6a599972413ad","bdp_rwlrn","Mon Mar 13 2023 15:05:40 GMT-0400 (Eastern Daylight Time)","540142","Untrustworthy,Trustworthy","html-keyboard-response","21","231560","0.0-11.0-2.3","","null","","<div class='trialDiv'><img src='Fruit/pineapple.png'><br><font class='baseline'><strong>Primo Pineapple</strong><p>Choose number of points to bet.</font><div class='respPicDiv'><img src='img/responseButtonOffersNo0L2.png' class='respPic'></div></div>","null","2","Primo Pineapple","Fruit/pineapple.png","Lost","0.35,0.8","12","0.35","21","4","",""
"","","","feedback","63b82398bbe6a599972413ad","bdp_rwlrn","Mon Mar 13 2023 15:05:40 GMT-0400 (Eastern Daylight Time)","540142","Untrustworthy,Trustworthy","html-keyboard-response","22","232574","0.0-11.0-3.3","","null","","<div class='respPicDiv'><img src='img/responseButtonOffersNo0_wht.png' class='respPic'></div><div class='trialDiv'><img src='Fruit/pineapple.png'><br><font class='baseline'><strong>Primo Pineapple</strong><p><strong><font class='negOutcome'>You LOST</font><p>You bet: 2</strong></font> &nbsp; &nbsp; &nbsp; &nbsp; &nbsp; &nbsp;<font class='negOutcome'>You receive: <strong>0</strong></font></div>","null","2","Primo Pineapple","Fruit/pineapple.png","Lost","0.35,0.8","12","0.35","21","4","",""
"","","","decision","63b82398bbe6a599972413ad","bdp_rwlrn","Mon Mar 13 2023 15:05:40 GMT-0400 (Eastern Daylight Time)","540142","Untrustworthy,Trustworthy","html-keyboard-response","23","234714","0.0-11.0-1.4","","2139","","<div class='trialDiv'><img src='Fruit/pears.png'><br><font class='baseline'><strong>Pears Aplenty</strong><p>Choose number of points to bet.</font><div class='respPicDiv'><img src='img/responseButtonOffersNo0L.png' class='respPic'></div></div>","4","2","Pears Aplenty","Fruit/pears.png","Lost","0.8,0.2","8","0.8","26","5","",""
"","","","decisionFB","63b82398bbe6a599972413ad","bdp_rwlrn","Mon Mar 13 2023 15:05:40 GMT-0400 (Eastern Daylight Time)","540142","Untrustworthy,Trustworthy","html-keyboard-response","24","234977","0.0-11.0-2.4","","null","","<div class='trialDiv'><img src='Fruit/pears.png'><br><font class='baseline'><strong>Pears Aplenty</strong><p>Choose number of points to bet.</font><div class='respPicDiv'><img src='img/responseButtonOffersNo0L4.png' class='respPic'></div></div>","null","2","Pears Aplenty","Fruit/pears.png","Lost","0.8,0.2","8","0.8","22","5","",""
"","","","feedback","63b82398bbe6a599972413ad","bdp_rwlrn","Mon Mar 13 2023 15:05:40 GMT-0400 (Eastern Daylight Time)","540142","Untrustworthy,Trustworthy","html-keyboard-response","25","235986","0.0-11.0-3.4","","null","","<div class='respPicDiv'><img src='img/responseButtonOffersNo0_wht.png' class='respPic'></div><div class='trialDiv'><img src='Fruit/pears.png'><br><font class='baseline'><strong>Pears Aplenty</strong><p><strong><font class='negOutcome'>You LOST</font><p>You bet: 4</strong></font> &nbsp; &nbsp; &nbsp; &nbsp; &nbsp; &nbsp;<font class='negOutcome'>You receive: <strong>0</strong></font></div>","null","2","Pears Aplenty","Fruit/pears.png","Lost","0.8,0.2","8","0.8","22","5","",""
"","","","decision","63b82398bbe6a599972413ad","bdp_rwlrn","Mon Mar 13 2023 15:05:40 GMT-0400 (Eastern Daylight Time)","540142","Untrustworthy,Trustworthy","html-keyboard-response","26","236588","0.0-11.0-1.5","","601","","<div class='trialDiv'><img src='Fruit/melon.png'><br><font class='baseline'><strong>Melon Millions</strong><p>Choose number of points to bet.</font><div class='respPicDiv'><img src='img/responseButtonOffersNo0L.png' class='respPic'></div></div>","4","2","Melon Millions","Fruit/melon.png","Lost","0.65,0.2","14","0.65","27","6","",""
"","","","decisionFB","63b82398bbe6a599972413ad","bdp_rwlrn","Mon Mar 13 2023 15:05:40 GMT-0400 (Eastern Daylight Time)","540142","Untrustworthy,Trustworthy","html-keyboard-response","27","236844","0.0-11.0-2.5","","null","","<div class='trialDiv'><img src='Fruit/melon.png'><br><font class='baseline'><strong>Melon Millions</strong><p>Choose number of points to bet.</font><div class='respPicDiv'><img src='img/responseButtonOffersNo0L4.png' class='respPic'></div></div>","null","2","Melon Millions","Fruit/melon.png","Lost","0.65,0.2","14","0.65","23","6","",""
"","","","feedback","63b82398bbe6a599972413ad","bdp_rwlrn","Mon Mar 13 2023 15:05:40 GMT-0400 (Eastern Daylight Time)","540142","Untrustworthy,Trustworthy","html-keyboard-response","28","237854","0.0-11.0-3.5","","null","","<div class='respPicDiv'><img src='img/responseButtonOffersNo0_wht.png' class='respPic'></div><div class='trialDiv'><img src='Fruit/melon.png'><br><font class='baseline'><strong>Melon Millions</strong><p><strong><font class='negOutcome'>You LOST</font><p>You bet: 4</strong></font> &nbsp; &nbsp; &nbsp; &nbsp; &nbsp; &nbsp;<font class='negOutcome'>You receive: <strong>0</strong></font></div>","null","2","Melon Millions","Fruit/melon.png","Lost","0.65,0.2","14","0.65","23","6","",""
"","","","decision","63b82398bbe6a599972413ad","bdp_rwlrn","Mon Mar 13 2023 15:05:40 GMT-0400 (Eastern Daylight Time)","540142","Untrustworthy,Trustworthy","html-keyboard-response","29","239152","0.0-11.0-1.6","","1297","","<div class='trialDiv'><img src='Fruit/pears.png'><br><font class='baseline'><strong>Pears Aplenty</strong><p>Choose number of points to bet.</font><div class='respPicDiv'><img src='img/responseButtonOffersNo0L.png' class='respPic'></div></div>","4","3","Pears Aplenty","Fruit/pears.png","Won","0.8,0.2","8","0.8","28","7","",""
"","","","decisionFB","63b82398bbe6a599972413ad","bdp_rwlrn","Mon Mar 13 2023 15:05:40 GMT-0400 (Eastern Daylight Time)","540142","Untrustworthy,Trustworthy","html-keyboard-response","30","239417","0.0-11.0-2.6","","null","","<div class='trialDiv'><img src='Fruit/pears.png'><br><font class='baseline'><strong>Pears Aplenty</strong><p>Choose number of points to bet.</font><div class='respPicDiv'><img src='img/responseButtonOffersNo0L4.png' class='respPic'></div></div>","null","3","Pears Aplenty","Fruit/pears.png","Won","0.8,0.2","8","0.8","24","7","",""
"","","","feedback","63b82398bbe6a599972413ad","bdp_rwlrn","Mon Mar 13 2023 15:05:40 GMT-0400 (Eastern Daylight Time)","540142","Untrustworthy,Trustworthy","html-keyboard-response","31","240430","0.0-11.0-3.6","","null","","<div class='respPicDiv'><img src='img/responseButtonOffersNo0_wht.png' class='respPic'></div><div class='trialDiv'><img src='Fruit/pears.png'><br><font class='baseline'><strong>Pears Aplenty</strong><p><strong><font class='posOutcome'>You WON</font><p>You bet: 4</strong></font> &nbsp; &nbsp; &nbsp; &nbsp; &nbsp; &nbsp;<font class='posOutcome'>you receive: <strong>8</strong></font></div>","null","3","Pears Aplenty","Fruit/pears.png","Won","0.8,0.2","8","0.8","32","7","",""
"","","","decision","63b82398bbe6a599972413ad","bdp_rwlrn","Mon Mar 13 2023 15:05:40 GMT-0400 (Eastern Daylight Time)","540142","Untrustworthy,Trustworthy","html-keyboard-response","32","242966","0.0-11.0-1.7","","2535","","<div class='trialDiv'><img src='Fruit/pineapple.png'><br><font class='baseline'><strong>Primo Pineapple</strong><p>Choose number of points to bet.</font><div class='respPicDiv'><img src='img/responseButtonOffersNo0L.png' class='respPic'></div></div>","1","3","Primo Pineapple","Fruit/pineapple.png","Lost","0.35,0.8","12","0.35","37","8","",""
"","","","decisionFB","63b82398bbe6a599972413ad","bdp_rwlrn","Mon Mar 13 2023 15:05:40 GMT-0400 (Eastern Daylight Time)","540142","Untrustworthy,Trustworthy","html-keyboard-response","33","243224","0.0-11.0-2.7","","null","","<div class='trialDiv'><img src='Fruit/pineapple.png'><br><font class='baseline'><strong>Primo Pineapple</strong><p>Choose number of points to bet.</font><div class='respPicDiv'><img src='img/responseButtonOffersNo0L1.png' class='respPic'></div></div>","null","3","Primo Pineapple","Fruit/pineapple.png","Lost","0.35,0.8","12","0.35","36","8","",""
"","","","feedback","63b82398bbe6a599972413ad","bdp_rwlrn","Mon Mar 13 2023 15:05:40 GMT-0400 (Eastern Daylight Time)","540142","Untrustworthy,Trustworthy","html-keyboard-response","34","244228","0.0-11.0-3.7","","null","","<div class='respPicDiv'><img src='img/responseButtonOffersNo0_wht.png' class='respPic'></div><div class='trialDiv'><img src='Fruit/pineapple.png'><br><font class='baseline'><strong>Primo Pineapple</strong><p><strong><font class='negOutcome'>You LOST</font><p>You bet: 1</strong></font> &nbsp; &nbsp; &nbsp; &nbsp; &nbsp; &nbsp;<font class='negOutcome'>You receive: <strong>0</strong></font></div>","null","3","Primo Pineapple","Fruit/pineapple.png","Lost","0.35,0.8","12","0.35","36","8","",""
"","","","decision","63b82398bbe6a599972413ad","bdp_rwlrn","Mon Mar 13 2023 15:05:40 GMT-0400 (Eastern Daylight Time)","540142","Untrustworthy,Trustworthy","html-keyboard-response","35","244854","0.0-11.0-1.8","","626","","<div class='trialDiv'><img src='Fruit/melon.png'><br><font class='baseline'><strong>Melon Millions</strong><p>Choose number of points to bet.</font><div class='respPicDiv'><img src='img/responseButtonOffersNo0L.png' class='respPic'></div></div>","4","3","Melon Millions","Fruit/melon.png","Lost","0.65,0.2","14","0.65","41","9","",""
"","","","decisionFB","63b82398bbe6a599972413ad","bdp_rwlrn","Mon Mar 13 2023 15:05:40 GMT-0400 (Eastern Daylight Time)","540142","Untrustworthy,Trustworthy","html-keyboard-response","36","245106","0.0-11.0-2.8","","null","","<div class='trialDiv'><img src='Fruit/melon.png'><br><font class='baseline'><strong>Melon Millions</strong><p>Choose number of points to bet.</font><div class='respPicDiv'><img src='img/responseButtonOffersNo0L4.png' class='respPic'></div></div>","null","3","Melon Millions","Fruit/melon.png","Lost","0.65,0.2","14","0.65","37","9","",""
"","","","feedback","63b82398bbe6a599972413ad","bdp_rwlrn","Mon Mar 13 2023 15:05:40 GMT-0400 (Eastern Daylight Time)","540142","Untrustworthy,Trustworthy","html-keyboard-response","37","246110","0.0-11.0-3.8","","null","","<div class='respPicDiv'><img src='img/responseButtonOffersNo0_wht.png' class='respPic'></div><div class='trialDiv'><img src='Fruit/melon.png'><br><font class='baseline'><strong>Melon Millions</strong><p><strong><font class='negOutcome'>You LOST</font><p>You bet: 4</strong></font> &nbsp; &nbsp; &nbsp; &nbsp; &nbsp; &nbsp;<font class='negOutcome'>You receive: <strong>0</strong></font></div>","null","3","Melon Millions","Fruit/melon.png","Lost","0.65,0.2","14","0.65","37","9","",""
"","","","decision","63b82398bbe6a599972413ad","bdp_rwlrn","Mon Mar 13 2023 15:05:40 GMT-0400 (Eastern Daylight Time)","540142","Untrustworthy,Trustworthy","html-keyboard-response","38","248392","0.0-11.0-1.9","","2281","","<div class='trialDiv'><img src='Fruit/pears.png'><br><font class='baseline'><strong>Pears Aplenty</strong><p>Choose number of points to bet.</font><div class='respPicDiv'><img src='img/responseButtonOffersNo0L.png' class='respPic'></div></div>","5","4","Pears Aplenty","Fruit/pears.png","Won","0.8,0.2","8","0.8","42","10","",""
"","","","decisionFB","63b82398bbe6a599972413ad","bdp_rwlrn","Mon Mar 13 2023 15:05:40 GMT-0400 (Eastern Daylight Time)","540142","Untrustworthy,Trustworthy","html-keyboard-response","39","248650","0.0-11.0-2.9","","null","","<div class='trialDiv'><img src='Fruit/pears.png'><br><font class='baseline'><strong>Pears Aplenty</strong><p>Choose number of points to bet.</font><div class='respPicDiv'><img src='img/responseButtonOffersNo0L5.png' class='respPic'></div></div>","null","4","Pears Aplenty","Fruit/pears.png","Won","0.8,0.2","8","0.8","37","10","",""
"","","","feedback","63b82398bbe6a599972413ad","bdp_rwlrn","Mon Mar 13 2023 15:05:40 GMT-0400 (Eastern Daylight Time)","540142","Untrustworthy,Trustworthy","html-keyboard-response","40","249654","0.0-11.0-3.9","","null","","<div class='respPicDiv'><img src='img/responseButtonOffersNo0_wht.png' class='respPic'></div><div class='trialDiv'><img src='Fruit/pears.png'><br><font class='baseline'><strong>Pears Aplenty</strong><p><strong><font class='posOutcome'>You WON</font><p>You bet: 5</strong></font> &nbsp; &nbsp; &nbsp; &nbsp; &nbsp; &nbsp;<font class='posOutcome'>you receive: <strong>10</strong></font></div>","null","4","Pears Aplenty","Fruit/pears.png","Won","0.8,0.2","8","0.8","47","10","",""
"","","","decision","63b82398bbe6a599972413ad","bdp_rwlrn","Mon Mar 13 2023 15:05:40 GMT-0400 (Eastern Daylight Time)","540142","Untrustworthy,Trustworthy","html-keyboard-response","41","251253","0.0-11.0-1.10","","1597","","<div class='trialDiv'><img src='Fruit/melon.png'><br><font class='baseline'><strong>Melon Millions</strong><p>Choose number of points to bet.</font><div class='respPicDiv'><img src='img/responseButtonOffersNo0L.png' class='respPic'></div></div>","1","4","Melon Millions","Fruit/melon.png","Won","0.65,0.2","14","0.65","52","11","",""
"","","","decisionFB","63b82398bbe6a599972413ad","bdp_rwlrn","Mon Mar 13 2023 15:05:40 GMT-0400 (Eastern Daylight Time)","540142","Untrustworthy,Trustworthy","html-keyboard-response","42","251504","0.0-11.0-2.10","","null","","<div class='trialDiv'><img src='Fruit/melon.png'><br><font class='baseline'><strong>Melon Millions</strong><p>Choose number of points to bet.</font><div class='respPicDiv'><img src='img/responseButtonOffersNo0L1.png' class='respPic'></div></div>","null","4","Melon Millions","Fruit/melon.png","Won","0.65,0.2","14","0.65","51","11","",""
"","","","feedback","63b82398bbe6a599972413ad","bdp_rwlrn","Mon Mar 13 2023 15:05:40 GMT-0400 (Eastern Daylight Time)","540142","Untrustworthy,Trustworthy","html-keyboard-response","43","252508","0.0-11.0-3.10","","null","","<div class='respPicDiv'><img src='img/responseButtonOffersNo0_wht.png' class='respPic'></div><div class='trialDiv'><img src='Fruit/melon.png'><br><font class='baseline'><strong>Melon Millions</strong><p><strong><font class='posOutcome'>You WON</font><p>You bet: 1</strong></font> &nbsp; &nbsp; &nbsp; &nbsp; &nbsp; &nbsp;<font class='posOutcome'>you receive: <strong>2</strong></font></div>","null","4","Melon Millions","Fruit/melon.png","Won","0.65,0.2","14","0.65","53","11","",""
"","","","decision","63b82398bbe6a599972413ad","bdp_rwlrn","Mon Mar 13 2023 15:05:40 GMT-0400 (Eastern Daylight Time)","540142","Untrustworthy,Trustworthy","html-keyboard-response","44","253064","0.0-11.0-1.11","","555","","<div class='trialDiv'><img src='Fruit/pineapple.png'><br><font class='baseline'><strong>Primo Pineapple</strong><p>Choose number of points to bet.</font><div class='respPicDiv'><img src='img/responseButtonOffersNo0L.png' class='respPic'></div></div>","1","4","Primo Pineapple","Fruit/pineapple.png","Lost","0.35,0.8","12","0.35","58","12","",""
"","","","decisionFB","63b82398bbe6a599972413ad","bdp_rwlrn","Mon Mar 13 2023 15:05:40 GMT-0400 (Eastern Daylight Time)","540142","Untrustworthy,Trustworthy","html-keyboard-response","45","253324","0.0-11.0-2.11","","null","","<div class='trialDiv'><img src='Fruit/pineapple.png'><br><font class='baseline'><strong>Primo Pineapple</strong><p>Choose number of points to bet.</font><div class='respPicDiv'><img src='img/responseButtonOffersNo0L1.png' class='respPic'></div></div>","null","4","Primo Pineapple","Fruit/pineapple.png","Lost","0.35,0.8","12","0.35","57","12","",""
"","","","feedback","63b82398bbe6a599972413ad","bdp_rwlrn","Mon Mar 13 2023 15:05:40 GMT-0400 (Eastern Daylight Time)","540142","Untrustworthy,Trustworthy","html-keyboard-response","46","254329","0.0-11.0-3.11","","null","","<div class='respPicDiv'><img src='img/responseButtonOffersNo0_wht.png' class='respPic'></div><div class='trialDiv'><img src='Fruit/pineapple.png'><br><font class='baseline'><strong>Primo Pineapple</strong><p><strong><font class='negOutcome'>You LOST</font><p>You bet: 1</strong></font> &nbsp; &nbsp; &nbsp; &nbsp; &nbsp; &nbsp;<font class='negOutcome'>You receive: <strong>0</strong></font></div>","null","4","Primo Pineapple","Fruit/pineapple.png","Lost","0.35,0.8","12","0.35","57","12","",""
"","","","decision","63b82398bbe6a599972413ad","bdp_rwlrn","Mon Mar 13 2023 15:05:40 GMT-0400 (Eastern Daylight Time)","540142","Untrustworthy,Trustworthy","html-keyboard-response","47","255536","0.0-11.0-1.12","","1206","","<div class='trialDiv'><img src='Fruit/pears.png'><br><font class='baseline'><strong>Pears Aplenty</strong><p>Choose number of points to bet.</font><div class='respPicDiv'><img src='img/responseButtonOffersNo0L.png' class='respPic'></div></div>","5","5","Pears Aplenty","Fruit/pears.png","Won","0.8,0.2","8","0.8","62","13","",""
"","","","decisionFB","63b82398bbe6a599972413ad","bdp_rwlrn","Mon Mar 13 2023 15:05:40 GMT-0400 (Eastern Daylight Time)","540142","Untrustworthy,Trustworthy","html-keyboard-response","48","255788","0.0-11.0-2.12","","null","","<div class='trialDiv'><img src='Fruit/pears.png'><br><font class='baseline'><strong>Pears Aplenty</strong><p>Choose number of points to bet.</font><div class='respPicDiv'><img src='img/responseButtonOffersNo0L5.png' class='respPic'></div></div>","null","5","Pears Aplenty","Fruit/pears.png","Won","0.8,0.2","8","0.8","57","13","",""
"","","","feedback","63b82398bbe6a599972413ad","bdp_rwlrn","Mon Mar 13 2023 15:05:40 GMT-0400 (Eastern Daylight Time)","540142","Untrustworthy,Trustworthy","html-keyboard-response","49","256797","0.0-11.0-3.12","","null","","<div class='respPicDiv'><img src='img/responseButtonOffersNo0_wht.png' class='respPic'></div><div class='trialDiv'><img src='Fruit/pears.png'><br><font class='baseline'><strong>Pears Aplenty</strong><p><strong><font class='posOutcome'>You WON</font><p>You bet: 5</strong></font> &nbsp; &nbsp; &nbsp; &nbsp; &nbsp; &nbsp;<font class='posOutcome'>you receive: <strong>10</strong></font></div>","null","5","Pears Aplenty","Fruit/pears.png","Won","0.8,0.2","8","0.8","67","13","",""
"","","","decision","63b82398bbe6a599972413ad","bdp_rwlrn","Mon Mar 13 2023 15:05:40 GMT-0400 (Eastern Daylight Time)","540142","Untrustworthy,Trustworthy","html-keyboard-response","50","258270","0.0-11.0-1.13","","1472","","<div class='trialDiv'><img src='Fruit/melon.png'><br><font class='baseline'><strong>Melon Millions</strong><p>Choose number of points to bet.</font><div class='respPicDiv'><img src='img/responseButtonOffersNo0L.png' class='respPic'></div></div>","2","5","Melon Millions","Fruit/melon.png","Won","0.65,0.2","14","0.65","72","14","",""
"","","","decisionFB","63b82398bbe6a599972413ad","bdp_rwlrn","Mon Mar 13 2023 15:05:40 GMT-0400 (Eastern Daylight Time)","540142","Untrustworthy,Trustworthy","html-keyboard-response","51","258529","0.0-11.0-2.13","","null","","<div class='trialDiv'><img src='Fruit/melon.png'><br><font class='baseline'><strong>Melon Millions</strong><p>Choose number of points to bet.</font><div class='respPicDiv'><img src='img/responseButtonOffersNo0L2.png' class='respPic'></div></div>","null","5","Melon Millions","Fruit/melon.png","Won","0.65,0.2","14","0.65","70","14","",""
"","","","feedback","63b82398bbe6a599972413ad","bdp_rwlrn","Mon Mar 13 2023 15:05:40 GMT-0400 (Eastern Daylight Time)","540142","Untrustworthy,Trustworthy","html-keyboard-response","52","259538","0.0-11.0-3.13","","null","","<div class='respPicDiv'><img src='img/responseButtonOffersNo0_wht.png' class='respPic'></div><div class='trialDiv'><img src='Fruit/melon.png'><br><font class='baseline'><strong>Melon Millions</strong><p><strong><font class='posOutcome'>You WON</font><p>You bet: 2</strong></font> &nbsp; &nbsp; &nbsp; &nbsp; &nbsp; &nbsp;<font class='posOutcome'>you receive: <strong>4</strong></font></div>","null","5","Melon Millions","Fruit/melon.png","Won","0.65,0.2","14","0.65","74","14","",""
"","","","decision","63b82398bbe6a599972413ad","bdp_rwlrn","Mon Mar 13 2023 15:05:40 GMT-0400 (Eastern Daylight Time)","540142","Untrustworthy,Trustworthy","html-keyboard-response","53","260299","0.0-11.0-1.14","","758","","<div class='trialDiv'><img src='Fruit/pineapple.png'><br><font class='baseline'><strong>Primo Pineapple</strong><p>Choose number of points to bet.</font><div class='respPicDiv'><img src='img/responseButtonOffersNo0L.png' class='respPic'></div></div>","1","5","Primo Pineapple","Fruit/pineapple.png","Lost","0.35,0.8","12","0.35","79","15","",""
"","","","decisionFB","63b82398bbe6a599972413ad","bdp_rwlrn","Mon Mar 13 2023 15:05:40 GMT-0400 (Eastern Daylight Time)","540142","Untrustworthy,Trustworthy","html-keyboard-response","54","260561","0.0-11.0-2.14","","null","","<div class='trialDiv'><img src='Fruit/pineapple.png'><br><font class='baseline'><strong>Primo Pineapple</strong><p>Choose number of points to bet.</font><div class='respPicDiv'><img src='img/responseButtonOffersNo0L1.png' class='respPic'></div></div>","null","5","Primo Pineapple","Fruit/pineapple.png","Lost","0.35,0.8","12","0.35","78","15","",""
"","","","feedback","63b82398bbe6a599972413ad","bdp_rwlrn","Mon Mar 13 2023 15:05:40 GMT-0400 (Eastern Daylight Time)","540142","Untrustworthy,Trustworthy","html-keyboard-response","55","261567","0.0-11.0-3.14","","null","","<div class='respPicDiv'><img src='img/responseButtonOffersNo0_wht.png' class='respPic'></div><div class='trialDiv'><img src='Fruit/pineapple.png'><br><font class='baseline'><strong>Primo Pineapple</strong><p><strong><font class='negOutcome'>You LOST</font><p>You bet: 1</strong></font> &nbsp; &nbsp; &nbsp; &nbsp; &nbsp; &nbsp;<font class='negOutcome'>You receive: <strong>0</strong></font></div>","null","5","Primo Pineapple","Fruit/pineapple.png","Lost","0.35,0.8","12","0.35","78","15","",""
"","","","decision","63b82398bbe6a599972413ad","bdp_rwlrn","Mon Mar 13 2023 15:05:40 GMT-0400 (Eastern Daylight Time)","540142","Untrustworthy,Trustworthy","html-keyboard-response","56","263122","0.0-11.0-1.15","","1554","","<div class='trialDiv'><img src='Fruit/melon.png'><br><font class='baseline'><strong>Melon Millions</strong><p>Choose number of points to bet.</font><div class='respPicDiv'><img src='img/responseButtonOffersNo0L.png' class='respPic'></div></div>","2","6","Melon Millions","Fruit/melon.png","Won","0.65,0.2","14","0.65","83","16","",""
"","","","decisionFB","63b82398bbe6a599972413ad","bdp_rwlrn","Mon Mar 13 2023 15:05:40 GMT-0400 (Eastern Daylight Time)","540142","Untrustworthy,Trustworthy","html-keyboard-response","57","263387","0.0-11.0-2.15","","null","","<div class='trialDiv'><img src='Fruit/melon.png'><br><font class='baseline'><strong>Melon Millions</strong><p>Choose number of points to bet.</font><div class='respPicDiv'><img src='img/responseButtonOffersNo0L2.png' class='respPic'></div></div>","null","6","Melon Millions","Fruit/melon.png","Won","0.65,0.2","14","0.65","81","16","",""
"","","","feedback","63b82398bbe6a599972413ad","bdp_rwlrn","Mon Mar 13 2023 15:05:40 GMT-0400 (Eastern Daylight Time)","540142","Untrustworthy,Trustworthy","html-keyboard-response","58","264391","0.0-11.0-3.15","","null","","<div class='respPicDiv'><img src='img/responseButtonOffersNo0_wht.png' class='respPic'></div><div class='trialDiv'><img src='Fruit/melon.png'><br><font class='baseline'><strong>Melon Millions</strong><p><strong><font class='posOutcome'>You WON</font><p>You bet: 2</strong></font> &nbsp; &nbsp; &nbsp; &nbsp; &nbsp; &nbsp;<font class='posOutcome'>you receive: <strong>4</strong></font></div>","null","6","Melon Millions","Fruit/melon.png","Won","0.65,0.2","14","0.65","85","16","",""
"","","","decision","63b82398bbe6a599972413ad","bdp_rwlrn","Mon Mar 13 2023 15:05:40 GMT-0400 (Eastern Daylight Time)","540142","Untrustworthy,Trustworthy","html-keyboard-response","59","264942","0.0-11.0-1.16","","550","","<div class='trialDiv'><img src='Fruit/pears.png'><br><font class='baseline'><strong>Pears Aplenty</strong><p>Choose number of points to bet.</font><div class='respPicDiv'><img src='img/responseButtonOffersNo0L.png' class='respPic'></div></div>","5","6","Pears Aplenty","Fruit/pears.png","Lost","0.8,0.2","8","0.8","90","17","",""
"","","","decisionFB","63b82398bbe6a599972413ad","bdp_rwlrn","Mon Mar 13 2023 15:05:40 GMT-0400 (Eastern Daylight Time)","540142","Untrustworthy,Trustworthy","html-keyboard-response","60","265206","0.0-11.0-2.16","","null","","<div class='trialDiv'><img src='Fruit/pears.png'><br><font class='baseline'><strong>Pears Aplenty</strong><p>Choose number of points to bet.</font><div class='respPicDiv'><img src='img/responseButtonOffersNo0L5.png' class='respPic'></div></div>","null","6","Pears Aplenty","Fruit/pears.png","Lost","0.8,0.2","8","0.8","85","17","",""
"","","","feedback","63b82398bbe6a599972413ad","bdp_rwlrn","Mon Mar 13 2023 15:05:40 GMT-0400 (Eastern Daylight Time)","540142","Untrustworthy,Trustworthy","html-keyboard-response","61","266210","0.0-11.0-3.16","","null","","<div class='respPicDiv'><img src='img/responseButtonOffersNo0_wht.png' class='respPic'></div><div class='trialDiv'><img src='Fruit/pears.png'><br><font class='baseline'><strong>Pears Aplenty</strong><p><strong><font class='negOutcome'>You LOST</font><p>You bet: 5</strong></font> &nbsp; &nbsp; &nbsp; &nbsp; &nbsp; &nbsp;<font class='negOutcome'>You receive: <strong>0</strong></font></div>","null","6","Pears Aplenty","Fruit/pears.png","Lost","0.8,0.2","8","0.8","85","17","",""
"","","","decision","63b82398bbe6a599972413ad","bdp_rwlrn","Mon Mar 13 2023 15:05:40 GMT-0400 (Eastern Daylight Time)","540142","Untrustworthy,Trustworthy","html-keyboard-response","62","267665","0.0-11.0-1.17","","1454","","<div class='trialDiv'><img src='Fruit/pineapple.png'><br><font class='baseline'><strong>Primo Pineapple</strong><p>Choose number of points to bet.</font><div class='respPicDiv'><img src='img/responseButtonOffersNo0L.png' class='respPic'></div></div>","1","6","Primo Pineapple","Fruit/pineapple.png","Won","0.35,0.8","12","0.35","90","18","",""
"","","","decisionFB","63b82398bbe6a599972413ad","bdp_rwlrn","Mon Mar 13 2023 15:05:40 GMT-0400 (Eastern Daylight Time)","540142","Untrustworthy,Trustworthy","html-keyboard-response","63","267919","0.0-11.0-2.17","","null","","<div class='trialDiv'><img src='Fruit/pineapple.png'><br><font class='baseline'><strong>Primo Pineapple</strong><p>Choose number of points to bet.</font><div class='respPicDiv'><img src='img/responseButtonOffersNo0L1.png' class='respPic'></div></div>","null","6","Primo Pineapple","Fruit/pineapple.png","Won","0.35,0.8","12","0.35","89","18","",""
"","","","feedback","63b82398bbe6a599972413ad","bdp_rwlrn","Mon Mar 13 2023 15:05:40 GMT-0400 (Eastern Daylight Time)","540142","Untrustworthy,Trustworthy","html-keyboard-response","64","268923","0.0-11.0-3.17","","null","","<div class='respPicDiv'><img src='img/responseButtonOffersNo0_wht.png' class='respPic'></div><div class='trialDiv'><img src='Fruit/pineapple.png'><br><font class='baseline'><strong>Primo Pineapple</strong><p><strong><font class='posOutcome'>You WON</font><p>You bet: 1</strong></font> &nbsp; &nbsp; &nbsp; &nbsp; &nbsp; &nbsp;<font class='posOutcome'>you receive: <strong>2</strong></font></div>","null","6","Primo Pineapple","Fruit/pineapple.png","Won","0.35,0.8","12","0.35","91","18","",""
"","","","decision","63b82398bbe6a599972413ad","bdp_rwlrn","Mon Mar 13 2023 15:05:40 GMT-0400 (Eastern Daylight Time)","540142","Untrustworthy,Trustworthy","html-keyboard-response","65","270195","0.0-11.0-1.18","","1271","","<div class='trialDiv'><img src='Fruit/pears.png'><br><font class='baseline'><strong>Pears Aplenty</strong><p>Choose number of points to bet.</font><div class='respPicDiv'><img src='img/responseButtonOffersNo0L.png' class='respPic'></div></div>","5","7","Pears Aplenty","Fruit/pears.png","Won","0.8,0.2","8","0.8","96","19","",""
"","","","decisionFB","63b82398bbe6a599972413ad","bdp_rwlrn","Mon Mar 13 2023 15:05:40 GMT-0400 (Eastern Daylight Time)","540142","Untrustworthy,Trustworthy","html-keyboard-response","66","270460","0.0-11.0-2.18","","null","","<div class='trialDiv'><img src='Fruit/pears.png'><br><font class='baseline'><strong>Pears Aplenty</strong><p>Choose number of points to bet.</font><div class='respPicDiv'><img src='img/responseButtonOffersNo0L5.png' class='respPic'></div></div>","null","7","Pears Aplenty","Fruit/pears.png","Won","0.8,0.2","8","0.8","91","19","",""
"","","","feedback","63b82398bbe6a599972413ad","bdp_rwlrn","Mon Mar 13 2023 15:05:40 GMT-0400 (Eastern Daylight Time)","540142","Untrustworthy,Trustworthy","html-keyboard-response","67","271464","0.0-11.0-3.18","","null","","<div class='respPicDiv'><img src='img/responseButtonOffersNo0_wht.png' class='respPic'></div><div class='trialDiv'><img src='Fruit/pears.png'><br><font class='baseline'><strong>Pears Aplenty</strong><p><strong><font class='posOutcome'>You WON</font><p>You bet: 5</strong></font> &nbsp; &nbsp; &nbsp; &nbsp; &nbsp; &nbsp;<font class='posOutcome'>you receive: <strong>10</strong></font></div>","null","7","Pears Aplenty","Fruit/pears.png","Won","0.8,0.2","8","0.8","101","19","",""
"","","","decision","63b82398bbe6a599972413ad","bdp_rwlrn","Mon Mar 13 2023 15:05:40 GMT-0400 (Eastern Daylight Time)","540142","Untrustworthy,Trustworthy","html-keyboard-response","68","272468","0.0-11.0-1.19","","1003","","<div class='trialDiv'><img src='Fruit/pineapple.png'><br><font class='baseline'><strong>Primo Pineapple</strong><p>Choose number of points to bet.</font><div class='respPicDiv'><img src='img/responseButtonOffersNo0L.png' class='respPic'></div></div>","1","7","Primo Pineapple","Fruit/pineapple.png","Lost","0.35,0.8","12","0.35","106","20","",""
"","","","decisionFB","63b82398bbe6a599972413ad","bdp_rwlrn","Mon Mar 13 2023 15:05:40 GMT-0400 (Eastern Daylight Time)","540142","Untrustworthy,Trustworthy","html-keyboard-response","69","272734","0.0-11.0-2.19","","null","","<div class='trialDiv'><img src='Fruit/pineapple.png'><br><font class='baseline'><strong>Primo Pineapple</strong><p>Choose number of points to bet.</font><div class='respPicDiv'><img src='img/responseButtonOffersNo0L1.png' class='respPic'></div></div>","null","7","Primo Pineapple","Fruit/pineapple.png","Lost","0.35,0.8","12","0.35","105","20","",""
"","","","feedback","63b82398bbe6a599972413ad","bdp_rwlrn","Mon Mar 13 2023 15:05:40 GMT-0400 (Eastern Daylight Time)","540142","Untrustworthy,Trustworthy","html-keyboard-response","70","273737","0.0-11.0-3.19","","null","","<div class='respPicDiv'><img src='img/responseButtonOffersNo0_wht.png' class='respPic'></div><div class='trialDiv'><img src='Fruit/pineapple.png'><br><font class='baseline'><strong>Primo Pineapple</strong><p><strong><font class='negOutcome'>You LOST</font><p>You bet: 1</strong></font> &nbsp; &nbsp; &nbsp; &nbsp; &nbsp; &nbsp;<font class='negOutcome'>You receive: <strong>0</strong></font></div>","null","7","Primo Pineapple","Fruit/pineapple.png","Lost","0.35,0.8","12","0.35","105","20","",""
"","","","decision","63b82398bbe6a599972413ad","bdp_rwlrn","Mon Mar 13 2023 15:05:40 GMT-0400 (Eastern Daylight Time)","540142","Untrustworthy,Trustworthy","html-keyboard-response","71","274436","0.0-11.0-1.20","","699","","<div class='trialDiv'><img src='Fruit/melon.png'><br><font class='baseline'><strong>Melon Millions</strong><p>Choose number of points to bet.</font><div class='respPicDiv'><img src='img/responseButtonOffersNo0L.png' class='respPic'></div></div>","2","7","Melon Millions","Fruit/melon.png","Lost","0.65,0.2","14","0.65","110","21","",""
"","","","decisionFB","63b82398bbe6a599972413ad","bdp_rwlrn","Mon Mar 13 2023 15:05:40 GMT-0400 (Eastern Daylight Time)","540142","Untrustworthy,Trustworthy","html-keyboard-response","72","274694","0.0-11.0-2.20","","null","","<div class='trialDiv'><img src='Fruit/melon.png'><br><font class='baseline'><strong>Melon Millions</strong><p>Choose number of points to bet.</font><div class='respPicDiv'><img src='img/responseButtonOffersNo0L2.png' class='respPic'></div></div>","null","7","Melon Millions","Fruit/melon.png","Lost","0.65,0.2","14","0.65","108","21","",""
"","","","feedback","63b82398bbe6a599972413ad","bdp_rwlrn","Mon Mar 13 2023 15:05:40 GMT-0400 (Eastern Daylight Time)","540142","Untrustworthy,Trustworthy","html-keyboard-response","73","275704","0.0-11.0-3.20","","null","","<div class='respPicDiv'><img src='img/responseButtonOffersNo0_wht.png' class='respPic'></div><div class='trialDiv'><img src='Fruit/melon.png'><br><font class='baseline'><strong>Melon Millions</strong><p><strong><font class='negOutcome'>You LOST</font><p>You bet: 2</strong></font> &nbsp; &nbsp; &nbsp; &nbsp; &nbsp; &nbsp;<font class='negOutcome'>You receive: <strong>0</strong></font></div>","null","7","Melon Millions","Fruit/melon.png","Lost","0.65,0.2","14","0.65","108","21","",""
"","","","decision","63b82398bbe6a599972413ad","bdp_rwlrn","Mon Mar 13 2023 15:05:40 GMT-0400 (Eastern Daylight Time)","540142","Untrustworthy,Trustworthy","html-keyboard-response","74","276563","0.0-11.0-1.21","","858","","<div class='trialDiv'><img src='Fruit/pineapple.png'><br><font class='baseline'><strong>Primo Pineapple</strong><p>Choose number of points to bet.</font><div class='respPicDiv'><img src='img/responseButtonOffersNo0L.png' class='respPic'></div></div>","1","8","Primo Pineapple","Fruit/pineapple.png","Won","0.35,0.8","12","0.35","113","22","",""
"","","","decisionFB","63b82398bbe6a599972413ad","bdp_rwlrn","Mon Mar 13 2023 15:05:40 GMT-0400 (Eastern Daylight Time)","540142","Untrustworthy,Trustworthy","html-keyboard-response","75","276822","0.0-11.0-2.21","","null","","<div class='trialDiv'><img src='Fruit/pineapple.png'><br><font class='baseline'><strong>Primo Pineapple</strong><p>Choose number of points to bet.</font><div class='respPicDiv'><img src='img/responseButtonOffersNo0L1.png' class='respPic'></div></div>","null","8","Primo Pineapple","Fruit/pineapple.png","Won","0.35,0.8","12","0.35","112","22","",""
"","","","feedback","63b82398bbe6a599972413ad","bdp_rwlrn","Mon Mar 13 2023 15:05:40 GMT-0400 (Eastern Daylight Time)","540142","Untrustworthy,Trustworthy","html-keyboard-response","76","277833","0.0-11.0-3.21","","null","","<div class='respPicDiv'><img src='img/responseButtonOffersNo0_wht.png' class='respPic'></div><div class='trialDiv'><img src='Fruit/pineapple.png'><br><font class='baseline'><strong>Primo Pineapple</strong><p><strong><font class='posOutcome'>You WON</font><p>You bet: 1</strong></font> &nbsp; &nbsp; &nbsp; &nbsp; &nbsp; &nbsp;<font class='posOutcome'>you receive: <strong>2</strong></font></div>","null","8","Primo Pineapple","Fruit/pineapple.png","Won","0.35,0.8","12","0.35","114","22","",""
"","","","decision","63b82398bbe6a599972413ad","bdp_rwlrn","Mon Mar 13 2023 15:05:40 GMT-0400 (Eastern Daylight Time)","540142","Untrustworthy,Trustworthy","html-keyboard-response","77","279428","0.0-11.0-1.22","","1595","","<div class='trialDiv'><img src='Fruit/melon.png'><br><font class='baseline'><strong>Melon Millions</strong><p>Choose number of points to bet.</font><div class='respPicDiv'><img src='img/responseButtonOffersNo0L.png' class='respPic'></div></div>","1","8","Melon Millions","Fruit/melon.png","Won","0.65,0.2","14","0.65","119","23","",""
"","","","decisionFB","63b82398bbe6a599972413ad","bdp_rwlrn","Mon Mar 13 2023 15:05:40 GMT-0400 (Eastern Daylight Time)","540142","Untrustworthy,Trustworthy","html-keyboard-response","78","279679","0.0-11.0-2.22","","null","","<div class='trialDiv'><img src='Fruit/melon.png'><br><font class='baseline'><strong>Melon Millions</strong><p>Choose number of points to bet.</font><div class='respPicDiv'><img src='img/responseButtonOffersNo0L1.png' class='respPic'></div></div>","null","8","Melon Millions","Fruit/melon.png","Won","0.65,0.2","14","0.65","118","23","",""
"","","","feedback","63b82398bbe6a599972413ad","bdp_rwlrn","Mon Mar 13 2023 15:05:40 GMT-0400 (Eastern Daylight Time)","540142","Untrustworthy,Trustworthy","html-keyboard-response","79","280690","0.0-11.0-3.22","","null","","<div class='respPicDiv'><img src='img/responseButtonOffersNo0_wht.png' class='respPic'></div><div class='trialDiv'><img src='Fruit/melon.png'><br><font class='baseline'><strong>Melon Millions</strong><p><strong><font class='posOutcome'>You WON</font><p>You bet: 1</strong></font> &nbsp; &nbsp; &nbsp; &nbsp; &nbsp; &nbsp;<font class='posOutcome'>you receive: <strong>2</strong></font></div>","null","8","Melon Millions","Fruit/melon.png","Won","0.65,0.2","14","0.65","120","23","",""
"","","","decision","63b82398bbe6a599972413ad","bdp_rwlrn","Mon Mar 13 2023 15:05:40 GMT-0400 (Eastern Daylight Time)","540142","Untrustworthy,Trustworthy","html-keyboard-response","80","281357","0.0-11.0-1.23","","667","","<div class='trialDiv'><img src='Fruit/pears.png'><br><font class='baseline'><strong>Pears Aplenty</strong><p>Choose number of points to bet.</font><div class='respPicDiv'><img src='img/responseButtonOffersNo0L.png' class='respPic'></div></div>","5","8","Pears Aplenty","Fruit/pears.png","Won","0.8,0.2","8","0.8","125","24","",""
"","","","decisionFB","63b82398bbe6a599972413ad","bdp_rwlrn","Mon Mar 13 2023 15:05:40 GMT-0400 (Eastern Daylight Time)","540142","Untrustworthy,Trustworthy","html-keyboard-response","81","281619","0.0-11.0-2.23","","null","","<div class='trialDiv'><img src='Fruit/pears.png'><br><font class='baseline'><strong>Pears Aplenty</strong><p>Choose number of points to bet.</font><div class='respPicDiv'><img src='img/responseButtonOffersNo0L5.png' class='respPic'></div></div>","null","8","Pears Aplenty","Fruit/pears.png","Won","0.8,0.2","8","0.8","120","24","",""
"","","","feedback","63b82398bbe6a599972413ad","bdp_rwlrn","Mon Mar 13 2023 15:05:40 GMT-0400 (Eastern Daylight Time)","540142","Untrustworthy,Trustworthy","html-keyboard-response","82","282632","0.0-11.0-3.23","","null","","<div class='respPicDiv'><img src='img/responseButtonOffersNo0_wht.png' class='respPic'></div><div class='trialDiv'><img src='Fruit/pears.png'><br><font class='baseline'><strong>Pears Aplenty</strong><p><strong><font class='posOutcome'>You WON</font><p>You bet: 5</strong></font> &nbsp; &nbsp; &nbsp; &nbsp; &nbsp; &nbsp;<font class='posOutcome'>you receive: <strong>10</strong></font></div>","null","8","Pears Aplenty","Fruit/pears.png","Won","0.8,0.2","8","0.8","130","24","",""
"","","","decision","63b82398bbe6a599972413ad","bdp_rwlrn","Mon Mar 13 2023 15:05:40 GMT-0400 (Eastern Daylight Time)","540142","Untrustworthy,Trustworthy","html-keyboard-response","83","283472","0.0-11.0-1.24","","840","","<div class='trialDiv'><img src='Fruit/melon.png'><br><font class='baseline'><strong>Melon Millions</strong><p>Choose number of points to bet.</font><div class='respPicDiv'><img src='img/responseButtonOffersNo0L.png' class='respPic'></div></div>","1","9","Melon Millions","Fruit/melon.png","Won","0.65,0.2","14","0.65","135","25","",""
"","","","decisionFB","63b82398bbe6a599972413ad","bdp_rwlrn","Mon Mar 13 2023 15:05:40 GMT-0400 (Eastern Daylight Time)","540142","Untrustworthy,Trustworthy","html-keyboard-response","84","283737","0.0-11.0-2.24","","null","","<div class='trialDiv'><img src='Fruit/melon.png'><br><font class='baseline'><strong>Melon Millions</strong><p>Choose number of points to bet.</font><div class='respPicDiv'><img src='img/responseButtonOffersNo0L1.png' class='respPic'></div></div>","null","9","Melon Millions","Fruit/melon.png","Won","0.65,0.2","14","0.65","134","25","",""
"","","","feedback","63b82398bbe6a599972413ad","bdp_rwlrn","Mon Mar 13 2023 15:05:40 GMT-0400 (Eastern Daylight Time)","540142","Untrustworthy,Trustworthy","html-keyboard-response","85","284749","0.0-11.0-3.24","","null","","<div class='respPicDiv'><img src='img/responseButtonOffersNo0_wht.png' class='respPic'></div><div class='trialDiv'><img src='Fruit/melon.png'><br><font class='baseline'><strong>Melon Millions</strong><p><strong><font class='posOutcome'>You WON</font><p>You bet: 1</strong></font> &nbsp; &nbsp; &nbsp; &nbsp; &nbsp; &nbsp;<font class='posOutcome'>you receive: <strong>2</strong></font></div>","null","9","Melon Millions","Fruit/melon.png","Won","0.65,0.2","14","0.65","136","25","",""
"","","","decision","63b82398bbe6a599972413ad","bdp_rwlrn","Mon Mar 13 2023 15:05:40 GMT-0400 (Eastern Daylight Time)","540142","Untrustworthy,Trustworthy","html-keyboard-response","86","286051","0.0-11.0-1.25","","1301","","<div class='trialDiv'><img src='Fruit/pears.png'><br><font class='baseline'><strong>Pears Aplenty</strong><p>Choose number of points to bet.</font><div class='respPicDiv'><img src='img/responseButtonOffersNo0L.png' class='respPic'></div></div>","1","9","Pears Aplenty","Fruit/pears.png","Lost","0.8,0.2","8","0.8","141","26","",""
"","","","decisionFB","63b82398bbe6a599972413ad","bdp_rwlrn","Mon Mar 13 2023 15:05:40 GMT-0400 (Eastern Daylight Time)","540142","Untrustworthy,Trustworthy","html-keyboard-response","87","286316","0.0-11.0-2.25","","null","","<div class='trialDiv'><img src='Fruit/pears.png'><br><font class='baseline'><strong>Pears Aplenty</strong><p>Choose number of points to bet.</font><div class='respPicDiv'><img src='img/responseButtonOffersNo0L1.png' class='respPic'></div></div>","null","9","Pears Aplenty","Fruit/pears.png","Lost","0.8,0.2","8","0.8","140","26","",""
"","","","feedback","63b82398bbe6a599972413ad","bdp_rwlrn","Mon Mar 13 2023 15:05:40 GMT-0400 (Eastern Daylight Time)","540142","Untrustworthy,Trustworthy","html-keyboard-response","88","287326","0.0-11.0-3.25","","null","","<div class='respPicDiv'><img src='img/responseButtonOffersNo0_wht.png' class='respPic'></div><div class='trialDiv'><img src='Fruit/pears.png'><br><font class='baseline'><strong>Pears Aplenty</strong><p><strong><font class='negOutcome'>You LOST</font><p>You bet: 1</strong></font> &nbsp; &nbsp; &nbsp; &nbsp; &nbsp; &nbsp;<font class='negOutcome'>You receive: <strong>0</strong></font></div>","null","9","Pears Aplenty","Fruit/pears.png","Lost","0.8,0.2","8","0.8","140","26","",""
"","","","decision","63b82398bbe6a599972413ad","bdp_rwlrn","Mon Mar 13 2023 15:05:40 GMT-0400 (Eastern Daylight Time)","540142","Untrustworthy,Trustworthy","html-keyboard-response","89","288198","0.0-11.0-1.26","","871","","<div class='trialDiv'><img src='Fruit/pineapple.png'><br><font class='baseline'><strong>Primo Pineapple</strong><p>Choose number of points to bet.</font><div class='respPicDiv'><img src='img/responseButtonOffersNo0L.png' class='respPic'></div></div>","1","9","Primo Pineapple","Fruit/pineapple.png","Won","0.35,0.8","12","0.35","145","27","",""
"","","","decisionFB","63b82398bbe6a599972413ad","bdp_rwlrn","Mon Mar 13 2023 15:05:40 GMT-0400 (Eastern Daylight Time)","540142","Untrustworthy,Trustworthy","html-keyboard-response","90","288460","0.0-11.0-2.26","","null","","<div class='trialDiv'><img src='Fruit/pineapple.png'><br><font class='baseline'><strong>Primo Pineapple</strong><p>Choose number of points to bet.</font><div class='respPicDiv'><img src='img/responseButtonOffersNo0L1.png' class='respPic'></div></div>","null","9","Primo Pineapple","Fruit/pineapple.png","Won","0.35,0.8","12","0.35","144","27","",""
"","","","feedback","63b82398bbe6a599972413ad","bdp_rwlrn","Mon Mar 13 2023 15:05:40 GMT-0400 (Eastern Daylight Time)","540142","Untrustworthy,Trustworthy","html-keyboard-response","91","289472","0.0-11.0-3.26","","null","","<div class='respPicDiv'><img src='img/responseButtonOffersNo0_wht.png' class='respPic'></div><div class='trialDiv'><img src='Fruit/pineapple.png'><br><font class='baseline'><strong>Primo Pineapple</strong><p><strong><font class='posOutcome'>You WON</font><p>You bet: 1</strong></font> &nbsp; &nbsp; &nbsp; &nbsp; &nbsp; &nbsp;<font class='posOutcome'>you receive: <strong>2</strong></font></div>","null","9","Primo Pineapple","Fruit/pineapple.png","Won","0.35,0.8","12","0.35","146","27","",""
"","","","decision","63b82398bbe6a599972413ad","bdp_rwlrn","Mon Mar 13 2023 15:05:40 GMT-0400 (Eastern Daylight Time)","540142","Untrustworthy,Trustworthy","html-keyboard-response","92","290328","0.0-11.0-1.27","","855","","<div class='trialDiv'><img src='Fruit/pears.png'><br><font class='baseline'><strong>Pears Aplenty</strong><p>Choose number of points to bet.</font><div class='respPicDiv'><img src='img/responseButtonOffersNo0L.png' class='respPic'></div></div>","5","10","Pears Aplenty","Fruit/pears.png","Lost","0.8,0.2","8","0.8","151","28","",""
"","","","decisionFB","63b82398bbe6a599972413ad","bdp_rwlrn","Mon Mar 13 2023 15:05:40 GMT-0400 (Eastern Daylight Time)","540142","Untrustworthy,Trustworthy","html-keyboard-response","93","290583","0.0-11.0-2.27","","null","","<div class='trialDiv'><img src='Fruit/pears.png'><br><font class='baseline'><strong>Pears Aplenty</strong><p>Choose number of points to bet.</font><div class='respPicDiv'><img src='img/responseButtonOffersNo0L5.png' class='respPic'></div></div>","null","10","Pears Aplenty","Fruit/pears.png","Lost","0.8,0.2","8","0.8","146","28","",""
"","","","feedback","63b82398bbe6a599972413ad","bdp_rwlrn","Mon Mar 13 2023 15:05:40 GMT-0400 (Eastern Daylight Time)","540142","Untrustworthy,Trustworthy","html-keyboard-response","94","291593","0.0-11.0-3.27","","null","","<div class='respPicDiv'><img src='img/responseButtonOffersNo0_wht.png' class='respPic'></div><div class='trialDiv'><img src='Fruit/pears.png'><br><font class='baseline'><strong>Pears Aplenty</strong><p><strong><font class='negOutcome'>You LOST</font><p>You bet: 5</strong></font> &nbsp; &nbsp; &nbsp; &nbsp; &nbsp; &nbsp;<font class='negOutcome'>You receive: <strong>0</strong></font></div>","null","10","Pears Aplenty","Fruit/pears.png","Lost","0.8,0.2","8","0.8","146","28","",""
"","","","decision","63b82398bbe6a599972413ad","bdp_rwlrn","Mon Mar 13 2023 15:05:40 GMT-0400 (Eastern Daylight Time)","540142","Untrustworthy,Trustworthy","html-keyboard-response","95","292105","0.0-11.0-1.28","","510","","<div class='trialDiv'><img src='Fruit/pineapple.png'><br><font class='baseline'><strong>Primo Pineapple</strong><p>Choose number of points to bet.</font><div class='respPicDiv'><img src='img/responseButtonOffersNo0L.png' class='respPic'></div></div>","1","10","Primo Pineapple","Fruit/pineapple.png","Won","0.35,0.8","12","0.35","151","29","",""
"","","","decisionFB","63b82398bbe6a599972413ad","bdp_rwlrn","Mon Mar 13 2023 15:05:40 GMT-0400 (Eastern Daylight Time)","540142","Untrustworthy,Trustworthy","html-keyboard-response","96","292366","0.0-11.0-2.28","","null","","<div class='trialDiv'><img src='Fruit/pineapple.png'><br><font class='baseline'><strong>Primo Pineapple</strong><p>Choose number of points to bet.</font><div class='respPicDiv'><img src='img/responseButtonOffersNo0L1.png' class='respPic'></div></div>","null","10","Primo Pineapple","Fruit/pineapple.png","Won","0.35,0.8","12","0.35","150","29","",""
"","","","feedback","63b82398bbe6a599972413ad","bdp_rwlrn","Mon Mar 13 2023 15:05:40 GMT-0400 (Eastern Daylight Time)","540142","Untrustworthy,Trustworthy","html-keyboard-response","97","293375","0.0-11.0-3.28","","null","","<div class='respPicDiv'><img src='img/responseButtonOffersNo0_wht.png' class='respPic'></div><div class='trialDiv'><img src='Fruit/pineapple.png'><br><font class='baseline'><strong>Primo Pineapple</strong><p><strong><font class='posOutcome'>You WON</font><p>You bet: 1</strong></font> &nbsp; &nbsp; &nbsp; &nbsp; &nbsp; &nbsp;<font class='posOutcome'>you receive: <strong>2</strong></font></div>","null","10","Primo Pineapple","Fruit/pineapple.png","Won","0.35,0.8","12","0.35","152","29","",""
"","","","decision","63b82398bbe6a599972413ad","bdp_rwlrn","Mon Mar 13 2023 15:05:40 GMT-0400 (Eastern Daylight Time)","540142","Untrustworthy,Trustworthy","html-keyboard-response","98","293997","0.0-11.0-1.29","","621","","<div class='trialDiv'><img src='Fruit/melon.png'><br><font class='baseline'><strong>Melon Millions</strong><p>Choose number of points to bet.</font><div class='respPicDiv'><img src='img/responseButtonOffersNo0L.png' class='respPic'></div></div>","1","10","Melon Millions","Fruit/melon.png","Lost","0.65,0.2","14","0.65","157","30","",""
"","","","decisionFB","63b82398bbe6a599972413ad","bdp_rwlrn","Mon Mar 13 2023 15:05:40 GMT-0400 (Eastern Daylight Time)","540142","Untrustworthy,Trustworthy","html-keyboard-response","99","294252","0.0-11.0-2.29","","null","","<div class='trialDiv'><img src='Fruit/melon.png'><br><font class='baseline'><strong>Melon Millions</strong><p>Choose number of points to bet.</font><div class='respPicDiv'><img src='img/responseButtonOffersNo0L1.png' class='respPic'></div></div>","null","10","Melon Millions","Fruit/melon.png","Lost","0.65,0.2","14","0.65","156","30","",""
"","","","feedback","63b82398bbe6a599972413ad","bdp_rwlrn","Mon Mar 13 2023 15:05:40 GMT-0400 (Eastern Daylight Time)","540142","Untrustworthy,Trustworthy","html-keyboard-response","100","295263","0.0-11.0-3.29","","null","","<div class='respPicDiv'><img src='img/responseButtonOffersNo0_wht.png' class='respPic'></div><div class='trialDiv'><img src='Fruit/melon.png'><br><font class='baseline'><strong>Melon Millions</strong><p><strong><font class='negOutcome'>You LOST</font><p>You bet: 1</strong></font> &nbsp; &nbsp; &nbsp; &nbsp; &nbsp; &nbsp;<font class='negOutcome'>You receive: <strong>0</strong></font></div>","null","10","Melon Millions","Fruit/melon.png","Lost","0.65,0.2","14","0.65","156","30","",""
"","","","decision","63b82398bbe6a599972413ad","bdp_rwlrn","Mon Mar 13 2023 15:05:40 GMT-0400 (Eastern Daylight Time)","540142","Untrustworthy,Trustworthy","html-keyboard-response","101","296169","0.0-11.0-1.30","","905","","<div class='trialDiv'><img src='Fruit/pears.png'><br><font class='baseline'><strong>Pears Aplenty</strong><p>Choose number of points to bet.</font><div class='respPicDiv'><img src='img/responseButtonOffersNo0L.png' class='respPic'></div></div>","5","11","Pears Aplenty","Fruit/pears.png","Lost","0.8,0.2","8","0.8","161","31","",""
"","","","decisionFB","63b82398bbe6a599972413ad","bdp_rwlrn","Mon Mar 13 2023 15:05:40 GMT-0400 (Eastern Daylight Time)","540142","Untrustworthy,Trustworthy","html-keyboard-response","102","296424","0.0-11.0-2.30","","null","","<div class='trialDiv'><img src='Fruit/pears.png'><br><font class='baseline'><strong>Pears Aplenty</strong><p>Choose number of points to bet.</font><div class='respPicDiv'><img src='img/responseButtonOffersNo0L5.png' class='respPic'></div></div>","null","11","Pears Aplenty","Fruit/pears.png","Lost","0.8,0.2","8","0.8","156","31","",""
"","","","feedback","63b82398bbe6a599972413ad","bdp_rwlrn","Mon Mar 13 2023 15:05:40 GMT-0400 (Eastern Daylight Time)","540142","Untrustworthy,Trustworthy","html-keyboard-response","103","297431","0.0-11.0-3.30","","null","","<div class='respPicDiv'><img src='img/responseButtonOffersNo0_wht.png' class='respPic'></div><div class='trialDiv'><img src='Fruit/pears.png'><br><font class='baseline'><strong>Pears Aplenty</strong><p><strong><font class='negOutcome'>You LOST</font><p>You bet: 5</strong></font> &nbsp; &nbsp; &nbsp; &nbsp; &nbsp; &nbsp;<font class='negOutcome'>You receive: <strong>0</strong></font></div>","null","11","Pears Aplenty","Fruit/pears.png","Lost","0.8,0.2","8","0.8","156","31","",""
"","","","decision","63b82398bbe6a599972413ad","bdp_rwlrn","Mon Mar 13 2023 15:05:40 GMT-0400 (Eastern Daylight Time)","540142","Untrustworthy,Trustworthy","html-keyboard-response","104","298276","0.0-11.0-1.31","","844","","<div class='trialDiv'><img src='Fruit/melon.png'><br><font class='baseline'><strong>Melon Millions</strong><p>Choose number of points to bet.</font><div class='respPicDiv'><img src='img/responseButtonOffersNo0L.png' class='respPic'></div></div>","1","11","Melon Millions","Fruit/melon.png","Lost","0.65,0.2","14","0.65","161","32","",""
"","","","decisionFB","63b82398bbe6a599972413ad","bdp_rwlrn","Mon Mar 13 2023 15:05:40 GMT-0400 (Eastern Daylight Time)","540142","Untrustworthy,Trustworthy","html-keyboard-response","105","298531","0.0-11.0-2.31","","null","","<div class='trialDiv'><img src='Fruit/melon.png'><br><font class='baseline'><strong>Melon Millions</strong><p>Choose number of points to bet.</font><div class='respPicDiv'><img src='img/responseButtonOffersNo0L1.png' class='respPic'></div></div>","null","11","Melon Millions","Fruit/melon.png","Lost","0.65,0.2","14","0.65","160","32","",""
"","","","feedback","63b82398bbe6a599972413ad","bdp_rwlrn","Mon Mar 13 2023 15:05:40 GMT-0400 (Eastern Daylight Time)","540142","Untrustworthy,Trustworthy","html-keyboard-response","106","299537","0.0-11.0-3.31","","null","","<div class='respPicDiv'><img src='img/responseButtonOffersNo0_wht.png' class='respPic'></div><div class='trialDiv'><img src='Fruit/melon.png'><br><font class='baseline'><strong>Melon Millions</strong><p><strong><font class='negOutcome'>You LOST</font><p>You bet: 1</strong></font> &nbsp; &nbsp; &nbsp; &nbsp; &nbsp; &nbsp;<font class='negOutcome'>You receive: <strong>0</strong></font></div>","null","11","Melon Millions","Fruit/melon.png","Lost","0.65,0.2","14","0.65","160","32","",""
"","","","decision","63b82398bbe6a599972413ad","bdp_rwlrn","Mon Mar 13 2023 15:05:40 GMT-0400 (Eastern Daylight Time)","540142","Untrustworthy,Trustworthy","html-keyboard-response","107","300008","0.0-11.0-1.32","","471","","<div class='trialDiv'><img src='Fruit/pineapple.png'><br><font class='baseline'><strong>Primo Pineapple</strong><p>Choose number of points to bet.</font><div class='respPicDiv'><img src='img/responseButtonOffersNo0L.png' class='respPic'></div></div>","1","11","Primo Pineapple","Fruit/pineapple.png","Lost","0.35,0.8","12","0.35","165","33","",""
"","","","decisionFB","63b82398bbe6a599972413ad","bdp_rwlrn","Mon Mar 13 2023 15:05:40 GMT-0400 (Eastern Daylight Time)","540142","Untrustworthy,Trustworthy","html-keyboard-response","108","300266","0.0-11.0-2.32","","null","","<div class='trialDiv'><img src='Fruit/pineapple.png'><br><font class='baseline'><strong>Primo Pineapple</strong><p>Choose number of points to bet.</font><div class='respPicDiv'><img src='img/responseButtonOffersNo0L1.png' class='respPic'></div></div>","null","11","Primo Pineapple","Fruit/pineapple.png","Lost","0.35,0.8","12","0.35","164","33","",""
"","","","feedback","63b82398bbe6a599972413ad","bdp_rwlrn","Mon Mar 13 2023 15:05:40 GMT-0400 (Eastern Daylight Time)","540142","Untrustworthy,Trustworthy","html-keyboard-response","109","301278","0.0-11.0-3.32","","null","","<div class='respPicDiv'><img src='img/responseButtonOffersNo0_wht.png' class='respPic'></div><div class='trialDiv'><img src='Fruit/pineapple.png'><br><font class='baseline'><strong>Primo Pineapple</strong><p><strong><font class='negOutcome'>You LOST</font><p>You bet: 1</strong></font> &nbsp; &nbsp; &nbsp; &nbsp; &nbsp; &nbsp;<font class='negOutcome'>You receive: <strong>0</strong></font></div>","null","11","Primo Pineapple","Fruit/pineapple.png","Lost","0.35,0.8","12","0.35","164","33","",""
"","","","decision","63b82398bbe6a599972413ad","bdp_rwlrn","Mon Mar 13 2023 15:05:40 GMT-0400 (Eastern Daylight Time)","540142","Untrustworthy,Trustworthy","html-keyboard-response","110","301847","0.0-11.0-1.33","","568","","<div class='trialDiv'><img src='Fruit/pears.png'><br><font class='baseline'><strong>Pears Aplenty</strong><p>Choose number of points to bet.</font><div class='respPicDiv'><img src='img/responseButtonOffersNo0L.png' class='respPic'></div></div>","1","12","Pears Aplenty","Fruit/pears.png","Lost","0.8,0.2","8","0.8","169","34","",""
"","","","decisionFB","63b82398bbe6a599972413ad","bdp_rwlrn","Mon Mar 13 2023 15:05:40 GMT-0400 (Eastern Daylight Time)","540142","Untrustworthy,Trustworthy","html-keyboard-response","111","302099","0.0-11.0-2.33","","null","","<div class='trialDiv'><img src='Fruit/pears.png'><br><font class='baseline'><strong>Pears Aplenty</strong><p>Choose number of points to bet.</font><div class='respPicDiv'><img src='img/responseButtonOffersNo0L1.png' class='respPic'></div></div>","null","12","Pears Aplenty","Fruit/pears.png","Lost","0.8,0.2","8","0.8","168","34","",""
"","","","feedback","63b82398bbe6a599972413ad","bdp_rwlrn","Mon Mar 13 2023 15:05:40 GMT-0400 (Eastern Daylight Time)","540142","Untrustworthy,Trustworthy","html-keyboard-response","112","303109","0.0-11.0-3.33","","null","","<div class='respPicDiv'><img src='img/responseButtonOffersNo0_wht.png' class='respPic'></div><div class='trialDiv'><img src='Fruit/pears.png'><br><font class='baseline'><strong>Pears Aplenty</strong><p><strong><font class='negOutcome'>You LOST</font><p>You bet: 1</strong></font> &nbsp; &nbsp; &nbsp; &nbsp; &nbsp; &nbsp;<font class='negOutcome'>You receive: <strong>0</strong></font></div>","null","12","Pears Aplenty","Fruit/pears.png","Lost","0.8,0.2","8","0.8","168","34","",""
"","","","decision","63b82398bbe6a599972413ad","bdp_rwlrn","Mon Mar 13 2023 15:05:40 GMT-0400 (Eastern Daylight Time)","540142","Untrustworthy,Trustworthy","html-keyboard-response","113","303567","0.0-11.0-1.34","","457","","<div class='trialDiv'><img src='Fruit/pineapple.png'><br><font class='baseline'><strong>Primo Pineapple</strong><p>Choose number of points to bet.</font><div class='respPicDiv'><img src='img/responseButtonOffersNo0L.png' class='respPic'></div></div>","1","12","Primo Pineapple","Fruit/pineapple.png","Lost","0.35,0.8","12","0.35","173","35","",""
"","","","decisionFB","63b82398bbe6a599972413ad","bdp_rwlrn","Mon Mar 13 2023 15:05:40 GMT-0400 (Eastern Daylight Time)","540142","Untrustworthy,Trustworthy","html-keyboard-response","114","303818","0.0-11.0-2.34","","null","","<div class='trialDiv'><img src='Fruit/pineapple.png'><br><font class='baseline'><strong>Primo Pineapple</strong><p>Choose number of points to bet.</font><div class='respPicDiv'><img src='img/responseButtonOffersNo0L1.png' class='respPic'></div></div>","null","12","Primo Pineapple","Fruit/pineapple.png","Lost","0.35,0.8","12","0.35","172","35","",""
"","","","feedback","63b82398bbe6a599972413ad","bdp_rwlrn","Mon Mar 13 2023 15:05:40 GMT-0400 (Eastern Daylight Time)","540142","Untrustworthy,Trustworthy","html-keyboard-response","115","304829","0.0-11.0-3.34","","null","","<div class='respPicDiv'><img src='img/responseButtonOffersNo0_wht.png' class='respPic'></div><div class='trialDiv'><img src='Fruit/pineapple.png'><br><font class='baseline'><strong>Primo Pineapple</strong><p><strong><font class='negOutcome'>You LOST</font><p>You bet: 1</strong></font> &nbsp; &nbsp; &nbsp; &nbsp; &nbsp; &nbsp;<font class='negOutcome'>You receive: <strong>0</strong></font></div>","null","12","Primo Pineapple","Fruit/pineapple.png","Lost","0.35,0.8","12","0.35","172","35","",""
"","","","decision","63b82398bbe6a599972413ad","bdp_rwlrn","Mon Mar 13 2023 15:05:40 GMT-0400 (Eastern Daylight Time)","540142","Untrustworthy,Trustworthy","html-keyboard-response","116","305218","0.0-11.0-1.35","","388","","<div class='trialDiv'><img src='Fruit/melon.png'><br><font class='baseline'><strong>Melon Millions</strong><p>Choose number of points to bet.</font><div class='respPicDiv'><img src='img/responseButtonOffersNo0L.png' class='respPic'></div></div>","1","12","Melon Millions","Fruit/melon.png","Lost","0.65,0.2","14","0.65","177","36","",""
"","","","decisionFB","63b82398bbe6a599972413ad","bdp_rwlrn","Mon Mar 13 2023 15:05:40 GMT-0400 (Eastern Daylight Time)","540142","Untrustworthy,Trustworthy","html-keyboard-response","117","305473","0.0-11.0-2.35","","null","","<div class='trialDiv'><img src='Fruit/melon.png'><br><font class='baseline'><strong>Melon Millions</strong><p>Choose number of points to bet.</font><div class='respPicDiv'><img src='img/responseButtonOffersNo0L1.png' class='respPic'></div></div>","null","12","Melon Millions","Fruit/melon.png","Lost","0.65,0.2","14","0.65","176","36","",""
"","","","feedback","63b82398bbe6a599972413ad","bdp_rwlrn","Mon Mar 13 2023 15:05:40 GMT-0400 (Eastern Daylight Time)","540142","Untrustworthy,Trustworthy","html-keyboard-response","118","306482","0.0-11.0-3.35","","null","","<div class='respPicDiv'><img src='img/responseButtonOffersNo0_wht.png' class='respPic'></div><div class='trialDiv'><img src='Fruit/melon.png'><br><font class='baseline'><strong>Melon Millions</strong><p><strong><font class='negOutcome'>You LOST</font><p>You bet: 1</strong></font> &nbsp; &nbsp; &nbsp; &nbsp; &nbsp; &nbsp;<font class='negOutcome'>You receive: <strong>0</strong></font></div>","null","12","Melon Millions","Fruit/melon.png","Lost","0.65,0.2","14","0.65","176","36","",""
"","","","decision","63b82398bbe6a599972413ad","bdp_rwlrn","Mon Mar 13 2023 15:05:40 GMT-0400 (Eastern Daylight Time)","540142","Untrustworthy,Trustworthy","html-keyboard-response","119","306889","0.0-11.0-1.36","","407","","<div class='trialDiv'><img src='Fruit/pears.png'><br><font class='baseline'><strong>Pears Aplenty</strong><p>Choose number of points to bet.</font><div class='respPicDiv'><img src='img/responseButtonOffersNo0L.png' class='respPic'></div></div>","1","13","Pears Aplenty","Fruit/pears.png","Lost","0.8,0.2","8","0.8","181","37","",""
"","","","decisionFB","63b82398bbe6a599972413ad","bdp_rwlrn","Mon Mar 13 2023 15:05:40 GMT-0400 (Eastern Daylight Time)","540142","Untrustworthy,Trustworthy","html-keyboard-response","120","307142","0.0-11.0-2.36","","null","","<div class='trialDiv'><img src='Fruit/pears.png'><br><font class='baseline'><strong>Pears Aplenty</strong><p>Choose number of points to bet.</font><div class='respPicDiv'><img src='img/responseButtonOffersNo0L1.png' class='respPic'></div></div>","null","13","Pears Aplenty","Fruit/pears.png","Lost","0.8,0.2","8","0.8","180","37","",""
"","","","feedback","63b82398bbe6a599972413ad","bdp_rwlrn","Mon Mar 13 2023 15:05:40 GMT-0400 (Eastern Daylight Time)","540142","Untrustworthy,Trustworthy","html-keyboard-response","121","308152","0.0-11.0-3.36","","null","","<div class='respPicDiv'><img src='img/responseButtonOffersNo0_wht.png' class='respPic'></div><div class='trialDiv'><img src='Fruit/pears.png'><br><font class='baseline'><strong>Pears Aplenty</strong><p><strong><font class='negOutcome'>You LOST</font><p>You bet: 1</strong></font> &nbsp; &nbsp; &nbsp; &nbsp; &nbsp; &nbsp;<font class='negOutcome'>You receive: <strong>0</strong></font></div>","null","13","Pears Aplenty","Fruit/pears.png","Lost","0.8,0.2","8","0.8","180","37","",""
"","","","decision","63b82398bbe6a599972413ad","bdp_rwlrn","Mon Mar 13 2023 15:05:40 GMT-0400 (Eastern Daylight Time)","540142","Untrustworthy,Trustworthy","html-keyboard-response","122","308550","0.0-11.0-1.37","","396","","<div class='trialDiv'><img src='Fruit/melon.png'><br><font class='baseline'><strong>Melon Millions</strong><p>Choose number of points to bet.</font><div class='respPicDiv'><img src='img/responseButtonOffersNo0L.png' class='respPic'></div></div>","1","13","Melon Millions","Fruit/melon.png","Won","0.65,0.2","14","0.65","185","38","",""
"","","","decisionFB","63b82398bbe6a599972413ad","bdp_rwlrn","Mon Mar 13 2023 15:05:40 GMT-0400 (Eastern Daylight Time)","540142","Untrustworthy,Trustworthy","html-keyboard-response","123","308814","0.0-11.0-2.37","","null","","<div class='trialDiv'><img src='Fruit/melon.png'><br><font class='baseline'><strong>Melon Millions</strong><p>Choose number of points to bet.</font><div class='respPicDiv'><img src='img/responseButtonOffersNo0L1.png' class='respPic'></div></div>","null","13","Melon Millions","Fruit/melon.png","Won","0.65,0.2","14","0.65","184","38","",""
"","","","feedback","63b82398bbe6a599972413ad","bdp_rwlrn","Mon Mar 13 2023 15:05:40 GMT-0400 (Eastern Daylight Time)","540142","Untrustworthy,Trustworthy","html-keyboard-response","124","309825","0.0-11.0-3.37","","null","","<div class='respPicDiv'><img src='img/responseButtonOffersNo0_wht.png' class='respPic'></div><div class='trialDiv'><img src='Fruit/melon.png'><br><font class='baseline'><strong>Melon Millions</strong><p><strong><font class='posOutcome'>You WON</font><p>You bet: 1</strong></font> &nbsp; &nbsp; &nbsp; &nbsp; &nbsp; &nbsp;<font class='posOutcome'>you receive: <strong>2</strong></font></div>","null","13","Melon Millions","Fruit/melon.png","Won","0.65,0.2","14","0.65","186","38","",""
"","","","decision","63b82398bbe6a599972413ad","bdp_rwlrn","Mon Mar 13 2023 15:05:40 GMT-0400 (Eastern Daylight Time)","540142","Untrustworthy,Trustworthy","html-keyboard-response","125","310629","0.0-11.0-1.38","","803","","<div class='trialDiv'><img src='Fruit/pineapple.png'><br><font class='baseline'><strong>Primo Pineapple</strong><p>Choose number of points to bet.</font><div class='respPicDiv'><img src='img/responseButtonOffersNo0L.png' class='respPic'></div></div>","1","13","Primo Pineapple","Fruit/pineapple.png","Lost","0.35,0.8","12","0.35","191","39","",""
"","","","decisionFB","63b82398bbe6a599972413ad","bdp_rwlrn","Mon Mar 13 2023 15:05:40 GMT-0400 (Eastern Daylight Time)","540142","Untrustworthy,Trustworthy","html-keyboard-response","126","310883","0.0-11.0-2.38","","null","","<div class='trialDiv'><img src='Fruit/pineapple.png'><br><font class='baseline'><strong>Primo Pineapple</strong><p>Choose number of points to bet.</font><div class='respPicDiv'><img src='img/responseButtonOffersNo0L1.png' class='respPic'></div></div>","null","13","Primo Pineapple","Fruit/pineapple.png","Lost","0.35,0.8","12","0.35","190","39","",""
"","","","feedback","63b82398bbe6a599972413ad","bdp_rwlrn","Mon Mar 13 2023 15:05:40 GMT-0400 (Eastern Daylight Time)","540142","Untrustworthy,Trustworthy","html-keyboard-response","127","311892","0.0-11.0-3.38","","null","","<div class='respPicDiv'><img src='img/responseButtonOffersNo0_wht.png' class='respPic'></div><div class='trialDiv'><img src='Fruit/pineapple.png'><br><font class='baseline'><strong>Primo Pineapple</strong><p><strong><font class='negOutcome'>You LOST</font><p>You bet: 1</strong></font> &nbsp; &nbsp; &nbsp; &nbsp; &nbsp; &nbsp;<font class='negOutcome'>You receive: <strong>0</strong></font></div>","null","13","Primo Pineapple","Fruit/pineapple.png","Lost","0.35,0.8","12","0.35","190","39","",""
"","","","decision","63b82398bbe6a599972413ad","bdp_rwlrn","Mon Mar 13 2023 15:05:40 GMT-0400 (Eastern Daylight Time)","540142","Untrustworthy,Trustworthy","html-keyboard-response","128","312388","0.0-11.0-1.39","","496","","<div class='trialDiv'><img src='Fruit/pears.png'><br><font class='baseline'><strong>Pears Aplenty</strong><p>Choose number of points to bet.</font><div class='respPicDiv'><img src='img/responseButtonOffersNo0L.png' class='respPic'></div></div>","5","14","Pears Aplenty","Fruit/pears.png","Lost","0.8,0.2","8","0.8","195","40","",""
"","","","decisionFB","63b82398bbe6a599972413ad","bdp_rwlrn","Mon Mar 13 2023 15:05:40 GMT-0400 (Eastern Daylight Time)","540142","Untrustworthy,Trustworthy","html-keyboard-response","129","312647","0.0-11.0-2.39","","null","","<div class='trialDiv'><img src='Fruit/pears.png'><br><font class='baseline'><strong>Pears Aplenty</strong><p>Choose number of points to bet.</font><div class='respPicDiv'><img src='img/responseButtonOffersNo0L5.png' class='respPic'></div></div>","null","14","Pears Aplenty","Fruit/pears.png","Lost","0.8,0.2","8","0.8","190","40","",""
"","","","feedback","63b82398bbe6a599972413ad","bdp_rwlrn","Mon Mar 13 2023 15:05:40 GMT-0400 (Eastern Daylight Time)","540142","Untrustworthy,Trustworthy","html-keyboard-response","130","313655","0.0-11.0-3.39","","null","","<div class='respPicDiv'><img src='img/responseButtonOffersNo0_wht.png' class='respPic'></div><div class='trialDiv'><img src='Fruit/pears.png'><br><font class='baseline'><strong>Pears Aplenty</strong><p><strong><font class='negOutcome'>You LOST</font><p>You bet: 5</strong></font> &nbsp; &nbsp; &nbsp; &nbsp; &nbsp; &nbsp;<font class='negOutcome'>You receive: <strong>0</strong></font></div>","null","14","Pears Aplenty","Fruit/pears.png","Lost","0.8,0.2","8","0.8","190","40","",""
"","","","decision","63b82398bbe6a599972413ad","bdp_rwlrn","Mon Mar 13 2023 15:05:40 GMT-0400 (Eastern Daylight Time)","540142","Untrustworthy,Trustworthy","html-keyboard-response","131","314004","0.0-11.0-1.40","","348","","<div class='trialDiv'><img src='Fruit/pineapple.png'><br><font class='baseline'><strong>Primo Pineapple</strong><p>Choose number of points to bet.</font><div class='respPicDiv'><img src='img/responseButtonOffersNo0L.png' class='respPic'></div></div>","1","14","Primo Pineapple","Fruit/pineapple.png","Won","0.35,0.8","12","0.35","195","41","",""
"","","","decisionFB","63b82398bbe6a599972413ad","bdp_rwlrn","Mon Mar 13 2023 15:05:40 GMT-0400 (Eastern Daylight Time)","540142","Untrustworthy,Trustworthy","html-keyboard-response","132","314255","0.0-11.0-2.40","","null","","<div class='trialDiv'><img src='Fruit/pineapple.png'><br><font class='baseline'><strong>Primo Pineapple</strong><p>Choose number of points to bet.</font><div class='respPicDiv'><img src='img/responseButtonOffersNo0L1.png' class='respPic'></div></div>","null","14","Primo Pineapple","Fruit/pineapple.png","Won","0.35,0.8","12","0.35","194","41","",""
"","","","feedback","63b82398bbe6a599972413ad","bdp_rwlrn","Mon Mar 13 2023 15:05:40 GMT-0400 (Eastern Daylight Time)","540142","Untrustworthy,Trustworthy","html-keyboard-response","133","315260","0.0-11.0-3.40","","null","","<div class='respPicDiv'><img src='img/responseButtonOffersNo0_wht.png' class='respPic'></div><div class='trialDiv'><img src='Fruit/pineapple.png'><br><font class='baseline'><strong>Primo Pineapple</strong><p><strong><font class='posOutcome'>You WON</font><p>You bet: 1</strong></font> &nbsp; &nbsp; &nbsp; &nbsp; &nbsp; &nbsp;<font class='posOutcome'>you receive: <strong>2</strong></font></div>","null","14","Primo Pineapple","Fruit/pineapple.png","Won","0.35,0.8","12","0.35","196","41","",""
"","","","decision","63b82398bbe6a599972413ad","bdp_rwlrn","Mon Mar 13 2023 15:05:40 GMT-0400 (Eastern Daylight Time)","540142","Untrustworthy,Trustworthy","html-keyboard-response","134","315625","0.0-11.0-1.41","","364","","<div class='trialDiv'><img src='Fruit/melon.png'><br><font class='baseline'><strong>Melon Millions</strong><p>Choose number of points to bet.</font><div class='respPicDiv'><img src='img/responseButtonOffersNo0L.png' class='respPic'></div></div>","1","14","Melon Millions","Fruit/melon.png","Won","0.65,0.2","14","0.65","201","42","",""
"","","","decisionFB","63b82398bbe6a599972413ad","bdp_rwlrn","Mon Mar 13 2023 15:05:40 GMT-0400 (Eastern Daylight Time)","540142","Untrustworthy,Trustworthy","html-keyboard-response","135","315889","0.0-11.0-2.41","","null","","<div class='trialDiv'><img src='Fruit/melon.png'><br><font class='baseline'><strong>Melon Millions</strong><p>Choose number of points to bet.</font><div class='respPicDiv'><img src='img/responseButtonOffersNo0L1.png' class='respPic'></div></div>","null","14","Melon Millions","Fruit/melon.png","Won","0.65,0.2","14","0.65","200","42","",""
"","","","feedback","63b82398bbe6a599972413ad","bdp_rwlrn","Mon Mar 13 2023 15:05:40 GMT-0400 (Eastern Daylight Time)","540142","Untrustworthy,Trustworthy","html-keyboard-response","136","316900","0.0-11.0-3.41","","null","","<div class='respPicDiv'><img src='img/responseButtonOffersNo0_wht.png' class='respPic'></div><div class='trialDiv'><img src='Fruit/melon.png'><br><font class='baseline'><strong>Melon Millions</strong><p><strong><font class='posOutcome'>You WON</font><p>You bet: 1</strong></font> &nbsp; &nbsp; &nbsp; &nbsp; &nbsp; &nbsp;<font class='posOutcome'>you receive: <strong>2</strong></font></div>","null","14","Melon Millions","Fruit/melon.png","Won","0.65,0.2","14","0.65","202","42","",""
"","","","decision","63b82398bbe6a599972413ad","bdp_rwlrn","Mon Mar 13 2023 15:05:40 GMT-0400 (Eastern Daylight Time)","540142","Untrustworthy,Trustworthy","html-keyboard-response","137","317243","0.0-11.0-1.42","","343","","<div class='trialDiv'><img src='Fruit/pears.png'><br><font class='baseline'><strong>Pears Aplenty</strong><p>Choose number of points to bet.</font><div class='respPicDiv'><img src='img/responseButtonOffersNo0L.png' class='respPic'></div></div>","1","15","Pears Aplenty","Fruit/pears.png","Lost","0.8,0.2","8","0.8","207","43","",""
"","","","decisionFB","63b82398bbe6a599972413ad","bdp_rwlrn","Mon Mar 13 2023 15:05:40 GMT-0400 (Eastern Daylight Time)","540142","Untrustworthy,Trustworthy","html-keyboard-response","138","317499","0.0-11.0-2.42","","null","","<div class='trialDiv'><img src='Fruit/pears.png'><br><font class='baseline'><strong>Pears Aplenty</strong><p>Choose number of points to bet.</font><div class='respPicDiv'><img src='img/responseButtonOffersNo0L1.png' class='respPic'></div></div>","null","15","Pears Aplenty","Fruit/pears.png","Lost","0.8,0.2","8","0.8","206","43","",""
"","","","feedback","63b82398bbe6a599972413ad","bdp_rwlrn","Mon Mar 13 2023 15:05:40 GMT-0400 (Eastern Daylight Time)","540142","Untrustworthy,Trustworthy","html-keyboard-response","139","318511","0.0-11.0-3.42","","null","","<div class='respPicDiv'><img src='img/responseButtonOffersNo0_wht.png' class='respPic'></div><div class='trialDiv'><img src='Fruit/pears.png'><br><font class='baseline'><strong>Pears Aplenty</strong><p><strong><font class='negOutcome'>You LOST</font><p>You bet: 1</strong></font> &nbsp; &nbsp; &nbsp; &nbsp; &nbsp; &nbsp;<font class='negOutcome'>You receive: <strong>0</strong></font></div>","null","15","Pears Aplenty","Fruit/pears.png","Lost","0.8,0.2","8","0.8","206","43","",""
"","","","decision","63b82398bbe6a599972413ad","bdp_rwlrn","Mon Mar 13 2023 15:05:40 GMT-0400 (Eastern Daylight Time)","540142","Untrustworthy,Trustworthy","html-keyboard-response","140","319491","0.0-11.0-1.43","","979","","<div class='trialDiv'><img src='Fruit/melon.png'><br><font class='baseline'><strong>Melon Millions</strong><p>Choose number of points to bet.</font><div class='respPicDiv'><img src='img/responseButtonOffersNo0L.png' class='respPic'></div></div>","3","15","Melon Millions","Fruit/melon.png","Won","0.65,0.2","14","0.65","211","44","",""
"","","","decisionFB","63b82398bbe6a599972413ad","bdp_rwlrn","Mon Mar 13 2023 15:05:40 GMT-0400 (Eastern Daylight Time)","540142","Untrustworthy,Trustworthy","html-keyboard-response","141","319756","0.0-11.0-2.43","","null","","<div class='trialDiv'><img src='Fruit/melon.png'><br><font class='baseline'><strong>Melon Millions</strong><p>Choose number of points to bet.</font><div class='respPicDiv'><img src='img/responseButtonOffersNo0L3.png' class='respPic'></div></div>","null","15","Melon Millions","Fruit/melon.png","Won","0.65,0.2","14","0.65","208","44","",""
"","","","feedback","63b82398bbe6a599972413ad","bdp_rwlrn","Mon Mar 13 2023 15:05:40 GMT-0400 (Eastern Daylight Time)","540142","Untrustworthy,Trustworthy","html-keyboard-response","142","320764","0.0-11.0-3.43","","null","","<div class='respPicDiv'><img src='img/responseButtonOffersNo0_wht.png' class='respPic'></div><div class='trialDiv'><img src='Fruit/melon.png'><br><font class='baseline'><strong>Melon Millions</strong><p><strong><font class='posOutcome'>You WON</font><p>You bet: 3</strong></font> &nbsp; &nbsp; &nbsp; &nbsp; &nbsp; &nbsp;<font class='posOutcome'>you receive: <strong>6</strong></font></div>","null","15","Melon Millions","Fruit/melon.png","Won","0.65,0.2","14","0.65","214","44","",""
"","","","decision","63b82398bbe6a599972413ad","bdp_rwlrn","Mon Mar 13 2023 15:05:40 GMT-0400 (Eastern Daylight Time)","540142","Untrustworthy,Trustworthy","html-keyboard-response","143","321267","0.0-11.0-1.44","","502","","<div class='trialDiv'><img src='Fruit/pineapple.png'><br><font class='baseline'><strong>Primo Pineapple</strong><p>Choose number of points to bet.</font><div class='respPicDiv'><img src='img/responseButtonOffersNo0L.png' class='respPic'></div></div>","3","15","Primo Pineapple","Fruit/pineapple.png","Won","0.35,0.8","12","0.35","219","45","",""
"","","","decisionFB","63b82398bbe6a599972413ad","bdp_rwlrn","Mon Mar 13 2023 15:05:40 GMT-0400 (Eastern Daylight Time)","540142","Untrustworthy,Trustworthy","html-keyboard-response","144","321521","0.0-11.0-2.44","","null","","<div class='trialDiv'><img src='Fruit/pineapple.png'><br><font class='baseline'><strong>Primo Pineapple</strong><p>Choose number of points to bet.</font><div class='respPicDiv'><img src='img/responseButtonOffersNo0L3.png' class='respPic'></div></div>","null","15","Primo Pineapple","Fruit/pineapple.png","Won","0.35,0.8","12","0.35","216","45","",""
"","","","feedback","63b82398bbe6a599972413ad","bdp_rwlrn","Mon Mar 13 2023 15:05:40 GMT-0400 (Eastern Daylight Time)","540142","Untrustworthy,Trustworthy","html-keyboard-response","145","322534","0.0-11.0-3.44","","null","","<div class='respPicDiv'><img src='img/responseButtonOffersNo0_wht.png' class='respPic'></div><div class='trialDiv'><img src='Fruit/pineapple.png'><br><font class='baseline'><strong>Primo Pineapple</strong><p><strong><font class='posOutcome'>You WON</font><p>You bet: 3</strong></font> &nbsp; &nbsp; &nbsp; &nbsp; &nbsp; &nbsp;<font class='posOutcome'>you receive: <strong>6</strong></font></div>","null","15","Primo Pineapple","Fruit/pineapple.png","Won","0.35,0.8","12","0.35","222","45","",""
"","","","decision","63b82398bbe6a599972413ad","bdp_rwlrn","Mon Mar 13 2023 15:05:40 GMT-0400 (Eastern Daylight Time)","540142","Untrustworthy,Trustworthy","html-keyboard-response","146","323380","0.0-11.0-1.45","","846","","<div class='trialDiv'><img src='Fruit/pears.png'><br><font class='baseline'><strong>Pears Aplenty</strong><p>Choose number of points to bet.</font><div class='respPicDiv'><img src='img/responseButtonOffersNo0L.png' class='respPic'></div></div>","1","16","Pears Aplenty","Fruit/pears.png","Lost","0.8,0.2","8","0.8","227","46","",""
"","","","decisionFB","63b82398bbe6a599972413ad","bdp_rwlrn","Mon Mar 13 2023 15:05:40 GMT-0400 (Eastern Daylight Time)","540142","Untrustworthy,Trustworthy","html-keyboard-response","147","323641","0.0-11.0-2.45","","null","","<div class='trialDiv'><img src='Fruit/pears.png'><br><font class='baseline'><strong>Pears Aplenty</strong><p>Choose number of points to bet.</font><div class='respPicDiv'><img src='img/responseButtonOffersNo0L1.png' class='respPic'></div></div>","null","16","Pears Aplenty","Fruit/pears.png","Lost","0.8,0.2","8","0.8","226","46","",""
"","","","feedback","63b82398bbe6a599972413ad","bdp_rwlrn","Mon Mar 13 2023 15:05:40 GMT-0400 (Eastern Daylight Time)","540142","Untrustworthy,Trustworthy","html-keyboard-response","148","324642","0.0-11.0-3.45","","null","","<div class='respPicDiv'><img src='img/responseButtonOffersNo0_wht.png' class='respPic'></div><div class='trialDiv'><img src='Fruit/pears.png'><br><font class='baseline'><strong>Pears Aplenty</strong><p><strong><font class='negOutcome'>You LOST</font><p>You bet: 1</strong></font> &nbsp; &nbsp; &nbsp; &nbsp; &nbsp; &nbsp;<font class='negOutcome'>You receive: <strong>0</strong></font></div>","null","16","Pears Aplenty","Fruit/pears.png","Lost","0.8,0.2","8","0.8","226","46","",""
"","","","decision","63b82398bbe6a599972413ad","bdp_rwlrn","Mon Mar 13 2023 15:05:40 GMT-0400 (Eastern Daylight Time)","540142","Untrustworthy,Trustworthy","html-keyboard-response","149","325152","0.0-11.0-1.46","","509","","<div class='trialDiv'><img src='Fruit/pineapple.png'><br><font class='baseline'><strong>Primo Pineapple</strong><p>Choose number of points to bet.</font><div class='respPicDiv'><img src='img/responseButtonOffersNo0L.png' class='respPic'></div></div>","3","16","Primo Pineapple","Fruit/pineapple.png","Won","0.35,0.8","12","0.35","231","47","",""
"","","","decisionFB","63b82398bbe6a599972413ad","bdp_rwlrn","Mon Mar 13 2023 15:05:40 GMT-0400 (Eastern Daylight Time)","540142","Untrustworthy,Trustworthy","html-keyboard-response","150","325415","0.0-11.0-2.46","","null","","<div class='trialDiv'><img src='Fruit/pineapple.png'><br><font class='baseline'><strong>Primo Pineapple</strong><p>Choose number of points to bet.</font><div class='respPicDiv'><img src='img/responseButtonOffersNo0L3.png' class='respPic'></div></div>","null","16","Primo Pineapple","Fruit/pineapple.png","Won","0.35,0.8","12","0.35","228","47","",""
"","","","feedback","63b82398bbe6a599972413ad","bdp_rwlrn","Mon Mar 13 2023 15:05:40 GMT-0400 (Eastern Daylight Time)","540142","Untrustworthy,Trustworthy","html-keyboard-response","151","326424","0.0-11.0-3.46","","null","","<div class='respPicDiv'><img src='img/responseButtonOffersNo0_wht.png' class='respPic'></div><div class='trialDiv'><img src='Fruit/pineapple.png'><br><font class='baseline'><strong>Primo Pineapple</strong><p><strong><font class='posOutcome'>You WON</font><p>You bet: 3</strong></font> &nbsp; &nbsp; &nbsp; &nbsp; &nbsp; &nbsp;<font class='posOutcome'>you receive: <strong>6</strong></font></div>","null","16","Primo Pineapple","Fruit/pineapple.png","Won","0.35,0.8","12","0.35","234","47","",""
"","","","decision","63b82398bbe6a599972413ad","bdp_rwlrn","Mon Mar 13 2023 15:05:40 GMT-0400 (Eastern Daylight Time)","540142","Untrustworthy,Trustworthy","html-keyboard-response","152","326949","0.0-11.0-1.47","","524","","<div class='trialDiv'><img src='Fruit/melon.png'><br><font class='baseline'><strong>Melon Millions</strong><p>Choose number of points to bet.</font><div class='respPicDiv'><img src='img/responseButtonOffersNo0L.png' class='respPic'></div></div>","3","16","Melon Millions","Fruit/melon.png","Lost","0.65,0.2","14","0.65","239","48","",""
"","","","decisionFB","63b82398bbe6a599972413ad","bdp_rwlrn","Mon Mar 13 2023 15:05:40 GMT-0400 (Eastern Daylight Time)","540142","Untrustworthy,Trustworthy","html-keyboard-response","153","327211","0.0-11.0-2.47","","null","","<div class='trialDiv'><img src='Fruit/melon.png'><br><font class='baseline'><strong>Melon Millions</strong><p>Choose number of points to bet.</font><div class='respPicDiv'><img src='img/responseButtonOffersNo0L3.png' class='respPic'></div></div>","null","16","Melon Millions","Fruit/melon.png","Lost","0.65,0.2","14","0.65","236","48","",""
"","","","feedback","63b82398bbe6a599972413ad","bdp_rwlrn","Mon Mar 13 2023 15:05:40 GMT-0400 (Eastern Daylight Time)","540142","Untrustworthy,Trustworthy","html-keyboard-response","154","328221","0.0-11.0-3.47","","null","","<div class='respPicDiv'><img src='img/responseButtonOffersNo0_wht.png' class='respPic'></div><div class='trialDiv'><img src='Fruit/melon.png'><br><font class='baseline'><strong>Melon Millions</strong><p><strong><font class='negOutcome'>You LOST</font><p>You bet: 3</strong></font> &nbsp; &nbsp; &nbsp; &nbsp; &nbsp; &nbsp;<font class='negOutcome'>You receive: <strong>0</strong></font></div>","null","16","Melon Millions","Fruit/melon.png","Lost","0.65,0.2","14","0.65","236","48","",""
"","","","decision","63b82398bbe6a599972413ad","bdp_rwlrn","Mon Mar 13 2023 15:05:40 GMT-0400 (Eastern Daylight Time)","540142","Untrustworthy,Trustworthy","html-keyboard-response","155","328710","0.0-11.0-1.48","","487","","<div class='trialDiv'><img src='Fruit/pears.png'><br><font class='baseline'><strong>Pears Aplenty</strong><p>Choose number of points to bet.</font><div class='respPicDiv'><img src='img/responseButtonOffersNo0L.png' class='respPic'></div></div>","1","17","Pears Aplenty","Fruit/pears.png","Lost","0.8,0.2","8","0.8","241","49","",""
"","","","decisionFB","63b82398bbe6a599972413ad","bdp_rwlrn","Mon Mar 13 2023 15:05:40 GMT-0400 (Eastern Daylight Time)","540142","Untrustworthy,Trustworthy","html-keyboard-response","156","328971","0.0-11.0-2.48","","null","","<div class='trialDiv'><img src='Fruit/pears.png'><br><font class='baseline'><strong>Pears Aplenty</strong><p>Choose number of points to bet.</font><div class='respPicDiv'><img src='img/responseButtonOffersNo0L1.png' class='respPic'></div></div>","null","17","Pears Aplenty","Fruit/pears.png","Lost","0.8,0.2","8","0.8","240","49","",""
"","","","feedback","63b82398bbe6a599972413ad","bdp_rwlrn","Mon Mar 13 2023 15:05:40 GMT-0400 (Eastern Daylight Time)","540142","Untrustworthy,Trustworthy","html-keyboard-response","157","329972","0.0-11.0-3.48","","null","","<div class='respPicDiv'><img src='img/responseButtonOffersNo0_wht.png' class='respPic'></div><div class='trialDiv'><img src='Fruit/pears.png'><br><font class='baseline'><strong>Pears Aplenty</strong><p><strong><font class='negOutcome'>You LOST</font><p>You bet: 1</strong></font> &nbsp; &nbsp; &nbsp; &nbsp; &nbsp; &nbsp;<font class='negOutcome'>You receive: <strong>0</strong></font></div>","null","17","Pears Aplenty","Fruit/pears.png","Lost","0.8,0.2","8","0.8","240","49","",""
"","","","decision","63b82398bbe6a599972413ad","bdp_rwlrn","Mon Mar 13 2023 15:05:40 GMT-0400 (Eastern Daylight Time)","540142","Untrustworthy,Trustworthy","html-keyboard-response","158","331019","0.0-11.0-1.49","","1046","","<div class='trialDiv'><img src='Fruit/melon.png'><br><font class='baseline'><strong>Melon Millions</strong><p>Choose number of points to bet.</font><div class='respPicDiv'><img src='img/responseButtonOffersNo0L.png' class='respPic'></div></div>","1","17","Melon Millions","Fruit/melon.png","Lost","0.65,0.2","14","0.65","245","50","",""
"","","","decisionFB","63b82398bbe6a599972413ad","bdp_rwlrn","Mon Mar 13 2023 15:05:40 GMT-0400 (Eastern Daylight Time)","540142","Untrustworthy,Trustworthy","html-keyboard-response","159","331282","0.0-11.0-2.49","","null","","<div class='trialDiv'><img src='Fruit/melon.png'><br><font class='baseline'><strong>Melon Millions</strong><p>Choose number of points to bet.</font><div class='respPicDiv'><img src='img/responseButtonOffersNo0L1.png' class='respPic'></div></div>","null","17","Melon Millions","Fruit/melon.png","Lost","0.65,0.2","14","0.65","244","50","",""
"","","","feedback","63b82398bbe6a599972413ad","bdp_rwlrn","Mon Mar 13 2023 15:05:40 GMT-0400 (Eastern Daylight Time)","540142","Untrustworthy,Trustworthy","html-keyboard-response","160","332289","0.0-11.0-3.49","","null","","<div class='respPicDiv'><img src='img/responseButtonOffersNo0_wht.png' class='respPic'></div><div class='trialDiv'><img src='Fruit/melon.png'><br><font class='baseline'><strong>Melon Millions</strong><p><strong><font class='negOutcome'>You LOST</font><p>You bet: 1</strong></font> &nbsp; &nbsp; &nbsp; &nbsp; &nbsp; &nbsp;<font class='negOutcome'>You receive: <strong>0</strong></font></div>","null","17","Melon Millions","Fruit/melon.png","Lost","0.65,0.2","14","0.65","244","50","",""
"","","","decision","63b82398bbe6a599972413ad","bdp_rwlrn","Mon Mar 13 2023 15:05:40 GMT-0400 (Eastern Daylight Time)","540142","Untrustworthy,Trustworthy","html-keyboard-response","161","332770","0.0-11.0-1.50","","480","","<div class='trialDiv'><img src='Fruit/pineapple.png'><br><font class='baseline'><strong>Primo Pineapple</strong><p>Choose number of points to bet.</font><div class='respPicDiv'><img src='img/responseButtonOffersNo0L.png' class='respPic'></div></div>","3","17","Primo Pineapple","Fruit/pineapple.png","Won","0.35,0.8","12","0.35","249","51","",""
"","","","decisionFB","63b82398bbe6a599972413ad","bdp_rwlrn","Mon Mar 13 2023 15:05:40 GMT-0400 (Eastern Daylight Time)","540142","Untrustworthy,Trustworthy","html-keyboard-response","162","333030","0.0-11.0-2.50","","null","","<div class='trialDiv'><img src='Fruit/pineapple.png'><br><font class='baseline'><strong>Primo Pineapple</strong><p>Choose number of points to bet.</font><div class='respPicDiv'><img src='img/responseButtonOffersNo0L3.png' class='respPic'></div></div>","null","17","Primo Pineapple","Fruit/pineapple.png","Won","0.35,0.8","12","0.35","246","51","",""
