"trial_type","trial_index","time_elapsed","internal_node_id","subject_id","task","startTime","totalTime","labels","view_history","rt","event","trial","time","trialtype","success","stimulus","key_press","ltround","name","fileID","outcome","lottotype","lottoswpt","lottocurrpshare","point_total","round","faceID","face"
"pavlovia","0","2","0.0-0.0","60599946259dc97d30e2001f","bdp_rwlrn","Mon Mar 13 2023 19:43:25 GMT-0700 (Pacific Daylight Time)","422716","Trustworthy,Untrustworthy","","","","","","","","","","","","","","","","","","","",""
"instructions","1","2798","0.0-1.0","60599946259dc97d30e2001f","bdp_rwlrn","Mon Mar 13 2023 19:43:25 GMT-0700 (Pacific Daylight Time)","422716","Trustworthy,Untrustworthy","[{""page_index"":0,""viewing_time"":2796}]","2796","","","","","","","","","","","","","","","","","",""
"","","","","60599946259dc97d30e2001f","bdp_rwlrn","Mon Mar 13 2023 19:43:25 GMT-0700 (Pacific Daylight Time)","422716","Trustworthy,Untrustworthy","","","fullscreenenter","2","5046","fullscreenenter","","","","","","","","","","","","","",""
"fullscreen","2","6035","0.0-2.0","60599946259dc97d30e2001f","bdp_rwlrn","Mon Mar 13 2023 19:43:25 GMT-0700 (Pacific Daylight Time)","422716","Trustworthy,Untrustworthy","","","","","","","true","","","","","","","","","","","","",""
"instructions","3","57078","0.0-4.0","60599946259dc97d30e2001f","bdp_rwlrn","Mon Mar 13 2023 19:43:25 GMT-0700 (Pacific Daylight Time)","422716","Trustworthy,Untrustworthy","[{""page_index"":0,""viewing_time"":9892},{""page_index"":1,""viewing_time"":12679},{""page_index"":2,""viewing_time"":8016},{""page_index"":3,""viewing_time"":3744},{""page_index"":4,""viewing_time"":11536},{""page_index"":5,""viewing_time"":5176}]","51043","","","","","","","","","","","","","","","","","",""
"html-keyboard-response","4","62350","0.0-5.0","60599946259dc97d30e2001f","bdp_rwlrn","Mon Mar 13 2023 19:43:25 GMT-0700 (Pacific Daylight Time)","422716","Trustworthy,Untrustworthy","","5272","","","","","","<div class='header' style='text-align:left; position: absolute; top: 5%; left: 5%;'><small>Task 1 of 5</small></div><div class='instruxDiv'><p><strong>1) What is the maximum number of points you can choose to bet on a lottery?</strong></p><p>a) 0</p><p>b) 1</p><p>c) 5</p>","C","","","","","","","","","","",""
"html-keyboard-response","5","64805","0.0-6.0","60599946259dc97d30e2001f","bdp_rwlrn","Mon Mar 13 2023 19:43:25 GMT-0700 (Pacific Daylight Time)","422716","Trustworthy,Untrustworthy","","2352","","","","","","<div class='header' style='text-align:left; position: absolute; top: 5%; left: 5%;'><small>Task 1 of 5</small></div><div class='instruxDiv'><p><strong>1) What is the maximum number of points you can choose to bet on a lottery?</strong></p><p>a) 1</p><p>b) 1</p><p style='color:#00FF00'>c) 5</p><h3 style='color:#00FF00'>Correct!</h3><h3 class='center-content'>The correct response is c).</h3><h3 class='center-content'>The maximum number of points you can choose to bet on a lottery is 5 points.</h3><p><em>Press SPACEBAR to continue</em></p></div>"," ","","","","","","","","","","",""
"html-keyboard-response","6","68093","0.0-7.0","60599946259dc97d30e2001f","bdp_rwlrn","Mon Mar 13 2023 19:43:25 GMT-0700 (Pacific Daylight Time)","422716","Trustworthy,Untrustworthy","","3188","","","","","","<div class='header' style='text-align:left; position: absolute; top: 5%; left: 5%;'><small>Task 1 of 5</small></div><div class='instruxDiv'><p><strong>2) How many points can you win each round?</strong></p><p>a) 10 points</p><p>b) Double what you bet</p><p>c) Quadruple what you bet</p>","B","","","","","","","","","","",""
"html-keyboard-response","7","69117","0.0-8.0","60599946259dc97d30e2001f","bdp_rwlrn","Mon Mar 13 2023 19:43:25 GMT-0700 (Pacific Daylight Time)","422716","Trustworthy,Untrustworthy","","910","","","","","","<div class='header' style='text-align:left; position: absolute; top: 5%; left: 5%;'><small>Task 1 of 5</small></div><div class='instruxDiv'><p><strong>2) How many points can you win each round?</strong></p><p>a) 10 points</p><p style='color:#00FF00'>b) Double what you bet</p><p>c) Quadruple what you bet</p><h3 style='color:#00FF00'>Correct!</h3><h3 class='center-content'>The correct response is b).</h3><h3 class='center-content'>You can win double the amount of points you bet.</h3><p><em>Press SPACEBAR to continue</em></p></div>"," ","","","","","","","","","","",""
"html-keyboard-response","8","74224","0.0-9.0","60599946259dc97d30e2001f","bdp_rwlrn","Mon Mar 13 2023 19:43:25 GMT-0700 (Pacific Daylight Time)","422716","Trustworthy,Untrustworthy","","null","","","","","","<div class='header' style='text-align:left; position: absolute; top: 5%; left: 5%;'><small>Task 1 of 5</small></div><div class='instruxDiv'><p>Thank you for completing the quiz<p>These are the actual lotteries you will be playing in the next block:<p><div class='tc' align='center'><img class='introPic' src='Fruit/papayas.png'><br><strong>Papaya Payday</strong></div><div class='bl' align='center'><img class='introPic' src='Fruit/cherrie.png'><br><strong>Cherry Chances</strong></div><div class='br' align='center'><img class='introPic' src='Fruit/watermelon.png'><br><strong>Watermelon Win$</strong></div></div><p>Across <strong>66 rounds</strong> you will play each lottery <strong>22 times</strong> (in random order).<p style='align:center; color:white'><font <em>Press SPACEBAR to continue</em></p>","null","","","","","","","","","","",""
"instructions","9","83613","0.0-10.0","60599946259dc97d30e2001f","bdp_rwlrn","Mon Mar 13 2023 19:43:25 GMT-0700 (Pacific Daylight Time)","422716","Trustworthy,Untrustworthy","[{""page_index"":0,""viewing_time"":6654},{""page_index"":1,""viewing_time"":2735}]","9389","","","","","","","","","","","","","","","","","",""
"html-keyboard-response","10","85669","0.0-11.0-1.0","60599946259dc97d30e2001f","bdp_rwlrn","Mon Mar 13 2023 19:43:25 GMT-0700 (Pacific Daylight Time)","422716","Trustworthy,Untrustworthy","","1951","","","","decision","","<div class='trialDiv'><img src='Fruit/papayas.png'><br><font class='baseline'><strong>Papaya Payday</strong><p>Choose number of points to bet.</font><div class='respPicDiv'><img src='img/responseButtonOffersNo0L.png' class='respPic'></div></div>","3","1","Papaya Payday","Fruit/papayas.png","Lost","0.65,0.2","13","0.65","5","1","",""
"html-keyboard-response","11","85926","0.0-11.0-2.0","60599946259dc97d30e2001f","bdp_rwlrn","Mon Mar 13 2023 19:43:25 GMT-0700 (Pacific Daylight Time)","422716","Trustworthy,Untrustworthy","","null","","","","decisionFB","","<div class='trialDiv'><img src='Fruit/papayas.png'><br><font class='baseline'><strong>Papaya Payday</strong><p>Choose number of points to bet.</font><div class='respPicDiv'><img src='img/responseButtonOffersNo0L3.png' class='respPic'></div></div>","null","1","Papaya Payday","Fruit/papayas.png","Lost","0.65,0.2","13","0.65","2","1","",""
"html-keyboard-response","12","86941","0.0-11.0-3.0","60599946259dc97d30e2001f","bdp_rwlrn","Mon Mar 13 2023 19:43:25 GMT-0700 (Pacific Daylight Time)","422716","Trustworthy,Untrustworthy","","null","","","","feedback","","<div class='respPicDiv'><img src='img/responseButtonOffersNo0_wht.png' class='respPic'></div><div class='trialDiv'><img src='Fruit/papayas.png'><br><font class='baseline'><strong>Papaya Payday</strong><p><strong><font class='negOutcome'>You LOST</font><p>You bet: 3</strong></font> &nbsp; &nbsp; &nbsp; &nbsp; &nbsp; &nbsp;<font class='negOutcome'>You receive: <strong>0</strong></font></div>","null","1","Papaya Payday","Fruit/papayas.png","Lost","0.65,0.2","13","0.65","2","1","",""
"html-keyboard-response","13","88901","0.0-11.0-1.1","60599946259dc97d30e2001f","bdp_rwlrn","Mon Mar 13 2023 19:43:25 GMT-0700 (Pacific Daylight Time)","422716","Trustworthy,Untrustworthy","","1960","","","","decision","","<div class='trialDiv'><img src='Fruit/cherrie.png'><br><font class='baseline'><strong>Cherry Chances</strong><p>Choose number of points to bet.</font><div class='respPicDiv'><img src='img/responseButtonOffersNo0L.png' class='respPic'></div></div>","3","1","Cherry Chances","Fruit/cherrie.png","Lost","0.2,0.8","8","0.2","7","2","",""
"html-keyboard-response","14","89159","0.0-11.0-2.1","60599946259dc97d30e2001f","bdp_rwlrn","Mon Mar 13 2023 19:43:25 GMT-0700 (Pacific Daylight Time)","422716","Trustworthy,Untrustworthy","","null","","","","decisionFB","","<div class='trialDiv'><img src='Fruit/cherrie.png'><br><font class='baseline'><strong>Cherry Chances</strong><p>Choose number of points to bet.</font><div class='respPicDiv'><img src='img/responseButtonOffersNo0L3.png' class='respPic'></div></div>","null","1","Cherry Chances","Fruit/cherrie.png","Lost","0.2,0.8","8","0.2","4","2","",""
"html-keyboard-response","15","90166","0.0-11.0-3.1","60599946259dc97d30e2001f","bdp_rwlrn","Mon Mar 13 2023 19:43:25 GMT-0700 (Pacific Daylight Time)","422716","Trustworthy,Untrustworthy","","null","","","","feedback","","<div class='respPicDiv'><img src='img/responseButtonOffersNo0_wht.png' class='respPic'></div><div class='trialDiv'><img src='Fruit/cherrie.png'><br><font class='baseline'><strong>Cherry Chances</strong><p><strong><font class='negOutcome'>You LOST</font><p>You bet: 3</strong></font> &nbsp; &nbsp; &nbsp; &nbsp; &nbsp; &nbsp;<font class='negOutcome'>You receive: <strong>0</strong></font></div>","null","1","Cherry Chances","Fruit/cherrie.png","Lost","0.2,0.8","8","0.2","4","2","",""
"html-keyboard-response","16","92149","0.0-11.0-1.2","60599946259dc97d30e2001f","bdp_rwlrn","Mon Mar 13 2023 19:43:25 GMT-0700 (Pacific Daylight Time)","422716","Trustworthy,Untrustworthy","","1983","","","","decision","","<div class='trialDiv'><img src='Fruit/watermelon.png'><br><font class='baseline'><strong>Watermelon Win$</strong><p>Choose number of points to bet.</font><div class='respPicDiv'><img src='img/responseButtonOffersNo0L.png' class='respPic'></div></div>","4","1","Watermelon Win$","Fruit/watermelon.png","Won","0.2,0.65","13","0.2","9","3","",""
"html-keyboard-response","17","92404","0.0-11.0-2.2","60599946259dc97d30e2001f","bdp_rwlrn","Mon Mar 13 2023 19:43:25 GMT-0700 (Pacific Daylight Time)","422716","Trustworthy,Untrustworthy","","null","","","","decisionFB","","<div class='trialDiv'><img src='Fruit/watermelon.png'><br><font class='baseline'><strong>Watermelon Win$</strong><p>Choose number of points to bet.</font><div class='respPicDiv'><img src='img/responseButtonOffersNo0L4.png' class='respPic'></div></div>","null","1","Watermelon Win$","Fruit/watermelon.png","Won","0.2,0.65","13","0.2","5","3","",""
"html-keyboard-response","18","93408","0.0-11.0-3.2","60599946259dc97d30e2001f","bdp_rwlrn","Mon Mar 13 2023 19:43:25 GMT-0700 (Pacific Daylight Time)","422716","Trustworthy,Untrustworthy","","null","","","","feedback","","<div class='respPicDiv'><img src='img/responseButtonOffersNo0_wht.png' class='respPic'></div><div class='trialDiv'><img src='Fruit/watermelon.png'><br><font class='baseline'><strong>Watermelon Win$</strong><p><strong><font class='posOutcome'>You WON</font><p>You bet: 4</strong></font> &nbsp; &nbsp; &nbsp; &nbsp; &nbsp; &nbsp;<font class='posOutcome'>you receive: <strong>8</strong></font></div>","null","1","Watermelon Win$","Fruit/watermelon.png","Won","0.2,0.65","13","0.2","13","3","",""
"html-keyboard-response","19","95989","0.0-11.0-1.3","60599946259dc97d30e2001f","bdp_rwlrn","Mon Mar 13 2023 19:43:25 GMT-0700 (Pacific Daylight Time)","422716","Trustworthy,Untrustworthy","","2580","","","","decision","","<div class='trialDiv'><img src='Fruit/papayas.png'><br><font class='baseline'><strong>Papaya Payday</strong><p>Choose number of points to bet.</font><div class='respPicDiv'><img src='img/responseButtonOffersNo0L.png' class='respPic'></div></div>","3","2","Papaya Payday","Fruit/papayas.png","Won","0.65,0.2","13","0.65","18","4","",""
"html-keyboard-response","20","96246","0.0-11.0-2.3","60599946259dc97d30e2001f","bdp_rwlrn","Mon Mar 13 2023 19:43:25 GMT-0700 (Pacific Daylight Time)","422716","Trustworthy,Untrustworthy","","null","","","","decisionFB","","<div class='trialDiv'><img src='Fruit/papayas.png'><br><font class='baseline'><strong>Papaya Payday</strong><p>Choose number of points to bet.</font><div class='respPicDiv'><img src='img/responseButtonOffersNo0L3.png' class='respPic'></div></div>","null","2","Papaya Payday","Fruit/papayas.png","Won","0.65,0.2","13","0.65","15","4","",""
"html-keyboard-response","21","97258","0.0-11.0-3.3","60599946259dc97d30e2001f","bdp_rwlrn","Mon Mar 13 2023 19:43:25 GMT-0700 (Pacific Daylight Time)","422716","Trustworthy,Untrustworthy","","null","","","","feedback","","<div class='respPicDiv'><img src='img/responseButtonOffersNo0_wht.png' class='respPic'></div><div class='trialDiv'><img src='Fruit/papayas.png'><br><font class='baseline'><strong>Papaya Payday</strong><p><strong><font class='posOutcome'>You WON</font><p>You bet: 3</strong></font> &nbsp; &nbsp; &nbsp; &nbsp; &nbsp; &nbsp;<font class='posOutcome'>you receive: <strong>6</strong></font></div>","null","2","Papaya Payday","Fruit/papayas.png","Won","0.65,0.2","13","0.65","21","4","",""
"html-keyboard-response","22","99285","0.0-11.0-1.4","60599946259dc97d30e2001f","bdp_rwlrn","Mon Mar 13 2023 19:43:25 GMT-0700 (Pacific Daylight Time)","422716","Trustworthy,Untrustworthy","","2027","","","","decision","","<div class='trialDiv'><img src='Fruit/watermelon.png'><br><font class='baseline'><strong>Watermelon Win$</strong><p>Choose number of points to bet.</font><div class='respPicDiv'><img src='img/responseButtonOffersNo0L.png' class='respPic'></div></div>","3","2","Watermelon Win$","Fruit/watermelon.png","Lost","0.2,0.65","13","0.2","26","5","",""
"html-keyboard-response","23","99551","0.0-11.0-2.4","60599946259dc97d30e2001f","bdp_rwlrn","Mon Mar 13 2023 19:43:25 GMT-0700 (Pacific Daylight Time)","422716","Trustworthy,Untrustworthy","","null","","","","decisionFB","","<div class='trialDiv'><img src='Fruit/watermelon.png'><br><font class='baseline'><strong>Watermelon Win$</strong><p>Choose number of points to bet.</font><div class='respPicDiv'><img src='img/responseButtonOffersNo0L3.png' class='respPic'></div></div>","null","2","Watermelon Win$","Fruit/watermelon.png","Lost","0.2,0.65","13","0.2","23","5","",""
"html-keyboard-response","24","100554","0.0-11.0-3.4","60599946259dc97d30e2001f","bdp_rwlrn","Mon Mar 13 2023 19:43:25 GMT-0700 (Pacific Daylight Time)","422716","Trustworthy,Untrustworthy","","null","","","","feedback","","<div class='respPicDiv'><img src='img/responseButtonOffersNo0_wht.png' class='respPic'></div><div class='trialDiv'><img src='Fruit/watermelon.png'><br><font class='baseline'><strong>Watermelon Win$</strong><p><strong><font class='negOutcome'>You LOST</font><p>You bet: 3</strong></font> &nbsp; &nbsp; &nbsp; &nbsp; &nbsp; &nbsp;<font class='negOutcome'>You receive: <strong>0</strong></font></div>","null","2","Watermelon Win$","Fruit/watermelon.png","Lost","0.2,0.65","13","0.2","23","5","",""
"html-keyboard-response","25","103070","0.0-11.0-1.5","60599946259dc97d30e2001f","bdp_rwlrn","Mon Mar 13 2023 19:43:25 GMT-0700 (Pacific Daylight Time)","422716","Trustworthy,Untrustworthy","","2514","","","","decision","","<div class='trialDiv'><img src='Fruit/cherrie.png'><br><font class='baseline'><strong>Cherry Chances</strong><p>Choose number of points to bet.</font><div class='respPicDiv'><img src='img/responseButtonOffersNo0L.png' class='respPic'></div></div>","5","2","Cherry Chances","Fruit/cherrie.png","Lost","0.2,0.8","8","0.2","28","6","",""
"html-keyboard-response","26","103324","0.0-11.0-2.5","60599946259dc97d30e2001f","bdp_rwlrn","Mon Mar 13 2023 19:43:25 GMT-0700 (Pacific Daylight Time)","422716","Trustworthy,Untrustworthy","","null","","","","decisionFB","","<div class='trialDiv'><img src='Fruit/cherrie.png'><br><font class='baseline'><strong>Cherry Chances</strong><p>Choose number of points to bet.</font><div class='respPicDiv'><img src='img/responseButtonOffersNo0L5.png' class='respPic'></div></div>","null","2","Cherry Chances","Fruit/cherrie.png","Lost","0.2,0.8","8","0.2","23","6","",""
"html-keyboard-response","27","104338","0.0-11.0-3.5","60599946259dc97d30e2001f","bdp_rwlrn","Mon Mar 13 2023 19:43:25 GMT-0700 (Pacific Daylight Time)","422716","Trustworthy,Untrustworthy","","null","","","","feedback","","<div class='respPicDiv'><img src='img/responseButtonOffersNo0_wht.png' class='respPic'></div><div class='trialDiv'><img src='Fruit/cherrie.png'><br><font class='baseline'><strong>Cherry Chances</strong><p><strong><font class='negOutcome'>You LOST</font><p>You bet: 5</strong></font> &nbsp; &nbsp; &nbsp; &nbsp; &nbsp; &nbsp;<font class='negOutcome'>You receive: <strong>0</strong></font></div>","null","2","Cherry Chances","Fruit/cherrie.png","Lost","0.2,0.8","8","0.2","23","6","",""
"html-keyboard-response","28","105421","0.0-11.0-1.6","60599946259dc97d30e2001f","bdp_rwlrn","Mon Mar 13 2023 19:43:25 GMT-0700 (Pacific Daylight Time)","422716","Trustworthy,Untrustworthy","","1082","","","","decision","","<div class='trialDiv'><img src='Fruit/watermelon.png'><br><font class='baseline'><strong>Watermelon Win$</strong><p>Choose number of points to bet.</font><div class='respPicDiv'><img src='img/responseButtonOffersNo0L.png' class='respPic'></div></div>","5","3","Watermelon Win$","Fruit/watermelon.png","Lost","0.2,0.65","13","0.2","28","7","",""
"html-keyboard-response","29","105681","0.0-11.0-2.6","60599946259dc97d30e2001f","bdp_rwlrn","Mon Mar 13 2023 19:43:25 GMT-0700 (Pacific Daylight Time)","422716","Trustworthy,Untrustworthy","","null","","","","decisionFB","","<div class='trialDiv'><img src='Fruit/watermelon.png'><br><font class='baseline'><strong>Watermelon Win$</strong><p>Choose number of points to bet.</font><div class='respPicDiv'><img src='img/responseButtonOffersNo0L5.png' class='respPic'></div></div>","null","3","Watermelon Win$","Fruit/watermelon.png","Lost","0.2,0.65","13","0.2","23","7","",""
"html-keyboard-response","30","106689","0.0-11.0-3.6","60599946259dc97d30e2001f","bdp_rwlrn","Mon Mar 13 2023 19:43:25 GMT-0700 (Pacific Daylight Time)","422716","Trustworthy,Untrustworthy","","null","","","","feedback","","<div class='respPicDiv'><img src='img/responseButtonOffersNo0_wht.png' class='respPic'></div><div class='trialDiv'><img src='Fruit/watermelon.png'><br><font class='baseline'><strong>Watermelon Win$</strong><p><strong><font class='negOutcome'>You LOST</font><p>You bet: 5</strong></font> &nbsp; &nbsp; &nbsp; &nbsp; &nbsp; &nbsp;<font class='negOutcome'>You receive: <strong>0</strong></font></div>","null","3","Watermelon Win$","Fruit/watermelon.png","Lost","0.2,0.65","13","0.2","23","7","",""
"html-keyboard-response","31","108453","0.0-11.0-1.7","60599946259dc97d30e2001f","bdp_rwlrn","Mon Mar 13 2023 19:43:25 GMT-0700 (Pacific Daylight Time)","422716","Trustworthy,Untrustworthy","","1764","","","","decision","","<div class='trialDiv'><img src='Fruit/cherrie.png'><br><font class='baseline'><strong>Cherry Chances</strong><p>Choose number of points to bet.</font><div class='respPicDiv'><img src='img/responseButtonOffersNo0L.png' class='respPic'></div></div>","5","3","Cherry Chances","Fruit/cherrie.png","Lost","0.2,0.8","8","0.2","28","8","",""
"html-keyboard-response","32","108718","0.0-11.0-2.7","60599946259dc97d30e2001f","bdp_rwlrn","Mon Mar 13 2023 19:43:25 GMT-0700 (Pacific Daylight Time)","422716","Trustworthy,Untrustworthy","","null","","","","decisionFB","","<div class='trialDiv'><img src='Fruit/cherrie.png'><br><font class='baseline'><strong>Cherry Chances</strong><p>Choose number of points to bet.</font><div class='respPicDiv'><img src='img/responseButtonOffersNo0L5.png' class='respPic'></div></div>","null","3","Cherry Chances","Fruit/cherrie.png","Lost","0.2,0.8","8","0.2","23","8","",""
"html-keyboard-response","33","109733","0.0-11.0-3.7","60599946259dc97d30e2001f","bdp_rwlrn","Mon Mar 13 2023 19:43:25 GMT-0700 (Pacific Daylight Time)","422716","Trustworthy,Untrustworthy","","null","","","","feedback","","<div class='respPicDiv'><img src='img/responseButtonOffersNo0_wht.png' class='respPic'></div><div class='trialDiv'><img src='Fruit/cherrie.png'><br><font class='baseline'><strong>Cherry Chances</strong><p><strong><font class='negOutcome'>You LOST</font><p>You bet: 5</strong></font> &nbsp; &nbsp; &nbsp; &nbsp; &nbsp; &nbsp;<font class='negOutcome'>You receive: <strong>0</strong></font></div>","null","3","Cherry Chances","Fruit/cherrie.png","Lost","0.2,0.8","8","0.2","23","8","",""
"html-keyboard-response","34","111557","0.0-11.0-1.8","60599946259dc97d30e2001f","bdp_rwlrn","Mon Mar 13 2023 19:43:25 GMT-0700 (Pacific Daylight Time)","422716","Trustworthy,Untrustworthy","","1823","","","","decision","","<div class='trialDiv'><img src='Fruit/papayas.png'><br><font class='baseline'><strong>Papaya Payday</strong><p>Choose number of points to bet.</font><div class='respPicDiv'><img src='img/responseButtonOffersNo0L.png' class='respPic'></div></div>","4","3","Papaya Payday","Fruit/papayas.png","Lost","0.65,0.2","13","0.65","28","9","",""
"html-keyboard-response","35","111813","0.0-11.0-2.8","60599946259dc97d30e2001f","bdp_rwlrn","Mon Mar 13 2023 19:43:25 GMT-0700 (Pacific Daylight Time)","422716","Trustworthy,Untrustworthy","","null","","","","decisionFB","","<div class='trialDiv'><img src='Fruit/papayas.png'><br><font class='baseline'><strong>Papaya Payday</strong><p>Choose number of points to bet.</font><div class='respPicDiv'><img src='img/responseButtonOffersNo0L4.png' class='respPic'></div></div>","null","3","Papaya Payday","Fruit/papayas.png","Lost","0.65,0.2","13","0.65","24","9","",""
"html-keyboard-response","36","112816","0.0-11.0-3.8","60599946259dc97d30e2001f","bdp_rwlrn","Mon Mar 13 2023 19:43:25 GMT-0700 (Pacific Daylight Time)","422716","Trustworthy,Untrustworthy","","null","","","","feedback","","<div class='respPicDiv'><img src='img/responseButtonOffersNo0_wht.png' class='respPic'></div><div class='trialDiv'><img src='Fruit/papayas.png'><br><font class='baseline'><strong>Papaya Payday</strong><p><strong><font class='negOutcome'>You LOST</font><p>You bet: 4</strong></font> &nbsp; &nbsp; &nbsp; &nbsp; &nbsp; &nbsp;<font class='negOutcome'>You receive: <strong>0</strong></font></div>","null","3","Papaya Payday","Fruit/papayas.png","Lost","0.65,0.2","13","0.65","24","9","",""
"html-keyboard-response","37","113862","0.0-11.0-1.9","60599946259dc97d30e2001f","bdp_rwlrn","Mon Mar 13 2023 19:43:25 GMT-0700 (Pacific Daylight Time)","422716","Trustworthy,Untrustworthy","","1046","","","","decision","","<div class='trialDiv'><img src='Fruit/cherrie.png'><br><font class='baseline'><strong>Cherry Chances</strong><p>Choose number of points to bet.</font><div class='respPicDiv'><img src='img/responseButtonOffersNo0L.png' class='respPic'></div></div>","1","4","Cherry Chances","Fruit/cherrie.png","Lost","0.2,0.8","8","0.2","29","10","",""
"html-keyboard-response","38","114127","0.0-11.0-2.9","60599946259dc97d30e2001f","bdp_rwlrn","Mon Mar 13 2023 19:43:25 GMT-0700 (Pacific Daylight Time)","422716","Trustworthy,Untrustworthy","","null","","","","decisionFB","","<div class='trialDiv'><img src='Fruit/cherrie.png'><br><font class='baseline'><strong>Cherry Chances</strong><p>Choose number of points to bet.</font><div class='respPicDiv'><img src='img/responseButtonOffersNo0L1.png' class='respPic'></div></div>","null","4","Cherry Chances","Fruit/cherrie.png","Lost","0.2,0.8","8","0.2","28","10","",""
"html-keyboard-response","39","115129","0.0-11.0-3.9","60599946259dc97d30e2001f","bdp_rwlrn","Mon Mar 13 2023 19:43:25 GMT-0700 (Pacific Daylight Time)","422716","Trustworthy,Untrustworthy","","null","","","","feedback","","<div class='respPicDiv'><img src='img/responseButtonOffersNo0_wht.png' class='respPic'></div><div class='trialDiv'><img src='Fruit/cherrie.png'><br><font class='baseline'><strong>Cherry Chances</strong><p><strong><font class='negOutcome'>You LOST</font><p>You bet: 1</strong></font> &nbsp; &nbsp; &nbsp; &nbsp; &nbsp; &nbsp;<font class='negOutcome'>You receive: <strong>0</strong></font></div>","null","4","Cherry Chances","Fruit/cherrie.png","Lost","0.2,0.8","8","0.2","28","10","",""
"html-keyboard-response","40","116661","0.0-11.0-1.10","60599946259dc97d30e2001f","bdp_rwlrn","Mon Mar 13 2023 19:43:25 GMT-0700 (Pacific Daylight Time)","422716","Trustworthy,Untrustworthy","","1531","","","","decision","","<div class='trialDiv'><img src='Fruit/papayas.png'><br><font class='baseline'><strong>Papaya Payday</strong><p>Choose number of points to bet.</font><div class='respPicDiv'><img src='img/responseButtonOffersNo0L.png' class='respPic'></div></div>","3","4","Papaya Payday","Fruit/papayas.png","Won","0.65,0.2","13","0.65","33","11","",""
"html-keyboard-response","41","116926","0.0-11.0-2.10","60599946259dc97d30e2001f","bdp_rwlrn","Mon Mar 13 2023 19:43:25 GMT-0700 (Pacific Daylight Time)","422716","Trustworthy,Untrustworthy","","null","","","","decisionFB","","<div class='trialDiv'><img src='Fruit/papayas.png'><br><font class='baseline'><strong>Papaya Payday</strong><p>Choose number of points to bet.</font><div class='respPicDiv'><img src='img/responseButtonOffersNo0L3.png' class='respPic'></div></div>","null","4","Papaya Payday","Fruit/papayas.png","Won","0.65,0.2","13","0.65","30","11","",""
"html-keyboard-response","42","117940","0.0-11.0-3.10","60599946259dc97d30e2001f","bdp_rwlrn","Mon Mar 13 2023 19:43:25 GMT-0700 (Pacific Daylight Time)","422716","Trustworthy,Untrustworthy","","null","","","","feedback","","<div class='respPicDiv'><img src='img/responseButtonOffersNo0_wht.png' class='respPic'></div><div class='trialDiv'><img src='Fruit/papayas.png'><br><font class='baseline'><strong>Papaya Payday</strong><p><strong><font class='posOutcome'>You WON</font><p>You bet: 3</strong></font> &nbsp; &nbsp; &nbsp; &nbsp; &nbsp; &nbsp;<font class='posOutcome'>you receive: <strong>6</strong></font></div>","null","4","Papaya Payday","Fruit/papayas.png","Won","0.65,0.2","13","0.65","36","11","",""
"html-keyboard-response","43","119669","0.0-11.0-1.11","60599946259dc97d30e2001f","bdp_rwlrn","Mon Mar 13 2023 19:43:25 GMT-0700 (Pacific Daylight Time)","422716","Trustworthy,Untrustworthy","","1728","","","","decision","","<div class='trialDiv'><img src='Fruit/watermelon.png'><br><font class='baseline'><strong>Watermelon Win$</strong><p>Choose number of points to bet.</font><div class='respPicDiv'><img src='img/responseButtonOffersNo0L.png' class='respPic'></div></div>","3","4","Watermelon Win$","Fruit/watermelon.png","Lost","0.2,0.65","13","0.2","41","12","",""
"html-keyboard-response","44","119931","0.0-11.0-2.11","60599946259dc97d30e2001f","bdp_rwlrn","Mon Mar 13 2023 19:43:25 GMT-0700 (Pacific Daylight Time)","422716","Trustworthy,Untrustworthy","","null","","","","decisionFB","","<div class='trialDiv'><img src='Fruit/watermelon.png'><br><font class='baseline'><strong>Watermelon Win$</strong><p>Choose number of points to bet.</font><div class='respPicDiv'><img src='img/responseButtonOffersNo0L3.png' class='respPic'></div></div>","null","4","Watermelon Win$","Fruit/watermelon.png","Lost","0.2,0.65","13","0.2","38","12","",""
"html-keyboard-response","45","120947","0.0-11.0-3.11","60599946259dc97d30e2001f","bdp_rwlrn","Mon Mar 13 2023 19:43:25 GMT-0700 (Pacific Daylight Time)","422716","Trustworthy,Untrustworthy","","null","","","","feedback","","<div class='respPicDiv'><img src='img/responseButtonOffersNo0_wht.png' class='respPic'></div><div class='trialDiv'><img src='Fruit/watermelon.png'><br><font class='baseline'><strong>Watermelon Win$</strong><p><strong><font class='negOutcome'>You LOST</font><p>You bet: 3</strong></font> &nbsp; &nbsp; &nbsp; &nbsp; &nbsp; &nbsp;<font class='negOutcome'>You receive: <strong>0</strong></font></div>","null","4","Watermelon Win$","Fruit/watermelon.png","Lost","0.2,0.65","13","0.2","38","12","",""
"html-keyboard-response","46","122189","0.0-11.0-1.12","60599946259dc97d30e2001f","bdp_rwlrn","Mon Mar 13 2023 19:43:25 GMT-0700 (Pacific Daylight Time)","422716","Trustworthy,Untrustworthy","","1242","","","","decision","","<div class='trialDiv'><img src='Fruit/cherrie.png'><br><font class='baseline'><strong>Cherry Chances</strong><p>Choose number of points to bet.</font><div class='respPicDiv'><img src='img/responseButtonOffersNo0L.png' class='respPic'></div></div>","2","5","Cherry Chances","Fruit/cherrie.png","Won","0.2,0.8","8","0.2","43","13","",""
"html-keyboard-response","47","122444","0.0-11.0-2.12","60599946259dc97d30e2001f","bdp_rwlrn","Mon Mar 13 2023 19:43:25 GMT-0700 (Pacific Daylight Time)","422716","Trustworthy,Untrustworthy","","null","","","","decisionFB","","<div class='trialDiv'><img src='Fruit/cherrie.png'><br><font class='baseline'><strong>Cherry Chances</strong><p>Choose number of points to bet.</font><div class='respPicDiv'><img src='img/responseButtonOffersNo0L2.png' class='respPic'></div></div>","null","5","Cherry Chances","Fruit/cherrie.png","Won","0.2,0.8","8","0.2","41","13","",""
"html-keyboard-response","48","123450","0.0-11.0-3.12","60599946259dc97d30e2001f","bdp_rwlrn","Mon Mar 13 2023 19:43:25 GMT-0700 (Pacific Daylight Time)","422716","Trustworthy,Untrustworthy","","null","","","","feedback","","<div class='respPicDiv'><img src='img/responseButtonOffersNo0_wht.png' class='respPic'></div><div class='trialDiv'><img src='Fruit/cherrie.png'><br><font class='baseline'><strong>Cherry Chances</strong><p><strong><font class='posOutcome'>You WON</font><p>You bet: 2</strong></font> &nbsp; &nbsp; &nbsp; &nbsp; &nbsp; &nbsp;<font class='posOutcome'>you receive: <strong>4</strong></font></div>","null","5","Cherry Chances","Fruit/cherrie.png","Won","0.2,0.8","8","0.2","45","13","",""
"html-keyboard-response","49","124638","0.0-11.0-1.13","60599946259dc97d30e2001f","bdp_rwlrn","Mon Mar 13 2023 19:43:25 GMT-0700 (Pacific Daylight Time)","422716","Trustworthy,Untrustworthy","","1187","","","","decision","","<div class='trialDiv'><img src='Fruit/watermelon.png'><br><font class='baseline'><strong>Watermelon Win$</strong><p>Choose number of points to bet.</font><div class='respPicDiv'><img src='img/responseButtonOffersNo0L.png' class='respPic'></div></div>","3","5","Watermelon Win$","Fruit/watermelon.png","Lost","0.2,0.65","13","0.2","50","14","",""
"html-keyboard-response","50","124900","0.0-11.0-2.13","60599946259dc97d30e2001f","bdp_rwlrn","Mon Mar 13 2023 19:43:25 GMT-0700 (Pacific Daylight Time)","422716","Trustworthy,Untrustworthy","","null","","","","decisionFB","","<div class='trialDiv'><img src='Fruit/watermelon.png'><br><font class='baseline'><strong>Watermelon Win$</strong><p>Choose number of points to bet.</font><div class='respPicDiv'><img src='img/responseButtonOffersNo0L3.png' class='respPic'></div></div>","null","5","Watermelon Win$","Fruit/watermelon.png","Lost","0.2,0.65","13","0.2","47","14","",""
"html-keyboard-response","51","125912","0.0-11.0-3.13","60599946259dc97d30e2001f","bdp_rwlrn","Mon Mar 13 2023 19:43:25 GMT-0700 (Pacific Daylight Time)","422716","Trustworthy,Untrustworthy","","null","","","","feedback","","<div class='respPicDiv'><img src='img/responseButtonOffersNo0_wht.png' class='respPic'></div><div class='trialDiv'><img src='Fruit/watermelon.png'><br><font class='baseline'><strong>Watermelon Win$</strong><p><strong><font class='negOutcome'>You LOST</font><p>You bet: 3</strong></font> &nbsp; &nbsp; &nbsp; &nbsp; &nbsp; &nbsp;<font class='negOutcome'>You receive: <strong>0</strong></font></div>","null","5","Watermelon Win$","Fruit/watermelon.png","Lost","0.2,0.65","13","0.2","47","14","",""
"html-keyboard-response","52","128101","0.0-11.0-1.14","60599946259dc97d30e2001f","bdp_rwlrn","Mon Mar 13 2023 19:43:25 GMT-0700 (Pacific Daylight Time)","422716","Trustworthy,Untrustworthy","","2188","","","","decision","","<div class='trialDiv'><img src='Fruit/papayas.png'><br><font class='baseline'><strong>Papaya Payday</strong><p>Choose number of points to bet.</font><div class='respPicDiv'><img src='img/responseButtonOffersNo0L.png' class='respPic'></div></div>","4","5","Papaya Payday","Fruit/papayas.png","Won","0.65,0.2","13","0.65","52","15","",""
"html-keyboard-response","53","128363","0.0-11.0-2.14","60599946259dc97d30e2001f","bdp_rwlrn","Mon Mar 13 2023 19:43:25 GMT-0700 (Pacific Daylight Time)","422716","Trustworthy,Untrustworthy","","null","","","","decisionFB","","<div class='trialDiv'><img src='Fruit/papayas.png'><br><font class='baseline'><strong>Papaya Payday</strong><p>Choose number of points to bet.</font><div class='respPicDiv'><img src='img/responseButtonOffersNo0L4.png' class='respPic'></div></div>","null","5","Papaya Payday","Fruit/papayas.png","Won","0.65,0.2","13","0.65","48","15","",""
"html-keyboard-response","54","129365","0.0-11.0-3.14","60599946259dc97d30e2001f","bdp_rwlrn","Mon Mar 13 2023 19:43:25 GMT-0700 (Pacific Daylight Time)","422716","Trustworthy,Untrustworthy","","null","","","","feedback","","<div class='respPicDiv'><img src='img/responseButtonOffersNo0_wht.png' class='respPic'></div><div class='trialDiv'><img src='Fruit/papayas.png'><br><font class='baseline'><strong>Papaya Payday</strong><p><strong><font class='posOutcome'>You WON</font><p>You bet: 4</strong></font> &nbsp; &nbsp; &nbsp; &nbsp; &nbsp; &nbsp;<font class='posOutcome'>you receive: <strong>8</strong></font></div>","null","5","Papaya Payday","Fruit/papayas.png","Won","0.65,0.2","13","0.65","56","15","",""
"html-keyboard-response","55","130510","0.0-11.0-1.15","60599946259dc97d30e2001f","bdp_rwlrn","Mon Mar 13 2023 19:43:25 GMT-0700 (Pacific Daylight Time)","422716","Trustworthy,Untrustworthy","","1144","","","","decision","","<div class='trialDiv'><img src='Fruit/cherrie.png'><br><font class='baseline'><strong>Cherry Chances</strong><p>Choose number of points to bet.</font><div class='respPicDiv'><img src='img/responseButtonOffersNo0L.png' class='respPic'></div></div>","1","6","Cherry Chances","Fruit/cherrie.png","Lost","0.2,0.8","8","0.2","61","16","",""
"html-keyboard-response","56","130768","0.0-11.0-2.15","60599946259dc97d30e2001f","bdp_rwlrn","Mon Mar 13 2023 19:43:25 GMT-0700 (Pacific Daylight Time)","422716","Trustworthy,Untrustworthy","","null","","","","decisionFB","","<div class='trialDiv'><img src='Fruit/cherrie.png'><br><font class='baseline'><strong>Cherry Chances</strong><p>Choose number of points to bet.</font><div class='respPicDiv'><img src='img/responseButtonOffersNo0L1.png' class='respPic'></div></div>","null","6","Cherry Chances","Fruit/cherrie.png","Lost","0.2,0.8","8","0.2","60","16","",""
"html-keyboard-response","57","131771","0.0-11.0-3.15","60599946259dc97d30e2001f","bdp_rwlrn","Mon Mar 13 2023 19:43:25 GMT-0700 (Pacific Daylight Time)","422716","Trustworthy,Untrustworthy","","null","","","","feedback","","<div class='respPicDiv'><img src='img/responseButtonOffersNo0_wht.png' class='respPic'></div><div class='trialDiv'><img src='Fruit/cherrie.png'><br><font class='baseline'><strong>Cherry Chances</strong><p><strong><font class='negOutcome'>You LOST</font><p>You bet: 1</strong></font> &nbsp; &nbsp; &nbsp; &nbsp; &nbsp; &nbsp;<font class='negOutcome'>You receive: <strong>0</strong></font></div>","null","6","Cherry Chances","Fruit/cherrie.png","Lost","0.2,0.8","8","0.2","60","16","",""
"html-keyboard-response","58","133173","0.0-11.0-1.16","60599946259dc97d30e2001f","bdp_rwlrn","Mon Mar 13 2023 19:43:25 GMT-0700 (Pacific Daylight Time)","422716","Trustworthy,Untrustworthy","","1402","","","","decision","","<div class='trialDiv'><img src='Fruit/watermelon.png'><br><font class='baseline'><strong>Watermelon Win$</strong><p>Choose number of points to bet.</font><div class='respPicDiv'><img src='img/responseButtonOffersNo0L.png' class='respPic'></div></div>","5","6","Watermelon Win$","Fruit/watermelon.png","Lost","0.2,0.65","13","0.2","65","17","",""
"html-keyboard-response","59","133431","0.0-11.0-2.16","60599946259dc97d30e2001f","bdp_rwlrn","Mon Mar 13 2023 19:43:25 GMT-0700 (Pacific Daylight Time)","422716","Trustworthy,Untrustworthy","","null","","","","decisionFB","","<div class='trialDiv'><img src='Fruit/watermelon.png'><br><font class='baseline'><strong>Watermelon Win$</strong><p>Choose number of points to bet.</font><div class='respPicDiv'><img src='img/responseButtonOffersNo0L5.png' class='respPic'></div></div>","null","6","Watermelon Win$","Fruit/watermelon.png","Lost","0.2,0.65","13","0.2","60","17","",""
"html-keyboard-response","60","134438","0.0-11.0-3.16","60599946259dc97d30e2001f","bdp_rwlrn","Mon Mar 13 2023 19:43:25 GMT-0700 (Pacific Daylight Time)","422716","Trustworthy,Untrustworthy","","null","","","","feedback","","<div class='respPicDiv'><img src='img/responseButtonOffersNo0_wht.png' class='respPic'></div><div class='trialDiv'><img src='Fruit/watermelon.png'><br><font class='baseline'><strong>Watermelon Win$</strong><p><strong><font class='negOutcome'>You LOST</font><p>You bet: 5</strong></font> &nbsp; &nbsp; &nbsp; &nbsp; &nbsp; &nbsp;<font class='negOutcome'>You receive: <strong>0</strong></font></div>","null","6","Watermelon Win$","Fruit/watermelon.png","Lost","0.2,0.65","13","0.2","60","17","",""
"html-keyboard-response","61","134934","0.0-11.0-1.17","60599946259dc97d30e2001f","bdp_rwlrn","Mon Mar 13 2023 19:43:25 GMT-0700 (Pacific Daylight Time)","422716","Trustworthy,Untrustworthy","","496","","","","decision","","<div class='trialDiv'><img src='Fruit/papayas.png'><br><font class='baseline'><strong>Papaya Payday</strong><p>Choose number of points to bet.</font><div class='respPicDiv'><img src='img/responseButtonOffersNo0L.png' class='respPic'></div></div>","5","6","Papaya Payday","Fruit/papayas.png","Won","0.65,0.2","13","0.65","65","18","",""
"html-keyboard-response","62","135188","0.0-11.0-2.17","60599946259dc97d30e2001f","bdp_rwlrn","Mon Mar 13 2023 19:43:25 GMT-0700 (Pacific Daylight Time)","422716","Trustworthy,Untrustworthy","","null","","","","decisionFB","","<div class='trialDiv'><img src='Fruit/papayas.png'><br><font class='baseline'><strong>Papaya Payday</strong><p>Choose number of points to bet.</font><div class='respPicDiv'><img src='img/responseButtonOffersNo0L5.png' class='respPic'></div></div>","null","6","Papaya Payday","Fruit/papayas.png","Won","0.65,0.2","13","0.65","60","18","",""
"html-keyboard-response","63","136196","0.0-11.0-3.17","60599946259dc97d30e2001f","bdp_rwlrn","Mon Mar 13 2023 19:43:25 GMT-0700 (Pacific Daylight Time)","422716","Trustworthy,Untrustworthy","","null","","","","feedback","","<div class='respPicDiv'><img src='img/responseButtonOffersNo0_wht.png' class='respPic'></div><div class='trialDiv'><img src='Fruit/papayas.png'><br><font class='baseline'><strong>Papaya Payday</strong><p><strong><font class='posOutcome'>You WON</font><p>You bet: 5</strong></font> &nbsp; &nbsp; &nbsp; &nbsp; &nbsp; &nbsp;<font class='posOutcome'>you receive: <strong>10</strong></font></div>","null","6","Papaya Payday","Fruit/papayas.png","Won","0.65,0.2","13","0.65","70","18","",""
"html-keyboard-response","64","136949","0.0-11.0-1.18","60599946259dc97d30e2001f","bdp_rwlrn","Mon Mar 13 2023 19:43:25 GMT-0700 (Pacific Daylight Time)","422716","Trustworthy,Untrustworthy","","752","","","","decision","","<div class='trialDiv'><img src='Fruit/cherrie.png'><br><font class='baseline'><strong>Cherry Chances</strong><p>Choose number of points to bet.</font><div class='respPicDiv'><img src='img/responseButtonOffersNo0L.png' class='respPic'></div></div>","1","7","Cherry Chances","Fruit/cherrie.png","Lost","0.2,0.8","8","0.2","75","19","",""
"html-keyboard-response","65","137214","0.0-11.0-2.18","60599946259dc97d30e2001f","bdp_rwlrn","Mon Mar 13 2023 19:43:25 GMT-0700 (Pacific Daylight Time)","422716","Trustworthy,Untrustworthy","","null","","","","decisionFB","","<div class='trialDiv'><img src='Fruit/cherrie.png'><br><font class='baseline'><strong>Cherry Chances</strong><p>Choose number of points to bet.</font><div class='respPicDiv'><img src='img/responseButtonOffersNo0L1.png' class='respPic'></div></div>","null","7","Cherry Chances","Fruit/cherrie.png","Lost","0.2,0.8","8","0.2","74","19","",""
"html-keyboard-response","66","138216","0.0-11.0-3.18","60599946259dc97d30e2001f","bdp_rwlrn","Mon Mar 13 2023 19:43:25 GMT-0700 (Pacific Daylight Time)","422716","Trustworthy,Untrustworthy","","null","","","","feedback","","<div class='respPicDiv'><img src='img/responseButtonOffersNo0_wht.png' class='respPic'></div><div class='trialDiv'><img src='Fruit/cherrie.png'><br><font class='baseline'><strong>Cherry Chances</strong><p><strong><font class='negOutcome'>You LOST</font><p>You bet: 1</strong></font> &nbsp; &nbsp; &nbsp; &nbsp; &nbsp; &nbsp;<font class='negOutcome'>You receive: <strong>0</strong></font></div>","null","7","Cherry Chances","Fruit/cherrie.png","Lost","0.2,0.8","8","0.2","74","19","",""
"html-keyboard-response","67","140285","0.0-11.0-1.19","60599946259dc97d30e2001f","bdp_rwlrn","Mon Mar 13 2023 19:43:25 GMT-0700 (Pacific Daylight Time)","422716","Trustworthy,Untrustworthy","","2068","","","","decision","","<div class='trialDiv'><img src='Fruit/watermelon.png'><br><font class='baseline'><strong>Watermelon Win$</strong><p>Choose number of points to bet.</font><div class='respPicDiv'><img src='img/responseButtonOffersNo0L.png' class='respPic'></div></div>","3","7","Watermelon Win$","Fruit/watermelon.png","Lost","0.2,0.65","13","0.2","79","20","",""
"html-keyboard-response","68","140545","0.0-11.0-2.19","60599946259dc97d30e2001f","bdp_rwlrn","Mon Mar 13 2023 19:43:25 GMT-0700 (Pacific Daylight Time)","422716","Trustworthy,Untrustworthy","","null","","","","decisionFB","","<div class='trialDiv'><img src='Fruit/watermelon.png'><br><font class='baseline'><strong>Watermelon Win$</strong><p>Choose number of points to bet.</font><div class='respPicDiv'><img src='img/responseButtonOffersNo0L3.png' class='respPic'></div></div>","null","7","Watermelon Win$","Fruit/watermelon.png","Lost","0.2,0.65","13","0.2","76","20","",""
"html-keyboard-response","69","141557","0.0-11.0-3.19","60599946259dc97d30e2001f","bdp_rwlrn","Mon Mar 13 2023 19:43:25 GMT-0700 (Pacific Daylight Time)","422716","Trustworthy,Untrustworthy","","null","","","","feedback","","<div class='respPicDiv'><img src='img/responseButtonOffersNo0_wht.png' class='respPic'></div><div class='trialDiv'><img src='Fruit/watermelon.png'><br><font class='baseline'><strong>Watermelon Win$</strong><p><strong><font class='negOutcome'>You LOST</font><p>You bet: 3</strong></font> &nbsp; &nbsp; &nbsp; &nbsp; &nbsp; &nbsp;<font class='negOutcome'>You receive: <strong>0</strong></font></div>","null","7","Watermelon Win$","Fruit/watermelon.png","Lost","0.2,0.65","13","0.2","76","20","",""
"html-keyboard-response","70","142325","0.0-11.0-1.20","60599946259dc97d30e2001f","bdp_rwlrn","Mon Mar 13 2023 19:43:25 GMT-0700 (Pacific Daylight Time)","422716","Trustworthy,Untrustworthy","","768","","","","decision","","<div class='trialDiv'><img src='Fruit/papayas.png'><br><font class='baseline'><strong>Papaya Payday</strong><p>Choose number of points to bet.</font><div class='respPicDiv'><img src='img/responseButtonOffersNo0L.png' class='respPic'></div></div>","4","7","Papaya Payday","Fruit/papayas.png","Won","0.65,0.2","13","0.65","81","21","",""
"html-keyboard-response","71","142588","0.0-11.0-2.20","60599946259dc97d30e2001f","bdp_rwlrn","Mon Mar 13 2023 19:43:25 GMT-0700 (Pacific Daylight Time)","422716","Trustworthy,Untrustworthy","","null","","","","decisionFB","","<div class='trialDiv'><img src='Fruit/papayas.png'><br><font class='baseline'><strong>Papaya Payday</strong><p>Choose number of points to bet.</font><div class='respPicDiv'><img src='img/responseButtonOffersNo0L4.png' class='respPic'></div></div>","null","7","Papaya Payday","Fruit/papayas.png","Won","0.65,0.2","13","0.65","77","21","",""
"html-keyboard-response","72","143596","0.0-11.0-3.20","60599946259dc97d30e2001f","bdp_rwlrn","Mon Mar 13 2023 19:43:25 GMT-0700 (Pacific Daylight Time)","422716","Trustworthy,Untrustworthy","","null","","","","feedback","","<div class='respPicDiv'><img src='img/responseButtonOffersNo0_wht.png' class='respPic'></div><div class='trialDiv'><img src='Fruit/papayas.png'><br><font class='baseline'><strong>Papaya Payday</strong><p><strong><font class='posOutcome'>You WON</font><p>You bet: 4</strong></font> &nbsp; &nbsp; &nbsp; &nbsp; &nbsp; &nbsp;<font class='posOutcome'>you receive: <strong>8</strong></font></div>","null","7","Papaya Payday","Fruit/papayas.png","Won","0.65,0.2","13","0.65","85","21","",""
"html-keyboard-response","73","144269","0.0-11.0-1.21","60599946259dc97d30e2001f","bdp_rwlrn","Mon Mar 13 2023 19:43:25 GMT-0700 (Pacific Daylight Time)","422716","Trustworthy,Untrustworthy","","673","","","","decision","","<div class='trialDiv'><img src='Fruit/cherrie.png'><br><font class='baseline'><strong>Cherry Chances</strong><p>Choose number of points to bet.</font><div class='respPicDiv'><img src='img/responseButtonOffersNo0L.png' class='respPic'></div></div>","1","8","Cherry Chances","Fruit/cherrie.png","Won","0.2,0.8","8","0.2","90","22","",""
"html-keyboard-response","74","144522","0.0-11.0-2.21","60599946259dc97d30e2001f","bdp_rwlrn","Mon Mar 13 2023 19:43:25 GMT-0700 (Pacific Daylight Time)","422716","Trustworthy,Untrustworthy","","null","","","","decisionFB","","<div class='trialDiv'><img src='Fruit/cherrie.png'><br><font class='baseline'><strong>Cherry Chances</strong><p>Choose number of points to bet.</font><div class='respPicDiv'><img src='img/responseButtonOffersNo0L1.png' class='respPic'></div></div>","null","8","Cherry Chances","Fruit/cherrie.png","Won","0.2,0.8","8","0.2","89","22","",""
"html-keyboard-response","75","145528","0.0-11.0-3.21","60599946259dc97d30e2001f","bdp_rwlrn","Mon Mar 13 2023 19:43:25 GMT-0700 (Pacific Daylight Time)","422716","Trustworthy,Untrustworthy","","null","","","","feedback","","<div class='respPicDiv'><img src='img/responseButtonOffersNo0_wht.png' class='respPic'></div><div class='trialDiv'><img src='Fruit/cherrie.png'><br><font class='baseline'><strong>Cherry Chances</strong><p><strong><font class='posOutcome'>You WON</font><p>You bet: 1</strong></font> &nbsp; &nbsp; &nbsp; &nbsp; &nbsp; &nbsp;<font class='posOutcome'>you receive: <strong>2</strong></font></div>","null","8","Cherry Chances","Fruit/cherrie.png","Won","0.2,0.8","8","0.2","91","22","",""
"html-keyboard-response","76","146894","0.0-11.0-1.22","60599946259dc97d30e2001f","bdp_rwlrn","Mon Mar 13 2023 19:43:25 GMT-0700 (Pacific Daylight Time)","422716","Trustworthy,Untrustworthy","","1365","","","","decision","","<div class='trialDiv'><img src='Fruit/papayas.png'><br><font class='baseline'><strong>Papaya Payday</strong><p>Choose number of points to bet.</font><div class='respPicDiv'><img src='img/responseButtonOffersNo0L.png' class='respPic'></div></div>","4","8","Papaya Payday","Fruit/papayas.png","Lost","0.65,0.2","13","0.65","96","23","",""
"html-keyboard-response","77","147157","0.0-11.0-2.22","60599946259dc97d30e2001f","bdp_rwlrn","Mon Mar 13 2023 19:43:25 GMT-0700 (Pacific Daylight Time)","422716","Trustworthy,Untrustworthy","","null","","","","decisionFB","","<div class='trialDiv'><img src='Fruit/papayas.png'><br><font class='baseline'><strong>Papaya Payday</strong><p>Choose number of points to bet.</font><div class='respPicDiv'><img src='img/responseButtonOffersNo0L4.png' class='respPic'></div></div>","null","8","Papaya Payday","Fruit/papayas.png","Lost","0.65,0.2","13","0.65","92","23","",""
"html-keyboard-response","78","148162","0.0-11.0-3.22","60599946259dc97d30e2001f","bdp_rwlrn","Mon Mar 13 2023 19:43:25 GMT-0700 (Pacific Daylight Time)","422716","Trustworthy,Untrustworthy","","null","","","","feedback","","<div class='respPicDiv'><img src='img/responseButtonOffersNo0_wht.png' class='respPic'></div><div class='trialDiv'><img src='Fruit/papayas.png'><br><font class='baseline'><strong>Papaya Payday</strong><p><strong><font class='negOutcome'>You LOST</font><p>You bet: 4</strong></font> &nbsp; &nbsp; &nbsp; &nbsp; &nbsp; &nbsp;<font class='negOutcome'>You receive: <strong>0</strong></font></div>","null","8","Papaya Payday","Fruit/papayas.png","Lost","0.65,0.2","13","0.65","92","23","",""
"html-keyboard-response","79","151653","0.0-11.0-1.23","60599946259dc97d30e2001f","bdp_rwlrn","Mon Mar 13 2023 19:43:25 GMT-0700 (Pacific Daylight Time)","422716","Trustworthy,Untrustworthy","","3490","","","","decision","","<div class='trialDiv'><img src='Fruit/watermelon.png'><br><font class='baseline'><strong>Watermelon Win$</strong><p>Choose number of points to bet.</font><div class='respPicDiv'><img src='img/responseButtonOffersNo0L.png' class='respPic'></div></div>","3","8","Watermelon Win$","Fruit/watermelon.png","Lost","0.2,0.65","13","0.2","97","24","",""
"html-keyboard-response","80","151904","0.0-11.0-2.23","60599946259dc97d30e2001f","bdp_rwlrn","Mon Mar 13 2023 19:43:25 GMT-0700 (Pacific Daylight Time)","422716","Trustworthy,Untrustworthy","","null","","","","decisionFB","","<div class='trialDiv'><img src='Fruit/watermelon.png'><br><font class='baseline'><strong>Watermelon Win$</strong><p>Choose number of points to bet.</font><div class='respPicDiv'><img src='img/responseButtonOffersNo0L3.png' class='respPic'></div></div>","null","8","Watermelon Win$","Fruit/watermelon.png","Lost","0.2,0.65","13","0.2","94","24","",""
"html-keyboard-response","81","152916","0.0-11.0-3.23","60599946259dc97d30e2001f","bdp_rwlrn","Mon Mar 13 2023 19:43:25 GMT-0700 (Pacific Daylight Time)","422716","Trustworthy,Untrustworthy","","null","","","","feedback","","<div class='respPicDiv'><img src='img/responseButtonOffersNo0_wht.png' class='respPic'></div><div class='trialDiv'><img src='Fruit/watermelon.png'><br><font class='baseline'><strong>Watermelon Win$</strong><p><strong><font class='negOutcome'>You LOST</font><p>You bet: 3</strong></font> &nbsp; &nbsp; &nbsp; &nbsp; &nbsp; &nbsp;<font class='negOutcome'>You receive: <strong>0</strong></font></div>","null","8","Watermelon Win$","Fruit/watermelon.png","Lost","0.2,0.65","13","0.2","94","24","",""
"html-keyboard-response","82","154813","0.0-11.0-1.24","60599946259dc97d30e2001f","bdp_rwlrn","Mon Mar 13 2023 19:43:25 GMT-0700 (Pacific Daylight Time)","422716","Trustworthy,Untrustworthy","","1897","","","","decision","","<div class='trialDiv'><img src='Fruit/cherrie.png'><br><font class='baseline'><strong>Cherry Chances</strong><p>Choose number of points to bet.</font><div class='respPicDiv'><img src='img/responseButtonOffersNo0L.png' class='respPic'></div></div>","2","9","Cherry Chances","Fruit/cherrie.png","Won","0.2,0.8","8","0.2","99","25","",""
"html-keyboard-response","83","155072","0.0-11.0-2.24","60599946259dc97d30e2001f","bdp_rwlrn","Mon Mar 13 2023 19:43:25 GMT-0700 (Pacific Daylight Time)","422716","Trustworthy,Untrustworthy","","null","","","","decisionFB","","<div class='trialDiv'><img src='Fruit/cherrie.png'><br><font class='baseline'><strong>Cherry Chances</strong><p>Choose number of points to bet.</font><div class='respPicDiv'><img src='img/responseButtonOffersNo0L2.png' class='respPic'></div></div>","null","9","Cherry Chances","Fruit/cherrie.png","Won","0.2,0.8","8","0.2","97","25","",""
"html-keyboard-response","84","156074","0.0-11.0-3.24","60599946259dc97d30e2001f","bdp_rwlrn","Mon Mar 13 2023 19:43:25 GMT-0700 (Pacific Daylight Time)","422716","Trustworthy,Untrustworthy","","null","","","","feedback","","<div class='respPicDiv'><img src='img/responseButtonOffersNo0_wht.png' class='respPic'></div><div class='trialDiv'><img src='Fruit/cherrie.png'><br><font class='baseline'><strong>Cherry Chances</strong><p><strong><font class='posOutcome'>You WON</font><p>You bet: 2</strong></font> &nbsp; &nbsp; &nbsp; &nbsp; &nbsp; &nbsp;<font class='posOutcome'>you receive: <strong>4</strong></font></div>","null","9","Cherry Chances","Fruit/cherrie.png","Won","0.2,0.8","8","0.2","101","25","",""
"html-keyboard-response","85","157334","0.0-11.0-1.25","60599946259dc97d30e2001f","bdp_rwlrn","Mon Mar 13 2023 19:43:25 GMT-0700 (Pacific Daylight Time)","422716","Trustworthy,Untrustworthy","","1259","","","","decision","","<div class='trialDiv'><img src='Fruit/papayas.png'><br><font class='baseline'><strong>Papaya Payday</strong><p>Choose number of points to bet.</font><div class='respPicDiv'><img src='img/responseButtonOffersNo0L.png' class='respPic'></div></div>","5","9","Papaya Payday","Fruit/papayas.png","Won","0.65,0.2","13","0.65","106","26","",""
"html-keyboard-response","86","157589","0.0-11.0-2.25","60599946259dc97d30e2001f","bdp_rwlrn","Mon Mar 13 2023 19:43:25 GMT-0700 (Pacific Daylight Time)","422716","Trustworthy,Untrustworthy","","null","","","","decisionFB","","<div class='trialDiv'><img src='Fruit/papayas.png'><br><font class='baseline'><strong>Papaya Payday</strong><p>Choose number of points to bet.</font><div class='respPicDiv'><img src='img/responseButtonOffersNo0L5.png' class='respPic'></div></div>","null","9","Papaya Payday","Fruit/papayas.png","Won","0.65,0.2","13","0.65","101","26","",""
"html-keyboard-response","87","158595","0.0-11.0-3.25","60599946259dc97d30e2001f","bdp_rwlrn","Mon Mar 13 2023 19:43:25 GMT-0700 (Pacific Daylight Time)","422716","Trustworthy,Untrustworthy","","null","","","","feedback","","<div class='respPicDiv'><img src='img/responseButtonOffersNo0_wht.png' class='respPic'></div><div class='trialDiv'><img src='Fruit/papayas.png'><br><font class='baseline'><strong>Papaya Payday</strong><p><strong><font class='posOutcome'>You WON</font><p>You bet: 5</strong></font> &nbsp; &nbsp; &nbsp; &nbsp; &nbsp; &nbsp;<font class='posOutcome'>you receive: <strong>10</strong></font></div>","null","9","Papaya Payday","Fruit/papayas.png","Won","0.65,0.2","13","0.65","111","26","",""
"html-keyboard-response","88","159869","0.0-11.0-1.26","60599946259dc97d30e2001f","bdp_rwlrn","Mon Mar 13 2023 19:43:25 GMT-0700 (Pacific Daylight Time)","422716","Trustworthy,Untrustworthy","","1273","","","","decision","","<div class='trialDiv'><img src='Fruit/watermelon.png'><br><font class='baseline'><strong>Watermelon Win$</strong><p>Choose number of points to bet.</font><div class='respPicDiv'><img src='img/responseButtonOffersNo0L.png' class='respPic'></div></div>","3","9","Watermelon Win$","Fruit/watermelon.png","Lost","0.2,0.65","13","0.2","116","27","",""
"html-keyboard-response","89","160127","0.0-11.0-2.26","60599946259dc97d30e2001f","bdp_rwlrn","Mon Mar 13 2023 19:43:25 GMT-0700 (Pacific Daylight Time)","422716","Trustworthy,Untrustworthy","","null","","","","decisionFB","","<div class='trialDiv'><img src='Fruit/watermelon.png'><br><font class='baseline'><strong>Watermelon Win$</strong><p>Choose number of points to bet.</font><div class='respPicDiv'><img src='img/responseButtonOffersNo0L3.png' class='respPic'></div></div>","null","9","Watermelon Win$","Fruit/watermelon.png","Lost","0.2,0.65","13","0.2","113","27","",""
"html-keyboard-response","90","161140","0.0-11.0-3.26","60599946259dc97d30e2001f","bdp_rwlrn","Mon Mar 13 2023 19:43:25 GMT-0700 (Pacific Daylight Time)","422716","Trustworthy,Untrustworthy","","null","","","","feedback","","<div class='respPicDiv'><img src='img/responseButtonOffersNo0_wht.png' class='respPic'></div><div class='trialDiv'><img src='Fruit/watermelon.png'><br><font class='baseline'><strong>Watermelon Win$</strong><p><strong><font class='negOutcome'>You LOST</font><p>You bet: 3</strong></font> &nbsp; &nbsp; &nbsp; &nbsp; &nbsp; &nbsp;<font class='negOutcome'>You receive: <strong>0</strong></font></div>","null","9","Watermelon Win$","Fruit/watermelon.png","Lost","0.2,0.65","13","0.2","113","27","",""
"html-keyboard-response","91","162101","0.0-11.0-1.27","60599946259dc97d30e2001f","bdp_rwlrn","Mon Mar 13 2023 19:43:25 GMT-0700 (Pacific Daylight Time)","422716","Trustworthy,Untrustworthy","","960","","","","decision","","<div class='trialDiv'><img src='Fruit/cherrie.png'><br><font class='baseline'><strong>Cherry Chances</strong><p>Choose number of points to bet.</font><div class='respPicDiv'><img src='img/responseButtonOffersNo0L.png' class='respPic'></div></div>","2","10","Cherry Chances","Fruit/cherrie.png","Won","0.2,0.8","8","0.2","118","28","",""
"html-keyboard-response","92","162356","0.0-11.0-2.27","60599946259dc97d30e2001f","bdp_rwlrn","Mon Mar 13 2023 19:43:25 GMT-0700 (Pacific Daylight Time)","422716","Trustworthy,Untrustworthy","","null","","","","decisionFB","","<div class='trialDiv'><img src='Fruit/cherrie.png'><br><font class='baseline'><strong>Cherry Chances</strong><p>Choose number of points to bet.</font><div class='respPicDiv'><img src='img/responseButtonOffersNo0L2.png' class='respPic'></div></div>","null","10","Cherry Chances","Fruit/cherrie.png","Won","0.2,0.8","8","0.2","116","28","",""
"html-keyboard-response","93","163363","0.0-11.0-3.27","60599946259dc97d30e2001f","bdp_rwlrn","Mon Mar 13 2023 19:43:25 GMT-0700 (Pacific Daylight Time)","422716","Trustworthy,Untrustworthy","","null","","","","feedback","","<div class='respPicDiv'><img src='img/responseButtonOffersNo0_wht.png' class='respPic'></div><div class='trialDiv'><img src='Fruit/cherrie.png'><br><font class='baseline'><strong>Cherry Chances</strong><p><strong><font class='posOutcome'>You WON</font><p>You bet: 2</strong></font> &nbsp; &nbsp; &nbsp; &nbsp; &nbsp; &nbsp;<font class='posOutcome'>you receive: <strong>4</strong></font></div>","null","10","Cherry Chances","Fruit/cherrie.png","Won","0.2,0.8","8","0.2","120","28","",""
"html-keyboard-response","94","164989","0.0-11.0-1.28","60599946259dc97d30e2001f","bdp_rwlrn","Mon Mar 13 2023 19:43:25 GMT-0700 (Pacific Daylight Time)","422716","Trustworthy,Untrustworthy","","1625","","","","decision","","<div class='trialDiv'><img src='Fruit/watermelon.png'><br><font class='baseline'><strong>Watermelon Win$</strong><p>Choose number of points to bet.</font><div class='respPicDiv'><img src='img/responseButtonOffersNo0L.png' class='respPic'></div></div>","2","10","Watermelon Win$","Fruit/watermelon.png","Lost","0.2,0.65","13","0.2","125","29","",""
"html-keyboard-response","95","165247","0.0-11.0-2.28","60599946259dc97d30e2001f","bdp_rwlrn","Mon Mar 13 2023 19:43:25 GMT-0700 (Pacific Daylight Time)","422716","Trustworthy,Untrustworthy","","null","","","","decisionFB","","<div class='trialDiv'><img src='Fruit/watermelon.png'><br><font class='baseline'><strong>Watermelon Win$</strong><p>Choose number of points to bet.</font><div class='respPicDiv'><img src='img/responseButtonOffersNo0L2.png' class='respPic'></div></div>","null","10","Watermelon Win$","Fruit/watermelon.png","Lost","0.2,0.65","13","0.2","123","29","",""
"html-keyboard-response","96","166254","0.0-11.0-3.28","60599946259dc97d30e2001f","bdp_rwlrn","Mon Mar 13 2023 19:43:25 GMT-0700 (Pacific Daylight Time)","422716","Trustworthy,Untrustworthy","","null","","","","feedback","","<div class='respPicDiv'><img src='img/responseButtonOffersNo0_wht.png' class='respPic'></div><div class='trialDiv'><img src='Fruit/watermelon.png'><br><font class='baseline'><strong>Watermelon Win$</strong><p><strong><font class='negOutcome'>You LOST</font><p>You bet: 2</strong></font> &nbsp; &nbsp; &nbsp; &nbsp; &nbsp; &nbsp;<font class='negOutcome'>You receive: <strong>0</strong></font></div>","null","10","Watermelon Win$","Fruit/watermelon.png","Lost","0.2,0.65","13","0.2","123","29","",""
"html-keyboard-response","97","167205","0.0-11.0-1.29","60599946259dc97d30e2001f","bdp_rwlrn","Mon Mar 13 2023 19:43:25 GMT-0700 (Pacific Daylight Time)","422716","Trustworthy,Untrustworthy","","951","","","","decision","","<div class='trialDiv'><img src='Fruit/papayas.png'><br><font class='baseline'><strong>Papaya Payday</strong><p>Choose number of points to bet.</font><div class='respPicDiv'><img src='img/responseButtonOffersNo0L.png' class='respPic'></div></div>","4","10","Papaya Payday","Fruit/papayas.png","Lost","0.65,0.2","13","0.65","128","30","",""
"html-keyboard-response","98","167461","0.0-11.0-2.29","60599946259dc97d30e2001f","bdp_rwlrn","Mon Mar 13 2023 19:43:25 GMT-0700 (Pacific Daylight Time)","422716","Trustworthy,Untrustworthy","","null","","","","decisionFB","","<div class='trialDiv'><img src='Fruit/papayas.png'><br><font class='baseline'><strong>Papaya Payday</strong><p>Choose number of points to bet.</font><div class='respPicDiv'><img src='img/responseButtonOffersNo0L4.png' class='respPic'></div></div>","null","10","Papaya Payday","Fruit/papayas.png","Lost","0.65,0.2","13","0.65","124","30","",""
"html-keyboard-response","99","168472","0.0-11.0-3.29","60599946259dc97d30e2001f","bdp_rwlrn","Mon Mar 13 2023 19:43:25 GMT-0700 (Pacific Daylight Time)","422716","Trustworthy,Untrustworthy","","null","","","","feedback","","<div class='respPicDiv'><img src='img/responseButtonOffersNo0_wht.png' class='respPic'></div><div class='trialDiv'><img src='Fruit/papayas.png'><br><font class='baseline'><strong>Papaya Payday</strong><p><strong><font class='negOutcome'>You LOST</font><p>You bet: 4</strong></font> &nbsp; &nbsp; &nbsp; &nbsp; &nbsp; &nbsp;<font class='negOutcome'>You receive: <strong>0</strong></font></div>","null","10","Papaya Payday","Fruit/papayas.png","Lost","0.65,0.2","13","0.65","124","30","",""
"html-keyboard-response","100","170022","0.0-11.0-1.30","60599946259dc97d30e2001f","bdp_rwlrn","Mon Mar 13 2023 19:43:25 GMT-0700 (Pacific Daylight Time)","422716","Trustworthy,Untrustworthy","","1550","","","","decision","","<div class='trialDiv'><img src='Fruit/watermelon.png'><br><font class='baseline'><strong>Watermelon Win$</strong><p>Choose number of points to bet.</font><div class='respPicDiv'><img src='img/responseButtonOffersNo0L.png' class='respPic'></div></div>","3","11","Watermelon Win$","Fruit/watermelon.png","Lost","0.2,0.65","13","0.2","129","31","",""
"html-keyboard-response","101","170276","0.0-11.0-2.30","60599946259dc97d30e2001f","bdp_rwlrn","Mon Mar 13 2023 19:43:25 GMT-0700 (Pacific Daylight Time)","422716","Trustworthy,Untrustworthy","","null","","","","decisionFB","","<div class='trialDiv'><img src='Fruit/watermelon.png'><br><font class='baseline'><strong>Watermelon Win$</strong><p>Choose number of points to bet.</font><div class='respPicDiv'><img src='img/responseButtonOffersNo0L3.png' class='respPic'></div></div>","null","11","Watermelon Win$","Fruit/watermelon.png","Lost","0.2,0.65","13","0.2","126","31","",""
"html-keyboard-response","102","171281","0.0-11.0-3.30","60599946259dc97d30e2001f","bdp_rwlrn","Mon Mar 13 2023 19:43:25 GMT-0700 (Pacific Daylight Time)","422716","Trustworthy,Untrustworthy","","null","","","","feedback","","<div class='respPicDiv'><img src='img/responseButtonOffersNo0_wht.png' class='respPic'></div><div class='trialDiv'><img src='Fruit/watermelon.png'><br><font class='baseline'><strong>Watermelon Win$</strong><p><strong><font class='negOutcome'>You LOST</font><p>You bet: 3</strong></font> &nbsp; &nbsp; &nbsp; &nbsp; &nbsp; &nbsp;<font class='negOutcome'>You receive: <strong>0</strong></font></div>","null","11","Watermelon Win$","Fruit/watermelon.png","Lost","0.2,0.65","13","0.2","126","31","",""
"html-keyboard-response","103","172237","0.0-11.0-1.31","60599946259dc97d30e2001f","bdp_rwlrn","Mon Mar 13 2023 19:43:25 GMT-0700 (Pacific Daylight Time)","422716","Trustworthy,Untrustworthy","","956","","","","decision","","<div class='trialDiv'><img src='Fruit/papayas.png'><br><font class='baseline'><strong>Papaya Payday</strong><p>Choose number of points to bet.</font><div class='respPicDiv'><img src='img/responseButtonOffersNo0L.png' class='respPic'></div></div>","4","11","Papaya Payday","Fruit/papayas.png","Won","0.65,0.2","13","0.65","131","32","",""
"html-keyboard-response","104","172501","0.0-11.0-2.31","60599946259dc97d30e2001f","bdp_rwlrn","Mon Mar 13 2023 19:43:25 GMT-0700 (Pacific Daylight Time)","422716","Trustworthy,Untrustworthy","","null","","","","decisionFB","","<div class='trialDiv'><img src='Fruit/papayas.png'><br><font class='baseline'><strong>Papaya Payday</strong><p>Choose number of points to bet.</font><div class='respPicDiv'><img src='img/responseButtonOffersNo0L4.png' class='respPic'></div></div>","null","11","Papaya Payday","Fruit/papayas.png","Won","0.65,0.2","13","0.65","127","32","",""
"html-keyboard-response","105","173513","0.0-11.0-3.31","60599946259dc97d30e2001f","bdp_rwlrn","Mon Mar 13 2023 19:43:25 GMT-0700 (Pacific Daylight Time)","422716","Trustworthy,Untrustworthy","","null","","","","feedback","","<div class='respPicDiv'><img src='img/responseButtonOffersNo0_wht.png' class='respPic'></div><div class='trialDiv'><img src='Fruit/papayas.png'><br><font class='baseline'><strong>Papaya Payday</strong><p><strong><font class='posOutcome'>You WON</font><p>You bet: 4</strong></font> &nbsp; &nbsp; &nbsp; &nbsp; &nbsp; &nbsp;<font class='posOutcome'>you receive: <strong>8</strong></font></div>","null","11","Papaya Payday","Fruit/papayas.png","Won","0.65,0.2","13","0.65","135","32","",""
"html-keyboard-response","106","174325","0.0-11.0-1.32","60599946259dc97d30e2001f","bdp_rwlrn","Mon Mar 13 2023 19:43:25 GMT-0700 (Pacific Daylight Time)","422716","Trustworthy,Untrustworthy","","811","","","","decision","","<div class='trialDiv'><img src='Fruit/cherrie.png'><br><font class='baseline'><strong>Cherry Chances</strong><p>Choose number of points to bet.</font><div class='respPicDiv'><img src='img/responseButtonOffersNo0L.png' class='respPic'></div></div>","1","11","Cherry Chances","Fruit/cherrie.png","Won","0.2,0.8","8","0.2","140","33","",""
"html-keyboard-response","107","174579","0.0-11.0-2.32","60599946259dc97d30e2001f","bdp_rwlrn","Mon Mar 13 2023 19:43:25 GMT-0700 (Pacific Daylight Time)","422716","Trustworthy,Untrustworthy","","null","","","","decisionFB","","<div class='trialDiv'><img src='Fruit/cherrie.png'><br><font class='baseline'><strong>Cherry Chances</strong><p>Choose number of points to bet.</font><div class='respPicDiv'><img src='img/responseButtonOffersNo0L1.png' class='respPic'></div></div>","null","11","Cherry Chances","Fruit/cherrie.png","Won","0.2,0.8","8","0.2","139","33","",""
"html-keyboard-response","108","175594","0.0-11.0-3.32","60599946259dc97d30e2001f","bdp_rwlrn","Mon Mar 13 2023 19:43:25 GMT-0700 (Pacific Daylight Time)","422716","Trustworthy,Untrustworthy","","null","","","","feedback","","<div class='respPicDiv'><img src='img/responseButtonOffersNo0_wht.png' class='respPic'></div><div class='trialDiv'><img src='Fruit/cherrie.png'><br><font class='baseline'><strong>Cherry Chances</strong><p><strong><font class='posOutcome'>You WON</font><p>You bet: 1</strong></font> &nbsp; &nbsp; &nbsp; &nbsp; &nbsp; &nbsp;<font class='posOutcome'>you receive: <strong>2</strong></font></div>","null","11","Cherry Chances","Fruit/cherrie.png","Won","0.2,0.8","8","0.2","141","33","",""
"html-keyboard-response","109","176941","0.0-11.0-1.33","60599946259dc97d30e2001f","bdp_rwlrn","Mon Mar 13 2023 19:43:25 GMT-0700 (Pacific Daylight Time)","422716","Trustworthy,Untrustworthy","","1346","","","","decision","","<div class='trialDiv'><img src='Fruit/papayas.png'><br><font class='baseline'><strong>Papaya Payday</strong><p>Choose number of points to bet.</font><div class='respPicDiv'><img src='img/responseButtonOffersNo0L.png' class='respPic'></div></div>","3","12","Papaya Payday","Fruit/papayas.png","Lost","0.65,0.2","13","0.65","146","34","",""
"html-keyboard-response","110","177203","0.0-11.0-2.33","60599946259dc97d30e2001f","bdp_rwlrn","Mon Mar 13 2023 19:43:25 GMT-0700 (Pacific Daylight Time)","422716","Trustworthy,Untrustworthy","","null","","","","decisionFB","","<div class='trialDiv'><img src='Fruit/papayas.png'><br><font class='baseline'><strong>Papaya Payday</strong><p>Choose number of points to bet.</font><div class='respPicDiv'><img src='img/responseButtonOffersNo0L3.png' class='respPic'></div></div>","null","12","Papaya Payday","Fruit/papayas.png","Lost","0.65,0.2","13","0.65","143","34","",""
"html-keyboard-response","111","178205","0.0-11.0-3.33","60599946259dc97d30e2001f","bdp_rwlrn","Mon Mar 13 2023 19:43:25 GMT-0700 (Pacific Daylight Time)","422716","Trustworthy,Untrustworthy","","null","","","","feedback","","<div class='respPicDiv'><img src='img/responseButtonOffersNo0_wht.png' class='respPic'></div><div class='trialDiv'><img src='Fruit/papayas.png'><br><font class='baseline'><strong>Papaya Payday</strong><p><strong><font class='negOutcome'>You LOST</font><p>You bet: 3</strong></font> &nbsp; &nbsp; &nbsp; &nbsp; &nbsp; &nbsp;<font class='negOutcome'>You receive: <strong>0</strong></font></div>","null","12","Papaya Payday","Fruit/papayas.png","Lost","0.65,0.2","13","0.65","143","34","",""
"html-keyboard-response","112","179493","0.0-11.0-1.34","60599946259dc97d30e2001f","bdp_rwlrn","Mon Mar 13 2023 19:43:25 GMT-0700 (Pacific Daylight Time)","422716","Trustworthy,Untrustworthy","","1287","","","","decision","","<div class='trialDiv'><img src='Fruit/cherrie.png'><br><font class='baseline'><strong>Cherry Chances</strong><p>Choose number of points to bet.</font><div class='respPicDiv'><img src='img/responseButtonOffersNo0L.png' class='respPic'></div></div>","4","12","Cherry Chances","Fruit/cherrie.png","Lost","0.2,0.8","8","0.2","148","35","",""
"html-keyboard-response","113","179747","0.0-11.0-2.34","60599946259dc97d30e2001f","bdp_rwlrn","Mon Mar 13 2023 19:43:25 GMT-0700 (Pacific Daylight Time)","422716","Trustworthy,Untrustworthy","","null","","","","decisionFB","","<div class='trialDiv'><img src='Fruit/cherrie.png'><br><font class='baseline'><strong>Cherry Chances</strong><p>Choose number of points to bet.</font><div class='respPicDiv'><img src='img/responseButtonOffersNo0L4.png' class='respPic'></div></div>","null","12","Cherry Chances","Fruit/cherrie.png","Lost","0.2,0.8","8","0.2","144","35","",""
"html-keyboard-response","114","180761","0.0-11.0-3.34","60599946259dc97d30e2001f","bdp_rwlrn","Mon Mar 13 2023 19:43:25 GMT-0700 (Pacific Daylight Time)","422716","Trustworthy,Untrustworthy","","null","","","","feedback","","<div class='respPicDiv'><img src='img/responseButtonOffersNo0_wht.png' class='respPic'></div><div class='trialDiv'><img src='Fruit/cherrie.png'><br><font class='baseline'><strong>Cherry Chances</strong><p><strong><font class='negOutcome'>You LOST</font><p>You bet: 4</strong></font> &nbsp; &nbsp; &nbsp; &nbsp; &nbsp; &nbsp;<font class='negOutcome'>You receive: <strong>0</strong></font></div>","null","12","Cherry Chances","Fruit/cherrie.png","Lost","0.2,0.8","8","0.2","144","35","",""
"html-keyboard-response","115","181669","0.0-11.0-1.35","60599946259dc97d30e2001f","bdp_rwlrn","Mon Mar 13 2023 19:43:25 GMT-0700 (Pacific Daylight Time)","422716","Trustworthy,Untrustworthy","","907","","","","decision","","<div class='trialDiv'><img src='Fruit/watermelon.png'><br><font class='baseline'><strong>Watermelon Win$</strong><p>Choose number of points to bet.</font><div class='respPicDiv'><img src='img/responseButtonOffersNo0L.png' class='respPic'></div></div>","4","12","Watermelon Win$","Fruit/watermelon.png","Lost","0.2,0.65","13","0.2","149","36","",""
"html-keyboard-response","116","181921","0.0-11.0-2.35","60599946259dc97d30e2001f","bdp_rwlrn","Mon Mar 13 2023 19:43:25 GMT-0700 (Pacific Daylight Time)","422716","Trustworthy,Untrustworthy","","null","","","","decisionFB","","<div class='trialDiv'><img src='Fruit/watermelon.png'><br><font class='baseline'><strong>Watermelon Win$</strong><p>Choose number of points to bet.</font><div class='respPicDiv'><img src='img/responseButtonOffersNo0L4.png' class='respPic'></div></div>","null","12","Watermelon Win$","Fruit/watermelon.png","Lost","0.2,0.65","13","0.2","145","36","",""
"html-keyboard-response","117","182926","0.0-11.0-3.35","60599946259dc97d30e2001f","bdp_rwlrn","Mon Mar 13 2023 19:43:25 GMT-0700 (Pacific Daylight Time)","422716","Trustworthy,Untrustworthy","","null","","","","feedback","","<div class='respPicDiv'><img src='img/responseButtonOffersNo0_wht.png' class='respPic'></div><div class='trialDiv'><img src='Fruit/watermelon.png'><br><font class='baseline'><strong>Watermelon Win$</strong><p><strong><font class='negOutcome'>You LOST</font><p>You bet: 4</strong></font> &nbsp; &nbsp; &nbsp; &nbsp; &nbsp; &nbsp;<font class='negOutcome'>You receive: <strong>0</strong></font></div>","null","12","Watermelon Win$","Fruit/watermelon.png","Lost","0.2,0.65","13","0.2","145","36","",""
"html-keyboard-response","118","183693","0.0-11.0-1.36","60599946259dc97d30e2001f","bdp_rwlrn","Mon Mar 13 2023 19:43:25 GMT-0700 (Pacific Daylight Time)","422716","Trustworthy,Untrustworthy","","767","","","","decision","","<div class='trialDiv'><img src='Fruit/cherrie.png'><br><font class='baseline'><strong>Cherry Chances</strong><p>Choose number of points to bet.</font><div class='respPicDiv'><img src='img/responseButtonOffersNo0L.png' class='respPic'></div></div>","2","13","Cherry Chances","Fruit/cherrie.png","Won","0.2,0.8","8","0.2","150","37","",""
"html-keyboard-response","119","183953","0.0-11.0-2.36","60599946259dc97d30e2001f","bdp_rwlrn","Mon Mar 13 2023 19:43:25 GMT-0700 (Pacific Daylight Time)","422716","Trustworthy,Untrustworthy","","null","","","","decisionFB","","<div class='trialDiv'><img src='Fruit/cherrie.png'><br><font class='baseline'><strong>Cherry Chances</strong><p>Choose number of points to bet.</font><div class='respPicDiv'><img src='img/responseButtonOffersNo0L2.png' class='respPic'></div></div>","null","13","Cherry Chances","Fruit/cherrie.png","Won","0.2,0.8","8","0.2","148","37","",""
"html-keyboard-response","120","184968","0.0-11.0-3.36","60599946259dc97d30e2001f","bdp_rwlrn","Mon Mar 13 2023 19:43:25 GMT-0700 (Pacific Daylight Time)","422716","Trustworthy,Untrustworthy","","null","","","","feedback","","<div class='respPicDiv'><img src='img/responseButtonOffersNo0_wht.png' class='respPic'></div><div class='trialDiv'><img src='Fruit/cherrie.png'><br><font class='baseline'><strong>Cherry Chances</strong><p><strong><font class='posOutcome'>You WON</font><p>You bet: 2</strong></font> &nbsp; &nbsp; &nbsp; &nbsp; &nbsp; &nbsp;<font class='posOutcome'>you receive: <strong>4</strong></font></div>","null","13","Cherry Chances","Fruit/cherrie.png","Won","0.2,0.8","8","0.2","152","37","",""
"html-keyboard-response","121","185709","0.0-11.0-1.37","60599946259dc97d30e2001f","bdp_rwlrn","Mon Mar 13 2023 19:43:25 GMT-0700 (Pacific Daylight Time)","422716","Trustworthy,Untrustworthy","","741","","","","decision","","<div class='trialDiv'><img src='Fruit/papayas.png'><br><font class='baseline'><strong>Papaya Payday</strong><p>Choose number of points to bet.</font><div class='respPicDiv'><img src='img/responseButtonOffersNo0L.png' class='respPic'></div></div>","3","13","Papaya Payday","Fruit/papayas.png","Lost","0.65,0.2","13","0.65","157","38","",""
"html-keyboard-response","122","185965","0.0-11.0-2.37","60599946259dc97d30e2001f","bdp_rwlrn","Mon Mar 13 2023 19:43:25 GMT-0700 (Pacific Daylight Time)","422716","Trustworthy,Untrustworthy","","null","","","","decisionFB","","<div class='trialDiv'><img src='Fruit/papayas.png'><br><font class='baseline'><strong>Papaya Payday</strong><p>Choose number of points to bet.</font><div class='respPicDiv'><img src='img/responseButtonOffersNo0L3.png' class='respPic'></div></div>","null","13","Papaya Payday","Fruit/papayas.png","Lost","0.65,0.2","13","0.65","154","38","",""
"html-keyboard-response","123","186968","0.0-11.0-3.37","60599946259dc97d30e2001f","bdp_rwlrn","Mon Mar 13 2023 19:43:25 GMT-0700 (Pacific Daylight Time)","422716","Trustworthy,Untrustworthy","","null","","","","feedback","","<div class='respPicDiv'><img src='img/responseButtonOffersNo0_wht.png' class='respPic'></div><div class='trialDiv'><img src='Fruit/papayas.png'><br><font class='baseline'><strong>Papaya Payday</strong><p><strong><font class='negOutcome'>You LOST</font><p>You bet: 3</strong></font> &nbsp; &nbsp; &nbsp; &nbsp; &nbsp; &nbsp;<font class='negOutcome'>You receive: <strong>0</strong></font></div>","null","13","Papaya Payday","Fruit/papayas.png","Lost","0.65,0.2","13","0.65","154","38","",""
"html-keyboard-response","124","187989","0.0-11.0-1.38","60599946259dc97d30e2001f","bdp_rwlrn","Mon Mar 13 2023 19:43:25 GMT-0700 (Pacific Daylight Time)","422716","Trustworthy,Untrustworthy","","1020","","","","decision","","<div class='trialDiv'><img src='Fruit/watermelon.png'><br><font class='baseline'><strong>Watermelon Win$</strong><p>Choose number of points to bet.</font><div class='respPicDiv'><img src='img/responseButtonOffersNo0L.png' class='respPic'></div></div>","5","13","Watermelon Win$","Fruit/watermelon.png","Lost","0.2,0.65","13","0.2","159","39","",""
"html-keyboard-response","125","188253","0.0-11.0-2.38","60599946259dc97d30e2001f","bdp_rwlrn","Mon Mar 13 2023 19:43:25 GMT-0700 (Pacific Daylight Time)","422716","Trustworthy,Untrustworthy","","null","","","","decisionFB","","<div class='trialDiv'><img src='Fruit/watermelon.png'><br><font class='baseline'><strong>Watermelon Win$</strong><p>Choose number of points to bet.</font><div class='respPicDiv'><img src='img/responseButtonOffersNo0L5.png' class='respPic'></div></div>","null","13","Watermelon Win$","Fruit/watermelon.png","Lost","0.2,0.65","13","0.2","154","39","",""
"html-keyboard-response","126","189263","0.0-11.0-3.38","60599946259dc97d30e2001f","bdp_rwlrn","Mon Mar 13 2023 19:43:25 GMT-0700 (Pacific Daylight Time)","422716","Trustworthy,Untrustworthy","","null","","","","feedback","","<div class='respPicDiv'><img src='img/responseButtonOffersNo0_wht.png' class='respPic'></div><div class='trialDiv'><img src='Fruit/watermelon.png'><br><font class='baseline'><strong>Watermelon Win$</strong><p><strong><font class='negOutcome'>You LOST</font><p>You bet: 5</strong></font> &nbsp; &nbsp; &nbsp; &nbsp; &nbsp; &nbsp;<font class='negOutcome'>You receive: <strong>0</strong></font></div>","null","13","Watermelon Win$","Fruit/watermelon.png","Lost","0.2,0.65","13","0.2","154","39","",""
"html-keyboard-response","127","190389","0.0-11.0-1.39","60599946259dc97d30e2001f","bdp_rwlrn","Mon Mar 13 2023 19:43:25 GMT-0700 (Pacific Daylight Time)","422716","Trustworthy,Untrustworthy","","1126","","","","decision","","<div class='trialDiv'><img src='Fruit/cherrie.png'><br><font class='baseline'><strong>Cherry Chances</strong><p>Choose number of points to bet.</font><div class='respPicDiv'><img src='img/responseButtonOffersNo0L.png' class='respPic'></div></div>","2","14","Cherry Chances","Fruit/cherrie.png","Won","0.2,0.8","8","0.2","159","40","",""
"html-keyboard-response","128","190647","0.0-11.0-2.39","60599946259dc97d30e2001f","bdp_rwlrn","Mon Mar 13 2023 19:43:25 GMT-0700 (Pacific Daylight Time)","422716","Trustworthy,Untrustworthy","","null","","","","decisionFB","","<div class='trialDiv'><img src='Fruit/cherrie.png'><br><font class='baseline'><strong>Cherry Chances</strong><p>Choose number of points to bet.</font><div class='respPicDiv'><img src='img/responseButtonOffersNo0L2.png' class='respPic'></div></div>","null","14","Cherry Chances","Fruit/cherrie.png","Won","0.2,0.8","8","0.2","157","40","",""
"html-keyboard-response","129","191663","0.0-11.0-3.39","60599946259dc97d30e2001f","bdp_rwlrn","Mon Mar 13 2023 19:43:25 GMT-0700 (Pacific Daylight Time)","422716","Trustworthy,Untrustworthy","","null","","","","feedback","","<div class='respPicDiv'><img src='img/responseButtonOffersNo0_wht.png' class='respPic'></div><div class='trialDiv'><img src='Fruit/cherrie.png'><br><font class='baseline'><strong>Cherry Chances</strong><p><strong><font class='posOutcome'>You WON</font><p>You bet: 2</strong></font> &nbsp; &nbsp; &nbsp; &nbsp; &nbsp; &nbsp;<font class='posOutcome'>you receive: <strong>4</strong></font></div>","null","14","Cherry Chances","Fruit/cherrie.png","Won","0.2,0.8","8","0.2","161","40","",""
"html-keyboard-response","130","193141","0.0-11.0-1.40","60599946259dc97d30e2001f","bdp_rwlrn","Mon Mar 13 2023 19:43:25 GMT-0700 (Pacific Daylight Time)","422716","Trustworthy,Untrustworthy","","1478","","","","decision","","<div class='trialDiv'><img src='Fruit/papayas.png'><br><font class='baseline'><strong>Papaya Payday</strong><p>Choose number of points to bet.</font><div class='respPicDiv'><img src='img/responseButtonOffersNo0L.png' class='respPic'></div></div>","3","14","Papaya Payday","Fruit/papayas.png","Lost","0.65,0.2","13","0.65","166","41","",""
"html-keyboard-response","131","193407","0.0-11.0-2.40","60599946259dc97d30e2001f","bdp_rwlrn","Mon Mar 13 2023 19:43:25 GMT-0700 (Pacific Daylight Time)","422716","Trustworthy,Untrustworthy","","null","","","","decisionFB","","<div class='trialDiv'><img src='Fruit/papayas.png'><br><font class='baseline'><strong>Papaya Payday</strong><p>Choose number of points to bet.</font><div class='respPicDiv'><img src='img/responseButtonOffersNo0L3.png' class='respPic'></div></div>","null","14","Papaya Payday","Fruit/papayas.png","Lost","0.65,0.2","13","0.65","163","41","",""
"html-keyboard-response","132","194423","0.0-11.0-3.40","60599946259dc97d30e2001f","bdp_rwlrn","Mon Mar 13 2023 19:43:25 GMT-0700 (Pacific Daylight Time)","422716","Trustworthy,Untrustworthy","","null","","","","feedback","","<div class='respPicDiv'><img src='img/responseButtonOffersNo0_wht.png' class='respPic'></div><div class='trialDiv'><img src='Fruit/papayas.png'><br><font class='baseline'><strong>Papaya Payday</strong><p><strong><font class='negOutcome'>You LOST</font><p>You bet: 3</strong></font> &nbsp; &nbsp; &nbsp; &nbsp; &nbsp; &nbsp;<font class='negOutcome'>You receive: <strong>0</strong></font></div>","null","14","Papaya Payday","Fruit/papayas.png","Lost","0.65,0.2","13","0.65","163","41","",""
"html-keyboard-response","133","195269","0.0-11.0-1.41","60599946259dc97d30e2001f","bdp_rwlrn","Mon Mar 13 2023 19:43:25 GMT-0700 (Pacific Daylight Time)","422716","Trustworthy,Untrustworthy","","846","","","","decision","","<div class='trialDiv'><img src='Fruit/watermelon.png'><br><font class='baseline'><strong>Watermelon Win$</strong><p>Choose number of points to bet.</font><div class='respPicDiv'><img src='img/responseButtonOffersNo0L.png' class='respPic'></div></div>","4","14","Watermelon Win$","Fruit/watermelon.png","Lost","0.2,0.65","13","0.2","168","42","",""
"html-keyboard-response","134","195534","0.0-11.0-2.41","60599946259dc97d30e2001f","bdp_rwlrn","Mon Mar 13 2023 19:43:25 GMT-0700 (Pacific Daylight Time)","422716","Trustworthy,Untrustworthy","","null","","","","decisionFB","","<div class='trialDiv'><img src='Fruit/watermelon.png'><br><font class='baseline'><strong>Watermelon Win$</strong><p>Choose number of points to bet.</font><div class='respPicDiv'><img src='img/responseButtonOffersNo0L4.png' class='respPic'></div></div>","null","14","Watermelon Win$","Fruit/watermelon.png","Lost","0.2,0.65","13","0.2","164","42","",""
"html-keyboard-response","135","196547","0.0-11.0-3.41","60599946259dc97d30e2001f","bdp_rwlrn","Mon Mar 13 2023 19:43:25 GMT-0700 (Pacific Daylight Time)","422716","Trustworthy,Untrustworthy","","null","","","","feedback","","<div class='respPicDiv'><img src='img/responseButtonOffersNo0_wht.png' class='respPic'></div><div class='trialDiv'><img src='Fruit/watermelon.png'><br><font class='baseline'><strong>Watermelon Win$</strong><p><strong><font class='negOutcome'>You LOST</font><p>You bet: 4</strong></font> &nbsp; &nbsp; &nbsp; &nbsp; &nbsp; &nbsp;<font class='negOutcome'>You receive: <strong>0</strong></font></div>","null","14","Watermelon Win$","Fruit/watermelon.png","Lost","0.2,0.65","13","0.2","164","42","",""
"html-keyboard-response","136","198149","0.0-11.0-1.42","60599946259dc97d30e2001f","bdp_rwlrn","Mon Mar 13 2023 19:43:25 GMT-0700 (Pacific Daylight Time)","422716","Trustworthy,Untrustworthy","","1602","","","","decision","","<div class='trialDiv'><img src='Fruit/papayas.png'><br><font class='baseline'><strong>Papaya Payday</strong><p>Choose number of points to bet.</font><div class='respPicDiv'><img src='img/responseButtonOffersNo0L.png' class='respPic'></div></div>","2","15","Papaya Payday","Fruit/papayas.png","Lost","0.65,0.2","13","0.65","169","43","",""
"html-keyboard-response","137","198409","0.0-11.0-2.42","60599946259dc97d30e2001f","bdp_rwlrn","Mon Mar 13 2023 19:43:25 GMT-0700 (Pacific Daylight Time)","422716","Trustworthy,Untrustworthy","","null","","","","decisionFB","","<div class='trialDiv'><img src='Fruit/papayas.png'><br><font class='baseline'><strong>Papaya Payday</strong><p>Choose number of points to bet.</font><div class='respPicDiv'><img src='img/responseButtonOffersNo0L2.png' class='respPic'></div></div>","null","15","Papaya Payday","Fruit/papayas.png","Lost","0.65,0.2","13","0.65","167","43","",""
"html-keyboard-response","138","199414","0.0-11.0-3.42","60599946259dc97d30e2001f","bdp_rwlrn","Mon Mar 13 2023 19:43:25 GMT-0700 (Pacific Daylight Time)","422716","Trustworthy,Untrustworthy","","null","","","","feedback","","<div class='respPicDiv'><img src='img/responseButtonOffersNo0_wht.png' class='respPic'></div><div class='trialDiv'><img src='Fruit/papayas.png'><br><font class='baseline'><strong>Papaya Payday</strong><p><strong><font class='negOutcome'>You LOST</font><p>You bet: 2</strong></font> &nbsp; &nbsp; &nbsp; &nbsp; &nbsp; &nbsp;<font class='negOutcome'>You receive: <strong>0</strong></font></div>","null","15","Papaya Payday","Fruit/papayas.png","Lost","0.65,0.2","13","0.65","167","43","",""
"html-keyboard-response","139","200533","0.0-11.0-1.43","60599946259dc97d30e2001f","bdp_rwlrn","Mon Mar 13 2023 19:43:25 GMT-0700 (Pacific Daylight Time)","422716","Trustworthy,Untrustworthy","","1118","","","","decision","","<div class='trialDiv'><img src='Fruit/cherrie.png'><br><font class='baseline'><strong>Cherry Chances</strong><p>Choose number of points to bet.</font><div class='respPicDiv'><img src='img/responseButtonOffersNo0L.png' class='respPic'></div></div>","4","15","Cherry Chances","Fruit/cherrie.png","Lost","0.2,0.8","8","0.2","172","44","",""
"html-keyboard-response","140","200798","0.0-11.0-2.43","60599946259dc97d30e2001f","bdp_rwlrn","Mon Mar 13 2023 19:43:25 GMT-0700 (Pacific Daylight Time)","422716","Trustworthy,Untrustworthy","","null","","","","decisionFB","","<div class='trialDiv'><img src='Fruit/cherrie.png'><br><font class='baseline'><strong>Cherry Chances</strong><p>Choose number of points to bet.</font><div class='respPicDiv'><img src='img/responseButtonOffersNo0L4.png' class='respPic'></div></div>","null","15","Cherry Chances","Fruit/cherrie.png","Lost","0.2,0.8","8","0.2","168","44","",""
"html-keyboard-response","141","201807","0.0-11.0-3.43","60599946259dc97d30e2001f","bdp_rwlrn","Mon Mar 13 2023 19:43:25 GMT-0700 (Pacific Daylight Time)","422716","Trustworthy,Untrustworthy","","null","","","","feedback","","<div class='respPicDiv'><img src='img/responseButtonOffersNo0_wht.png' class='respPic'></div><div class='trialDiv'><img src='Fruit/cherrie.png'><br><font class='baseline'><strong>Cherry Chances</strong><p><strong><font class='negOutcome'>You LOST</font><p>You bet: 4</strong></font> &nbsp; &nbsp; &nbsp; &nbsp; &nbsp; &nbsp;<font class='negOutcome'>You receive: <strong>0</strong></font></div>","null","15","Cherry Chances","Fruit/cherrie.png","Lost","0.2,0.8","8","0.2","168","44","",""
"html-keyboard-response","142","202829","0.0-11.0-1.44","60599946259dc97d30e2001f","bdp_rwlrn","Mon Mar 13 2023 19:43:25 GMT-0700 (Pacific Daylight Time)","422716","Trustworthy,Untrustworthy","","1021","","","","decision","","<div class='trialDiv'><img src='Fruit/watermelon.png'><br><font class='baseline'><strong>Watermelon Win$</strong><p>Choose number of points to bet.</font><div class='respPicDiv'><img src='img/responseButtonOffersNo0L.png' class='respPic'></div></div>","2","15","Watermelon Win$","Fruit/watermelon.png","Won","0.2,0.65","13","0.2","173","45","",""
"html-keyboard-response","143","203091","0.0-11.0-2.44","60599946259dc97d30e2001f","bdp_rwlrn","Mon Mar 13 2023 19:43:25 GMT-0700 (Pacific Daylight Time)","422716","Trustworthy,Untrustworthy","","null","","","","decisionFB","","<div class='trialDiv'><img src='Fruit/watermelon.png'><br><font class='baseline'><strong>Watermelon Win$</strong><p>Choose number of points to bet.</font><div class='respPicDiv'><img src='img/responseButtonOffersNo0L2.png' class='respPic'></div></div>","null","15","Watermelon Win$","Fruit/watermelon.png","Won","0.2,0.65","13","0.2","171","45","",""
"html-keyboard-response","144","204093","0.0-11.0-3.44","60599946259dc97d30e2001f","bdp_rwlrn","Mon Mar 13 2023 19:43:25 GMT-0700 (Pacific Daylight Time)","422716","Trustworthy,Untrustworthy","","null","","","","feedback","","<div class='respPicDiv'><img src='img/responseButtonOffersNo0_wht.png' class='respPic'></div><div class='trialDiv'><img src='Fruit/watermelon.png'><br><font class='baseline'><strong>Watermelon Win$</strong><p><strong><font class='posOutcome'>You WON</font><p>You bet: 2</strong></font> &nbsp; &nbsp; &nbsp; &nbsp; &nbsp; &nbsp;<font class='posOutcome'>you receive: <strong>4</strong></font></div>","null","15","Watermelon Win$","Fruit/watermelon.png","Won","0.2,0.65","13","0.2","175","45","",""
"html-keyboard-response","145","205198","0.0-11.0-1.45","60599946259dc97d30e2001f","bdp_rwlrn","Mon Mar 13 2023 19:43:25 GMT-0700 (Pacific Daylight Time)","422716","Trustworthy,Untrustworthy","","1104","","","","decision","","<div class='trialDiv'><img src='Fruit/papayas.png'><br><font class='baseline'><strong>Papaya Payday</strong><p>Choose number of points to bet.</font><div class='respPicDiv'><img src='img/responseButtonOffersNo0L.png' class='respPic'></div></div>","3","16","Papaya Payday","Fruit/papayas.png","Won","0.65,0.2","13","0.65","180","46","",""
"html-keyboard-response","146","205454","0.0-11.0-2.45","60599946259dc97d30e2001f","bdp_rwlrn","Mon Mar 13 2023 19:43:25 GMT-0700 (Pacific Daylight Time)","422716","Trustworthy,Untrustworthy","","null","","","","decisionFB","","<div class='trialDiv'><img src='Fruit/papayas.png'><br><font class='baseline'><strong>Papaya Payday</strong><p>Choose number of points to bet.</font><div class='respPicDiv'><img src='img/responseButtonOffersNo0L3.png' class='respPic'></div></div>","null","16","Papaya Payday","Fruit/papayas.png","Won","0.65,0.2","13","0.65","177","46","",""
"html-keyboard-response","147","206462","0.0-11.0-3.45","60599946259dc97d30e2001f","bdp_rwlrn","Mon Mar 13 2023 19:43:25 GMT-0700 (Pacific Daylight Time)","422716","Trustworthy,Untrustworthy","","null","","","","feedback","","<div class='respPicDiv'><img src='img/responseButtonOffersNo0_wht.png' class='respPic'></div><div class='trialDiv'><img src='Fruit/papayas.png'><br><font class='baseline'><strong>Papaya Payday</strong><p><strong><font class='posOutcome'>You WON</font><p>You bet: 3</strong></font> &nbsp; &nbsp; &nbsp; &nbsp; &nbsp; &nbsp;<font class='posOutcome'>you receive: <strong>6</strong></font></div>","null","16","Papaya Payday","Fruit/papayas.png","Won","0.65,0.2","13","0.65","183","46","",""
"html-keyboard-response","148","207245","0.0-11.0-1.46","60599946259dc97d30e2001f","bdp_rwlrn","Mon Mar 13 2023 19:43:25 GMT-0700 (Pacific Daylight Time)","422716","Trustworthy,Untrustworthy","","783","","","","decision","","<div class='trialDiv'><img src='Fruit/cherrie.png'><br><font class='baseline'><strong>Cherry Chances</strong><p>Choose number of points to bet.</font><div class='respPicDiv'><img src='img/responseButtonOffersNo0L.png' class='respPic'></div></div>","3","16","Cherry Chances","Fruit/cherrie.png","Won","0.2,0.8","8","0.2","188","47","",""
"html-keyboard-response","149","207499","0.0-11.0-2.46","60599946259dc97d30e2001f","bdp_rwlrn","Mon Mar 13 2023 19:43:25 GMT-0700 (Pacific Daylight Time)","422716","Trustworthy,Untrustworthy","","null","","","","decisionFB","","<div class='trialDiv'><img src='Fruit/cherrie.png'><br><font class='baseline'><strong>Cherry Chances</strong><p>Choose number of points to bet.</font><div class='respPicDiv'><img src='img/responseButtonOffersNo0L3.png' class='respPic'></div></div>","null","16","Cherry Chances","Fruit/cherrie.png","Won","0.2,0.8","8","0.2","185","47","",""
"html-keyboard-response","150","208502","0.0-11.0-3.46","60599946259dc97d30e2001f","bdp_rwlrn","Mon Mar 13 2023 19:43:25 GMT-0700 (Pacific Daylight Time)","422716","Trustworthy,Untrustworthy","","null","","","","feedback","","<div class='respPicDiv'><img src='img/responseButtonOffersNo0_wht.png' class='respPic'></div><div class='trialDiv'><img src='Fruit/cherrie.png'><br><font class='baseline'><strong>Cherry Chances</strong><p><strong><font class='posOutcome'>You WON</font><p>You bet: 3</strong></font> &nbsp; &nbsp; &nbsp; &nbsp; &nbsp; &nbsp;<font class='posOutcome'>you receive: <strong>6</strong></font></div>","null","16","Cherry Chances","Fruit/cherrie.png","Won","0.2,0.8","8","0.2","191","47","",""
"html-keyboard-response","151","209437","0.0-11.0-1.47","60599946259dc97d30e2001f","bdp_rwlrn","Mon Mar 13 2023 19:43:25 GMT-0700 (Pacific Daylight Time)","422716","Trustworthy,Untrustworthy","","935","","","","decision","","<div class='trialDiv'><img src='Fruit/watermelon.png'><br><font class='baseline'><strong>Watermelon Win$</strong><p>Choose number of points to bet.</font><div class='respPicDiv'><img src='img/responseButtonOffersNo0L.png' class='respPic'></div></div>","2","16","Watermelon Win$","Fruit/watermelon.png","Lost","0.2,0.65","13","0.2","196","48","",""
"html-keyboard-response","152","209688","0.0-11.0-2.47","60599946259dc97d30e2001f","bdp_rwlrn","Mon Mar 13 2023 19:43:25 GMT-0700 (Pacific Daylight Time)","422716","Trustworthy,Untrustworthy","","null","","","","decisionFB","","<div class='trialDiv'><img src='Fruit/watermelon.png'><br><font class='baseline'><strong>Watermelon Win$</strong><p>Choose number of points to bet.</font><div class='respPicDiv'><img src='img/responseButtonOffersNo0L2.png' class='respPic'></div></div>","null","16","Watermelon Win$","Fruit/watermelon.png","Lost","0.2,0.65","13","0.2","194","48","",""
"html-keyboard-response","153","210705","0.0-11.0-3.47","60599946259dc97d30e2001f","bdp_rwlrn","Mon Mar 13 2023 19:43:25 GMT-0700 (Pacific Daylight Time)","422716","Trustworthy,Untrustworthy","","null","","","","feedback","","<div class='respPicDiv'><img src='img/responseButtonOffersNo0_wht.png' class='respPic'></div><div class='trialDiv'><img src='Fruit/watermelon.png'><br><font class='baseline'><strong>Watermelon Win$</strong><p><strong><font class='negOutcome'>You LOST</font><p>You bet: 2</strong></font> &nbsp; &nbsp; &nbsp; &nbsp; &nbsp; &nbsp;<font class='negOutcome'>You receive: <strong>0</strong></font></div>","null","16","Watermelon Win$","Fruit/watermelon.png","Lost","0.2,0.65","13","0.2","194","48","",""
"html-keyboard-response","154","211701","0.0-11.0-1.48","60599946259dc97d30e2001f","bdp_rwlrn","Mon Mar 13 2023 19:43:25 GMT-0700 (Pacific Daylight Time)","422716","Trustworthy,Untrustworthy","","995","","","","decision","","<div class='trialDiv'><img src='Fruit/papayas.png'><br><font class='baseline'><strong>Papaya Payday</strong><p>Choose number of points to bet.</font><div class='respPicDiv'><img src='img/responseButtonOffersNo0L.png' class='respPic'></div></div>","4","17","Papaya Payday","Fruit/papayas.png","Lost","0.65,0.2","13","0.65","199","49","",""
"html-keyboard-response","155","211955","0.0-11.0-2.48","60599946259dc97d30e2001f","bdp_rwlrn","Mon Mar 13 2023 19:43:25 GMT-0700 (Pacific Daylight Time)","422716","Trustworthy,Untrustworthy","","null","","","","decisionFB","","<div class='trialDiv'><img src='Fruit/papayas.png'><br><font class='baseline'><strong>Papaya Payday</strong><p>Choose number of points to bet.</font><div class='respPicDiv'><img src='img/responseButtonOffersNo0L4.png' class='respPic'></div></div>","null","17","Papaya Payday","Fruit/papayas.png","Lost","0.65,0.2","13","0.65","195","49","",""
"html-keyboard-response","156","212959","0.0-11.0-3.48","60599946259dc97d30e2001f","bdp_rwlrn","Mon Mar 13 2023 19:43:25 GMT-0700 (Pacific Daylight Time)","422716","Trustworthy,Untrustworthy","","null","","","","feedback","","<div class='respPicDiv'><img src='img/responseButtonOffersNo0_wht.png' class='respPic'></div><div class='trialDiv'><img src='Fruit/papayas.png'><br><font class='baseline'><strong>Papaya Payday</strong><p><strong><font class='negOutcome'>You LOST</font><p>You bet: 4</strong></font> &nbsp; &nbsp; &nbsp; &nbsp; &nbsp; &nbsp;<font class='negOutcome'>You receive: <strong>0</strong></font></div>","null","17","Papaya Payday","Fruit/papayas.png","Lost","0.65,0.2","13","0.65","195","49","",""
"html-keyboard-response","157","213885","0.0-11.0-1.49","60599946259dc97d30e2001f","bdp_rwlrn","Mon Mar 13 2023 19:43:25 GMT-0700 (Pacific Daylight Time)","422716","Trustworthy,Untrustworthy","","926","","","","decision","","<div class='trialDiv'><img src='Fruit/watermelon.png'><br><font class='baseline'><strong>Watermelon Win$</strong><p>Choose number of points to bet.</font><div class='respPicDiv'><img src='img/responseButtonOffersNo0L.png' class='respPic'></div></div>","3","17","Watermelon Win$","Fruit/watermelon.png","Lost","0.2,0.65","13","0.2","200","50","",""
"html-keyboard-response","158","214147","0.0-11.0-2.49","60599946259dc97d30e2001f","bdp_rwlrn","Mon Mar 13 2023 19:43:25 GMT-0700 (Pacific Daylight Time)","422716","Trustworthy,Untrustworthy","","null","","","","decisionFB","","<div class='trialDiv'><img src='Fruit/watermelon.png'><br><font class='baseline'><strong>Watermelon Win$</strong><p>Choose number of points to bet.</font><div class='respPicDiv'><img src='img/responseButtonOffersNo0L3.png' class='respPic'></div></div>","null","17","Watermelon Win$","Fruit/watermelon.png","Lost","0.2,0.65","13","0.2","197","50","",""
"html-keyboard-response","159","215159","0.0-11.0-3.49","60599946259dc97d30e2001f","bdp_rwlrn","Mon Mar 13 2023 19:43:25 GMT-0700 (Pacific Daylight Time)","422716","Trustworthy,Untrustworthy","","null","","","","feedback","","<div class='respPicDiv'><img src='img/responseButtonOffersNo0_wht.png' class='respPic'></div><div class='trialDiv'><img src='Fruit/watermelon.png'><br><font class='baseline'><strong>Watermelon Win$</strong><p><strong><font class='negOutcome'>You LOST</font><p>You bet: 3</strong></font> &nbsp; &nbsp; &nbsp; &nbsp; &nbsp; &nbsp;<font class='negOutcome'>You receive: <strong>0</strong></font></div>","null","17","Watermelon Win$","Fruit/watermelon.png","Lost","0.2,0.65","13","0.2","197","50","",""
"html-keyboard-response","160","216484","0.0-11.0-1.50","60599946259dc97d30e2001f","bdp_rwlrn","Mon Mar 13 2023 19:43:25 GMT-0700 (Pacific Daylight Time)","422716","Trustworthy,Untrustworthy","","1324","","","","decision","","<div class='trialDiv'><img src='Fruit/cherrie.png'><br><font class='baseline'><strong>Cherry Chances</strong><p>Choose number of points to bet.</font><div class='respPicDiv'><img src='img/responseButtonOffersNo0L.png' class='respPic'></div></div>","5","17","Cherry Chances","Fruit/cherrie.png","Won","0.2,0.8","8","0.2","202","51","",""
"html-keyboard-response","161","216740","0.0-11.0-2.50","60599946259dc97d30e2001f","bdp_rwlrn","Mon Mar 13 2023 19:43:25 GMT-0700 (Pacific Daylight Time)","422716","Trustworthy,Untrustworthy","","null","","","","decisionFB","","<div class='trialDiv'><img src='Fruit/cherrie.png'><br><font class='baseline'><strong>Cherry Chances</strong><p>Choose number of points to bet.</font><div class='respPicDiv'><img src='img/responseButtonOffersNo0L5.png' class='respPic'></div></div>","null","17","Cherry Chances","Fruit/cherrie.png","Won","0.2,0.8","8","0.2","197","51","",""
