"trial_type","trial_index","time_elapsed","internal_node_id","subject_id","task","startTime","totalTime","labels","view_history","rt","event","trial","time","trialtype","success","stimulus","key_press","ltround","name","fileID","outcome","lottotype","lottoswpt","lottocurrpshare","point_total","round","faceID","face"
"pavlovia","0","3","0.0-0.0","5f43ef4041bb5f11a27aa07e","bdp_rwlrn","Sun Mar 12 2023 21:08:42 GMT-0500 (Central Daylight Time)","541790","Trustworthy,Untrustworthy","","","","","","","","","","","","","","","","","","","",""
"instructions","1","6372","0.0-1.0","5f43ef4041bb5f11a27aa07e","bdp_rwlrn","Sun Mar 12 2023 21:08:42 GMT-0500 (Central Daylight Time)","541790","Trustworthy,Untrustworthy","[{""page_index"":0,""viewing_time"":6367}]","6368","","","","","","","","","","","","","","","","","",""
"","","","","5f43ef4041bb5f11a27aa07e","bdp_rwlrn","Sun Mar 12 2023 21:08:42 GMT-0500 (Central Daylight Time)","541790","Trustworthy,Untrustworthy","","","fullscreenenter","2","11711","fullscreenenter","","","","","","","","","","","","","",""
"fullscreen","2","12717","0.0-2.0","5f43ef4041bb5f11a27aa07e","bdp_rwlrn","Sun Mar 12 2023 21:08:42 GMT-0500 (Central Daylight Time)","541790","Trustworthy,Untrustworthy","","","","","","","true","","","","","","","","","","","","",""
"instructions","3","156802","0.0-4.0","5f43ef4041bb5f11a27aa07e","bdp_rwlrn","Sun Mar 12 2023 21:08:42 GMT-0500 (Central Daylight Time)","541790","Trustworthy,Untrustworthy","[{""page_index"":0,""viewing_time"":19738},{""page_index"":1,""viewing_time"":29026},{""page_index"":2,""viewing_time"":12467},{""page_index"":3,""viewing_time"":13958},{""page_index"":4,""viewing_time"":39803},{""page_index"":5,""viewing_time"":16466},{""page_index"":4,""viewing_time"":3435},{""page_index"":5,""viewing_time"":9189}]","144082","","","","","","","","","","","","","","","","","",""
"html-keyboard-response","4","165137","0.0-5.0","5f43ef4041bb5f11a27aa07e","bdp_rwlrn","Sun Mar 12 2023 21:08:42 GMT-0500 (Central Daylight Time)","541790","Trustworthy,Untrustworthy","","8332","","","","","","<div class='header' style='text-align:left; position: absolute; top: 5%; left: 5%;'><small>Task 1 of 5</small></div><div class='instruxDiv'><p><strong>1) What is the maximum number of points you can choose to bet on a lottery?</strong></p><p>a) 0</p><p>b) 1</p><p>c) 5</p>","C","","","","","","","","","","",""
"html-keyboard-response","5","167952","0.0-6.0","5f43ef4041bb5f11a27aa07e","bdp_rwlrn","Sun Mar 12 2023 21:08:42 GMT-0500 (Central Daylight Time)","541790","Trustworthy,Untrustworthy","","2707","","","","","","<div class='header' style='text-align:left; position: absolute; top: 5%; left: 5%;'><small>Task 1 of 5</small></div><div class='instruxDiv'><p><strong>1) What is the maximum number of points you can choose to bet on a lottery?</strong></p><p>a) 1</p><p>b) 1</p><p style='color:#00FF00'>c) 5</p><h3 style='color:#00FF00'>Correct!</h3><h3 class='center-content'>The correct response is c).</h3><h3 class='center-content'>The maximum number of points you can choose to bet on a lottery is 5 points.</h3><p><em>Press SPACEBAR to continue</em></p></div>"," ","","","","","","","","","","",""
"html-keyboard-response","6","173768","0.0-7.0","5f43ef4041bb5f11a27aa07e","bdp_rwlrn","Sun Mar 12 2023 21:08:42 GMT-0500 (Central Daylight Time)","541790","Trustworthy,Untrustworthy","","5703","","","","","","<div class='header' style='text-align:left; position: absolute; top: 5%; left: 5%;'><small>Task 1 of 5</small></div><div class='instruxDiv'><p><strong>2) How many points can you win each round?</strong></p><p>a) 10 points</p><p>b) Double what you bet</p><p>c) Quadruple what you bet</p>","B","","","","","","","","","","",""
"html-keyboard-response","7","175674","0.0-8.0","5f43ef4041bb5f11a27aa07e","bdp_rwlrn","Sun Mar 12 2023 21:08:42 GMT-0500 (Central Daylight Time)","541790","Trustworthy,Untrustworthy","","1795","","","","","","<div class='header' style='text-align:left; position: absolute; top: 5%; left: 5%;'><small>Task 1 of 5</small></div><div class='instruxDiv'><p><strong>2) How many points can you win each round?</strong></p><p>a) 10 points</p><p style='color:#00FF00'>b) Double what you bet</p><p>c) Quadruple what you bet</p><h3 style='color:#00FF00'>Correct!</h3><h3 class='center-content'>The correct response is b).</h3><h3 class='center-content'>You can win double the amount of points you bet.</h3><p><em>Press SPACEBAR to continue</em></p></div>"," ","","","","","","","","","","",""
"html-keyboard-response","8","180792","0.0-9.0","5f43ef4041bb5f11a27aa07e","bdp_rwlrn","Sun Mar 12 2023 21:08:42 GMT-0500 (Central Daylight Time)","541790","Trustworthy,Untrustworthy","","null","","","","","","<div class='header' style='text-align:left; position: absolute; top: 5%; left: 5%;'><small>Task 1 of 5</small></div><div class='instruxDiv'><p>Thank you for completing the quiz<p>These are the actual lotteries you will be playing in the next block:<p><div class='tc' align='center'><img class='introPic' src='Fruit/lime.png'><br><strong>Limin' Large</strong></div><div class='bl' align='center'><img class='introPic' src='Fruit/mixed-berries2.png'><br><strong>Berry Bla$t</strong></div><div class='br' align='center'><img class='introPic' src='Fruit/lemon.png'><br><strong>Lucky Lemons</strong></div></div><p>Across <strong>66 rounds</strong> you will play each lottery <strong>22 times</strong> (in random order).<p style='align:center; color:white'><font <em>Press SPACEBAR to continue</em></p>","null","","","","","","","","","","",""
"instructions","9","197840","0.0-10.0","5f43ef4041bb5f11a27aa07e","bdp_rwlrn","Sun Mar 12 2023 21:08:42 GMT-0500 (Central Daylight Time)","541790","Trustworthy,Untrustworthy","[{""page_index"":0,""viewing_time"":10795},{""page_index"":1,""viewing_time"":6250}]","17045","","","","","","","","","","","","","","","","","",""
"html-keyboard-response","10","202695","0.0-11.0-1.0","5f43ef4041bb5f11a27aa07e","bdp_rwlrn","Sun Mar 12 2023 21:08:42 GMT-0500 (Central Daylight Time)","541790","Trustworthy,Untrustworthy","","4739","","","","decision","","<div class='trialDiv'><img src='Fruit/mixed-berries2.png'><br><font class='baseline'><strong>Berry Bla$t</strong><p>Choose number of points to bet.</font><div class='respPicDiv'><img src='img/responseButtonOffersNo0L.png' class='respPic'></div></div>","3","1","Berry Bla$t","Fruit/mixed-berries2.png","Won","0.65,0.2","12","0.65","5","1","",""
"html-keyboard-response","11","202960","0.0-11.0-2.0","5f43ef4041bb5f11a27aa07e","bdp_rwlrn","Sun Mar 12 2023 21:08:42 GMT-0500 (Central Daylight Time)","541790","Trustworthy,Untrustworthy","","null","","","","decisionFB","","<div class='trialDiv'><img src='Fruit/mixed-berries2.png'><br><font class='baseline'><strong>Berry Bla$t</strong><p>Choose number of points to bet.</font><div class='respPicDiv'><img src='img/responseButtonOffersNo0L3.png' class='respPic'></div></div>","null","1","Berry Bla$t","Fruit/mixed-berries2.png","Won","0.65,0.2","12","0.65","2","1","",""
"html-keyboard-response","12","203973","0.0-11.0-3.0","5f43ef4041bb5f11a27aa07e","bdp_rwlrn","Sun Mar 12 2023 21:08:42 GMT-0500 (Central Daylight Time)","541790","Trustworthy,Untrustworthy","","null","","","","feedback","","<div class='respPicDiv'><img src='img/responseButtonOffersNo0_wht.png' class='respPic'></div><div class='trialDiv'><img src='Fruit/mixed-berries2.png'><br><font class='baseline'><strong>Berry Bla$t</strong><p><strong><font class='posOutcome'>You WON</font><p>You bet: 3</strong></font> &nbsp; &nbsp; &nbsp; &nbsp; &nbsp; &nbsp;<font class='posOutcome'>you receive: <strong>6</strong></font></div>","null","1","Berry Bla$t","Fruit/mixed-berries2.png","Won","0.65,0.2","12","0.65","8","1","",""
"html-keyboard-response","13","207600","0.0-11.0-1.1","5f43ef4041bb5f11a27aa07e","bdp_rwlrn","Sun Mar 12 2023 21:08:42 GMT-0500 (Central Daylight Time)","541790","Trustworthy,Untrustworthy","","3624","","","","decision","","<div class='trialDiv'><img src='Fruit/lemon.png'><br><font class='baseline'><strong>Lucky Lemons</strong><p>Choose number of points to bet.</font><div class='respPicDiv'><img src='img/responseButtonOffersNo0L.png' class='respPic'></div></div>","5","1","Lucky Lemons","Fruit/lemon.png","Lost","0.35,0.8","13","0.35","13","2","",""
"html-keyboard-response","14","207859","0.0-11.0-2.1","5f43ef4041bb5f11a27aa07e","bdp_rwlrn","Sun Mar 12 2023 21:08:42 GMT-0500 (Central Daylight Time)","541790","Trustworthy,Untrustworthy","","null","","","","decisionFB","","<div class='trialDiv'><img src='Fruit/lemon.png'><br><font class='baseline'><strong>Lucky Lemons</strong><p>Choose number of points to bet.</font><div class='respPicDiv'><img src='img/responseButtonOffersNo0L5.png' class='respPic'></div></div>","null","1","Lucky Lemons","Fruit/lemon.png","Lost","0.35,0.8","13","0.35","8","2","",""
"html-keyboard-response","15","208872","0.0-11.0-3.1","5f43ef4041bb5f11a27aa07e","bdp_rwlrn","Sun Mar 12 2023 21:08:42 GMT-0500 (Central Daylight Time)","541790","Trustworthy,Untrustworthy","","null","","","","feedback","","<div class='respPicDiv'><img src='img/responseButtonOffersNo0_wht.png' class='respPic'></div><div class='trialDiv'><img src='Fruit/lemon.png'><br><font class='baseline'><strong>Lucky Lemons</strong><p><strong><font class='negOutcome'>You LOST</font><p>You bet: 5</strong></font> &nbsp; &nbsp; &nbsp; &nbsp; &nbsp; &nbsp;<font class='negOutcome'>You receive: <strong>0</strong></font></div>","null","1","Lucky Lemons","Fruit/lemon.png","Lost","0.35,0.8","13","0.35","8","2","",""
"html-keyboard-response","16","209631","0.0-11.0-1.2","5f43ef4041bb5f11a27aa07e","bdp_rwlrn","Sun Mar 12 2023 21:08:42 GMT-0500 (Central Daylight Time)","541790","Trustworthy,Untrustworthy","","757","","","","decision","","<div class='trialDiv'><img src='Fruit/lime.png'><br><font class='baseline'><strong>Limin' Large</strong><p>Choose number of points to bet.</font><div class='respPicDiv'><img src='img/responseButtonOffersNo0L.png' class='respPic'></div></div>","5","1","Limin' Large","Fruit/lime.png","Won","0.65,0.35","13","0.65","13","3","",""
"html-keyboard-response","17","209888","0.0-11.0-2.2","5f43ef4041bb5f11a27aa07e","bdp_rwlrn","Sun Mar 12 2023 21:08:42 GMT-0500 (Central Daylight Time)","541790","Trustworthy,Untrustworthy","","null","","","","decisionFB","","<div class='trialDiv'><img src='Fruit/lime.png'><br><font class='baseline'><strong>Limin' Large</strong><p>Choose number of points to bet.</font><div class='respPicDiv'><img src='img/responseButtonOffersNo0L5.png' class='respPic'></div></div>","null","1","Limin' Large","Fruit/lime.png","Won","0.65,0.35","13","0.65","8","3","",""
"html-keyboard-response","18","210896","0.0-11.0-3.2","5f43ef4041bb5f11a27aa07e","bdp_rwlrn","Sun Mar 12 2023 21:08:42 GMT-0500 (Central Daylight Time)","541790","Trustworthy,Untrustworthy","","null","","","","feedback","","<div class='respPicDiv'><img src='img/responseButtonOffersNo0_wht.png' class='respPic'></div><div class='trialDiv'><img src='Fruit/lime.png'><br><font class='baseline'><strong>Limin' Large</strong><p><strong><font class='posOutcome'>You WON</font><p>You bet: 5</strong></font> &nbsp; &nbsp; &nbsp; &nbsp; &nbsp; &nbsp;<font class='posOutcome'>you receive: <strong>10</strong></font></div>","null","1","Limin' Large","Fruit/lime.png","Won","0.65,0.35","13","0.65","18","3","",""
"html-keyboard-response","19","214680","0.0-11.0-1.3","5f43ef4041bb5f11a27aa07e","bdp_rwlrn","Sun Mar 12 2023 21:08:42 GMT-0500 (Central Daylight Time)","541790","Trustworthy,Untrustworthy","","3782","","","","decision","","<div class='trialDiv'><img src='Fruit/mixed-berries2.png'><br><font class='baseline'><strong>Berry Bla$t</strong><p>Choose number of points to bet.</font><div class='respPicDiv'><img src='img/responseButtonOffersNo0L.png' class='respPic'></div></div>","2","2","Berry Bla$t","Fruit/mixed-berries2.png","Won","0.65,0.2","12","0.65","23","4","",""
"html-keyboard-response","20","214944","0.0-11.0-2.3","5f43ef4041bb5f11a27aa07e","bdp_rwlrn","Sun Mar 12 2023 21:08:42 GMT-0500 (Central Daylight Time)","541790","Trustworthy,Untrustworthy","","null","","","","decisionFB","","<div class='trialDiv'><img src='Fruit/mixed-berries2.png'><br><font class='baseline'><strong>Berry Bla$t</strong><p>Choose number of points to bet.</font><div class='respPicDiv'><img src='img/responseButtonOffersNo0L2.png' class='respPic'></div></div>","null","2","Berry Bla$t","Fruit/mixed-berries2.png","Won","0.65,0.2","12","0.65","21","4","",""
"html-keyboard-response","21","215950","0.0-11.0-3.3","5f43ef4041bb5f11a27aa07e","bdp_rwlrn","Sun Mar 12 2023 21:08:42 GMT-0500 (Central Daylight Time)","541790","Trustworthy,Untrustworthy","","null","","","","feedback","","<div class='respPicDiv'><img src='img/responseButtonOffersNo0_wht.png' class='respPic'></div><div class='trialDiv'><img src='Fruit/mixed-berries2.png'><br><font class='baseline'><strong>Berry Bla$t</strong><p><strong><font class='posOutcome'>You WON</font><p>You bet: 2</strong></font> &nbsp; &nbsp; &nbsp; &nbsp; &nbsp; &nbsp;<font class='posOutcome'>you receive: <strong>4</strong></font></div>","null","2","Berry Bla$t","Fruit/mixed-berries2.png","Won","0.65,0.2","12","0.65","25","4","",""
"html-keyboard-response","22","217838","0.0-11.0-1.4","5f43ef4041bb5f11a27aa07e","bdp_rwlrn","Sun Mar 12 2023 21:08:42 GMT-0500 (Central Daylight Time)","541790","Trustworthy,Untrustworthy","","1886","","","","decision","","<div class='trialDiv'><img src='Fruit/lemon.png'><br><font class='baseline'><strong>Lucky Lemons</strong><p>Choose number of points to bet.</font><div class='respPicDiv'><img src='img/responseButtonOffersNo0L.png' class='respPic'></div></div>","3","2","Lucky Lemons","Fruit/lemon.png","Won","0.35,0.8","13","0.35","30","5","",""
"html-keyboard-response","23","218096","0.0-11.0-2.4","5f43ef4041bb5f11a27aa07e","bdp_rwlrn","Sun Mar 12 2023 21:08:42 GMT-0500 (Central Daylight Time)","541790","Trustworthy,Untrustworthy","","null","","","","decisionFB","","<div class='trialDiv'><img src='Fruit/lemon.png'><br><font class='baseline'><strong>Lucky Lemons</strong><p>Choose number of points to bet.</font><div class='respPicDiv'><img src='img/responseButtonOffersNo0L3.png' class='respPic'></div></div>","null","2","Lucky Lemons","Fruit/lemon.png","Won","0.35,0.8","13","0.35","27","5","",""
"html-keyboard-response","24","219104","0.0-11.0-3.4","5f43ef4041bb5f11a27aa07e","bdp_rwlrn","Sun Mar 12 2023 21:08:42 GMT-0500 (Central Daylight Time)","541790","Trustworthy,Untrustworthy","","null","","","","feedback","","<div class='respPicDiv'><img src='img/responseButtonOffersNo0_wht.png' class='respPic'></div><div class='trialDiv'><img src='Fruit/lemon.png'><br><font class='baseline'><strong>Lucky Lemons</strong><p><strong><font class='posOutcome'>You WON</font><p>You bet: 3</strong></font> &nbsp; &nbsp; &nbsp; &nbsp; &nbsp; &nbsp;<font class='posOutcome'>you receive: <strong>6</strong></font></div>","null","2","Lucky Lemons","Fruit/lemon.png","Won","0.35,0.8","13","0.35","33","5","",""
"html-keyboard-response","25","220954","0.0-11.0-1.5","5f43ef4041bb5f11a27aa07e","bdp_rwlrn","Sun Mar 12 2023 21:08:42 GMT-0500 (Central Daylight Time)","541790","Trustworthy,Untrustworthy","","1847","","","","decision","","<div class='trialDiv'><img src='Fruit/lime.png'><br><font class='baseline'><strong>Limin' Large</strong><p>Choose number of points to bet.</font><div class='respPicDiv'><img src='img/responseButtonOffersNo0L.png' class='respPic'></div></div>","5","2","Limin' Large","Fruit/lime.png","Lost","0.65,0.35","13","0.65","38","6","",""
"html-keyboard-response","26","221216","0.0-11.0-2.5","5f43ef4041bb5f11a27aa07e","bdp_rwlrn","Sun Mar 12 2023 21:08:42 GMT-0500 (Central Daylight Time)","541790","Trustworthy,Untrustworthy","","null","","","","decisionFB","","<div class='trialDiv'><img src='Fruit/lime.png'><br><font class='baseline'><strong>Limin' Large</strong><p>Choose number of points to bet.</font><div class='respPicDiv'><img src='img/responseButtonOffersNo0L5.png' class='respPic'></div></div>","null","2","Limin' Large","Fruit/lime.png","Lost","0.65,0.35","13","0.65","33","6","",""
"html-keyboard-response","27","222224","0.0-11.0-3.5","5f43ef4041bb5f11a27aa07e","bdp_rwlrn","Sun Mar 12 2023 21:08:42 GMT-0500 (Central Daylight Time)","541790","Trustworthy,Untrustworthy","","null","","","","feedback","","<div class='respPicDiv'><img src='img/responseButtonOffersNo0_wht.png' class='respPic'></div><div class='trialDiv'><img src='Fruit/lime.png'><br><font class='baseline'><strong>Limin' Large</strong><p><strong><font class='negOutcome'>You LOST</font><p>You bet: 5</strong></font> &nbsp; &nbsp; &nbsp; &nbsp; &nbsp; &nbsp;<font class='negOutcome'>You receive: <strong>0</strong></font></div>","null","2","Limin' Large","Fruit/lime.png","Lost","0.65,0.35","13","0.65","33","6","",""
"html-keyboard-response","28","222745","0.0-11.0-1.6","5f43ef4041bb5f11a27aa07e","bdp_rwlrn","Sun Mar 12 2023 21:08:42 GMT-0500 (Central Daylight Time)","541790","Trustworthy,Untrustworthy","","519","","","","decision","","<div class='trialDiv'><img src='Fruit/mixed-berries2.png'><br><font class='baseline'><strong>Berry Bla$t</strong><p>Choose number of points to bet.</font><div class='respPicDiv'><img src='img/responseButtonOffersNo0L.png' class='respPic'></div></div>","5","3","Berry Bla$t","Fruit/mixed-berries2.png","Won","0.65,0.2","12","0.65","38","7","",""
"html-keyboard-response","29","223008","0.0-11.0-2.6","5f43ef4041bb5f11a27aa07e","bdp_rwlrn","Sun Mar 12 2023 21:08:42 GMT-0500 (Central Daylight Time)","541790","Trustworthy,Untrustworthy","","null","","","","decisionFB","","<div class='trialDiv'><img src='Fruit/mixed-berries2.png'><br><font class='baseline'><strong>Berry Bla$t</strong><p>Choose number of points to bet.</font><div class='respPicDiv'><img src='img/responseButtonOffersNo0L5.png' class='respPic'></div></div>","null","3","Berry Bla$t","Fruit/mixed-berries2.png","Won","0.65,0.2","12","0.65","33","7","",""
"html-keyboard-response","30","224012","0.0-11.0-3.6","5f43ef4041bb5f11a27aa07e","bdp_rwlrn","Sun Mar 12 2023 21:08:42 GMT-0500 (Central Daylight Time)","541790","Trustworthy,Untrustworthy","","null","","","","feedback","","<div class='respPicDiv'><img src='img/responseButtonOffersNo0_wht.png' class='respPic'></div><div class='trialDiv'><img src='Fruit/mixed-berries2.png'><br><font class='baseline'><strong>Berry Bla$t</strong><p><strong><font class='posOutcome'>You WON</font><p>You bet: 5</strong></font> &nbsp; &nbsp; &nbsp; &nbsp; &nbsp; &nbsp;<font class='posOutcome'>you receive: <strong>10</strong></font></div>","null","3","Berry Bla$t","Fruit/mixed-berries2.png","Won","0.65,0.2","12","0.65","43","7","",""
"html-keyboard-response","31","225263","0.0-11.0-1.7","5f43ef4041bb5f11a27aa07e","bdp_rwlrn","Sun Mar 12 2023 21:08:42 GMT-0500 (Central Daylight Time)","541790","Trustworthy,Untrustworthy","","1248","","","","decision","","<div class='trialDiv'><img src='Fruit/lemon.png'><br><font class='baseline'><strong>Lucky Lemons</strong><p>Choose number of points to bet.</font><div class='respPicDiv'><img src='img/responseButtonOffersNo0L.png' class='respPic'></div></div>","3","3","Lucky Lemons","Fruit/lemon.png","Won","0.35,0.8","13","0.35","48","8","",""
"html-keyboard-response","32","225517","0.0-11.0-2.7","5f43ef4041bb5f11a27aa07e","bdp_rwlrn","Sun Mar 12 2023 21:08:42 GMT-0500 (Central Daylight Time)","541790","Trustworthy,Untrustworthy","","null","","","","decisionFB","","<div class='trialDiv'><img src='Fruit/lemon.png'><br><font class='baseline'><strong>Lucky Lemons</strong><p>Choose number of points to bet.</font><div class='respPicDiv'><img src='img/responseButtonOffersNo0L3.png' class='respPic'></div></div>","null","3","Lucky Lemons","Fruit/lemon.png","Won","0.35,0.8","13","0.35","45","8","",""
"html-keyboard-response","33","226528","0.0-11.0-3.7","5f43ef4041bb5f11a27aa07e","bdp_rwlrn","Sun Mar 12 2023 21:08:42 GMT-0500 (Central Daylight Time)","541790","Trustworthy,Untrustworthy","","null","","","","feedback","","<div class='respPicDiv'><img src='img/responseButtonOffersNo0_wht.png' class='respPic'></div><div class='trialDiv'><img src='Fruit/lemon.png'><br><font class='baseline'><strong>Lucky Lemons</strong><p><strong><font class='posOutcome'>You WON</font><p>You bet: 3</strong></font> &nbsp; &nbsp; &nbsp; &nbsp; &nbsp; &nbsp;<font class='posOutcome'>you receive: <strong>6</strong></font></div>","null","3","Lucky Lemons","Fruit/lemon.png","Won","0.35,0.8","13","0.35","51","8","",""
"html-keyboard-response","34","227186","0.0-11.0-1.8","5f43ef4041bb5f11a27aa07e","bdp_rwlrn","Sun Mar 12 2023 21:08:42 GMT-0500 (Central Daylight Time)","541790","Trustworthy,Untrustworthy","","655","","","","decision","","<div class='trialDiv'><img src='Fruit/lime.png'><br><font class='baseline'><strong>Limin' Large</strong><p>Choose number of points to bet.</font><div class='respPicDiv'><img src='img/responseButtonOffersNo0L.png' class='respPic'></div></div>","4","3","Limin' Large","Fruit/lime.png","Won","0.65,0.35","13","0.65","56","9","",""
"html-keyboard-response","35","227444","0.0-11.0-2.8","5f43ef4041bb5f11a27aa07e","bdp_rwlrn","Sun Mar 12 2023 21:08:42 GMT-0500 (Central Daylight Time)","541790","Trustworthy,Untrustworthy","","null","","","","decisionFB","","<div class='trialDiv'><img src='Fruit/lime.png'><br><font class='baseline'><strong>Limin' Large</strong><p>Choose number of points to bet.</font><div class='respPicDiv'><img src='img/responseButtonOffersNo0L4.png' class='respPic'></div></div>","null","3","Limin' Large","Fruit/lime.png","Won","0.65,0.35","13","0.65","52","9","",""
"html-keyboard-response","36","228456","0.0-11.0-3.8","5f43ef4041bb5f11a27aa07e","bdp_rwlrn","Sun Mar 12 2023 21:08:42 GMT-0500 (Central Daylight Time)","541790","Trustworthy,Untrustworthy","","null","","","","feedback","","<div class='respPicDiv'><img src='img/responseButtonOffersNo0_wht.png' class='respPic'></div><div class='trialDiv'><img src='Fruit/lime.png'><br><font class='baseline'><strong>Limin' Large</strong><p><strong><font class='posOutcome'>You WON</font><p>You bet: 4</strong></font> &nbsp; &nbsp; &nbsp; &nbsp; &nbsp; &nbsp;<font class='posOutcome'>you receive: <strong>8</strong></font></div>","null","3","Limin' Large","Fruit/lime.png","Won","0.65,0.35","13","0.65","60","9","",""
"html-keyboard-response","37","229102","0.0-11.0-1.9","5f43ef4041bb5f11a27aa07e","bdp_rwlrn","Sun Mar 12 2023 21:08:42 GMT-0500 (Central Daylight Time)","541790","Trustworthy,Untrustworthy","","644","","","","decision","","<div class='trialDiv'><img src='Fruit/mixed-berries2.png'><br><font class='baseline'><strong>Berry Bla$t</strong><p>Choose number of points to bet.</font><div class='respPicDiv'><img src='img/responseButtonOffersNo0L.png' class='respPic'></div></div>","5","4","Berry Bla$t","Fruit/mixed-berries2.png","Won","0.65,0.2","12","0.65","65","10","",""
"html-keyboard-response","38","229355","0.0-11.0-2.9","5f43ef4041bb5f11a27aa07e","bdp_rwlrn","Sun Mar 12 2023 21:08:42 GMT-0500 (Central Daylight Time)","541790","Trustworthy,Untrustworthy","","null","","","","decisionFB","","<div class='trialDiv'><img src='Fruit/mixed-berries2.png'><br><font class='baseline'><strong>Berry Bla$t</strong><p>Choose number of points to bet.</font><div class='respPicDiv'><img src='img/responseButtonOffersNo0L5.png' class='respPic'></div></div>","null","4","Berry Bla$t","Fruit/mixed-berries2.png","Won","0.65,0.2","12","0.65","60","10","",""
"html-keyboard-response","39","230367","0.0-11.0-3.9","5f43ef4041bb5f11a27aa07e","bdp_rwlrn","Sun Mar 12 2023 21:08:42 GMT-0500 (Central Daylight Time)","541790","Trustworthy,Untrustworthy","","null","","","","feedback","","<div class='respPicDiv'><img src='img/responseButtonOffersNo0_wht.png' class='respPic'></div><div class='trialDiv'><img src='Fruit/mixed-berries2.png'><br><font class='baseline'><strong>Berry Bla$t</strong><p><strong><font class='posOutcome'>You WON</font><p>You bet: 5</strong></font> &nbsp; &nbsp; &nbsp; &nbsp; &nbsp; &nbsp;<font class='posOutcome'>you receive: <strong>10</strong></font></div>","null","4","Berry Bla$t","Fruit/mixed-berries2.png","Won","0.65,0.2","12","0.65","70","10","",""
"html-keyboard-response","40","231372","0.0-11.0-1.10","5f43ef4041bb5f11a27aa07e","bdp_rwlrn","Sun Mar 12 2023 21:08:42 GMT-0500 (Central Daylight Time)","541790","Trustworthy,Untrustworthy","","1004","","","","decision","","<div class='trialDiv'><img src='Fruit/lime.png'><br><font class='baseline'><strong>Limin' Large</strong><p>Choose number of points to bet.</font><div class='respPicDiv'><img src='img/responseButtonOffersNo0L.png' class='respPic'></div></div>","2","4","Limin' Large","Fruit/lime.png","Lost","0.65,0.35","13","0.65","75","11","",""
"html-keyboard-response","41","231632","0.0-11.0-2.10","5f43ef4041bb5f11a27aa07e","bdp_rwlrn","Sun Mar 12 2023 21:08:42 GMT-0500 (Central Daylight Time)","541790","Trustworthy,Untrustworthy","","null","","","","decisionFB","","<div class='trialDiv'><img src='Fruit/lime.png'><br><font class='baseline'><strong>Limin' Large</strong><p>Choose number of points to bet.</font><div class='respPicDiv'><img src='img/responseButtonOffersNo0L2.png' class='respPic'></div></div>","null","4","Limin' Large","Fruit/lime.png","Lost","0.65,0.35","13","0.65","73","11","",""
"html-keyboard-response","42","232635","0.0-11.0-3.10","5f43ef4041bb5f11a27aa07e","bdp_rwlrn","Sun Mar 12 2023 21:08:42 GMT-0500 (Central Daylight Time)","541790","Trustworthy,Untrustworthy","","null","","","","feedback","","<div class='respPicDiv'><img src='img/responseButtonOffersNo0_wht.png' class='respPic'></div><div class='trialDiv'><img src='Fruit/lime.png'><br><font class='baseline'><strong>Limin' Large</strong><p><strong><font class='negOutcome'>You LOST</font><p>You bet: 2</strong></font> &nbsp; &nbsp; &nbsp; &nbsp; &nbsp; &nbsp;<font class='negOutcome'>You receive: <strong>0</strong></font></div>","null","4","Limin' Large","Fruit/lime.png","Lost","0.65,0.35","13","0.65","73","11","",""
"html-keyboard-response","43","235636","0.0-11.0-1.11","5f43ef4041bb5f11a27aa07e","bdp_rwlrn","Sun Mar 12 2023 21:08:42 GMT-0500 (Central Daylight Time)","541790","Trustworthy,Untrustworthy","","2999","","","","decision","","<div class='trialDiv'><img src='Fruit/lemon.png'><br><font class='baseline'><strong>Lucky Lemons</strong><p>Choose number of points to bet.</font><div class='respPicDiv'><img src='img/responseButtonOffersNo0L.png' class='respPic'></div></div>","4","4","Lucky Lemons","Fruit/lemon.png","Won","0.35,0.8","13","0.35","78","12","",""
"html-keyboard-response","44","235896","0.0-11.0-2.11","5f43ef4041bb5f11a27aa07e","bdp_rwlrn","Sun Mar 12 2023 21:08:42 GMT-0500 (Central Daylight Time)","541790","Trustworthy,Untrustworthy","","null","","","","decisionFB","","<div class='trialDiv'><img src='Fruit/lemon.png'><br><font class='baseline'><strong>Lucky Lemons</strong><p>Choose number of points to bet.</font><div class='respPicDiv'><img src='img/responseButtonOffersNo0L4.png' class='respPic'></div></div>","null","4","Lucky Lemons","Fruit/lemon.png","Won","0.35,0.8","13","0.35","74","12","",""
"html-keyboard-response","45","236901","0.0-11.0-3.11","5f43ef4041bb5f11a27aa07e","bdp_rwlrn","Sun Mar 12 2023 21:08:42 GMT-0500 (Central Daylight Time)","541790","Trustworthy,Untrustworthy","","null","","","","feedback","","<div class='respPicDiv'><img src='img/responseButtonOffersNo0_wht.png' class='respPic'></div><div class='trialDiv'><img src='Fruit/lemon.png'><br><font class='baseline'><strong>Lucky Lemons</strong><p><strong><font class='posOutcome'>You WON</font><p>You bet: 4</strong></font> &nbsp; &nbsp; &nbsp; &nbsp; &nbsp; &nbsp;<font class='posOutcome'>you receive: <strong>8</strong></font></div>","null","4","Lucky Lemons","Fruit/lemon.png","Won","0.35,0.8","13","0.35","82","12","",""
"html-keyboard-response","46","237332","0.0-11.0-1.12","5f43ef4041bb5f11a27aa07e","bdp_rwlrn","Sun Mar 12 2023 21:08:42 GMT-0500 (Central Daylight Time)","541790","Trustworthy,Untrustworthy","","428","","","","decision","","<div class='trialDiv'><img src='Fruit/lime.png'><br><font class='baseline'><strong>Limin' Large</strong><p>Choose number of points to bet.</font><div class='respPicDiv'><img src='img/responseButtonOffersNo0L.png' class='respPic'></div></div>","5","5","Limin' Large","Fruit/lime.png","Lost","0.65,0.35","13","0.65","87","13","",""
"html-keyboard-response","47","237591","0.0-11.0-2.12","5f43ef4041bb5f11a27aa07e","bdp_rwlrn","Sun Mar 12 2023 21:08:42 GMT-0500 (Central Daylight Time)","541790","Trustworthy,Untrustworthy","","null","","","","decisionFB","","<div class='trialDiv'><img src='Fruit/lime.png'><br><font class='baseline'><strong>Limin' Large</strong><p>Choose number of points to bet.</font><div class='respPicDiv'><img src='img/responseButtonOffersNo0L5.png' class='respPic'></div></div>","null","5","Limin' Large","Fruit/lime.png","Lost","0.65,0.35","13","0.65","82","13","",""
"html-keyboard-response","48","238600","0.0-11.0-3.12","5f43ef4041bb5f11a27aa07e","bdp_rwlrn","Sun Mar 12 2023 21:08:42 GMT-0500 (Central Daylight Time)","541790","Trustworthy,Untrustworthy","","null","","","","feedback","","<div class='respPicDiv'><img src='img/responseButtonOffersNo0_wht.png' class='respPic'></div><div class='trialDiv'><img src='Fruit/lime.png'><br><font class='baseline'><strong>Limin' Large</strong><p><strong><font class='negOutcome'>You LOST</font><p>You bet: 5</strong></font> &nbsp; &nbsp; &nbsp; &nbsp; &nbsp; &nbsp;<font class='negOutcome'>You receive: <strong>0</strong></font></div>","null","5","Limin' Large","Fruit/lime.png","Lost","0.65,0.35","13","0.65","82","13","",""
"html-keyboard-response","49","239903","0.0-11.0-1.13","5f43ef4041bb5f11a27aa07e","bdp_rwlrn","Sun Mar 12 2023 21:08:42 GMT-0500 (Central Daylight Time)","541790","Trustworthy,Untrustworthy","","1301","","","","decision","","<div class='trialDiv'><img src='Fruit/mixed-berries2.png'><br><font class='baseline'><strong>Berry Bla$t</strong><p>Choose number of points to bet.</font><div class='respPicDiv'><img src='img/responseButtonOffersNo0L.png' class='respPic'></div></div>","3","5","Berry Bla$t","Fruit/mixed-berries2.png","Won","0.65,0.2","12","0.65","87","14","",""
"html-keyboard-response","50","240164","0.0-11.0-2.13","5f43ef4041bb5f11a27aa07e","bdp_rwlrn","Sun Mar 12 2023 21:08:42 GMT-0500 (Central Daylight Time)","541790","Trustworthy,Untrustworthy","","null","","","","decisionFB","","<div class='trialDiv'><img src='Fruit/mixed-berries2.png'><br><font class='baseline'><strong>Berry Bla$t</strong><p>Choose number of points to bet.</font><div class='respPicDiv'><img src='img/responseButtonOffersNo0L3.png' class='respPic'></div></div>","null","5","Berry Bla$t","Fruit/mixed-berries2.png","Won","0.65,0.2","12","0.65","84","14","",""
"html-keyboard-response","51","241174","0.0-11.0-3.13","5f43ef4041bb5f11a27aa07e","bdp_rwlrn","Sun Mar 12 2023 21:08:42 GMT-0500 (Central Daylight Time)","541790","Trustworthy,Untrustworthy","","null","","","","feedback","","<div class='respPicDiv'><img src='img/responseButtonOffersNo0_wht.png' class='respPic'></div><div class='trialDiv'><img src='Fruit/mixed-berries2.png'><br><font class='baseline'><strong>Berry Bla$t</strong><p><strong><font class='posOutcome'>You WON</font><p>You bet: 3</strong></font> &nbsp; &nbsp; &nbsp; &nbsp; &nbsp; &nbsp;<font class='posOutcome'>you receive: <strong>6</strong></font></div>","null","5","Berry Bla$t","Fruit/mixed-berries2.png","Won","0.65,0.2","12","0.65","90","14","",""
"html-keyboard-response","52","241918","0.0-11.0-1.14","5f43ef4041bb5f11a27aa07e","bdp_rwlrn","Sun Mar 12 2023 21:08:42 GMT-0500 (Central Daylight Time)","541790","Trustworthy,Untrustworthy","","742","","","","decision","","<div class='trialDiv'><img src='Fruit/lemon.png'><br><font class='baseline'><strong>Lucky Lemons</strong><p>Choose number of points to bet.</font><div class='respPicDiv'><img src='img/responseButtonOffersNo0L.png' class='respPic'></div></div>","5","5","Lucky Lemons","Fruit/lemon.png","Lost","0.35,0.8","13","0.35","95","15","",""
"html-keyboard-response","53","242176","0.0-11.0-2.14","5f43ef4041bb5f11a27aa07e","bdp_rwlrn","Sun Mar 12 2023 21:08:42 GMT-0500 (Central Daylight Time)","541790","Trustworthy,Untrustworthy","","null","","","","decisionFB","","<div class='trialDiv'><img src='Fruit/lemon.png'><br><font class='baseline'><strong>Lucky Lemons</strong><p>Choose number of points to bet.</font><div class='respPicDiv'><img src='img/responseButtonOffersNo0L5.png' class='respPic'></div></div>","null","5","Lucky Lemons","Fruit/lemon.png","Lost","0.35,0.8","13","0.35","90","15","",""
"html-keyboard-response","54","243184","0.0-11.0-3.14","5f43ef4041bb5f11a27aa07e","bdp_rwlrn","Sun Mar 12 2023 21:08:42 GMT-0500 (Central Daylight Time)","541790","Trustworthy,Untrustworthy","","null","","","","feedback","","<div class='respPicDiv'><img src='img/responseButtonOffersNo0_wht.png' class='respPic'></div><div class='trialDiv'><img src='Fruit/lemon.png'><br><font class='baseline'><strong>Lucky Lemons</strong><p><strong><font class='negOutcome'>You LOST</font><p>You bet: 5</strong></font> &nbsp; &nbsp; &nbsp; &nbsp; &nbsp; &nbsp;<font class='negOutcome'>You receive: <strong>0</strong></font></div>","null","5","Lucky Lemons","Fruit/lemon.png","Lost","0.35,0.8","13","0.35","90","15","",""
"html-keyboard-response","55","243753","0.0-11.0-1.15","5f43ef4041bb5f11a27aa07e","bdp_rwlrn","Sun Mar 12 2023 21:08:42 GMT-0500 (Central Daylight Time)","541790","Trustworthy,Untrustworthy","","568","","","","decision","","<div class='trialDiv'><img src='Fruit/lime.png'><br><font class='baseline'><strong>Limin' Large</strong><p>Choose number of points to bet.</font><div class='respPicDiv'><img src='img/responseButtonOffersNo0L.png' class='respPic'></div></div>","5","6","Limin' Large","Fruit/lime.png","Won","0.65,0.35","13","0.65","95","16","",""
"html-keyboard-response","56","244016","0.0-11.0-2.15","5f43ef4041bb5f11a27aa07e","bdp_rwlrn","Sun Mar 12 2023 21:08:42 GMT-0500 (Central Daylight Time)","541790","Trustworthy,Untrustworthy","","null","","","","decisionFB","","<div class='trialDiv'><img src='Fruit/lime.png'><br><font class='baseline'><strong>Limin' Large</strong><p>Choose number of points to bet.</font><div class='respPicDiv'><img src='img/responseButtonOffersNo0L5.png' class='respPic'></div></div>","null","6","Limin' Large","Fruit/lime.png","Won","0.65,0.35","13","0.65","90","16","",""
"html-keyboard-response","57","245019","0.0-11.0-3.15","5f43ef4041bb5f11a27aa07e","bdp_rwlrn","Sun Mar 12 2023 21:08:42 GMT-0500 (Central Daylight Time)","541790","Trustworthy,Untrustworthy","","null","","","","feedback","","<div class='respPicDiv'><img src='img/responseButtonOffersNo0_wht.png' class='respPic'></div><div class='trialDiv'><img src='Fruit/lime.png'><br><font class='baseline'><strong>Limin' Large</strong><p><strong><font class='posOutcome'>You WON</font><p>You bet: 5</strong></font> &nbsp; &nbsp; &nbsp; &nbsp; &nbsp; &nbsp;<font class='posOutcome'>you receive: <strong>10</strong></font></div>","null","6","Limin' Large","Fruit/lime.png","Won","0.65,0.35","13","0.65","100","16","",""
"html-keyboard-response","58","245788","0.0-11.0-1.16","5f43ef4041bb5f11a27aa07e","bdp_rwlrn","Sun Mar 12 2023 21:08:42 GMT-0500 (Central Daylight Time)","541790","Trustworthy,Untrustworthy","","767","","","","decision","","<div class='trialDiv'><img src='Fruit/mixed-berries2.png'><br><font class='baseline'><strong>Berry Bla$t</strong><p>Choose number of points to bet.</font><div class='respPicDiv'><img src='img/responseButtonOffersNo0L.png' class='respPic'></div></div>","1","6","Berry Bla$t","Fruit/mixed-berries2.png","Won","0.65,0.2","12","0.65","105","17","",""
"html-keyboard-response","59","246046","0.0-11.0-2.16","5f43ef4041bb5f11a27aa07e","bdp_rwlrn","Sun Mar 12 2023 21:08:42 GMT-0500 (Central Daylight Time)","541790","Trustworthy,Untrustworthy","","null","","","","decisionFB","","<div class='trialDiv'><img src='Fruit/mixed-berries2.png'><br><font class='baseline'><strong>Berry Bla$t</strong><p>Choose number of points to bet.</font><div class='respPicDiv'><img src='img/responseButtonOffersNo0L1.png' class='respPic'></div></div>","null","6","Berry Bla$t","Fruit/mixed-berries2.png","Won","0.65,0.2","12","0.65","104","17","",""
"html-keyboard-response","60","247056","0.0-11.0-3.16","5f43ef4041bb5f11a27aa07e","bdp_rwlrn","Sun Mar 12 2023 21:08:42 GMT-0500 (Central Daylight Time)","541790","Trustworthy,Untrustworthy","","null","","","","feedback","","<div class='respPicDiv'><img src='img/responseButtonOffersNo0_wht.png' class='respPic'></div><div class='trialDiv'><img src='Fruit/mixed-berries2.png'><br><font class='baseline'><strong>Berry Bla$t</strong><p><strong><font class='posOutcome'>You WON</font><p>You bet: 1</strong></font> &nbsp; &nbsp; &nbsp; &nbsp; &nbsp; &nbsp;<font class='posOutcome'>you receive: <strong>2</strong></font></div>","null","6","Berry Bla$t","Fruit/mixed-berries2.png","Won","0.65,0.2","12","0.65","106","17","",""
"html-keyboard-response","61","247604","0.0-11.0-1.17","5f43ef4041bb5f11a27aa07e","bdp_rwlrn","Sun Mar 12 2023 21:08:42 GMT-0500 (Central Daylight Time)","541790","Trustworthy,Untrustworthy","","545","","","","decision","","<div class='trialDiv'><img src='Fruit/lemon.png'><br><font class='baseline'><strong>Lucky Lemons</strong><p>Choose number of points to bet.</font><div class='respPicDiv'><img src='img/responseButtonOffersNo0L.png' class='respPic'></div></div>","3","6","Lucky Lemons","Fruit/lemon.png","Lost","0.35,0.8","13","0.35","111","18","",""
"html-keyboard-response","62","247859","0.0-11.0-2.17","5f43ef4041bb5f11a27aa07e","bdp_rwlrn","Sun Mar 12 2023 21:08:42 GMT-0500 (Central Daylight Time)","541790","Trustworthy,Untrustworthy","","null","","","","decisionFB","","<div class='trialDiv'><img src='Fruit/lemon.png'><br><font class='baseline'><strong>Lucky Lemons</strong><p>Choose number of points to bet.</font><div class='respPicDiv'><img src='img/responseButtonOffersNo0L3.png' class='respPic'></div></div>","null","6","Lucky Lemons","Fruit/lemon.png","Lost","0.35,0.8","13","0.35","108","18","",""
"html-keyboard-response","63","248868","0.0-11.0-3.17","5f43ef4041bb5f11a27aa07e","bdp_rwlrn","Sun Mar 12 2023 21:08:42 GMT-0500 (Central Daylight Time)","541790","Trustworthy,Untrustworthy","","null","","","","feedback","","<div class='respPicDiv'><img src='img/responseButtonOffersNo0_wht.png' class='respPic'></div><div class='trialDiv'><img src='Fruit/lemon.png'><br><font class='baseline'><strong>Lucky Lemons</strong><p><strong><font class='negOutcome'>You LOST</font><p>You bet: 3</strong></font> &nbsp; &nbsp; &nbsp; &nbsp; &nbsp; &nbsp;<font class='negOutcome'>You receive: <strong>0</strong></font></div>","null","6","Lucky Lemons","Fruit/lemon.png","Lost","0.35,0.8","13","0.35","108","18","",""
"html-keyboard-response","64","249988","0.0-11.0-1.18","5f43ef4041bb5f11a27aa07e","bdp_rwlrn","Sun Mar 12 2023 21:08:42 GMT-0500 (Central Daylight Time)","541790","Trustworthy,Untrustworthy","","1119","","","","decision","","<div class='trialDiv'><img src='Fruit/lime.png'><br><font class='baseline'><strong>Limin' Large</strong><p>Choose number of points to bet.</font><div class='respPicDiv'><img src='img/responseButtonOffersNo0L.png' class='respPic'></div></div>","3","7","Limin' Large","Fruit/lime.png","Won","0.65,0.35","13","0.65","113","19","",""
"html-keyboard-response","65","250247","0.0-11.0-2.18","5f43ef4041bb5f11a27aa07e","bdp_rwlrn","Sun Mar 12 2023 21:08:42 GMT-0500 (Central Daylight Time)","541790","Trustworthy,Untrustworthy","","null","","","","decisionFB","","<div class='trialDiv'><img src='Fruit/lime.png'><br><font class='baseline'><strong>Limin' Large</strong><p>Choose number of points to bet.</font><div class='respPicDiv'><img src='img/responseButtonOffersNo0L3.png' class='respPic'></div></div>","null","7","Limin' Large","Fruit/lime.png","Won","0.65,0.35","13","0.65","110","19","",""
"html-keyboard-response","66","251255","0.0-11.0-3.18","5f43ef4041bb5f11a27aa07e","bdp_rwlrn","Sun Mar 12 2023 21:08:42 GMT-0500 (Central Daylight Time)","541790","Trustworthy,Untrustworthy","","null","","","","feedback","","<div class='respPicDiv'><img src='img/responseButtonOffersNo0_wht.png' class='respPic'></div><div class='trialDiv'><img src='Fruit/lime.png'><br><font class='baseline'><strong>Limin' Large</strong><p><strong><font class='posOutcome'>You WON</font><p>You bet: 3</strong></font> &nbsp; &nbsp; &nbsp; &nbsp; &nbsp; &nbsp;<font class='posOutcome'>you receive: <strong>6</strong></font></div>","null","7","Limin' Large","Fruit/lime.png","Won","0.65,0.35","13","0.65","116","19","",""
"html-keyboard-response","67","252889","0.0-11.0-1.19","5f43ef4041bb5f11a27aa07e","bdp_rwlrn","Sun Mar 12 2023 21:08:42 GMT-0500 (Central Daylight Time)","541790","Trustworthy,Untrustworthy","","1631","","","","decision","","<div class='trialDiv'><img src='Fruit/mixed-berries2.png'><br><font class='baseline'><strong>Berry Bla$t</strong><p>Choose number of points to bet.</font><div class='respPicDiv'><img src='img/responseButtonOffersNo0L.png' class='respPic'></div></div>","4","7","Berry Bla$t","Fruit/mixed-berries2.png","Won","0.65,0.2","12","0.65","121","20","",""
"html-keyboard-response","68","253151","0.0-11.0-2.19","5f43ef4041bb5f11a27aa07e","bdp_rwlrn","Sun Mar 12 2023 21:08:42 GMT-0500 (Central Daylight Time)","541790","Trustworthy,Untrustworthy","","null","","","","decisionFB","","<div class='trialDiv'><img src='Fruit/mixed-berries2.png'><br><font class='baseline'><strong>Berry Bla$t</strong><p>Choose number of points to bet.</font><div class='respPicDiv'><img src='img/responseButtonOffersNo0L4.png' class='respPic'></div></div>","null","7","Berry Bla$t","Fruit/mixed-berries2.png","Won","0.65,0.2","12","0.65","117","20","",""
"html-keyboard-response","69","254159","0.0-11.0-3.19","5f43ef4041bb5f11a27aa07e","bdp_rwlrn","Sun Mar 12 2023 21:08:42 GMT-0500 (Central Daylight Time)","541790","Trustworthy,Untrustworthy","","null","","","","feedback","","<div class='respPicDiv'><img src='img/responseButtonOffersNo0_wht.png' class='respPic'></div><div class='trialDiv'><img src='Fruit/mixed-berries2.png'><br><font class='baseline'><strong>Berry Bla$t</strong><p><strong><font class='posOutcome'>You WON</font><p>You bet: 4</strong></font> &nbsp; &nbsp; &nbsp; &nbsp; &nbsp; &nbsp;<font class='posOutcome'>you receive: <strong>8</strong></font></div>","null","7","Berry Bla$t","Fruit/mixed-berries2.png","Won","0.65,0.2","12","0.65","125","20","",""
"html-keyboard-response","70","254595","0.0-11.0-1.20","5f43ef4041bb5f11a27aa07e","bdp_rwlrn","Sun Mar 12 2023 21:08:42 GMT-0500 (Central Daylight Time)","541790","Trustworthy,Untrustworthy","","433","","","","decision","","<div class='trialDiv'><img src='Fruit/lemon.png'><br><font class='baseline'><strong>Lucky Lemons</strong><p>Choose number of points to bet.</font><div class='respPicDiv'><img src='img/responseButtonOffersNo0L.png' class='respPic'></div></div>","5","7","Lucky Lemons","Fruit/lemon.png","Lost","0.35,0.8","13","0.35","130","21","",""
"html-keyboard-response","71","254855","0.0-11.0-2.20","5f43ef4041bb5f11a27aa07e","bdp_rwlrn","Sun Mar 12 2023 21:08:42 GMT-0500 (Central Daylight Time)","541790","Trustworthy,Untrustworthy","","null","","","","decisionFB","","<div class='trialDiv'><img src='Fruit/lemon.png'><br><font class='baseline'><strong>Lucky Lemons</strong><p>Choose number of points to bet.</font><div class='respPicDiv'><img src='img/responseButtonOffersNo0L5.png' class='respPic'></div></div>","null","7","Lucky Lemons","Fruit/lemon.png","Lost","0.35,0.8","13","0.35","125","21","",""
"html-keyboard-response","72","255859","0.0-11.0-3.20","5f43ef4041bb5f11a27aa07e","bdp_rwlrn","Sun Mar 12 2023 21:08:42 GMT-0500 (Central Daylight Time)","541790","Trustworthy,Untrustworthy","","null","","","","feedback","","<div class='respPicDiv'><img src='img/responseButtonOffersNo0_wht.png' class='respPic'></div><div class='trialDiv'><img src='Fruit/lemon.png'><br><font class='baseline'><strong>Lucky Lemons</strong><p><strong><font class='negOutcome'>You LOST</font><p>You bet: 5</strong></font> &nbsp; &nbsp; &nbsp; &nbsp; &nbsp; &nbsp;<font class='negOutcome'>You receive: <strong>0</strong></font></div>","null","7","Lucky Lemons","Fruit/lemon.png","Lost","0.35,0.8","13","0.35","125","21","",""
"html-keyboard-response","73","256439","0.0-11.0-1.21","5f43ef4041bb5f11a27aa07e","bdp_rwlrn","Sun Mar 12 2023 21:08:42 GMT-0500 (Central Daylight Time)","541790","Trustworthy,Untrustworthy","","578","","","","decision","","<div class='trialDiv'><img src='Fruit/lime.png'><br><font class='baseline'><strong>Limin' Large</strong><p>Choose number of points to bet.</font><div class='respPicDiv'><img src='img/responseButtonOffersNo0L.png' class='respPic'></div></div>","5","8","Limin' Large","Fruit/lime.png","Lost","0.65,0.35","13","0.65","130","22","",""
"html-keyboard-response","74","256703","0.0-11.0-2.21","5f43ef4041bb5f11a27aa07e","bdp_rwlrn","Sun Mar 12 2023 21:08:42 GMT-0500 (Central Daylight Time)","541790","Trustworthy,Untrustworthy","","null","","","","decisionFB","","<div class='trialDiv'><img src='Fruit/lime.png'><br><font class='baseline'><strong>Limin' Large</strong><p>Choose number of points to bet.</font><div class='respPicDiv'><img src='img/responseButtonOffersNo0L5.png' class='respPic'></div></div>","null","8","Limin' Large","Fruit/lime.png","Lost","0.65,0.35","13","0.65","125","22","",""
"html-keyboard-response","75","257708","0.0-11.0-3.21","5f43ef4041bb5f11a27aa07e","bdp_rwlrn","Sun Mar 12 2023 21:08:42 GMT-0500 (Central Daylight Time)","541790","Trustworthy,Untrustworthy","","null","","","","feedback","","<div class='respPicDiv'><img src='img/responseButtonOffersNo0_wht.png' class='respPic'></div><div class='trialDiv'><img src='Fruit/lime.png'><br><font class='baseline'><strong>Limin' Large</strong><p><strong><font class='negOutcome'>You LOST</font><p>You bet: 5</strong></font> &nbsp; &nbsp; &nbsp; &nbsp; &nbsp; &nbsp;<font class='negOutcome'>You receive: <strong>0</strong></font></div>","null","8","Limin' Large","Fruit/lime.png","Lost","0.65,0.35","13","0.65","125","22","",""
"html-keyboard-response","76","258386","0.0-11.0-1.22","5f43ef4041bb5f11a27aa07e","bdp_rwlrn","Sun Mar 12 2023 21:08:42 GMT-0500 (Central Daylight Time)","541790","Trustworthy,Untrustworthy","","676","","","","decision","","<div class='trialDiv'><img src='Fruit/mixed-berries2.png'><br><font class='baseline'><strong>Berry Bla$t</strong><p>Choose number of points to bet.</font><div class='respPicDiv'><img src='img/responseButtonOffersNo0L.png' class='respPic'></div></div>","5","8","Berry Bla$t","Fruit/mixed-berries2.png","Won","0.65,0.2","12","0.65","130","23","",""
"html-keyboard-response","77","258643","0.0-11.0-2.22","5f43ef4041bb5f11a27aa07e","bdp_rwlrn","Sun Mar 12 2023 21:08:42 GMT-0500 (Central Daylight Time)","541790","Trustworthy,Untrustworthy","","null","","","","decisionFB","","<div class='trialDiv'><img src='Fruit/mixed-berries2.png'><br><font class='baseline'><strong>Berry Bla$t</strong><p>Choose number of points to bet.</font><div class='respPicDiv'><img src='img/responseButtonOffersNo0L5.png' class='respPic'></div></div>","null","8","Berry Bla$t","Fruit/mixed-berries2.png","Won","0.65,0.2","12","0.65","125","23","",""
"html-keyboard-response","78","259651","0.0-11.0-3.22","5f43ef4041bb5f11a27aa07e","bdp_rwlrn","Sun Mar 12 2023 21:08:42 GMT-0500 (Central Daylight Time)","541790","Trustworthy,Untrustworthy","","null","","","","feedback","","<div class='respPicDiv'><img src='img/responseButtonOffersNo0_wht.png' class='respPic'></div><div class='trialDiv'><img src='Fruit/mixed-berries2.png'><br><font class='baseline'><strong>Berry Bla$t</strong><p><strong><font class='posOutcome'>You WON</font><p>You bet: 5</strong></font> &nbsp; &nbsp; &nbsp; &nbsp; &nbsp; &nbsp;<font class='posOutcome'>you receive: <strong>10</strong></font></div>","null","8","Berry Bla$t","Fruit/mixed-berries2.png","Won","0.65,0.2","12","0.65","135","23","",""
"html-keyboard-response","79","261243","0.0-11.0-1.23","5f43ef4041bb5f11a27aa07e","bdp_rwlrn","Sun Mar 12 2023 21:08:42 GMT-0500 (Central Daylight Time)","541790","Trustworthy,Untrustworthy","","1589","","","","decision","","<div class='trialDiv'><img src='Fruit/lemon.png'><br><font class='baseline'><strong>Lucky Lemons</strong><p>Choose number of points to bet.</font><div class='respPicDiv'><img src='img/responseButtonOffersNo0L.png' class='respPic'></div></div>","3","8","Lucky Lemons","Fruit/lemon.png","Lost","0.35,0.8","13","0.35","140","24","",""
"html-keyboard-response","80","261501","0.0-11.0-2.23","5f43ef4041bb5f11a27aa07e","bdp_rwlrn","Sun Mar 12 2023 21:08:42 GMT-0500 (Central Daylight Time)","541790","Trustworthy,Untrustworthy","","null","","","","decisionFB","","<div class='trialDiv'><img src='Fruit/lemon.png'><br><font class='baseline'><strong>Lucky Lemons</strong><p>Choose number of points to bet.</font><div class='respPicDiv'><img src='img/responseButtonOffersNo0L3.png' class='respPic'></div></div>","null","8","Lucky Lemons","Fruit/lemon.png","Lost","0.35,0.8","13","0.35","137","24","",""
"html-keyboard-response","81","262508","0.0-11.0-3.23","5f43ef4041bb5f11a27aa07e","bdp_rwlrn","Sun Mar 12 2023 21:08:42 GMT-0500 (Central Daylight Time)","541790","Trustworthy,Untrustworthy","","null","","","","feedback","","<div class='respPicDiv'><img src='img/responseButtonOffersNo0_wht.png' class='respPic'></div><div class='trialDiv'><img src='Fruit/lemon.png'><br><font class='baseline'><strong>Lucky Lemons</strong><p><strong><font class='negOutcome'>You LOST</font><p>You bet: 3</strong></font> &nbsp; &nbsp; &nbsp; &nbsp; &nbsp; &nbsp;<font class='negOutcome'>You receive: <strong>0</strong></font></div>","null","8","Lucky Lemons","Fruit/lemon.png","Lost","0.35,0.8","13","0.35","137","24","",""
"html-keyboard-response","82","263217","0.0-11.0-1.24","5f43ef4041bb5f11a27aa07e","bdp_rwlrn","Sun Mar 12 2023 21:08:42 GMT-0500 (Central Daylight Time)","541790","Trustworthy,Untrustworthy","","706","","","","decision","","<div class='trialDiv'><img src='Fruit/mixed-berries2.png'><br><font class='baseline'><strong>Berry Bla$t</strong><p>Choose number of points to bet.</font><div class='respPicDiv'><img src='img/responseButtonOffersNo0L.png' class='respPic'></div></div>","4","9","Berry Bla$t","Fruit/mixed-berries2.png","Won","0.65,0.2","12","0.65","142","25","",""
"html-keyboard-response","83","263479","0.0-11.0-2.24","5f43ef4041bb5f11a27aa07e","bdp_rwlrn","Sun Mar 12 2023 21:08:42 GMT-0500 (Central Daylight Time)","541790","Trustworthy,Untrustworthy","","null","","","","decisionFB","","<div class='trialDiv'><img src='Fruit/mixed-berries2.png'><br><font class='baseline'><strong>Berry Bla$t</strong><p>Choose number of points to bet.</font><div class='respPicDiv'><img src='img/responseButtonOffersNo0L4.png' class='respPic'></div></div>","null","9","Berry Bla$t","Fruit/mixed-berries2.png","Won","0.65,0.2","12","0.65","138","25","",""
"html-keyboard-response","84","264483","0.0-11.0-3.24","5f43ef4041bb5f11a27aa07e","bdp_rwlrn","Sun Mar 12 2023 21:08:42 GMT-0500 (Central Daylight Time)","541790","Trustworthy,Untrustworthy","","null","","","","feedback","","<div class='respPicDiv'><img src='img/responseButtonOffersNo0_wht.png' class='respPic'></div><div class='trialDiv'><img src='Fruit/mixed-berries2.png'><br><font class='baseline'><strong>Berry Bla$t</strong><p><strong><font class='posOutcome'>You WON</font><p>You bet: 4</strong></font> &nbsp; &nbsp; &nbsp; &nbsp; &nbsp; &nbsp;<font class='posOutcome'>you receive: <strong>8</strong></font></div>","null","9","Berry Bla$t","Fruit/mixed-berries2.png","Won","0.65,0.2","12","0.65","146","25","",""
"html-keyboard-response","85","265034","0.0-11.0-1.25","5f43ef4041bb5f11a27aa07e","bdp_rwlrn","Sun Mar 12 2023 21:08:42 GMT-0500 (Central Daylight Time)","541790","Trustworthy,Untrustworthy","","547","","","","decision","","<div class='trialDiv'><img src='Fruit/lemon.png'><br><font class='baseline'><strong>Lucky Lemons</strong><p>Choose number of points to bet.</font><div class='respPicDiv'><img src='img/responseButtonOffersNo0L.png' class='respPic'></div></div>","2","9","Lucky Lemons","Fruit/lemon.png","Won","0.35,0.8","13","0.35","151","26","",""
"html-keyboard-response","86","265292","0.0-11.0-2.25","5f43ef4041bb5f11a27aa07e","bdp_rwlrn","Sun Mar 12 2023 21:08:42 GMT-0500 (Central Daylight Time)","541790","Trustworthy,Untrustworthy","","null","","","","decisionFB","","<div class='trialDiv'><img src='Fruit/lemon.png'><br><font class='baseline'><strong>Lucky Lemons</strong><p>Choose number of points to bet.</font><div class='respPicDiv'><img src='img/responseButtonOffersNo0L2.png' class='respPic'></div></div>","null","9","Lucky Lemons","Fruit/lemon.png","Won","0.35,0.8","13","0.35","149","26","",""
"html-keyboard-response","87","266299","0.0-11.0-3.25","5f43ef4041bb5f11a27aa07e","bdp_rwlrn","Sun Mar 12 2023 21:08:42 GMT-0500 (Central Daylight Time)","541790","Trustworthy,Untrustworthy","","null","","","","feedback","","<div class='respPicDiv'><img src='img/responseButtonOffersNo0_wht.png' class='respPic'></div><div class='trialDiv'><img src='Fruit/lemon.png'><br><font class='baseline'><strong>Lucky Lemons</strong><p><strong><font class='posOutcome'>You WON</font><p>You bet: 2</strong></font> &nbsp; &nbsp; &nbsp; &nbsp; &nbsp; &nbsp;<font class='posOutcome'>you receive: <strong>4</strong></font></div>","null","9","Lucky Lemons","Fruit/lemon.png","Won","0.35,0.8","13","0.35","153","26","",""
"html-keyboard-response","88","266982","0.0-11.0-1.26","5f43ef4041bb5f11a27aa07e","bdp_rwlrn","Sun Mar 12 2023 21:08:42 GMT-0500 (Central Daylight Time)","541790","Trustworthy,Untrustworthy","","681","","","","decision","","<div class='trialDiv'><img src='Fruit/lime.png'><br><font class='baseline'><strong>Limin' Large</strong><p>Choose number of points to bet.</font><div class='respPicDiv'><img src='img/responseButtonOffersNo0L.png' class='respPic'></div></div>","2","9","Limin' Large","Fruit/lime.png","Won","0.65,0.35","13","0.65","158","27","",""
"html-keyboard-response","89","267235","0.0-11.0-2.26","5f43ef4041bb5f11a27aa07e","bdp_rwlrn","Sun Mar 12 2023 21:08:42 GMT-0500 (Central Daylight Time)","541790","Trustworthy,Untrustworthy","","null","","","","decisionFB","","<div class='trialDiv'><img src='Fruit/lime.png'><br><font class='baseline'><strong>Limin' Large</strong><p>Choose number of points to bet.</font><div class='respPicDiv'><img src='img/responseButtonOffersNo0L2.png' class='respPic'></div></div>","null","9","Limin' Large","Fruit/lime.png","Won","0.65,0.35","13","0.65","156","27","",""
"html-keyboard-response","90","268247","0.0-11.0-3.26","5f43ef4041bb5f11a27aa07e","bdp_rwlrn","Sun Mar 12 2023 21:08:42 GMT-0500 (Central Daylight Time)","541790","Trustworthy,Untrustworthy","","null","","","","feedback","","<div class='respPicDiv'><img src='img/responseButtonOffersNo0_wht.png' class='respPic'></div><div class='trialDiv'><img src='Fruit/lime.png'><br><font class='baseline'><strong>Limin' Large</strong><p><strong><font class='posOutcome'>You WON</font><p>You bet: 2</strong></font> &nbsp; &nbsp; &nbsp; &nbsp; &nbsp; &nbsp;<font class='posOutcome'>you receive: <strong>4</strong></font></div>","null","9","Limin' Large","Fruit/lime.png","Won","0.65,0.35","13","0.65","160","27","",""
"html-keyboard-response","91","268868","0.0-11.0-1.27","5f43ef4041bb5f11a27aa07e","bdp_rwlrn","Sun Mar 12 2023 21:08:42 GMT-0500 (Central Daylight Time)","541790","Trustworthy,Untrustworthy","","618","","","","decision","","<div class='trialDiv'><img src='Fruit/lemon.png'><br><font class='baseline'><strong>Lucky Lemons</strong><p>Choose number of points to bet.</font><div class='respPicDiv'><img src='img/responseButtonOffersNo0L.png' class='respPic'></div></div>","3","10","Lucky Lemons","Fruit/lemon.png","Won","0.35,0.8","13","0.35","165","28","",""
"html-keyboard-response","92","269127","0.0-11.0-2.27","5f43ef4041bb5f11a27aa07e","bdp_rwlrn","Sun Mar 12 2023 21:08:42 GMT-0500 (Central Daylight Time)","541790","Trustworthy,Untrustworthy","","null","","","","decisionFB","","<div class='trialDiv'><img src='Fruit/lemon.png'><br><font class='baseline'><strong>Lucky Lemons</strong><p>Choose number of points to bet.</font><div class='respPicDiv'><img src='img/responseButtonOffersNo0L3.png' class='respPic'></div></div>","null","10","Lucky Lemons","Fruit/lemon.png","Won","0.35,0.8","13","0.35","162","28","",""
"html-keyboard-response","93","270133","0.0-11.0-3.27","5f43ef4041bb5f11a27aa07e","bdp_rwlrn","Sun Mar 12 2023 21:08:42 GMT-0500 (Central Daylight Time)","541790","Trustworthy,Untrustworthy","","null","","","","feedback","","<div class='respPicDiv'><img src='img/responseButtonOffersNo0_wht.png' class='respPic'></div><div class='trialDiv'><img src='Fruit/lemon.png'><br><font class='baseline'><strong>Lucky Lemons</strong><p><strong><font class='posOutcome'>You WON</font><p>You bet: 3</strong></font> &nbsp; &nbsp; &nbsp; &nbsp; &nbsp; &nbsp;<font class='posOutcome'>you receive: <strong>6</strong></font></div>","null","10","Lucky Lemons","Fruit/lemon.png","Won","0.35,0.8","13","0.35","168","28","",""
"html-keyboard-response","94","270932","0.0-11.0-1.28","5f43ef4041bb5f11a27aa07e","bdp_rwlrn","Sun Mar 12 2023 21:08:42 GMT-0500 (Central Daylight Time)","541790","Trustworthy,Untrustworthy","","797","","","","decision","","<div class='trialDiv'><img src='Fruit/mixed-berries2.png'><br><font class='baseline'><strong>Berry Bla$t</strong><p>Choose number of points to bet.</font><div class='respPicDiv'><img src='img/responseButtonOffersNo0L.png' class='respPic'></div></div>","4","10","Berry Bla$t","Fruit/mixed-berries2.png","Lost","0.65,0.2","12","0.65","173","29","",""
"html-keyboard-response","95","271190","0.0-11.0-2.28","5f43ef4041bb5f11a27aa07e","bdp_rwlrn","Sun Mar 12 2023 21:08:42 GMT-0500 (Central Daylight Time)","541790","Trustworthy,Untrustworthy","","null","","","","decisionFB","","<div class='trialDiv'><img src='Fruit/mixed-berries2.png'><br><font class='baseline'><strong>Berry Bla$t</strong><p>Choose number of points to bet.</font><div class='respPicDiv'><img src='img/responseButtonOffersNo0L4.png' class='respPic'></div></div>","null","10","Berry Bla$t","Fruit/mixed-berries2.png","Lost","0.65,0.2","12","0.65","169","29","",""
"html-keyboard-response","96","272199","0.0-11.0-3.28","5f43ef4041bb5f11a27aa07e","bdp_rwlrn","Sun Mar 12 2023 21:08:42 GMT-0500 (Central Daylight Time)","541790","Trustworthy,Untrustworthy","","null","","","","feedback","","<div class='respPicDiv'><img src='img/responseButtonOffersNo0_wht.png' class='respPic'></div><div class='trialDiv'><img src='Fruit/mixed-berries2.png'><br><font class='baseline'><strong>Berry Bla$t</strong><p><strong><font class='negOutcome'>You LOST</font><p>You bet: 4</strong></font> &nbsp; &nbsp; &nbsp; &nbsp; &nbsp; &nbsp;<font class='negOutcome'>You receive: <strong>0</strong></font></div>","null","10","Berry Bla$t","Fruit/mixed-berries2.png","Lost","0.65,0.2","12","0.65","169","29","",""
"html-keyboard-response","97","273378","0.0-11.0-1.29","5f43ef4041bb5f11a27aa07e","bdp_rwlrn","Sun Mar 12 2023 21:08:42 GMT-0500 (Central Daylight Time)","541790","Trustworthy,Untrustworthy","","1177","","","","decision","","<div class='trialDiv'><img src='Fruit/lime.png'><br><font class='baseline'><strong>Limin' Large</strong><p>Choose number of points to bet.</font><div class='respPicDiv'><img src='img/responseButtonOffersNo0L.png' class='respPic'></div></div>","5","10","Limin' Large","Fruit/lime.png","Won","0.65,0.35","13","0.65","174","30","",""
"html-keyboard-response","98","273635","0.0-11.0-2.29","5f43ef4041bb5f11a27aa07e","bdp_rwlrn","Sun Mar 12 2023 21:08:42 GMT-0500 (Central Daylight Time)","541790","Trustworthy,Untrustworthy","","null","","","","decisionFB","","<div class='trialDiv'><img src='Fruit/lime.png'><br><font class='baseline'><strong>Limin' Large</strong><p>Choose number of points to bet.</font><div class='respPicDiv'><img src='img/responseButtonOffersNo0L5.png' class='respPic'></div></div>","null","10","Limin' Large","Fruit/lime.png","Won","0.65,0.35","13","0.65","169","30","",""
"html-keyboard-response","99","274647","0.0-11.0-3.29","5f43ef4041bb5f11a27aa07e","bdp_rwlrn","Sun Mar 12 2023 21:08:42 GMT-0500 (Central Daylight Time)","541790","Trustworthy,Untrustworthy","","null","","","","feedback","","<div class='respPicDiv'><img src='img/responseButtonOffersNo0_wht.png' class='respPic'></div><div class='trialDiv'><img src='Fruit/lime.png'><br><font class='baseline'><strong>Limin' Large</strong><p><strong><font class='posOutcome'>You WON</font><p>You bet: 5</strong></font> &nbsp; &nbsp; &nbsp; &nbsp; &nbsp; &nbsp;<font class='posOutcome'>you receive: <strong>10</strong></font></div>","null","10","Limin' Large","Fruit/lime.png","Won","0.65,0.35","13","0.65","179","30","",""
"html-keyboard-response","100","275386","0.0-11.0-1.30","5f43ef4041bb5f11a27aa07e","bdp_rwlrn","Sun Mar 12 2023 21:08:42 GMT-0500 (Central Daylight Time)","541790","Trustworthy,Untrustworthy","","736","","","","decision","","<div class='trialDiv'><img src='Fruit/lemon.png'><br><font class='baseline'><strong>Lucky Lemons</strong><p>Choose number of points to bet.</font><div class='respPicDiv'><img src='img/responseButtonOffersNo0L.png' class='respPic'></div></div>","3","11","Lucky Lemons","Fruit/lemon.png","Won","0.35,0.8","13","0.35","184","31","",""
"html-keyboard-response","101","275647","0.0-11.0-2.30","5f43ef4041bb5f11a27aa07e","bdp_rwlrn","Sun Mar 12 2023 21:08:42 GMT-0500 (Central Daylight Time)","541790","Trustworthy,Untrustworthy","","null","","","","decisionFB","","<div class='trialDiv'><img src='Fruit/lemon.png'><br><font class='baseline'><strong>Lucky Lemons</strong><p>Choose number of points to bet.</font><div class='respPicDiv'><img src='img/responseButtonOffersNo0L3.png' class='respPic'></div></div>","null","11","Lucky Lemons","Fruit/lemon.png","Won","0.35,0.8","13","0.35","181","31","",""
"html-keyboard-response","102","276651","0.0-11.0-3.30","5f43ef4041bb5f11a27aa07e","bdp_rwlrn","Sun Mar 12 2023 21:08:42 GMT-0500 (Central Daylight Time)","541790","Trustworthy,Untrustworthy","","null","","","","feedback","","<div class='respPicDiv'><img src='img/responseButtonOffersNo0_wht.png' class='respPic'></div><div class='trialDiv'><img src='Fruit/lemon.png'><br><font class='baseline'><strong>Lucky Lemons</strong><p><strong><font class='posOutcome'>You WON</font><p>You bet: 3</strong></font> &nbsp; &nbsp; &nbsp; &nbsp; &nbsp; &nbsp;<font class='posOutcome'>you receive: <strong>6</strong></font></div>","null","11","Lucky Lemons","Fruit/lemon.png","Won","0.35,0.8","13","0.35","187","31","",""
"html-keyboard-response","103","277240","0.0-11.0-1.31","5f43ef4041bb5f11a27aa07e","bdp_rwlrn","Sun Mar 12 2023 21:08:42 GMT-0500 (Central Daylight Time)","541790","Trustworthy,Untrustworthy","","587","","","","decision","","<div class='trialDiv'><img src='Fruit/mixed-berries2.png'><br><font class='baseline'><strong>Berry Bla$t</strong><p>Choose number of points to bet.</font><div class='respPicDiv'><img src='img/responseButtonOffersNo0L.png' class='respPic'></div></div>","3","11","Berry Bla$t","Fruit/mixed-berries2.png","Won","0.65,0.2","12","0.65","192","32","",""
"html-keyboard-response","104","277503","0.0-11.0-2.31","5f43ef4041bb5f11a27aa07e","bdp_rwlrn","Sun Mar 12 2023 21:08:42 GMT-0500 (Central Daylight Time)","541790","Trustworthy,Untrustworthy","","null","","","","decisionFB","","<div class='trialDiv'><img src='Fruit/mixed-berries2.png'><br><font class='baseline'><strong>Berry Bla$t</strong><p>Choose number of points to bet.</font><div class='respPicDiv'><img src='img/responseButtonOffersNo0L3.png' class='respPic'></div></div>","null","11","Berry Bla$t","Fruit/mixed-berries2.png","Won","0.65,0.2","12","0.65","189","32","",""
"html-keyboard-response","105","278511","0.0-11.0-3.31","5f43ef4041bb5f11a27aa07e","bdp_rwlrn","Sun Mar 12 2023 21:08:42 GMT-0500 (Central Daylight Time)","541790","Trustworthy,Untrustworthy","","null","","","","feedback","","<div class='respPicDiv'><img src='img/responseButtonOffersNo0_wht.png' class='respPic'></div><div class='trialDiv'><img src='Fruit/mixed-berries2.png'><br><font class='baseline'><strong>Berry Bla$t</strong><p><strong><font class='posOutcome'>You WON</font><p>You bet: 3</strong></font> &nbsp; &nbsp; &nbsp; &nbsp; &nbsp; &nbsp;<font class='posOutcome'>you receive: <strong>6</strong></font></div>","null","11","Berry Bla$t","Fruit/mixed-berries2.png","Won","0.65,0.2","12","0.65","195","32","",""
"html-keyboard-response","106","279741","0.0-11.0-1.32","5f43ef4041bb5f11a27aa07e","bdp_rwlrn","Sun Mar 12 2023 21:08:42 GMT-0500 (Central Daylight Time)","541790","Trustworthy,Untrustworthy","","1229","","","","decision","","<div class='trialDiv'><img src='Fruit/lime.png'><br><font class='baseline'><strong>Limin' Large</strong><p>Choose number of points to bet.</font><div class='respPicDiv'><img src='img/responseButtonOffersNo0L.png' class='respPic'></div></div>","2","11","Limin' Large","Fruit/lime.png","Won","0.65,0.35","13","0.65","200","33","",""
"html-keyboard-response","107","279999","0.0-11.0-2.32","5f43ef4041bb5f11a27aa07e","bdp_rwlrn","Sun Mar 12 2023 21:08:42 GMT-0500 (Central Daylight Time)","541790","Trustworthy,Untrustworthy","","null","","","","decisionFB","","<div class='trialDiv'><img src='Fruit/lime.png'><br><font class='baseline'><strong>Limin' Large</strong><p>Choose number of points to bet.</font><div class='respPicDiv'><img src='img/responseButtonOffersNo0L2.png' class='respPic'></div></div>","null","11","Limin' Large","Fruit/lime.png","Won","0.65,0.35","13","0.65","198","33","",""
"html-keyboard-response","108","281004","0.0-11.0-3.32","5f43ef4041bb5f11a27aa07e","bdp_rwlrn","Sun Mar 12 2023 21:08:42 GMT-0500 (Central Daylight Time)","541790","Trustworthy,Untrustworthy","","null","","","","feedback","","<div class='respPicDiv'><img src='img/responseButtonOffersNo0_wht.png' class='respPic'></div><div class='trialDiv'><img src='Fruit/lime.png'><br><font class='baseline'><strong>Limin' Large</strong><p><strong><font class='posOutcome'>You WON</font><p>You bet: 2</strong></font> &nbsp; &nbsp; &nbsp; &nbsp; &nbsp; &nbsp;<font class='posOutcome'>you receive: <strong>4</strong></font></div>","null","11","Limin' Large","Fruit/lime.png","Won","0.65,0.35","13","0.65","202","33","",""
"html-keyboard-response","109","281567","0.0-11.0-1.33","5f43ef4041bb5f11a27aa07e","bdp_rwlrn","Sun Mar 12 2023 21:08:42 GMT-0500 (Central Daylight Time)","541790","Trustworthy,Untrustworthy","","560","","","","decision","","<div class='trialDiv'><img src='Fruit/lemon.png'><br><font class='baseline'><strong>Lucky Lemons</strong><p>Choose number of points to bet.</font><div class='respPicDiv'><img src='img/responseButtonOffersNo0L.png' class='respPic'></div></div>","1","12","Lucky Lemons","Fruit/lemon.png","Lost","0.35,0.8","13","0.35","207","34","",""
"html-keyboard-response","110","281831","0.0-11.0-2.33","5f43ef4041bb5f11a27aa07e","bdp_rwlrn","Sun Mar 12 2023 21:08:42 GMT-0500 (Central Daylight Time)","541790","Trustworthy,Untrustworthy","","null","","","","decisionFB","","<div class='trialDiv'><img src='Fruit/lemon.png'><br><font class='baseline'><strong>Lucky Lemons</strong><p>Choose number of points to bet.</font><div class='respPicDiv'><img src='img/responseButtonOffersNo0L1.png' class='respPic'></div></div>","null","12","Lucky Lemons","Fruit/lemon.png","Lost","0.35,0.8","13","0.35","206","34","",""
"html-keyboard-response","111","282839","0.0-11.0-3.33","5f43ef4041bb5f11a27aa07e","bdp_rwlrn","Sun Mar 12 2023 21:08:42 GMT-0500 (Central Daylight Time)","541790","Trustworthy,Untrustworthy","","null","","","","feedback","","<div class='respPicDiv'><img src='img/responseButtonOffersNo0_wht.png' class='respPic'></div><div class='trialDiv'><img src='Fruit/lemon.png'><br><font class='baseline'><strong>Lucky Lemons</strong><p><strong><font class='negOutcome'>You LOST</font><p>You bet: 1</strong></font> &nbsp; &nbsp; &nbsp; &nbsp; &nbsp; &nbsp;<font class='negOutcome'>You receive: <strong>0</strong></font></div>","null","12","Lucky Lemons","Fruit/lemon.png","Lost","0.35,0.8","13","0.35","206","34","",""
"html-keyboard-response","112","284515","0.0-11.0-1.34","5f43ef4041bb5f11a27aa07e","bdp_rwlrn","Sun Mar 12 2023 21:08:42 GMT-0500 (Central Daylight Time)","541790","Trustworthy,Untrustworthy","","1673","","","","decision","","<div class='trialDiv'><img src='Fruit/mixed-berries2.png'><br><font class='baseline'><strong>Berry Bla$t</strong><p>Choose number of points to bet.</font><div class='respPicDiv'><img src='img/responseButtonOffersNo0L.png' class='respPic'></div></div>","3","12","Berry Bla$t","Fruit/mixed-berries2.png","Lost","0.65,0.2","12","0.65","211","35","",""
"html-keyboard-response","113","284771","0.0-11.0-2.34","5f43ef4041bb5f11a27aa07e","bdp_rwlrn","Sun Mar 12 2023 21:08:42 GMT-0500 (Central Daylight Time)","541790","Trustworthy,Untrustworthy","","null","","","","decisionFB","","<div class='trialDiv'><img src='Fruit/mixed-berries2.png'><br><font class='baseline'><strong>Berry Bla$t</strong><p>Choose number of points to bet.</font><div class='respPicDiv'><img src='img/responseButtonOffersNo0L3.png' class='respPic'></div></div>","null","12","Berry Bla$t","Fruit/mixed-berries2.png","Lost","0.65,0.2","12","0.65","208","35","",""
"html-keyboard-response","114","285783","0.0-11.0-3.34","5f43ef4041bb5f11a27aa07e","bdp_rwlrn","Sun Mar 12 2023 21:08:42 GMT-0500 (Central Daylight Time)","541790","Trustworthy,Untrustworthy","","null","","","","feedback","","<div class='respPicDiv'><img src='img/responseButtonOffersNo0_wht.png' class='respPic'></div><div class='trialDiv'><img src='Fruit/mixed-berries2.png'><br><font class='baseline'><strong>Berry Bla$t</strong><p><strong><font class='negOutcome'>You LOST</font><p>You bet: 3</strong></font> &nbsp; &nbsp; &nbsp; &nbsp; &nbsp; &nbsp;<font class='negOutcome'>You receive: <strong>0</strong></font></div>","null","12","Berry Bla$t","Fruit/mixed-berries2.png","Lost","0.65,0.2","12","0.65","208","35","",""
"html-keyboard-response","115","286811","0.0-11.0-1.35","5f43ef4041bb5f11a27aa07e","bdp_rwlrn","Sun Mar 12 2023 21:08:42 GMT-0500 (Central Daylight Time)","541790","Trustworthy,Untrustworthy","","1025","","","","decision","","<div class='trialDiv'><img src='Fruit/lime.png'><br><font class='baseline'><strong>Limin' Large</strong><p>Choose number of points to bet.</font><div class='respPicDiv'><img src='img/responseButtonOffersNo0L.png' class='respPic'></div></div>","5","12","Limin' Large","Fruit/lime.png","Won","0.65,0.35","13","0.65","213","36","",""
"html-keyboard-response","116","287070","0.0-11.0-2.35","5f43ef4041bb5f11a27aa07e","bdp_rwlrn","Sun Mar 12 2023 21:08:42 GMT-0500 (Central Daylight Time)","541790","Trustworthy,Untrustworthy","","null","","","","decisionFB","","<div class='trialDiv'><img src='Fruit/lime.png'><br><font class='baseline'><strong>Limin' Large</strong><p>Choose number of points to bet.</font><div class='respPicDiv'><img src='img/responseButtonOffersNo0L5.png' class='respPic'></div></div>","null","12","Limin' Large","Fruit/lime.png","Won","0.65,0.35","13","0.65","208","36","",""
"html-keyboard-response","117","288079","0.0-11.0-3.35","5f43ef4041bb5f11a27aa07e","bdp_rwlrn","Sun Mar 12 2023 21:08:42 GMT-0500 (Central Daylight Time)","541790","Trustworthy,Untrustworthy","","null","","","","feedback","","<div class='respPicDiv'><img src='img/responseButtonOffersNo0_wht.png' class='respPic'></div><div class='trialDiv'><img src='Fruit/lime.png'><br><font class='baseline'><strong>Limin' Large</strong><p><strong><font class='posOutcome'>You WON</font><p>You bet: 5</strong></font> &nbsp; &nbsp; &nbsp; &nbsp; &nbsp; &nbsp;<font class='posOutcome'>you receive: <strong>10</strong></font></div>","null","12","Limin' Large","Fruit/lime.png","Won","0.65,0.35","13","0.65","218","36","",""
"html-keyboard-response","118","288705","0.0-11.0-1.36","5f43ef4041bb5f11a27aa07e","bdp_rwlrn","Sun Mar 12 2023 21:08:42 GMT-0500 (Central Daylight Time)","541790","Trustworthy,Untrustworthy","","623","","","","decision","","<div class='trialDiv'><img src='Fruit/lemon.png'><br><font class='baseline'><strong>Lucky Lemons</strong><p>Choose number of points to bet.</font><div class='respPicDiv'><img src='img/responseButtonOffersNo0L.png' class='respPic'></div></div>","3","13","Lucky Lemons","Fruit/lemon.png","Lost","0.35,0.8","13","0.35","223","37","",""
"html-keyboard-response","119","288963","0.0-11.0-2.36","5f43ef4041bb5f11a27aa07e","bdp_rwlrn","Sun Mar 12 2023 21:08:42 GMT-0500 (Central Daylight Time)","541790","Trustworthy,Untrustworthy","","null","","","","decisionFB","","<div class='trialDiv'><img src='Fruit/lemon.png'><br><font class='baseline'><strong>Lucky Lemons</strong><p>Choose number of points to bet.</font><div class='respPicDiv'><img src='img/responseButtonOffersNo0L3.png' class='respPic'></div></div>","null","13","Lucky Lemons","Fruit/lemon.png","Lost","0.35,0.8","13","0.35","220","37","",""
"html-keyboard-response","120","289971","0.0-11.0-3.36","5f43ef4041bb5f11a27aa07e","bdp_rwlrn","Sun Mar 12 2023 21:08:42 GMT-0500 (Central Daylight Time)","541790","Trustworthy,Untrustworthy","","null","","","","feedback","","<div class='respPicDiv'><img src='img/responseButtonOffersNo0_wht.png' class='respPic'></div><div class='trialDiv'><img src='Fruit/lemon.png'><br><font class='baseline'><strong>Lucky Lemons</strong><p><strong><font class='negOutcome'>You LOST</font><p>You bet: 3</strong></font> &nbsp; &nbsp; &nbsp; &nbsp; &nbsp; &nbsp;<font class='negOutcome'>You receive: <strong>0</strong></font></div>","null","13","Lucky Lemons","Fruit/lemon.png","Lost","0.35,0.8","13","0.35","220","37","",""
"html-keyboard-response","121","290490","0.0-11.0-1.37","5f43ef4041bb5f11a27aa07e","bdp_rwlrn","Sun Mar 12 2023 21:08:42 GMT-0500 (Central Daylight Time)","541790","Trustworthy,Untrustworthy","","517","","","","decision","","<div class='trialDiv'><img src='Fruit/lime.png'><br><font class='baseline'><strong>Limin' Large</strong><p>Choose number of points to bet.</font><div class='respPicDiv'><img src='img/responseButtonOffersNo0L.png' class='respPic'></div></div>","4","13","Limin' Large","Fruit/lime.png","Won","0.65,0.35","13","0.65","225","38","",""
"html-keyboard-response","122","290751","0.0-11.0-2.37","5f43ef4041bb5f11a27aa07e","bdp_rwlrn","Sun Mar 12 2023 21:08:42 GMT-0500 (Central Daylight Time)","541790","Trustworthy,Untrustworthy","","null","","","","decisionFB","","<div class='trialDiv'><img src='Fruit/lime.png'><br><font class='baseline'><strong>Limin' Large</strong><p>Choose number of points to bet.</font><div class='respPicDiv'><img src='img/responseButtonOffersNo0L4.png' class='respPic'></div></div>","null","13","Limin' Large","Fruit/lime.png","Won","0.65,0.35","13","0.65","221","38","",""
"html-keyboard-response","123","291758","0.0-11.0-3.37","5f43ef4041bb5f11a27aa07e","bdp_rwlrn","Sun Mar 12 2023 21:08:42 GMT-0500 (Central Daylight Time)","541790","Trustworthy,Untrustworthy","","null","","","","feedback","","<div class='respPicDiv'><img src='img/responseButtonOffersNo0_wht.png' class='respPic'></div><div class='trialDiv'><img src='Fruit/lime.png'><br><font class='baseline'><strong>Limin' Large</strong><p><strong><font class='posOutcome'>You WON</font><p>You bet: 4</strong></font> &nbsp; &nbsp; &nbsp; &nbsp; &nbsp; &nbsp;<font class='posOutcome'>you receive: <strong>8</strong></font></div>","null","13","Limin' Large","Fruit/lime.png","Won","0.65,0.35","13","0.65","229","38","",""
"html-keyboard-response","124","292318","0.0-11.0-1.38","5f43ef4041bb5f11a27aa07e","bdp_rwlrn","Sun Mar 12 2023 21:08:42 GMT-0500 (Central Daylight Time)","541790","Trustworthy,Untrustworthy","","559","","","","decision","","<div class='trialDiv'><img src='Fruit/mixed-berries2.png'><br><font class='baseline'><strong>Berry Bla$t</strong><p>Choose number of points to bet.</font><div class='respPicDiv'><img src='img/responseButtonOffersNo0L.png' class='respPic'></div></div>","2","13","Berry Bla$t","Fruit/mixed-berries2.png","Lost","0.65,0.2","12","0.65","234","39","",""
"html-keyboard-response","125","292571","0.0-11.0-2.38","5f43ef4041bb5f11a27aa07e","bdp_rwlrn","Sun Mar 12 2023 21:08:42 GMT-0500 (Central Daylight Time)","541790","Trustworthy,Untrustworthy","","null","","","","decisionFB","","<div class='trialDiv'><img src='Fruit/mixed-berries2.png'><br><font class='baseline'><strong>Berry Bla$t</strong><p>Choose number of points to bet.</font><div class='respPicDiv'><img src='img/responseButtonOffersNo0L2.png' class='respPic'></div></div>","null","13","Berry Bla$t","Fruit/mixed-berries2.png","Lost","0.65,0.2","12","0.65","232","39","",""
"html-keyboard-response","126","293583","0.0-11.0-3.38","5f43ef4041bb5f11a27aa07e","bdp_rwlrn","Sun Mar 12 2023 21:08:42 GMT-0500 (Central Daylight Time)","541790","Trustworthy,Untrustworthy","","null","","","","feedback","","<div class='respPicDiv'><img src='img/responseButtonOffersNo0_wht.png' class='respPic'></div><div class='trialDiv'><img src='Fruit/mixed-berries2.png'><br><font class='baseline'><strong>Berry Bla$t</strong><p><strong><font class='negOutcome'>You LOST</font><p>You bet: 2</strong></font> &nbsp; &nbsp; &nbsp; &nbsp; &nbsp; &nbsp;<font class='negOutcome'>You receive: <strong>0</strong></font></div>","null","13","Berry Bla$t","Fruit/mixed-berries2.png","Lost","0.65,0.2","12","0.65","232","39","",""
"html-keyboard-response","127","294137","0.0-11.0-1.39","5f43ef4041bb5f11a27aa07e","bdp_rwlrn","Sun Mar 12 2023 21:08:42 GMT-0500 (Central Daylight Time)","541790","Trustworthy,Untrustworthy","","551","","","","decision","","<div class='trialDiv'><img src='Fruit/lemon.png'><br><font class='baseline'><strong>Lucky Lemons</strong><p>Choose number of points to bet.</font><div class='respPicDiv'><img src='img/responseButtonOffersNo0L.png' class='respPic'></div></div>","4","14","Lucky Lemons","Fruit/lemon.png","Won","0.35,0.8","13","0.35","237","40","",""
"html-keyboard-response","128","294396","0.0-11.0-2.39","5f43ef4041bb5f11a27aa07e","bdp_rwlrn","Sun Mar 12 2023 21:08:42 GMT-0500 (Central Daylight Time)","541790","Trustworthy,Untrustworthy","","null","","","","decisionFB","","<div class='trialDiv'><img src='Fruit/lemon.png'><br><font class='baseline'><strong>Lucky Lemons</strong><p>Choose number of points to bet.</font><div class='respPicDiv'><img src='img/responseButtonOffersNo0L4.png' class='respPic'></div></div>","null","14","Lucky Lemons","Fruit/lemon.png","Won","0.35,0.8","13","0.35","233","40","",""
"html-keyboard-response","129","295406","0.0-11.0-3.39","5f43ef4041bb5f11a27aa07e","bdp_rwlrn","Sun Mar 12 2023 21:08:42 GMT-0500 (Central Daylight Time)","541790","Trustworthy,Untrustworthy","","null","","","","feedback","","<div class='respPicDiv'><img src='img/responseButtonOffersNo0_wht.png' class='respPic'></div><div class='trialDiv'><img src='Fruit/lemon.png'><br><font class='baseline'><strong>Lucky Lemons</strong><p><strong><font class='posOutcome'>You WON</font><p>You bet: 4</strong></font> &nbsp; &nbsp; &nbsp; &nbsp; &nbsp; &nbsp;<font class='posOutcome'>you receive: <strong>8</strong></font></div>","null","14","Lucky Lemons","Fruit/lemon.png","Won","0.35,0.8","13","0.35","241","40","",""
"html-keyboard-response","130","295956","0.0-11.0-1.40","5f43ef4041bb5f11a27aa07e","bdp_rwlrn","Sun Mar 12 2023 21:08:42 GMT-0500 (Central Daylight Time)","541790","Trustworthy,Untrustworthy","","547","","","","decision","","<div class='trialDiv'><img src='Fruit/mixed-berries2.png'><br><font class='baseline'><strong>Berry Bla$t</strong><p>Choose number of points to bet.</font><div class='respPicDiv'><img src='img/responseButtonOffersNo0L.png' class='respPic'></div></div>","2","14","Berry Bla$t","Fruit/mixed-berries2.png","Lost","0.65,0.2","12","0.65","246","41","",""
"html-keyboard-response","131","296211","0.0-11.0-2.40","5f43ef4041bb5f11a27aa07e","bdp_rwlrn","Sun Mar 12 2023 21:08:42 GMT-0500 (Central Daylight Time)","541790","Trustworthy,Untrustworthy","","null","","","","decisionFB","","<div class='trialDiv'><img src='Fruit/mixed-berries2.png'><br><font class='baseline'><strong>Berry Bla$t</strong><p>Choose number of points to bet.</font><div class='respPicDiv'><img src='img/responseButtonOffersNo0L2.png' class='respPic'></div></div>","null","14","Berry Bla$t","Fruit/mixed-berries2.png","Lost","0.65,0.2","12","0.65","244","41","",""
"html-keyboard-response","132","297223","0.0-11.0-3.40","5f43ef4041bb5f11a27aa07e","bdp_rwlrn","Sun Mar 12 2023 21:08:42 GMT-0500 (Central Daylight Time)","541790","Trustworthy,Untrustworthy","","null","","","","feedback","","<div class='respPicDiv'><img src='img/responseButtonOffersNo0_wht.png' class='respPic'></div><div class='trialDiv'><img src='Fruit/mixed-berries2.png'><br><font class='baseline'><strong>Berry Bla$t</strong><p><strong><font class='negOutcome'>You LOST</font><p>You bet: 2</strong></font> &nbsp; &nbsp; &nbsp; &nbsp; &nbsp; &nbsp;<font class='negOutcome'>You receive: <strong>0</strong></font></div>","null","14","Berry Bla$t","Fruit/mixed-berries2.png","Lost","0.65,0.2","12","0.65","244","41","",""
"html-keyboard-response","133","297767","0.0-11.0-1.41","5f43ef4041bb5f11a27aa07e","bdp_rwlrn","Sun Mar 12 2023 21:08:42 GMT-0500 (Central Daylight Time)","541790","Trustworthy,Untrustworthy","","540","","","","decision","","<div class='trialDiv'><img src='Fruit/lime.png'><br><font class='baseline'><strong>Limin' Large</strong><p>Choose number of points to bet.</font><div class='respPicDiv'><img src='img/responseButtonOffersNo0L.png' class='respPic'></div></div>","5","14","Limin' Large","Fruit/lime.png","Lost","0.65,0.35","13","0.65","249","42","",""
"html-keyboard-response","134","298031","0.0-11.0-2.41","5f43ef4041bb5f11a27aa07e","bdp_rwlrn","Sun Mar 12 2023 21:08:42 GMT-0500 (Central Daylight Time)","541790","Trustworthy,Untrustworthy","","null","","","","decisionFB","","<div class='trialDiv'><img src='Fruit/lime.png'><br><font class='baseline'><strong>Limin' Large</strong><p>Choose number of points to bet.</font><div class='respPicDiv'><img src='img/responseButtonOffersNo0L5.png' class='respPic'></div></div>","null","14","Limin' Large","Fruit/lime.png","Lost","0.65,0.35","13","0.65","244","42","",""
"html-keyboard-response","135","299039","0.0-11.0-3.41","5f43ef4041bb5f11a27aa07e","bdp_rwlrn","Sun Mar 12 2023 21:08:42 GMT-0500 (Central Daylight Time)","541790","Trustworthy,Untrustworthy","","null","","","","feedback","","<div class='respPicDiv'><img src='img/responseButtonOffersNo0_wht.png' class='respPic'></div><div class='trialDiv'><img src='Fruit/lime.png'><br><font class='baseline'><strong>Limin' Large</strong><p><strong><font class='negOutcome'>You LOST</font><p>You bet: 5</strong></font> &nbsp; &nbsp; &nbsp; &nbsp; &nbsp; &nbsp;<font class='negOutcome'>You receive: <strong>0</strong></font></div>","null","14","Limin' Large","Fruit/lime.png","Lost","0.65,0.35","13","0.65","244","42","",""
"html-keyboard-response","136","299999","0.0-11.0-1.42","5f43ef4041bb5f11a27aa07e","bdp_rwlrn","Sun Mar 12 2023 21:08:42 GMT-0500 (Central Daylight Time)","541790","Trustworthy,Untrustworthy","","958","","","","decision","","<div class='trialDiv'><img src='Fruit/mixed-berries2.png'><br><font class='baseline'><strong>Berry Bla$t</strong><p>Choose number of points to bet.</font><div class='respPicDiv'><img src='img/responseButtonOffersNo0L.png' class='respPic'></div></div>","4","15","Berry Bla$t","Fruit/mixed-berries2.png","Won","0.65,0.2","12","0.65","249","43","",""
"html-keyboard-response","137","300263","0.0-11.0-2.42","5f43ef4041bb5f11a27aa07e","bdp_rwlrn","Sun Mar 12 2023 21:08:42 GMT-0500 (Central Daylight Time)","541790","Trustworthy,Untrustworthy","","null","","","","decisionFB","","<div class='trialDiv'><img src='Fruit/mixed-berries2.png'><br><font class='baseline'><strong>Berry Bla$t</strong><p>Choose number of points to bet.</font><div class='respPicDiv'><img src='img/responseButtonOffersNo0L4.png' class='respPic'></div></div>","null","15","Berry Bla$t","Fruit/mixed-berries2.png","Won","0.65,0.2","12","0.65","245","43","",""
"html-keyboard-response","138","301271","0.0-11.0-3.42","5f43ef4041bb5f11a27aa07e","bdp_rwlrn","Sun Mar 12 2023 21:08:42 GMT-0500 (Central Daylight Time)","541790","Trustworthy,Untrustworthy","","null","","","","feedback","","<div class='respPicDiv'><img src='img/responseButtonOffersNo0_wht.png' class='respPic'></div><div class='trialDiv'><img src='Fruit/mixed-berries2.png'><br><font class='baseline'><strong>Berry Bla$t</strong><p><strong><font class='posOutcome'>You WON</font><p>You bet: 4</strong></font> &nbsp; &nbsp; &nbsp; &nbsp; &nbsp; &nbsp;<font class='posOutcome'>you receive: <strong>8</strong></font></div>","null","15","Berry Bla$t","Fruit/mixed-berries2.png","Won","0.65,0.2","12","0.65","253","43","",""
"html-keyboard-response","139","302732","0.0-11.0-1.43","5f43ef4041bb5f11a27aa07e","bdp_rwlrn","Sun Mar 12 2023 21:08:42 GMT-0500 (Central Daylight Time)","541790","Trustworthy,Untrustworthy","","1457","","","","decision","","<div class='trialDiv'><img src='Fruit/lemon.png'><br><font class='baseline'><strong>Lucky Lemons</strong><p>Choose number of points to bet.</font><div class='respPicDiv'><img src='img/responseButtonOffersNo0L.png' class='respPic'></div></div>","2","15","Lucky Lemons","Fruit/lemon.png","Lost","0.35,0.8","13","0.35","258","44","",""
"html-keyboard-response","140","302989","0.0-11.0-2.43","5f43ef4041bb5f11a27aa07e","bdp_rwlrn","Sun Mar 12 2023 21:08:42 GMT-0500 (Central Daylight Time)","541790","Trustworthy,Untrustworthy","","null","","","","decisionFB","","<div class='trialDiv'><img src='Fruit/lemon.png'><br><font class='baseline'><strong>Lucky Lemons</strong><p>Choose number of points to bet.</font><div class='respPicDiv'><img src='img/responseButtonOffersNo0L2.png' class='respPic'></div></div>","null","15","Lucky Lemons","Fruit/lemon.png","Lost","0.35,0.8","13","0.35","256","44","",""
"html-keyboard-response","141","303995","0.0-11.0-3.43","5f43ef4041bb5f11a27aa07e","bdp_rwlrn","Sun Mar 12 2023 21:08:42 GMT-0500 (Central Daylight Time)","541790","Trustworthy,Untrustworthy","","null","","","","feedback","","<div class='respPicDiv'><img src='img/responseButtonOffersNo0_wht.png' class='respPic'></div><div class='trialDiv'><img src='Fruit/lemon.png'><br><font class='baseline'><strong>Lucky Lemons</strong><p><strong><font class='negOutcome'>You LOST</font><p>You bet: 2</strong></font> &nbsp; &nbsp; &nbsp; &nbsp; &nbsp; &nbsp;<font class='negOutcome'>You receive: <strong>0</strong></font></div>","null","15","Lucky Lemons","Fruit/lemon.png","Lost","0.35,0.8","13","0.35","256","44","",""
"html-keyboard-response","142","304434","0.0-11.0-1.44","5f43ef4041bb5f11a27aa07e","bdp_rwlrn","Sun Mar 12 2023 21:08:42 GMT-0500 (Central Daylight Time)","541790","Trustworthy,Untrustworthy","","437","","","","decision","","<div class='trialDiv'><img src='Fruit/lime.png'><br><font class='baseline'><strong>Limin' Large</strong><p>Choose number of points to bet.</font><div class='respPicDiv'><img src='img/responseButtonOffersNo0L.png' class='respPic'></div></div>","4","15","Limin' Large","Fruit/lime.png","Lost","0.65,0.35","13","0.65","261","45","",""
"html-keyboard-response","143","304695","0.0-11.0-2.44","5f43ef4041bb5f11a27aa07e","bdp_rwlrn","Sun Mar 12 2023 21:08:42 GMT-0500 (Central Daylight Time)","541790","Trustworthy,Untrustworthy","","null","","","","decisionFB","","<div class='trialDiv'><img src='Fruit/lime.png'><br><font class='baseline'><strong>Limin' Large</strong><p>Choose number of points to bet.</font><div class='respPicDiv'><img src='img/responseButtonOffersNo0L4.png' class='respPic'></div></div>","null","15","Limin' Large","Fruit/lime.png","Lost","0.65,0.35","13","0.65","257","45","",""
"html-keyboard-response","144","305699","0.0-11.0-3.44","5f43ef4041bb5f11a27aa07e","bdp_rwlrn","Sun Mar 12 2023 21:08:42 GMT-0500 (Central Daylight Time)","541790","Trustworthy,Untrustworthy","","null","","","","feedback","","<div class='respPicDiv'><img src='img/responseButtonOffersNo0_wht.png' class='respPic'></div><div class='trialDiv'><img src='Fruit/lime.png'><br><font class='baseline'><strong>Limin' Large</strong><p><strong><font class='negOutcome'>You LOST</font><p>You bet: 4</strong></font> &nbsp; &nbsp; &nbsp; &nbsp; &nbsp; &nbsp;<font class='negOutcome'>You receive: <strong>0</strong></font></div>","null","15","Limin' Large","Fruit/lime.png","Lost","0.65,0.35","13","0.65","257","45","",""
"html-keyboard-response","145","306185","0.0-11.0-1.45","5f43ef4041bb5f11a27aa07e","bdp_rwlrn","Sun Mar 12 2023 21:08:42 GMT-0500 (Central Daylight Time)","541790","Trustworthy,Untrustworthy","","484","","","","decision","","<div class='trialDiv'><img src='Fruit/lemon.png'><br><font class='baseline'><strong>Lucky Lemons</strong><p>Choose number of points to bet.</font><div class='respPicDiv'><img src='img/responseButtonOffersNo0L.png' class='respPic'></div></div>","3","16","Lucky Lemons","Fruit/lemon.png","Won","0.35,0.8","13","0.35","262","46","",""
"html-keyboard-response","146","306447","0.0-11.0-2.45","5f43ef4041bb5f11a27aa07e","bdp_rwlrn","Sun Mar 12 2023 21:08:42 GMT-0500 (Central Daylight Time)","541790","Trustworthy,Untrustworthy","","null","","","","decisionFB","","<div class='trialDiv'><img src='Fruit/lemon.png'><br><font class='baseline'><strong>Lucky Lemons</strong><p>Choose number of points to bet.</font><div class='respPicDiv'><img src='img/responseButtonOffersNo0L3.png' class='respPic'></div></div>","null","16","Lucky Lemons","Fruit/lemon.png","Won","0.35,0.8","13","0.35","259","46","",""
"html-keyboard-response","147","307451","0.0-11.0-3.45","5f43ef4041bb5f11a27aa07e","bdp_rwlrn","Sun Mar 12 2023 21:08:42 GMT-0500 (Central Daylight Time)","541790","Trustworthy,Untrustworthy","","null","","","","feedback","","<div class='respPicDiv'><img src='img/responseButtonOffersNo0_wht.png' class='respPic'></div><div class='trialDiv'><img src='Fruit/lemon.png'><br><font class='baseline'><strong>Lucky Lemons</strong><p><strong><font class='posOutcome'>You WON</font><p>You bet: 3</strong></font> &nbsp; &nbsp; &nbsp; &nbsp; &nbsp; &nbsp;<font class='posOutcome'>you receive: <strong>6</strong></font></div>","null","16","Lucky Lemons","Fruit/lemon.png","Won","0.35,0.8","13","0.35","265","46","",""
"html-keyboard-response","148","307885","0.0-11.0-1.46","5f43ef4041bb5f11a27aa07e","bdp_rwlrn","Sun Mar 12 2023 21:08:42 GMT-0500 (Central Daylight Time)","541790","Trustworthy,Untrustworthy","","432","","","","decision","","<div class='trialDiv'><img src='Fruit/lime.png'><br><font class='baseline'><strong>Limin' Large</strong><p>Choose number of points to bet.</font><div class='respPicDiv'><img src='img/responseButtonOffersNo0L.png' class='respPic'></div></div>","3","16","Limin' Large","Fruit/lime.png","Won","0.65,0.35","13","0.65","270","47","",""
"html-keyboard-response","149","308143","0.0-11.0-2.46","5f43ef4041bb5f11a27aa07e","bdp_rwlrn","Sun Mar 12 2023 21:08:42 GMT-0500 (Central Daylight Time)","541790","Trustworthy,Untrustworthy","","null","","","","decisionFB","","<div class='trialDiv'><img src='Fruit/lime.png'><br><font class='baseline'><strong>Limin' Large</strong><p>Choose number of points to bet.</font><div class='respPicDiv'><img src='img/responseButtonOffersNo0L3.png' class='respPic'></div></div>","null","16","Limin' Large","Fruit/lime.png","Won","0.65,0.35","13","0.65","267","47","",""
"html-keyboard-response","150","309151","0.0-11.0-3.46","5f43ef4041bb5f11a27aa07e","bdp_rwlrn","Sun Mar 12 2023 21:08:42 GMT-0500 (Central Daylight Time)","541790","Trustworthy,Untrustworthy","","null","","","","feedback","","<div class='respPicDiv'><img src='img/responseButtonOffersNo0_wht.png' class='respPic'></div><div class='trialDiv'><img src='Fruit/lime.png'><br><font class='baseline'><strong>Limin' Large</strong><p><strong><font class='posOutcome'>You WON</font><p>You bet: 3</strong></font> &nbsp; &nbsp; &nbsp; &nbsp; &nbsp; &nbsp;<font class='posOutcome'>you receive: <strong>6</strong></font></div>","null","16","Limin' Large","Fruit/lime.png","Won","0.65,0.35","13","0.65","273","47","",""
"html-keyboard-response","151","309552","0.0-11.0-1.47","5f43ef4041bb5f11a27aa07e","bdp_rwlrn","Sun Mar 12 2023 21:08:42 GMT-0500 (Central Daylight Time)","541790","Trustworthy,Untrustworthy","","398","","","","decision","","<div class='trialDiv'><img src='Fruit/mixed-berries2.png'><br><font class='baseline'><strong>Berry Bla$t</strong><p>Choose number of points to bet.</font><div class='respPicDiv'><img src='img/responseButtonOffersNo0L.png' class='respPic'></div></div>","3","16","Berry Bla$t","Fruit/mixed-berries2.png","Won","0.65,0.2","12","0.65","278","48","",""
"html-keyboard-response","152","309815","0.0-11.0-2.47","5f43ef4041bb5f11a27aa07e","bdp_rwlrn","Sun Mar 12 2023 21:08:42 GMT-0500 (Central Daylight Time)","541790","Trustworthy,Untrustworthy","","null","","","","decisionFB","","<div class='trialDiv'><img src='Fruit/mixed-berries2.png'><br><font class='baseline'><strong>Berry Bla$t</strong><p>Choose number of points to bet.</font><div class='respPicDiv'><img src='img/responseButtonOffersNo0L3.png' class='respPic'></div></div>","null","16","Berry Bla$t","Fruit/mixed-berries2.png","Won","0.65,0.2","12","0.65","275","48","",""
"html-keyboard-response","153","310821","0.0-11.0-3.47","5f43ef4041bb5f11a27aa07e","bdp_rwlrn","Sun Mar 12 2023 21:08:42 GMT-0500 (Central Daylight Time)","541790","Trustworthy,Untrustworthy","","null","","","","feedback","","<div class='respPicDiv'><img src='img/responseButtonOffersNo0_wht.png' class='respPic'></div><div class='trialDiv'><img src='Fruit/mixed-berries2.png'><br><font class='baseline'><strong>Berry Bla$t</strong><p><strong><font class='posOutcome'>You WON</font><p>You bet: 3</strong></font> &nbsp; &nbsp; &nbsp; &nbsp; &nbsp; &nbsp;<font class='posOutcome'>you receive: <strong>6</strong></font></div>","null","16","Berry Bla$t","Fruit/mixed-berries2.png","Won","0.65,0.2","12","0.65","281","48","",""
"html-keyboard-response","154","311184","0.0-11.0-1.48","5f43ef4041bb5f11a27aa07e","bdp_rwlrn","Sun Mar 12 2023 21:08:42 GMT-0500 (Central Daylight Time)","541790","Trustworthy,Untrustworthy","","360","","","","decision","","<div class='trialDiv'><img src='Fruit/lemon.png'><br><font class='baseline'><strong>Lucky Lemons</strong><p>Choose number of points to bet.</font><div class='respPicDiv'><img src='img/responseButtonOffersNo0L.png' class='respPic'></div></div>","3","17","Lucky Lemons","Fruit/lemon.png","Won","0.35,0.8","13","0.35","286","49","",""
"html-keyboard-response","155","311445","0.0-11.0-2.48","5f43ef4041bb5f11a27aa07e","bdp_rwlrn","Sun Mar 12 2023 21:08:42 GMT-0500 (Central Daylight Time)","541790","Trustworthy,Untrustworthy","","null","","","","decisionFB","","<div class='trialDiv'><img src='Fruit/lemon.png'><br><font class='baseline'><strong>Lucky Lemons</strong><p>Choose number of points to bet.</font><div class='respPicDiv'><img src='img/responseButtonOffersNo0L3.png' class='respPic'></div></div>","null","17","Lucky Lemons","Fruit/lemon.png","Won","0.35,0.8","13","0.35","283","49","",""
"html-keyboard-response","156","312455","0.0-11.0-3.48","5f43ef4041bb5f11a27aa07e","bdp_rwlrn","Sun Mar 12 2023 21:08:42 GMT-0500 (Central Daylight Time)","541790","Trustworthy,Untrustworthy","","null","","","","feedback","","<div class='respPicDiv'><img src='img/responseButtonOffersNo0_wht.png' class='respPic'></div><div class='trialDiv'><img src='Fruit/lemon.png'><br><font class='baseline'><strong>Lucky Lemons</strong><p><strong><font class='posOutcome'>You WON</font><p>You bet: 3</strong></font> &nbsp; &nbsp; &nbsp; &nbsp; &nbsp; &nbsp;<font class='posOutcome'>you receive: <strong>6</strong></font></div>","null","17","Lucky Lemons","Fruit/lemon.png","Won","0.35,0.8","13","0.35","289","49","",""
"html-keyboard-response","157","312771","0.0-11.0-1.49","5f43ef4041bb5f11a27aa07e","bdp_rwlrn","Sun Mar 12 2023 21:08:42 GMT-0500 (Central Daylight Time)","541790","Trustworthy,Untrustworthy","","313","","","","decision","","<div class='trialDiv'><img src='Fruit/mixed-berries2.png'><br><font class='baseline'><strong>Berry Bla$t</strong><p>Choose number of points to bet.</font><div class='respPicDiv'><img src='img/responseButtonOffersNo0L.png' class='respPic'></div></div>","3","17","Berry Bla$t","Fruit/mixed-berries2.png","Lost","0.65,0.2","12","0.65","294","50","",""
"html-keyboard-response","158","313031","0.0-11.0-2.49","5f43ef4041bb5f11a27aa07e","bdp_rwlrn","Sun Mar 12 2023 21:08:42 GMT-0500 (Central Daylight Time)","541790","Trustworthy,Untrustworthy","","null","","","","decisionFB","","<div class='trialDiv'><img src='Fruit/mixed-berries2.png'><br><font class='baseline'><strong>Berry Bla$t</strong><p>Choose number of points to bet.</font><div class='respPicDiv'><img src='img/responseButtonOffersNo0L3.png' class='respPic'></div></div>","null","17","Berry Bla$t","Fruit/mixed-berries2.png","Lost","0.65,0.2","12","0.65","291","50","",""
"html-keyboard-response","159","314040","0.0-11.0-3.49","5f43ef4041bb5f11a27aa07e","bdp_rwlrn","Sun Mar 12 2023 21:08:42 GMT-0500 (Central Daylight Time)","541790","Trustworthy,Untrustworthy","","null","","","","feedback","","<div class='respPicDiv'><img src='img/responseButtonOffersNo0_wht.png' class='respPic'></div><div class='trialDiv'><img src='Fruit/mixed-berries2.png'><br><font class='baseline'><strong>Berry Bla$t</strong><p><strong><font class='negOutcome'>You LOST</font><p>You bet: 3</strong></font> &nbsp; &nbsp; &nbsp; &nbsp; &nbsp; &nbsp;<font class='negOutcome'>You receive: <strong>0</strong></font></div>","null","17","Berry Bla$t","Fruit/mixed-berries2.png","Lost","0.65,0.2","12","0.65","291","50","",""
"html-keyboard-response","160","314416","0.0-11.0-1.50","5f43ef4041bb5f11a27aa07e","bdp_rwlrn","Sun Mar 12 2023 21:08:42 GMT-0500 (Central Daylight Time)","541790","Trustworthy,Untrustworthy","","374","","","","decision","","<div class='trialDiv'><img src='Fruit/lime.png'><br><font class='baseline'><strong>Limin' Large</strong><p>Choose number of points to bet.</font><div class='respPicDiv'><img src='img/responseButtonOffersNo0L.png' class='respPic'></div></div>","2","17","Limin' Large","Fruit/lime.png","Lost","0.65,0.35","13","0.65","296","51","",""
"html-keyboard-response","161","314679","0.0-11.0-2.50","5f43ef4041bb5f11a27aa07e","bdp_rwlrn","Sun Mar 12 2023 21:08:42 GMT-0500 (Central Daylight Time)","541790","Trustworthy,Untrustworthy","","null","","","","decisionFB","","<div class='trialDiv'><img src='Fruit/lime.png'><br><font class='baseline'><strong>Limin' Large</strong><p>Choose number of points to bet.</font><div class='respPicDiv'><img src='img/responseButtonOffersNo0L2.png' class='respPic'></div></div>","null","17","Limin' Large","Fruit/lime.png","Lost","0.65,0.35","13","0.65","294","51","",""
"html-keyboard-response","162","315683","0.0-11.0-3.50","5f43ef4041bb5f11a27aa07e","bdp_rwlrn","Sun Mar 12 2023 21:08:42 GMT-0500 (Central Daylight Time)","541790","Trustworthy,Untrustworthy","","null","","","","feedback","","<div class='respPicDiv'><img src='img/responseButtonOffersNo0_wht.png' class='respPic'></div><div class='trialDiv'><img src='Fruit/lime.png'><br><font class='baseline'><strong>Limin' Large</strong><p><strong><font class='negOutcome'>You LOST</font><p>You bet: 2</strong></font> &nbsp; &nbsp; &nbsp; &nbsp; &nbsp; &nbsp;<font class='negOutcome'>You receive: <strong>0</strong></font></div>","null","17","Limin' Large","Fruit/lime.png","Lost","0.65,0.35","13","0.65","294","51","",""
