"trial_type","trial_index","time_elapsed","internal_node_id","subject_id","task","startTime","totalTime","labels","view_history","rt","event","trial","time","trialtype","success","numBlurs","stimulus","key_press","ltround","name","fileID","outcome","lottotype","lottoswpt","lottocurrpshare","point_total","round","faceID","face"
"pavlovia","0","2","0.0-0.0","62f94c417a55be0afc4c5a4b","bdp_rwlrn","Tue Mar 14 2023 19:36:09 GMT-0400 (Eastern Daylight Time)","502501","Trustworthy,Untrustworthy","","","","","","","","","","","","","","","","","","","","",""
"instructions","1","4825","0.0-1.0","62f94c417a55be0afc4c5a4b","bdp_rwlrn","Tue Mar 14 2023 19:36:09 GMT-0400 (Eastern Daylight Time)","502501","Trustworthy,Untrustworthy","[{""page_index"":0,""viewing_time"":4823}]","4823","","","","","","","","","","","","","","","","","","",""
"","","","","62f94c417a55be0afc4c5a4b","bdp_rwlrn","Tue Mar 14 2023 19:36:09 GMT-0400 (Eastern Daylight Time)","502501","Trustworthy,Untrustworthy","","","fullscreenenter","2","8386","fullscreenenter","","","","","","","","","","","","","","",""
"fullscreen","2","9368","0.0-2.0","62f94c417a55be0afc4c5a4b","bdp_rwlrn","Tue Mar 14 2023 19:36:09 GMT-0400 (Eastern Daylight Time)","502501","Trustworthy,Untrustworthy","","","","","","","true","","","","","","","","","","","","","",""
"","","","","62f94c417a55be0afc4c5a4b","bdp_rwlrn","Tue Mar 14 2023 19:36:09 GMT-0400 (Eastern Daylight Time)","502501","Trustworthy,Untrustworthy","","","blur","3","83845","blurevent","","1","","","","","","","","","","","","",""
"","","","","62f94c417a55be0afc4c5a4b","bdp_rwlrn","Tue Mar 14 2023 19:36:09 GMT-0400 (Eastern Daylight Time)","502501","Trustworthy,Untrustworthy","","","focus","3","83846","focusevent","","","","","","","","","","","","","","",""
"instructions","3","88126","0.0-4.0","62f94c417a55be0afc4c5a4b","bdp_rwlrn","Tue Mar 14 2023 19:36:09 GMT-0400 (Eastern Daylight Time)","502501","Trustworthy,Untrustworthy","[{""page_index"":0,""viewing_time"":10913},{""page_index"":1,""viewing_time"":15333},{""page_index"":2,""viewing_time"":19570},{""page_index"":3,""viewing_time"":9118},{""page_index"":4,""viewing_time"":11087},{""page_index"":5,""viewing_time"":12735}]","78757","","","","","","","","","","","","","","","","","","",""
"html-keyboard-response","4","95568","0.0-5.0","62f94c417a55be0afc4c5a4b","bdp_rwlrn","Tue Mar 14 2023 19:36:09 GMT-0400 (Eastern Daylight Time)","502501","Trustworthy,Untrustworthy","","7441","","","","","","","<div class='header' style='text-align:left; position: absolute; top: 5%; left: 5%;'><small>Task 1 of 5</small></div><div class='instruxDiv'><p><strong>1) What is the maximum number of points you can choose to bet on a lottery?</strong></p><p>a) 0</p><p>b) 1</p><p>c) 5</p>","C","","","","","","","","","","",""
"html-keyboard-response","5","97037","0.0-6.0","62f94c417a55be0afc4c5a4b","bdp_rwlrn","Tue Mar 14 2023 19:36:09 GMT-0400 (Eastern Daylight Time)","502501","Trustworthy,Untrustworthy","","1361","","","","","","","<div class='header' style='text-align:left; position: absolute; top: 5%; left: 5%;'><small>Task 1 of 5</small></div><div class='instruxDiv'><p><strong>1) What is the maximum number of points you can choose to bet on a lottery?</strong></p><p>a) 1</p><p>b) 1</p><p style='color:#00FF00'>c) 5</p><h3 style='color:#00FF00'>Correct!</h3><h3 class='center-content'>The correct response is c).</h3><h3 class='center-content'>The maximum number of points you can choose to bet on a lottery is 5 points.</h3><p><em>Press SPACEBAR to continue</em></p></div>"," ","","","","","","","","","","",""
"html-keyboard-response","6","104530","0.0-7.0","62f94c417a55be0afc4c5a4b","bdp_rwlrn","Tue Mar 14 2023 19:36:09 GMT-0400 (Eastern Daylight Time)","502501","Trustworthy,Untrustworthy","","7384","","","","","","","<div class='header' style='text-align:left; position: absolute; top: 5%; left: 5%;'><small>Task 1 of 5</small></div><div class='instruxDiv'><p><strong>2) How many points can you win each round?</strong></p><p>a) 10 points</p><p>b) Double what you bet</p><p>c) Quadruple what you bet</p>","B","","","","","","","","","","",""
"html-keyboard-response","7","105478","0.0-8.0","62f94c417a55be0afc4c5a4b","bdp_rwlrn","Tue Mar 14 2023 19:36:09 GMT-0400 (Eastern Daylight Time)","502501","Trustworthy,Untrustworthy","","843","","","","","","","<div class='header' style='text-align:left; position: absolute; top: 5%; left: 5%;'><small>Task 1 of 5</small></div><div class='instruxDiv'><p><strong>2) How many points can you win each round?</strong></p><p>a) 10 points</p><p style='color:#00FF00'>b) Double what you bet</p><p>c) Quadruple what you bet</p><h3 style='color:#00FF00'>Correct!</h3><h3 class='center-content'>The correct response is b).</h3><h3 class='center-content'>You can win double the amount of points you bet.</h3><p><em>Press SPACEBAR to continue</em></p></div>"," ","","","","","","","","","","",""
"html-keyboard-response","8","110587","0.0-9.0","62f94c417a55be0afc4c5a4b","bdp_rwlrn","Tue Mar 14 2023 19:36:09 GMT-0400 (Eastern Daylight Time)","502501","Trustworthy,Untrustworthy","","null","","","","","","","<div class='header' style='text-align:left; position: absolute; top: 5%; left: 5%;'><small>Task 1 of 5</small></div><div class='instruxDiv'><p>Thank you for completing the quiz<p>These are the actual lotteries you will be playing in the next block:<p><div class='tc' align='center'><img class='introPic' src='Fruit/orange.png'><br><strong>Odds are Orange</strong></div><div class='bl' align='center'><img class='introPic' src='Fruit/melon.png'><br><strong>Melon Millions</strong></div><div class='br' align='center'><img class='introPic' src='Fruit/pears.png'><br><strong>Pears Aplenty</strong></div></div><p>Across <strong>66 rounds</strong> you will play each lottery <strong>22 times</strong> (in random order).<p style='align:center; color:white'><font <em>Press SPACEBAR to continue</em></p>","null","","","","","","","","","","",""
"instructions","9","131308","0.0-10.0","62f94c417a55be0afc4c5a4b","bdp_rwlrn","Tue Mar 14 2023 19:36:09 GMT-0400 (Eastern Daylight Time)","502501","Trustworthy,Untrustworthy","[{""page_index"":0,""viewing_time"":15974},{""page_index"":1,""viewing_time"":4746}]","20720","","","","","","","","","","","","","","","","","","",""
"html-keyboard-response","10","135558","0.0-11.0-1.0","62f94c417a55be0afc4c5a4b","bdp_rwlrn","Tue Mar 14 2023 19:36:09 GMT-0400 (Eastern Daylight Time)","502501","Trustworthy,Untrustworthy","","4136","","","","decision","","","<div class='trialDiv'><img src='Fruit/pears.png'><br><font class='baseline'><strong>Pears Aplenty</strong><p>Choose number of points to bet.</font><div class='respPicDiv'><img src='img/responseButtonOffersNo0L.png' class='respPic'></div></div>","2","1","Pears Aplenty","Fruit/pears.png","Won","0.8,0.35","10","0.8","5","1","",""
"html-keyboard-response","11","135811","0.0-11.0-2.0","62f94c417a55be0afc4c5a4b","bdp_rwlrn","Tue Mar 14 2023 19:36:09 GMT-0400 (Eastern Daylight Time)","502501","Trustworthy,Untrustworthy","","null","","","","decisionFB","","","<div class='trialDiv'><img src='Fruit/pears.png'><br><font class='baseline'><strong>Pears Aplenty</strong><p>Choose number of points to bet.</font><div class='respPicDiv'><img src='img/responseButtonOffersNo0L2.png' class='respPic'></div></div>","null","1","Pears Aplenty","Fruit/pears.png","Won","0.8,0.35","10","0.8","3","1","",""
"html-keyboard-response","12","136827","0.0-11.0-3.0","62f94c417a55be0afc4c5a4b","bdp_rwlrn","Tue Mar 14 2023 19:36:09 GMT-0400 (Eastern Daylight Time)","502501","Trustworthy,Untrustworthy","","null","","","","feedback","","","<div class='respPicDiv'><img src='img/responseButtonOffersNo0_wht.png' class='respPic'></div><div class='trialDiv'><img src='Fruit/pears.png'><br><font class='baseline'><strong>Pears Aplenty</strong><p><strong><font class='posOutcome'>You WON</font><p>You bet: 2</strong></font> &nbsp; &nbsp; &nbsp; &nbsp; &nbsp; &nbsp;<font class='posOutcome'>you receive: <strong>4</strong></font></div>","null","1","Pears Aplenty","Fruit/pears.png","Won","0.8,0.35","10","0.8","7","1","",""
"html-keyboard-response","13","139639","0.0-11.0-1.1","62f94c417a55be0afc4c5a4b","bdp_rwlrn","Tue Mar 14 2023 19:36:09 GMT-0400 (Eastern Daylight Time)","502501","Trustworthy,Untrustworthy","","2812","","","","decision","","","<div class='trialDiv'><img src='Fruit/melon.png'><br><font class='baseline'><strong>Melon Millions</strong><p>Choose number of points to bet.</font><div class='respPicDiv'><img src='img/responseButtonOffersNo0L.png' class='respPic'></div></div>","2","1","Melon Millions","Fruit/melon.png","Lost","0.35,0.8","9","0.35","12","2","",""
"html-keyboard-response","14","139896","0.0-11.0-2.1","62f94c417a55be0afc4c5a4b","bdp_rwlrn","Tue Mar 14 2023 19:36:09 GMT-0400 (Eastern Daylight Time)","502501","Trustworthy,Untrustworthy","","null","","","","decisionFB","","","<div class='trialDiv'><img src='Fruit/melon.png'><br><font class='baseline'><strong>Melon Millions</strong><p>Choose number of points to bet.</font><div class='respPicDiv'><img src='img/responseButtonOffersNo0L2.png' class='respPic'></div></div>","null","1","Melon Millions","Fruit/melon.png","Lost","0.35,0.8","9","0.35","10","2","",""
"html-keyboard-response","15","140911","0.0-11.0-3.1","62f94c417a55be0afc4c5a4b","bdp_rwlrn","Tue Mar 14 2023 19:36:09 GMT-0400 (Eastern Daylight Time)","502501","Trustworthy,Untrustworthy","","null","","","","feedback","","","<div class='respPicDiv'><img src='img/responseButtonOffersNo0_wht.png' class='respPic'></div><div class='trialDiv'><img src='Fruit/melon.png'><br><font class='baseline'><strong>Melon Millions</strong><p><strong><font class='negOutcome'>You LOST</font><p>You bet: 2</strong></font> &nbsp; &nbsp; &nbsp; &nbsp; &nbsp; &nbsp;<font class='negOutcome'>You receive: <strong>0</strong></font></div>","null","1","Melon Millions","Fruit/melon.png","Lost","0.35,0.8","9","0.35","10","2","",""
"html-keyboard-response","16","145279","0.0-11.0-1.2","62f94c417a55be0afc4c5a4b","bdp_rwlrn","Tue Mar 14 2023 19:36:09 GMT-0400 (Eastern Daylight Time)","502501","Trustworthy,Untrustworthy","","4368","","","","decision","","","<div class='trialDiv'><img src='Fruit/orange.png'><br><font class='baseline'><strong>Odds are Orange</strong><p>Choose number of points to bet.</font><div class='respPicDiv'><img src='img/responseButtonOffersNo0L.png' class='respPic'></div></div>","3","1","Odds are Orange","Fruit/orange.png","Won","0.2,0.8","14","0.2","15","3","",""
"html-keyboard-response","17","145538","0.0-11.0-2.2","62f94c417a55be0afc4c5a4b","bdp_rwlrn","Tue Mar 14 2023 19:36:09 GMT-0400 (Eastern Daylight Time)","502501","Trustworthy,Untrustworthy","","null","","","","decisionFB","","","<div class='trialDiv'><img src='Fruit/orange.png'><br><font class='baseline'><strong>Odds are Orange</strong><p>Choose number of points to bet.</font><div class='respPicDiv'><img src='img/responseButtonOffersNo0L3.png' class='respPic'></div></div>","null","1","Odds are Orange","Fruit/orange.png","Won","0.2,0.8","14","0.2","12","3","",""
"html-keyboard-response","18","146547","0.0-11.0-3.2","62f94c417a55be0afc4c5a4b","bdp_rwlrn","Tue Mar 14 2023 19:36:09 GMT-0400 (Eastern Daylight Time)","502501","Trustworthy,Untrustworthy","","null","","","","feedback","","","<div class='respPicDiv'><img src='img/responseButtonOffersNo0_wht.png' class='respPic'></div><div class='trialDiv'><img src='Fruit/orange.png'><br><font class='baseline'><strong>Odds are Orange</strong><p><strong><font class='posOutcome'>You WON</font><p>You bet: 3</strong></font> &nbsp; &nbsp; &nbsp; &nbsp; &nbsp; &nbsp;<font class='posOutcome'>you receive: <strong>6</strong></font></div>","null","1","Odds are Orange","Fruit/orange.png","Won","0.2,0.8","14","0.2","18","3","",""
"html-keyboard-response","19","149864","0.0-11.0-1.3","62f94c417a55be0afc4c5a4b","bdp_rwlrn","Tue Mar 14 2023 19:36:09 GMT-0400 (Eastern Daylight Time)","502501","Trustworthy,Untrustworthy","","3316","","","","decision","","","<div class='trialDiv'><img src='Fruit/melon.png'><br><font class='baseline'><strong>Melon Millions</strong><p>Choose number of points to bet.</font><div class='respPicDiv'><img src='img/responseButtonOffersNo0L.png' class='respPic'></div></div>","2","2","Melon Millions","Fruit/melon.png","Lost","0.35,0.8","9","0.35","23","4","",""
"html-keyboard-response","20","150120","0.0-11.0-2.3","62f94c417a55be0afc4c5a4b","bdp_rwlrn","Tue Mar 14 2023 19:36:09 GMT-0400 (Eastern Daylight Time)","502501","Trustworthy,Untrustworthy","","null","","","","decisionFB","","","<div class='trialDiv'><img src='Fruit/melon.png'><br><font class='baseline'><strong>Melon Millions</strong><p>Choose number of points to bet.</font><div class='respPicDiv'><img src='img/responseButtonOffersNo0L2.png' class='respPic'></div></div>","null","2","Melon Millions","Fruit/melon.png","Lost","0.35,0.8","9","0.35","21","4","",""
"html-keyboard-response","21","151137","0.0-11.0-3.3","62f94c417a55be0afc4c5a4b","bdp_rwlrn","Tue Mar 14 2023 19:36:09 GMT-0400 (Eastern Daylight Time)","502501","Trustworthy,Untrustworthy","","null","","","","feedback","","","<div class='respPicDiv'><img src='img/responseButtonOffersNo0_wht.png' class='respPic'></div><div class='trialDiv'><img src='Fruit/melon.png'><br><font class='baseline'><strong>Melon Millions</strong><p><strong><font class='negOutcome'>You LOST</font><p>You bet: 2</strong></font> &nbsp; &nbsp; &nbsp; &nbsp; &nbsp; &nbsp;<font class='negOutcome'>You receive: <strong>0</strong></font></div>","null","2","Melon Millions","Fruit/melon.png","Lost","0.35,0.8","9","0.35","21","4","",""
"html-keyboard-response","22","152417","0.0-11.0-1.4","62f94c417a55be0afc4c5a4b","bdp_rwlrn","Tue Mar 14 2023 19:36:09 GMT-0400 (Eastern Daylight Time)","502501","Trustworthy,Untrustworthy","","1279","","","","decision","","","<div class='trialDiv'><img src='Fruit/pears.png'><br><font class='baseline'><strong>Pears Aplenty</strong><p>Choose number of points to bet.</font><div class='respPicDiv'><img src='img/responseButtonOffersNo0L.png' class='respPic'></div></div>","3","2","Pears Aplenty","Fruit/pears.png","Won","0.8,0.35","10","0.8","26","5","",""
"html-keyboard-response","23","152675","0.0-11.0-2.4","62f94c417a55be0afc4c5a4b","bdp_rwlrn","Tue Mar 14 2023 19:36:09 GMT-0400 (Eastern Daylight Time)","502501","Trustworthy,Untrustworthy","","null","","","","decisionFB","","","<div class='trialDiv'><img src='Fruit/pears.png'><br><font class='baseline'><strong>Pears Aplenty</strong><p>Choose number of points to bet.</font><div class='respPicDiv'><img src='img/responseButtonOffersNo0L3.png' class='respPic'></div></div>","null","2","Pears Aplenty","Fruit/pears.png","Won","0.8,0.35","10","0.8","23","5","",""
"html-keyboard-response","24","153687","0.0-11.0-3.4","62f94c417a55be0afc4c5a4b","bdp_rwlrn","Tue Mar 14 2023 19:36:09 GMT-0400 (Eastern Daylight Time)","502501","Trustworthy,Untrustworthy","","null","","","","feedback","","","<div class='respPicDiv'><img src='img/responseButtonOffersNo0_wht.png' class='respPic'></div><div class='trialDiv'><img src='Fruit/pears.png'><br><font class='baseline'><strong>Pears Aplenty</strong><p><strong><font class='posOutcome'>You WON</font><p>You bet: 3</strong></font> &nbsp; &nbsp; &nbsp; &nbsp; &nbsp; &nbsp;<font class='posOutcome'>you receive: <strong>6</strong></font></div>","null","2","Pears Aplenty","Fruit/pears.png","Won","0.8,0.35","10","0.8","29","5","",""
"html-keyboard-response","25","155963","0.0-11.0-1.5","62f94c417a55be0afc4c5a4b","bdp_rwlrn","Tue Mar 14 2023 19:36:09 GMT-0400 (Eastern Daylight Time)","502501","Trustworthy,Untrustworthy","","2275","","","","decision","","","<div class='trialDiv'><img src='Fruit/orange.png'><br><font class='baseline'><strong>Odds are Orange</strong><p>Choose number of points to bet.</font><div class='respPicDiv'><img src='img/responseButtonOffersNo0L.png' class='respPic'></div></div>","4","2","Odds are Orange","Fruit/orange.png","Lost","0.2,0.8","14","0.2","34","6","",""
"html-keyboard-response","26","156228","0.0-11.0-2.5","62f94c417a55be0afc4c5a4b","bdp_rwlrn","Tue Mar 14 2023 19:36:09 GMT-0400 (Eastern Daylight Time)","502501","Trustworthy,Untrustworthy","","null","","","","decisionFB","","","<div class='trialDiv'><img src='Fruit/orange.png'><br><font class='baseline'><strong>Odds are Orange</strong><p>Choose number of points to bet.</font><div class='respPicDiv'><img src='img/responseButtonOffersNo0L4.png' class='respPic'></div></div>","null","2","Odds are Orange","Fruit/orange.png","Lost","0.2,0.8","14","0.2","30","6","",""
"html-keyboard-response","27","157246","0.0-11.0-3.5","62f94c417a55be0afc4c5a4b","bdp_rwlrn","Tue Mar 14 2023 19:36:09 GMT-0400 (Eastern Daylight Time)","502501","Trustworthy,Untrustworthy","","null","","","","feedback","","","<div class='respPicDiv'><img src='img/responseButtonOffersNo0_wht.png' class='respPic'></div><div class='trialDiv'><img src='Fruit/orange.png'><br><font class='baseline'><strong>Odds are Orange</strong><p><strong><font class='negOutcome'>You LOST</font><p>You bet: 4</strong></font> &nbsp; &nbsp; &nbsp; &nbsp; &nbsp; &nbsp;<font class='negOutcome'>You receive: <strong>0</strong></font></div>","null","2","Odds are Orange","Fruit/orange.png","Lost","0.2,0.8","14","0.2","30","6","",""
"html-keyboard-response","28","158499","0.0-11.0-1.6","62f94c417a55be0afc4c5a4b","bdp_rwlrn","Tue Mar 14 2023 19:36:09 GMT-0400 (Eastern Daylight Time)","502501","Trustworthy,Untrustworthy","","1252","","","","decision","","","<div class='trialDiv'><img src='Fruit/melon.png'><br><font class='baseline'><strong>Melon Millions</strong><p>Choose number of points to bet.</font><div class='respPicDiv'><img src='img/responseButtonOffersNo0L.png' class='respPic'></div></div>","4","3","Melon Millions","Fruit/melon.png","Lost","0.35,0.8","9","0.35","35","7","",""
"html-keyboard-response","29","158756","0.0-11.0-2.6","62f94c417a55be0afc4c5a4b","bdp_rwlrn","Tue Mar 14 2023 19:36:09 GMT-0400 (Eastern Daylight Time)","502501","Trustworthy,Untrustworthy","","null","","","","decisionFB","","","<div class='trialDiv'><img src='Fruit/melon.png'><br><font class='baseline'><strong>Melon Millions</strong><p>Choose number of points to bet.</font><div class='respPicDiv'><img src='img/responseButtonOffersNo0L4.png' class='respPic'></div></div>","null","3","Melon Millions","Fruit/melon.png","Lost","0.35,0.8","9","0.35","31","7","",""
"html-keyboard-response","30","159762","0.0-11.0-3.6","62f94c417a55be0afc4c5a4b","bdp_rwlrn","Tue Mar 14 2023 19:36:09 GMT-0400 (Eastern Daylight Time)","502501","Trustworthy,Untrustworthy","","null","","","","feedback","","","<div class='respPicDiv'><img src='img/responseButtonOffersNo0_wht.png' class='respPic'></div><div class='trialDiv'><img src='Fruit/melon.png'><br><font class='baseline'><strong>Melon Millions</strong><p><strong><font class='negOutcome'>You LOST</font><p>You bet: 4</strong></font> &nbsp; &nbsp; &nbsp; &nbsp; &nbsp; &nbsp;<font class='negOutcome'>You receive: <strong>0</strong></font></div>","null","3","Melon Millions","Fruit/melon.png","Lost","0.35,0.8","9","0.35","31","7","",""
"html-keyboard-response","31","161044","0.0-11.0-1.7","62f94c417a55be0afc4c5a4b","bdp_rwlrn","Tue Mar 14 2023 19:36:09 GMT-0400 (Eastern Daylight Time)","502501","Trustworthy,Untrustworthy","","1281","","","","decision","","","<div class='trialDiv'><img src='Fruit/pears.png'><br><font class='baseline'><strong>Pears Aplenty</strong><p>Choose number of points to bet.</font><div class='respPicDiv'><img src='img/responseButtonOffersNo0L.png' class='respPic'></div></div>","2","3","Pears Aplenty","Fruit/pears.png","Won","0.8,0.35","10","0.8","36","8","",""
"html-keyboard-response","32","161298","0.0-11.0-2.7","62f94c417a55be0afc4c5a4b","bdp_rwlrn","Tue Mar 14 2023 19:36:09 GMT-0400 (Eastern Daylight Time)","502501","Trustworthy,Untrustworthy","","null","","","","decisionFB","","","<div class='trialDiv'><img src='Fruit/pears.png'><br><font class='baseline'><strong>Pears Aplenty</strong><p>Choose number of points to bet.</font><div class='respPicDiv'><img src='img/responseButtonOffersNo0L2.png' class='respPic'></div></div>","null","3","Pears Aplenty","Fruit/pears.png","Won","0.8,0.35","10","0.8","34","8","",""
"html-keyboard-response","33","162302","0.0-11.0-3.7","62f94c417a55be0afc4c5a4b","bdp_rwlrn","Tue Mar 14 2023 19:36:09 GMT-0400 (Eastern Daylight Time)","502501","Trustworthy,Untrustworthy","","null","","","","feedback","","","<div class='respPicDiv'><img src='img/responseButtonOffersNo0_wht.png' class='respPic'></div><div class='trialDiv'><img src='Fruit/pears.png'><br><font class='baseline'><strong>Pears Aplenty</strong><p><strong><font class='posOutcome'>You WON</font><p>You bet: 2</strong></font> &nbsp; &nbsp; &nbsp; &nbsp; &nbsp; &nbsp;<font class='posOutcome'>you receive: <strong>4</strong></font></div>","null","3","Pears Aplenty","Fruit/pears.png","Won","0.8,0.35","10","0.8","38","8","",""
"html-keyboard-response","34","163606","0.0-11.0-1.8","62f94c417a55be0afc4c5a4b","bdp_rwlrn","Tue Mar 14 2023 19:36:09 GMT-0400 (Eastern Daylight Time)","502501","Trustworthy,Untrustworthy","","1303","","","","decision","","","<div class='trialDiv'><img src='Fruit/orange.png'><br><font class='baseline'><strong>Odds are Orange</strong><p>Choose number of points to bet.</font><div class='respPicDiv'><img src='img/responseButtonOffersNo0L.png' class='respPic'></div></div>","4","3","Odds are Orange","Fruit/orange.png","Lost","0.2,0.8","14","0.2","43","9","",""
"html-keyboard-response","35","163871","0.0-11.0-2.8","62f94c417a55be0afc4c5a4b","bdp_rwlrn","Tue Mar 14 2023 19:36:09 GMT-0400 (Eastern Daylight Time)","502501","Trustworthy,Untrustworthy","","null","","","","decisionFB","","","<div class='trialDiv'><img src='Fruit/orange.png'><br><font class='baseline'><strong>Odds are Orange</strong><p>Choose number of points to bet.</font><div class='respPicDiv'><img src='img/responseButtonOffersNo0L4.png' class='respPic'></div></div>","null","3","Odds are Orange","Fruit/orange.png","Lost","0.2,0.8","14","0.2","39","9","",""
"html-keyboard-response","36","164876","0.0-11.0-3.8","62f94c417a55be0afc4c5a4b","bdp_rwlrn","Tue Mar 14 2023 19:36:09 GMT-0400 (Eastern Daylight Time)","502501","Trustworthy,Untrustworthy","","null","","","","feedback","","","<div class='respPicDiv'><img src='img/responseButtonOffersNo0_wht.png' class='respPic'></div><div class='trialDiv'><img src='Fruit/orange.png'><br><font class='baseline'><strong>Odds are Orange</strong><p><strong><font class='negOutcome'>You LOST</font><p>You bet: 4</strong></font> &nbsp; &nbsp; &nbsp; &nbsp; &nbsp; &nbsp;<font class='negOutcome'>You receive: <strong>0</strong></font></div>","null","3","Odds are Orange","Fruit/orange.png","Lost","0.2,0.8","14","0.2","39","9","",""
"html-keyboard-response","37","165745","0.0-11.0-1.9","62f94c417a55be0afc4c5a4b","bdp_rwlrn","Tue Mar 14 2023 19:36:09 GMT-0400 (Eastern Daylight Time)","502501","Trustworthy,Untrustworthy","","867","","","","decision","","","<div class='trialDiv'><img src='Fruit/melon.png'><br><font class='baseline'><strong>Melon Millions</strong><p>Choose number of points to bet.</font><div class='respPicDiv'><img src='img/responseButtonOffersNo0L.png' class='respPic'></div></div>","4","4","Melon Millions","Fruit/melon.png","Lost","0.35,0.8","9","0.35","44","10","",""
"html-keyboard-response","38","166004","0.0-11.0-2.9","62f94c417a55be0afc4c5a4b","bdp_rwlrn","Tue Mar 14 2023 19:36:09 GMT-0400 (Eastern Daylight Time)","502501","Trustworthy,Untrustworthy","","null","","","","decisionFB","","","<div class='trialDiv'><img src='Fruit/melon.png'><br><font class='baseline'><strong>Melon Millions</strong><p>Choose number of points to bet.</font><div class='respPicDiv'><img src='img/responseButtonOffersNo0L4.png' class='respPic'></div></div>","null","4","Melon Millions","Fruit/melon.png","Lost","0.35,0.8","9","0.35","40","10","",""
"html-keyboard-response","39","167019","0.0-11.0-3.9","62f94c417a55be0afc4c5a4b","bdp_rwlrn","Tue Mar 14 2023 19:36:09 GMT-0400 (Eastern Daylight Time)","502501","Trustworthy,Untrustworthy","","null","","","","feedback","","","<div class='respPicDiv'><img src='img/responseButtonOffersNo0_wht.png' class='respPic'></div><div class='trialDiv'><img src='Fruit/melon.png'><br><font class='baseline'><strong>Melon Millions</strong><p><strong><font class='negOutcome'>You LOST</font><p>You bet: 4</strong></font> &nbsp; &nbsp; &nbsp; &nbsp; &nbsp; &nbsp;<font class='negOutcome'>You receive: <strong>0</strong></font></div>","null","4","Melon Millions","Fruit/melon.png","Lost","0.35,0.8","9","0.35","40","10","",""
"html-keyboard-response","40","167254","0.0-11.0-1.10","62f94c417a55be0afc4c5a4b","bdp_rwlrn","Tue Mar 14 2023 19:36:09 GMT-0400 (Eastern Daylight Time)","502501","Trustworthy,Untrustworthy","","234","","","","decision","","","<div class='trialDiv'><img src='Fruit/orange.png'><br><font class='baseline'><strong>Odds are Orange</strong><p>Choose number of points to bet.</font><div class='respPicDiv'><img src='img/responseButtonOffersNo0L.png' class='respPic'></div></div>","3","4","Odds are Orange","Fruit/orange.png","Lost","0.2,0.8","14","0.2","45","11","",""
"html-keyboard-response","41","167518","0.0-11.0-2.10","62f94c417a55be0afc4c5a4b","bdp_rwlrn","Tue Mar 14 2023 19:36:09 GMT-0400 (Eastern Daylight Time)","502501","Trustworthy,Untrustworthy","","null","","","","decisionFB","","","<div class='trialDiv'><img src='Fruit/orange.png'><br><font class='baseline'><strong>Odds are Orange</strong><p>Choose number of points to bet.</font><div class='respPicDiv'><img src='img/responseButtonOffersNo0L3.png' class='respPic'></div></div>","null","4","Odds are Orange","Fruit/orange.png","Lost","0.2,0.8","14","0.2","42","11","",""
"html-keyboard-response","42","168524","0.0-11.0-3.10","62f94c417a55be0afc4c5a4b","bdp_rwlrn","Tue Mar 14 2023 19:36:09 GMT-0400 (Eastern Daylight Time)","502501","Trustworthy,Untrustworthy","","null","","","","feedback","","","<div class='respPicDiv'><img src='img/responseButtonOffersNo0_wht.png' class='respPic'></div><div class='trialDiv'><img src='Fruit/orange.png'><br><font class='baseline'><strong>Odds are Orange</strong><p><strong><font class='negOutcome'>You LOST</font><p>You bet: 3</strong></font> &nbsp; &nbsp; &nbsp; &nbsp; &nbsp; &nbsp;<font class='negOutcome'>You receive: <strong>0</strong></font></div>","null","4","Odds are Orange","Fruit/orange.png","Lost","0.2,0.8","14","0.2","42","11","",""
"html-keyboard-response","43","169015","0.0-11.0-1.11","62f94c417a55be0afc4c5a4b","bdp_rwlrn","Tue Mar 14 2023 19:36:09 GMT-0400 (Eastern Daylight Time)","502501","Trustworthy,Untrustworthy","","490","","","","decision","","","<div class='trialDiv'><img src='Fruit/pears.png'><br><font class='baseline'><strong>Pears Aplenty</strong><p>Choose number of points to bet.</font><div class='respPicDiv'><img src='img/responseButtonOffersNo0L.png' class='respPic'></div></div>","2","4","Pears Aplenty","Fruit/pears.png","Won","0.8,0.35","10","0.8","47","12","",""
"html-keyboard-response","44","169273","0.0-11.0-2.11","62f94c417a55be0afc4c5a4b","bdp_rwlrn","Tue Mar 14 2023 19:36:09 GMT-0400 (Eastern Daylight Time)","502501","Trustworthy,Untrustworthy","","null","","","","decisionFB","","","<div class='trialDiv'><img src='Fruit/pears.png'><br><font class='baseline'><strong>Pears Aplenty</strong><p>Choose number of points to bet.</font><div class='respPicDiv'><img src='img/responseButtonOffersNo0L2.png' class='respPic'></div></div>","null","4","Pears Aplenty","Fruit/pears.png","Won","0.8,0.35","10","0.8","45","12","",""
"html-keyboard-response","45","170288","0.0-11.0-3.11","62f94c417a55be0afc4c5a4b","bdp_rwlrn","Tue Mar 14 2023 19:36:09 GMT-0400 (Eastern Daylight Time)","502501","Trustworthy,Untrustworthy","","null","","","","feedback","","","<div class='respPicDiv'><img src='img/responseButtonOffersNo0_wht.png' class='respPic'></div><div class='trialDiv'><img src='Fruit/pears.png'><br><font class='baseline'><strong>Pears Aplenty</strong><p><strong><font class='posOutcome'>You WON</font><p>You bet: 2</strong></font> &nbsp; &nbsp; &nbsp; &nbsp; &nbsp; &nbsp;<font class='posOutcome'>you receive: <strong>4</strong></font></div>","null","4","Pears Aplenty","Fruit/pears.png","Won","0.8,0.35","10","0.8","49","12","",""
"html-keyboard-response","46","172037","0.0-11.0-1.12","62f94c417a55be0afc4c5a4b","bdp_rwlrn","Tue Mar 14 2023 19:36:09 GMT-0400 (Eastern Daylight Time)","502501","Trustworthy,Untrustworthy","","1748","","","","decision","","","<div class='trialDiv'><img src='Fruit/orange.png'><br><font class='baseline'><strong>Odds are Orange</strong><p>Choose number of points to bet.</font><div class='respPicDiv'><img src='img/responseButtonOffersNo0L.png' class='respPic'></div></div>","4","5","Odds are Orange","Fruit/orange.png","Lost","0.2,0.8","14","0.2","54","13","",""
"html-keyboard-response","47","172302","0.0-11.0-2.12","62f94c417a55be0afc4c5a4b","bdp_rwlrn","Tue Mar 14 2023 19:36:09 GMT-0400 (Eastern Daylight Time)","502501","Trustworthy,Untrustworthy","","null","","","","decisionFB","","","<div class='trialDiv'><img src='Fruit/orange.png'><br><font class='baseline'><strong>Odds are Orange</strong><p>Choose number of points to bet.</font><div class='respPicDiv'><img src='img/responseButtonOffersNo0L4.png' class='respPic'></div></div>","null","5","Odds are Orange","Fruit/orange.png","Lost","0.2,0.8","14","0.2","50","13","",""
"html-keyboard-response","48","173315","0.0-11.0-3.12","62f94c417a55be0afc4c5a4b","bdp_rwlrn","Tue Mar 14 2023 19:36:09 GMT-0400 (Eastern Daylight Time)","502501","Trustworthy,Untrustworthy","","null","","","","feedback","","","<div class='respPicDiv'><img src='img/responseButtonOffersNo0_wht.png' class='respPic'></div><div class='trialDiv'><img src='Fruit/orange.png'><br><font class='baseline'><strong>Odds are Orange</strong><p><strong><font class='negOutcome'>You LOST</font><p>You bet: 4</strong></font> &nbsp; &nbsp; &nbsp; &nbsp; &nbsp; &nbsp;<font class='negOutcome'>You receive: <strong>0</strong></font></div>","null","5","Odds are Orange","Fruit/orange.png","Lost","0.2,0.8","14","0.2","50","13","",""
"html-keyboard-response","49","174071","0.0-11.0-1.13","62f94c417a55be0afc4c5a4b","bdp_rwlrn","Tue Mar 14 2023 19:36:09 GMT-0400 (Eastern Daylight Time)","502501","Trustworthy,Untrustworthy","","755","","","","decision","","","<div class='trialDiv'><img src='Fruit/melon.png'><br><font class='baseline'><strong>Melon Millions</strong><p>Choose number of points to bet.</font><div class='respPicDiv'><img src='img/responseButtonOffersNo0L.png' class='respPic'></div></div>","3","5","Melon Millions","Fruit/melon.png","Won","0.35,0.8","9","0.35","55","14","",""
"html-keyboard-response","50","174325","0.0-11.0-2.13","62f94c417a55be0afc4c5a4b","bdp_rwlrn","Tue Mar 14 2023 19:36:09 GMT-0400 (Eastern Daylight Time)","502501","Trustworthy,Untrustworthy","","null","","","","decisionFB","","","<div class='trialDiv'><img src='Fruit/melon.png'><br><font class='baseline'><strong>Melon Millions</strong><p>Choose number of points to bet.</font><div class='respPicDiv'><img src='img/responseButtonOffersNo0L3.png' class='respPic'></div></div>","null","5","Melon Millions","Fruit/melon.png","Won","0.35,0.8","9","0.35","52","14","",""
"html-keyboard-response","51","175329","0.0-11.0-3.13","62f94c417a55be0afc4c5a4b","bdp_rwlrn","Tue Mar 14 2023 19:36:09 GMT-0400 (Eastern Daylight Time)","502501","Trustworthy,Untrustworthy","","null","","","","feedback","","","<div class='respPicDiv'><img src='img/responseButtonOffersNo0_wht.png' class='respPic'></div><div class='trialDiv'><img src='Fruit/melon.png'><br><font class='baseline'><strong>Melon Millions</strong><p><strong><font class='posOutcome'>You WON</font><p>You bet: 3</strong></font> &nbsp; &nbsp; &nbsp; &nbsp; &nbsp; &nbsp;<font class='posOutcome'>you receive: <strong>6</strong></font></div>","null","5","Melon Millions","Fruit/melon.png","Won","0.35,0.8","9","0.35","58","14","",""
"html-keyboard-response","52","175751","0.0-11.0-1.14","62f94c417a55be0afc4c5a4b","bdp_rwlrn","Tue Mar 14 2023 19:36:09 GMT-0400 (Eastern Daylight Time)","502501","Trustworthy,Untrustworthy","","421","","","","decision","","","<div class='trialDiv'><img src='Fruit/pears.png'><br><font class='baseline'><strong>Pears Aplenty</strong><p>Choose number of points to bet.</font><div class='respPicDiv'><img src='img/responseButtonOffersNo0L.png' class='respPic'></div></div>","2","5","Pears Aplenty","Fruit/pears.png","Won","0.8,0.35","10","0.8","63","15","",""
"html-keyboard-response","53","176017","0.0-11.0-2.14","62f94c417a55be0afc4c5a4b","bdp_rwlrn","Tue Mar 14 2023 19:36:09 GMT-0400 (Eastern Daylight Time)","502501","Trustworthy,Untrustworthy","","null","","","","decisionFB","","","<div class='trialDiv'><img src='Fruit/pears.png'><br><font class='baseline'><strong>Pears Aplenty</strong><p>Choose number of points to bet.</font><div class='respPicDiv'><img src='img/responseButtonOffersNo0L2.png' class='respPic'></div></div>","null","5","Pears Aplenty","Fruit/pears.png","Won","0.8,0.35","10","0.8","61","15","",""
"html-keyboard-response","54","177027","0.0-11.0-3.14","62f94c417a55be0afc4c5a4b","bdp_rwlrn","Tue Mar 14 2023 19:36:09 GMT-0400 (Eastern Daylight Time)","502501","Trustworthy,Untrustworthy","","null","","","","feedback","","","<div class='respPicDiv'><img src='img/responseButtonOffersNo0_wht.png' class='respPic'></div><div class='trialDiv'><img src='Fruit/pears.png'><br><font class='baseline'><strong>Pears Aplenty</strong><p><strong><font class='posOutcome'>You WON</font><p>You bet: 2</strong></font> &nbsp; &nbsp; &nbsp; &nbsp; &nbsp; &nbsp;<font class='posOutcome'>you receive: <strong>4</strong></font></div>","null","5","Pears Aplenty","Fruit/pears.png","Won","0.8,0.35","10","0.8","65","15","",""
"html-keyboard-response","55","177230","0.0-11.0-1.15","62f94c417a55be0afc4c5a4b","bdp_rwlrn","Tue Mar 14 2023 19:36:09 GMT-0400 (Eastern Daylight Time)","502501","Trustworthy,Untrustworthy","","203","","","","decision","","","<div class='trialDiv'><img src='Fruit/orange.png'><br><font class='baseline'><strong>Odds are Orange</strong><p>Choose number of points to bet.</font><div class='respPicDiv'><img src='img/responseButtonOffersNo0L.png' class='respPic'></div></div>","3","6","Odds are Orange","Fruit/orange.png","Lost","0.2,0.8","14","0.2","70","16","",""
"html-keyboard-response","56","177494","0.0-11.0-2.15","62f94c417a55be0afc4c5a4b","bdp_rwlrn","Tue Mar 14 2023 19:36:09 GMT-0400 (Eastern Daylight Time)","502501","Trustworthy,Untrustworthy","","null","","","","decisionFB","","","<div class='trialDiv'><img src='Fruit/orange.png'><br><font class='baseline'><strong>Odds are Orange</strong><p>Choose number of points to bet.</font><div class='respPicDiv'><img src='img/responseButtonOffersNo0L3.png' class='respPic'></div></div>","null","6","Odds are Orange","Fruit/orange.png","Lost","0.2,0.8","14","0.2","67","16","",""
"html-keyboard-response","57","178509","0.0-11.0-3.15","62f94c417a55be0afc4c5a4b","bdp_rwlrn","Tue Mar 14 2023 19:36:09 GMT-0400 (Eastern Daylight Time)","502501","Trustworthy,Untrustworthy","","null","","","","feedback","","","<div class='respPicDiv'><img src='img/responseButtonOffersNo0_wht.png' class='respPic'></div><div class='trialDiv'><img src='Fruit/orange.png'><br><font class='baseline'><strong>Odds are Orange</strong><p><strong><font class='negOutcome'>You LOST</font><p>You bet: 3</strong></font> &nbsp; &nbsp; &nbsp; &nbsp; &nbsp; &nbsp;<font class='negOutcome'>You receive: <strong>0</strong></font></div>","null","6","Odds are Orange","Fruit/orange.png","Lost","0.2,0.8","14","0.2","67","16","",""
"html-keyboard-response","58","178802","0.0-11.0-1.16","62f94c417a55be0afc4c5a4b","bdp_rwlrn","Tue Mar 14 2023 19:36:09 GMT-0400 (Eastern Daylight Time)","502501","Trustworthy,Untrustworthy","","291","","","","decision","","","<div class='trialDiv'><img src='Fruit/melon.png'><br><font class='baseline'><strong>Melon Millions</strong><p>Choose number of points to bet.</font><div class='respPicDiv'><img src='img/responseButtonOffersNo0L.png' class='respPic'></div></div>","3","6","Melon Millions","Fruit/melon.png","Lost","0.35,0.8","9","0.35","72","17","",""
"html-keyboard-response","59","179056","0.0-11.0-2.16","62f94c417a55be0afc4c5a4b","bdp_rwlrn","Tue Mar 14 2023 19:36:09 GMT-0400 (Eastern Daylight Time)","502501","Trustworthy,Untrustworthy","","null","","","","decisionFB","","","<div class='trialDiv'><img src='Fruit/melon.png'><br><font class='baseline'><strong>Melon Millions</strong><p>Choose number of points to bet.</font><div class='respPicDiv'><img src='img/responseButtonOffersNo0L3.png' class='respPic'></div></div>","null","6","Melon Millions","Fruit/melon.png","Lost","0.35,0.8","9","0.35","69","17","",""
"html-keyboard-response","60","180071","0.0-11.0-3.16","62f94c417a55be0afc4c5a4b","bdp_rwlrn","Tue Mar 14 2023 19:36:09 GMT-0400 (Eastern Daylight Time)","502501","Trustworthy,Untrustworthy","","null","","","","feedback","","","<div class='respPicDiv'><img src='img/responseButtonOffersNo0_wht.png' class='respPic'></div><div class='trialDiv'><img src='Fruit/melon.png'><br><font class='baseline'><strong>Melon Millions</strong><p><strong><font class='negOutcome'>You LOST</font><p>You bet: 3</strong></font> &nbsp; &nbsp; &nbsp; &nbsp; &nbsp; &nbsp;<font class='negOutcome'>You receive: <strong>0</strong></font></div>","null","6","Melon Millions","Fruit/melon.png","Lost","0.35,0.8","9","0.35","69","17","",""
"html-keyboard-response","61","180433","0.0-11.0-1.17","62f94c417a55be0afc4c5a4b","bdp_rwlrn","Tue Mar 14 2023 19:36:09 GMT-0400 (Eastern Daylight Time)","502501","Trustworthy,Untrustworthy","","361","","","","decision","","","<div class='trialDiv'><img src='Fruit/pears.png'><br><font class='baseline'><strong>Pears Aplenty</strong><p>Choose number of points to bet.</font><div class='respPicDiv'><img src='img/responseButtonOffersNo0L.png' class='respPic'></div></div>","3","6","Pears Aplenty","Fruit/pears.png","Won","0.8,0.35","10","0.8","74","18","",""
"html-keyboard-response","62","180699","0.0-11.0-2.17","62f94c417a55be0afc4c5a4b","bdp_rwlrn","Tue Mar 14 2023 19:36:09 GMT-0400 (Eastern Daylight Time)","502501","Trustworthy,Untrustworthy","","null","","","","decisionFB","","","<div class='trialDiv'><img src='Fruit/pears.png'><br><font class='baseline'><strong>Pears Aplenty</strong><p>Choose number of points to bet.</font><div class='respPicDiv'><img src='img/responseButtonOffersNo0L3.png' class='respPic'></div></div>","null","6","Pears Aplenty","Fruit/pears.png","Won","0.8,0.35","10","0.8","71","18","",""
"html-keyboard-response","63","181714","0.0-11.0-3.17","62f94c417a55be0afc4c5a4b","bdp_rwlrn","Tue Mar 14 2023 19:36:09 GMT-0400 (Eastern Daylight Time)","502501","Trustworthy,Untrustworthy","","null","","","","feedback","","","<div class='respPicDiv'><img src='img/responseButtonOffersNo0_wht.png' class='respPic'></div><div class='trialDiv'><img src='Fruit/pears.png'><br><font class='baseline'><strong>Pears Aplenty</strong><p><strong><font class='posOutcome'>You WON</font><p>You bet: 3</strong></font> &nbsp; &nbsp; &nbsp; &nbsp; &nbsp; &nbsp;<font class='posOutcome'>you receive: <strong>6</strong></font></div>","null","6","Pears Aplenty","Fruit/pears.png","Won","0.8,0.35","10","0.8","77","18","",""
"html-keyboard-response","64","182665","0.0-11.0-1.18","62f94c417a55be0afc4c5a4b","bdp_rwlrn","Tue Mar 14 2023 19:36:09 GMT-0400 (Eastern Daylight Time)","502501","Trustworthy,Untrustworthy","","950","","","","decision","","","<div class='trialDiv'><img src='Fruit/orange.png'><br><font class='baseline'><strong>Odds are Orange</strong><p>Choose number of points to bet.</font><div class='respPicDiv'><img src='img/responseButtonOffersNo0L.png' class='respPic'></div></div>","3","7","Odds are Orange","Fruit/orange.png","Lost","0.2,0.8","14","0.2","82","19","",""
"html-keyboard-response","65","182927","0.0-11.0-2.18","62f94c417a55be0afc4c5a4b","bdp_rwlrn","Tue Mar 14 2023 19:36:09 GMT-0400 (Eastern Daylight Time)","502501","Trustworthy,Untrustworthy","","null","","","","decisionFB","","","<div class='trialDiv'><img src='Fruit/orange.png'><br><font class='baseline'><strong>Odds are Orange</strong><p>Choose number of points to bet.</font><div class='respPicDiv'><img src='img/responseButtonOffersNo0L3.png' class='respPic'></div></div>","null","7","Odds are Orange","Fruit/orange.png","Lost","0.2,0.8","14","0.2","79","19","",""
"html-keyboard-response","66","183942","0.0-11.0-3.18","62f94c417a55be0afc4c5a4b","bdp_rwlrn","Tue Mar 14 2023 19:36:09 GMT-0400 (Eastern Daylight Time)","502501","Trustworthy,Untrustworthy","","null","","","","feedback","","","<div class='respPicDiv'><img src='img/responseButtonOffersNo0_wht.png' class='respPic'></div><div class='trialDiv'><img src='Fruit/orange.png'><br><font class='baseline'><strong>Odds are Orange</strong><p><strong><font class='negOutcome'>You LOST</font><p>You bet: 3</strong></font> &nbsp; &nbsp; &nbsp; &nbsp; &nbsp; &nbsp;<font class='negOutcome'>You receive: <strong>0</strong></font></div>","null","7","Odds are Orange","Fruit/orange.png","Lost","0.2,0.8","14","0.2","79","19","",""
"html-keyboard-response","67","184262","0.0-11.0-1.19","62f94c417a55be0afc4c5a4b","bdp_rwlrn","Tue Mar 14 2023 19:36:09 GMT-0400 (Eastern Daylight Time)","502501","Trustworthy,Untrustworthy","","319","","","","decision","","","<div class='trialDiv'><img src='Fruit/pears.png'><br><font class='baseline'><strong>Pears Aplenty</strong><p>Choose number of points to bet.</font><div class='respPicDiv'><img src='img/responseButtonOffersNo0L.png' class='respPic'></div></div>","2","7","Pears Aplenty","Fruit/pears.png","Won","0.8,0.35","10","0.8","84","20","",""
"html-keyboard-response","68","184520","0.0-11.0-2.19","62f94c417a55be0afc4c5a4b","bdp_rwlrn","Tue Mar 14 2023 19:36:09 GMT-0400 (Eastern Daylight Time)","502501","Trustworthy,Untrustworthy","","null","","","","decisionFB","","","<div class='trialDiv'><img src='Fruit/pears.png'><br><font class='baseline'><strong>Pears Aplenty</strong><p>Choose number of points to bet.</font><div class='respPicDiv'><img src='img/responseButtonOffersNo0L2.png' class='respPic'></div></div>","null","7","Pears Aplenty","Fruit/pears.png","Won","0.8,0.35","10","0.8","82","20","",""
"html-keyboard-response","69","185523","0.0-11.0-3.19","62f94c417a55be0afc4c5a4b","bdp_rwlrn","Tue Mar 14 2023 19:36:09 GMT-0400 (Eastern Daylight Time)","502501","Trustworthy,Untrustworthy","","null","","","","feedback","","","<div class='respPicDiv'><img src='img/responseButtonOffersNo0_wht.png' class='respPic'></div><div class='trialDiv'><img src='Fruit/pears.png'><br><font class='baseline'><strong>Pears Aplenty</strong><p><strong><font class='posOutcome'>You WON</font><p>You bet: 2</strong></font> &nbsp; &nbsp; &nbsp; &nbsp; &nbsp; &nbsp;<font class='posOutcome'>you receive: <strong>4</strong></font></div>","null","7","Pears Aplenty","Fruit/pears.png","Won","0.8,0.35","10","0.8","86","20","",""
"html-keyboard-response","70","185846","0.0-11.0-1.20","62f94c417a55be0afc4c5a4b","bdp_rwlrn","Tue Mar 14 2023 19:36:09 GMT-0400 (Eastern Daylight Time)","502501","Trustworthy,Untrustworthy","","323","","","","decision","","","<div class='trialDiv'><img src='Fruit/melon.png'><br><font class='baseline'><strong>Melon Millions</strong><p>Choose number of points to bet.</font><div class='respPicDiv'><img src='img/responseButtonOffersNo0L.png' class='respPic'></div></div>","2","7","Melon Millions","Fruit/melon.png","Lost","0.35,0.8","9","0.35","91","21","",""
"html-keyboard-response","71","186104","0.0-11.0-2.20","62f94c417a55be0afc4c5a4b","bdp_rwlrn","Tue Mar 14 2023 19:36:09 GMT-0400 (Eastern Daylight Time)","502501","Trustworthy,Untrustworthy","","null","","","","decisionFB","","","<div class='trialDiv'><img src='Fruit/melon.png'><br><font class='baseline'><strong>Melon Millions</strong><p>Choose number of points to bet.</font><div class='respPicDiv'><img src='img/responseButtonOffersNo0L2.png' class='respPic'></div></div>","null","7","Melon Millions","Fruit/melon.png","Lost","0.35,0.8","9","0.35","89","21","",""
"html-keyboard-response","72","187118","0.0-11.0-3.20","62f94c417a55be0afc4c5a4b","bdp_rwlrn","Tue Mar 14 2023 19:36:09 GMT-0400 (Eastern Daylight Time)","502501","Trustworthy,Untrustworthy","","null","","","","feedback","","","<div class='respPicDiv'><img src='img/responseButtonOffersNo0_wht.png' class='respPic'></div><div class='trialDiv'><img src='Fruit/melon.png'><br><font class='baseline'><strong>Melon Millions</strong><p><strong><font class='negOutcome'>You LOST</font><p>You bet: 2</strong></font> &nbsp; &nbsp; &nbsp; &nbsp; &nbsp; &nbsp;<font class='negOutcome'>You receive: <strong>0</strong></font></div>","null","7","Melon Millions","Fruit/melon.png","Lost","0.35,0.8","9","0.35","89","21","",""
"html-keyboard-response","73","187269","0.0-11.0-1.21","62f94c417a55be0afc4c5a4b","bdp_rwlrn","Tue Mar 14 2023 19:36:09 GMT-0400 (Eastern Daylight Time)","502501","Trustworthy,Untrustworthy","","150","","","","decision","","","<div class='trialDiv'><img src='Fruit/orange.png'><br><font class='baseline'><strong>Odds are Orange</strong><p>Choose number of points to bet.</font><div class='respPicDiv'><img src='img/responseButtonOffersNo0L.png' class='respPic'></div></div>","3","8","Odds are Orange","Fruit/orange.png","Lost","0.2,0.8","14","0.2","94","22","",""
"html-keyboard-response","74","187522","0.0-11.0-2.21","62f94c417a55be0afc4c5a4b","bdp_rwlrn","Tue Mar 14 2023 19:36:09 GMT-0400 (Eastern Daylight Time)","502501","Trustworthy,Untrustworthy","","null","","","","decisionFB","","","<div class='trialDiv'><img src='Fruit/orange.png'><br><font class='baseline'><strong>Odds are Orange</strong><p>Choose number of points to bet.</font><div class='respPicDiv'><img src='img/responseButtonOffersNo0L3.png' class='respPic'></div></div>","null","8","Odds are Orange","Fruit/orange.png","Lost","0.2,0.8","14","0.2","91","22","",""
"html-keyboard-response","75","188526","0.0-11.0-3.21","62f94c417a55be0afc4c5a4b","bdp_rwlrn","Tue Mar 14 2023 19:36:09 GMT-0400 (Eastern Daylight Time)","502501","Trustworthy,Untrustworthy","","null","","","","feedback","","","<div class='respPicDiv'><img src='img/responseButtonOffersNo0_wht.png' class='respPic'></div><div class='trialDiv'><img src='Fruit/orange.png'><br><font class='baseline'><strong>Odds are Orange</strong><p><strong><font class='negOutcome'>You LOST</font><p>You bet: 3</strong></font> &nbsp; &nbsp; &nbsp; &nbsp; &nbsp; &nbsp;<font class='negOutcome'>You receive: <strong>0</strong></font></div>","null","8","Odds are Orange","Fruit/orange.png","Lost","0.2,0.8","14","0.2","91","22","",""
"html-keyboard-response","76","188731","0.0-11.0-1.22","62f94c417a55be0afc4c5a4b","bdp_rwlrn","Tue Mar 14 2023 19:36:09 GMT-0400 (Eastern Daylight Time)","502501","Trustworthy,Untrustworthy","","204","","","","decision","","","<div class='trialDiv'><img src='Fruit/melon.png'><br><font class='baseline'><strong>Melon Millions</strong><p>Choose number of points to bet.</font><div class='respPicDiv'><img src='img/responseButtonOffersNo0L.png' class='respPic'></div></div>","4","8","Melon Millions","Fruit/melon.png","Lost","0.35,0.8","9","0.35","96","23","",""
"html-keyboard-response","77","188996","0.0-11.0-2.22","62f94c417a55be0afc4c5a4b","bdp_rwlrn","Tue Mar 14 2023 19:36:09 GMT-0400 (Eastern Daylight Time)","502501","Trustworthy,Untrustworthy","","null","","","","decisionFB","","","<div class='trialDiv'><img src='Fruit/melon.png'><br><font class='baseline'><strong>Melon Millions</strong><p>Choose number of points to bet.</font><div class='respPicDiv'><img src='img/responseButtonOffersNo0L4.png' class='respPic'></div></div>","null","8","Melon Millions","Fruit/melon.png","Lost","0.35,0.8","9","0.35","92","23","",""
"html-keyboard-response","78","190002","0.0-11.0-3.22","62f94c417a55be0afc4c5a4b","bdp_rwlrn","Tue Mar 14 2023 19:36:09 GMT-0400 (Eastern Daylight Time)","502501","Trustworthy,Untrustworthy","","null","","","","feedback","","","<div class='respPicDiv'><img src='img/responseButtonOffersNo0_wht.png' class='respPic'></div><div class='trialDiv'><img src='Fruit/melon.png'><br><font class='baseline'><strong>Melon Millions</strong><p><strong><font class='negOutcome'>You LOST</font><p>You bet: 4</strong></font> &nbsp; &nbsp; &nbsp; &nbsp; &nbsp; &nbsp;<font class='negOutcome'>You receive: <strong>0</strong></font></div>","null","8","Melon Millions","Fruit/melon.png","Lost","0.35,0.8","9","0.35","92","23","",""
"html-keyboard-response","79","190222","0.0-11.0-1.23","62f94c417a55be0afc4c5a4b","bdp_rwlrn","Tue Mar 14 2023 19:36:09 GMT-0400 (Eastern Daylight Time)","502501","Trustworthy,Untrustworthy","","218","","","","decision","","","<div class='trialDiv'><img src='Fruit/pears.png'><br><font class='baseline'><strong>Pears Aplenty</strong><p>Choose number of points to bet.</font><div class='respPicDiv'><img src='img/responseButtonOffersNo0L.png' class='respPic'></div></div>","3","8","Pears Aplenty","Fruit/pears.png","Won","0.8,0.35","10","0.8","97","24","",""
"html-keyboard-response","80","190488","0.0-11.0-2.23","62f94c417a55be0afc4c5a4b","bdp_rwlrn","Tue Mar 14 2023 19:36:09 GMT-0400 (Eastern Daylight Time)","502501","Trustworthy,Untrustworthy","","null","","","","decisionFB","","","<div class='trialDiv'><img src='Fruit/pears.png'><br><font class='baseline'><strong>Pears Aplenty</strong><p>Choose number of points to bet.</font><div class='respPicDiv'><img src='img/responseButtonOffersNo0L3.png' class='respPic'></div></div>","null","8","Pears Aplenty","Fruit/pears.png","Won","0.8,0.35","10","0.8","94","24","",""
"html-keyboard-response","81","191496","0.0-11.0-3.23","62f94c417a55be0afc4c5a4b","bdp_rwlrn","Tue Mar 14 2023 19:36:09 GMT-0400 (Eastern Daylight Time)","502501","Trustworthy,Untrustworthy","","null","","","","feedback","","","<div class='respPicDiv'><img src='img/responseButtonOffersNo0_wht.png' class='respPic'></div><div class='trialDiv'><img src='Fruit/pears.png'><br><font class='baseline'><strong>Pears Aplenty</strong><p><strong><font class='posOutcome'>You WON</font><p>You bet: 3</strong></font> &nbsp; &nbsp; &nbsp; &nbsp; &nbsp; &nbsp;<font class='posOutcome'>you receive: <strong>6</strong></font></div>","null","8","Pears Aplenty","Fruit/pears.png","Won","0.8,0.35","10","0.8","100","24","",""
"html-keyboard-response","82","191691","0.0-11.0-1.24","62f94c417a55be0afc4c5a4b","bdp_rwlrn","Tue Mar 14 2023 19:36:09 GMT-0400 (Eastern Daylight Time)","502501","Trustworthy,Untrustworthy","","194","","","","decision","","","<div class='trialDiv'><img src='Fruit/melon.png'><br><font class='baseline'><strong>Melon Millions</strong><p>Choose number of points to bet.</font><div class='respPicDiv'><img src='img/responseButtonOffersNo0L.png' class='respPic'></div></div>","4","9","Melon Millions","Fruit/melon.png","Won","0.35,0.8","9","0.35","105","25","",""
"html-keyboard-response","83","191949","0.0-11.0-2.24","62f94c417a55be0afc4c5a4b","bdp_rwlrn","Tue Mar 14 2023 19:36:09 GMT-0400 (Eastern Daylight Time)","502501","Trustworthy,Untrustworthy","","null","","","","decisionFB","","","<div class='trialDiv'><img src='Fruit/melon.png'><br><font class='baseline'><strong>Melon Millions</strong><p>Choose number of points to bet.</font><div class='respPicDiv'><img src='img/responseButtonOffersNo0L4.png' class='respPic'></div></div>","null","9","Melon Millions","Fruit/melon.png","Won","0.35,0.8","9","0.35","101","25","",""
"html-keyboard-response","84","192951","0.0-11.0-3.24","62f94c417a55be0afc4c5a4b","bdp_rwlrn","Tue Mar 14 2023 19:36:09 GMT-0400 (Eastern Daylight Time)","502501","Trustworthy,Untrustworthy","","null","","","","feedback","","","<div class='respPicDiv'><img src='img/responseButtonOffersNo0_wht.png' class='respPic'></div><div class='trialDiv'><img src='Fruit/melon.png'><br><font class='baseline'><strong>Melon Millions</strong><p><strong><font class='posOutcome'>You WON</font><p>You bet: 4</strong></font> &nbsp; &nbsp; &nbsp; &nbsp; &nbsp; &nbsp;<font class='posOutcome'>you receive: <strong>8</strong></font></div>","null","9","Melon Millions","Fruit/melon.png","Won","0.35,0.8","9","0.35","109","25","",""
"html-keyboard-response","85","196146","0.0-11.0-1.25","62f94c417a55be0afc4c5a4b","bdp_rwlrn","Tue Mar 14 2023 19:36:09 GMT-0400 (Eastern Daylight Time)","502501","Trustworthy,Untrustworthy","","3194","","","","decision","","","<div class='trialDiv'><img src='Fruit/orange.png'><br><font class='baseline'><strong>Odds are Orange</strong><p>Choose number of points to bet.</font><div class='respPicDiv'><img src='img/responseButtonOffersNo0L.png' class='respPic'></div></div>","5","9","Odds are Orange","Fruit/orange.png","Won","0.2,0.8","14","0.2","114","26","",""
"html-keyboard-response","86","196398","0.0-11.0-2.25","62f94c417a55be0afc4c5a4b","bdp_rwlrn","Tue Mar 14 2023 19:36:09 GMT-0400 (Eastern Daylight Time)","502501","Trustworthy,Untrustworthy","","null","","","","decisionFB","","","<div class='trialDiv'><img src='Fruit/orange.png'><br><font class='baseline'><strong>Odds are Orange</strong><p>Choose number of points to bet.</font><div class='respPicDiv'><img src='img/responseButtonOffersNo0L5.png' class='respPic'></div></div>","null","9","Odds are Orange","Fruit/orange.png","Won","0.2,0.8","14","0.2","109","26","",""
"html-keyboard-response","87","197409","0.0-11.0-3.25","62f94c417a55be0afc4c5a4b","bdp_rwlrn","Tue Mar 14 2023 19:36:09 GMT-0400 (Eastern Daylight Time)","502501","Trustworthy,Untrustworthy","","null","","","","feedback","","","<div class='respPicDiv'><img src='img/responseButtonOffersNo0_wht.png' class='respPic'></div><div class='trialDiv'><img src='Fruit/orange.png'><br><font class='baseline'><strong>Odds are Orange</strong><p><strong><font class='posOutcome'>You WON</font><p>You bet: 5</strong></font> &nbsp; &nbsp; &nbsp; &nbsp; &nbsp; &nbsp;<font class='posOutcome'>you receive: <strong>10</strong></font></div>","null","9","Odds are Orange","Fruit/orange.png","Won","0.2,0.8","14","0.2","119","26","",""
"html-keyboard-response","88","198004","0.0-11.0-1.26","62f94c417a55be0afc4c5a4b","bdp_rwlrn","Tue Mar 14 2023 19:36:09 GMT-0400 (Eastern Daylight Time)","502501","Trustworthy,Untrustworthy","","594","","","","decision","","","<div class='trialDiv'><img src='Fruit/pears.png'><br><font class='baseline'><strong>Pears Aplenty</strong><p>Choose number of points to bet.</font><div class='respPicDiv'><img src='img/responseButtonOffersNo0L.png' class='respPic'></div></div>","2","9","Pears Aplenty","Fruit/pears.png","Won","0.8,0.35","10","0.8","124","27","",""
"html-keyboard-response","89","198268","0.0-11.0-2.26","62f94c417a55be0afc4c5a4b","bdp_rwlrn","Tue Mar 14 2023 19:36:09 GMT-0400 (Eastern Daylight Time)","502501","Trustworthy,Untrustworthy","","null","","","","decisionFB","","","<div class='trialDiv'><img src='Fruit/pears.png'><br><font class='baseline'><strong>Pears Aplenty</strong><p>Choose number of points to bet.</font><div class='respPicDiv'><img src='img/responseButtonOffersNo0L2.png' class='respPic'></div></div>","null","9","Pears Aplenty","Fruit/pears.png","Won","0.8,0.35","10","0.8","122","27","",""
"html-keyboard-response","90","199273","0.0-11.0-3.26","62f94c417a55be0afc4c5a4b","bdp_rwlrn","Tue Mar 14 2023 19:36:09 GMT-0400 (Eastern Daylight Time)","502501","Trustworthy,Untrustworthy","","null","","","","feedback","","","<div class='respPicDiv'><img src='img/responseButtonOffersNo0_wht.png' class='respPic'></div><div class='trialDiv'><img src='Fruit/pears.png'><br><font class='baseline'><strong>Pears Aplenty</strong><p><strong><font class='posOutcome'>You WON</font><p>You bet: 2</strong></font> &nbsp; &nbsp; &nbsp; &nbsp; &nbsp; &nbsp;<font class='posOutcome'>you receive: <strong>4</strong></font></div>","null","9","Pears Aplenty","Fruit/pears.png","Won","0.8,0.35","10","0.8","126","27","",""
"html-keyboard-response","91","199674","0.0-11.0-1.27","62f94c417a55be0afc4c5a4b","bdp_rwlrn","Tue Mar 14 2023 19:36:09 GMT-0400 (Eastern Daylight Time)","502501","Trustworthy,Untrustworthy","","400","","","","decision","","","<div class='trialDiv'><img src='Fruit/orange.png'><br><font class='baseline'><strong>Odds are Orange</strong><p>Choose number of points to bet.</font><div class='respPicDiv'><img src='img/responseButtonOffersNo0L.png' class='respPic'></div></div>","4","10","Odds are Orange","Fruit/orange.png","Won","0.2,0.8","14","0.2","131","28","",""
"html-keyboard-response","92","199930","0.0-11.0-2.27","62f94c417a55be0afc4c5a4b","bdp_rwlrn","Tue Mar 14 2023 19:36:09 GMT-0400 (Eastern Daylight Time)","502501","Trustworthy,Untrustworthy","","null","","","","decisionFB","","","<div class='trialDiv'><img src='Fruit/orange.png'><br><font class='baseline'><strong>Odds are Orange</strong><p>Choose number of points to bet.</font><div class='respPicDiv'><img src='img/responseButtonOffersNo0L4.png' class='respPic'></div></div>","null","10","Odds are Orange","Fruit/orange.png","Won","0.2,0.8","14","0.2","127","28","",""
"html-keyboard-response","93","200933","0.0-11.0-3.27","62f94c417a55be0afc4c5a4b","bdp_rwlrn","Tue Mar 14 2023 19:36:09 GMT-0400 (Eastern Daylight Time)","502501","Trustworthy,Untrustworthy","","null","","","","feedback","","","<div class='respPicDiv'><img src='img/responseButtonOffersNo0_wht.png' class='respPic'></div><div class='trialDiv'><img src='Fruit/orange.png'><br><font class='baseline'><strong>Odds are Orange</strong><p><strong><font class='posOutcome'>You WON</font><p>You bet: 4</strong></font> &nbsp; &nbsp; &nbsp; &nbsp; &nbsp; &nbsp;<font class='posOutcome'>you receive: <strong>8</strong></font></div>","null","10","Odds are Orange","Fruit/orange.png","Won","0.2,0.8","14","0.2","135","28","",""
"html-keyboard-response","94","201631","0.0-11.0-1.28","62f94c417a55be0afc4c5a4b","bdp_rwlrn","Tue Mar 14 2023 19:36:09 GMT-0400 (Eastern Daylight Time)","502501","Trustworthy,Untrustworthy","","696","","","","decision","","","<div class='trialDiv'><img src='Fruit/pears.png'><br><font class='baseline'><strong>Pears Aplenty</strong><p>Choose number of points to bet.</font><div class='respPicDiv'><img src='img/responseButtonOffersNo0L.png' class='respPic'></div></div>","2","10","Pears Aplenty","Fruit/pears.png","Won","0.8,0.35","10","0.8","140","29","",""
"html-keyboard-response","95","201886","0.0-11.0-2.28","62f94c417a55be0afc4c5a4b","bdp_rwlrn","Tue Mar 14 2023 19:36:09 GMT-0400 (Eastern Daylight Time)","502501","Trustworthy,Untrustworthy","","null","","","","decisionFB","","","<div class='trialDiv'><img src='Fruit/pears.png'><br><font class='baseline'><strong>Pears Aplenty</strong><p>Choose number of points to bet.</font><div class='respPicDiv'><img src='img/responseButtonOffersNo0L2.png' class='respPic'></div></div>","null","10","Pears Aplenty","Fruit/pears.png","Won","0.8,0.35","10","0.8","138","29","",""
"html-keyboard-response","96","202890","0.0-11.0-3.28","62f94c417a55be0afc4c5a4b","bdp_rwlrn","Tue Mar 14 2023 19:36:09 GMT-0400 (Eastern Daylight Time)","502501","Trustworthy,Untrustworthy","","null","","","","feedback","","","<div class='respPicDiv'><img src='img/responseButtonOffersNo0_wht.png' class='respPic'></div><div class='trialDiv'><img src='Fruit/pears.png'><br><font class='baseline'><strong>Pears Aplenty</strong><p><strong><font class='posOutcome'>You WON</font><p>You bet: 2</strong></font> &nbsp; &nbsp; &nbsp; &nbsp; &nbsp; &nbsp;<font class='posOutcome'>you receive: <strong>4</strong></font></div>","null","10","Pears Aplenty","Fruit/pears.png","Won","0.8,0.35","10","0.8","142","29","",""
"html-keyboard-response","97","203133","0.0-11.0-1.29","62f94c417a55be0afc4c5a4b","bdp_rwlrn","Tue Mar 14 2023 19:36:09 GMT-0400 (Eastern Daylight Time)","502501","Trustworthy,Untrustworthy","","242","","","","decision","","","<div class='trialDiv'><img src='Fruit/melon.png'><br><font class='baseline'><strong>Melon Millions</strong><p>Choose number of points to bet.</font><div class='respPicDiv'><img src='img/responseButtonOffersNo0L.png' class='respPic'></div></div>","4","10","Melon Millions","Fruit/melon.png","Lost","0.35,0.8","9","0.35","147","30","",""
"html-keyboard-response","98","203390","0.0-11.0-2.29","62f94c417a55be0afc4c5a4b","bdp_rwlrn","Tue Mar 14 2023 19:36:09 GMT-0400 (Eastern Daylight Time)","502501","Trustworthy,Untrustworthy","","null","","","","decisionFB","","","<div class='trialDiv'><img src='Fruit/melon.png'><br><font class='baseline'><strong>Melon Millions</strong><p>Choose number of points to bet.</font><div class='respPicDiv'><img src='img/responseButtonOffersNo0L4.png' class='respPic'></div></div>","null","10","Melon Millions","Fruit/melon.png","Lost","0.35,0.8","9","0.35","143","30","",""
"html-keyboard-response","99","204398","0.0-11.0-3.29","62f94c417a55be0afc4c5a4b","bdp_rwlrn","Tue Mar 14 2023 19:36:09 GMT-0400 (Eastern Daylight Time)","502501","Trustworthy,Untrustworthy","","null","","","","feedback","","","<div class='respPicDiv'><img src='img/responseButtonOffersNo0_wht.png' class='respPic'></div><div class='trialDiv'><img src='Fruit/melon.png'><br><font class='baseline'><strong>Melon Millions</strong><p><strong><font class='negOutcome'>You LOST</font><p>You bet: 4</strong></font> &nbsp; &nbsp; &nbsp; &nbsp; &nbsp; &nbsp;<font class='negOutcome'>You receive: <strong>0</strong></font></div>","null","10","Melon Millions","Fruit/melon.png","Lost","0.35,0.8","9","0.35","143","30","",""
"html-keyboard-response","100","205718","0.0-11.0-1.30","62f94c417a55be0afc4c5a4b","bdp_rwlrn","Tue Mar 14 2023 19:36:09 GMT-0400 (Eastern Daylight Time)","502501","Trustworthy,Untrustworthy","","1318","","","","decision","","","<div class='trialDiv'><img src='Fruit/orange.png'><br><font class='baseline'><strong>Odds are Orange</strong><p>Choose number of points to bet.</font><div class='respPicDiv'><img src='img/responseButtonOffersNo0L.png' class='respPic'></div></div>","3","11","Odds are Orange","Fruit/orange.png","Won","0.2,0.8","14","0.2","148","31","",""
"html-keyboard-response","101","205977","0.0-11.0-2.30","62f94c417a55be0afc4c5a4b","bdp_rwlrn","Tue Mar 14 2023 19:36:09 GMT-0400 (Eastern Daylight Time)","502501","Trustworthy,Untrustworthy","","null","","","","decisionFB","","","<div class='trialDiv'><img src='Fruit/orange.png'><br><font class='baseline'><strong>Odds are Orange</strong><p>Choose number of points to bet.</font><div class='respPicDiv'><img src='img/responseButtonOffersNo0L3.png' class='respPic'></div></div>","null","11","Odds are Orange","Fruit/orange.png","Won","0.2,0.8","14","0.2","145","31","",""
"html-keyboard-response","102","206985","0.0-11.0-3.30","62f94c417a55be0afc4c5a4b","bdp_rwlrn","Tue Mar 14 2023 19:36:09 GMT-0400 (Eastern Daylight Time)","502501","Trustworthy,Untrustworthy","","null","","","","feedback","","","<div class='respPicDiv'><img src='img/responseButtonOffersNo0_wht.png' class='respPic'></div><div class='trialDiv'><img src='Fruit/orange.png'><br><font class='baseline'><strong>Odds are Orange</strong><p><strong><font class='posOutcome'>You WON</font><p>You bet: 3</strong></font> &nbsp; &nbsp; &nbsp; &nbsp; &nbsp; &nbsp;<font class='posOutcome'>you receive: <strong>6</strong></font></div>","null","11","Odds are Orange","Fruit/orange.png","Won","0.2,0.8","14","0.2","151","31","",""
"html-keyboard-response","103","207677","0.0-11.0-1.31","62f94c417a55be0afc4c5a4b","bdp_rwlrn","Tue Mar 14 2023 19:36:09 GMT-0400 (Eastern Daylight Time)","502501","Trustworthy,Untrustworthy","","691","","","","decision","","","<div class='trialDiv'><img src='Fruit/pears.png'><br><font class='baseline'><strong>Pears Aplenty</strong><p>Choose number of points to bet.</font><div class='respPicDiv'><img src='img/responseButtonOffersNo0L.png' class='respPic'></div></div>","2","11","Pears Aplenty","Fruit/pears.png","Lost","0.8,0.35","10","0.8","156","32","",""
"html-keyboard-response","104","207942","0.0-11.0-2.31","62f94c417a55be0afc4c5a4b","bdp_rwlrn","Tue Mar 14 2023 19:36:09 GMT-0400 (Eastern Daylight Time)","502501","Trustworthy,Untrustworthy","","null","","","","decisionFB","","","<div class='trialDiv'><img src='Fruit/pears.png'><br><font class='baseline'><strong>Pears Aplenty</strong><p>Choose number of points to bet.</font><div class='respPicDiv'><img src='img/responseButtonOffersNo0L2.png' class='respPic'></div></div>","null","11","Pears Aplenty","Fruit/pears.png","Lost","0.8,0.35","10","0.8","154","32","",""
"html-keyboard-response","105","208950","0.0-11.0-3.31","62f94c417a55be0afc4c5a4b","bdp_rwlrn","Tue Mar 14 2023 19:36:09 GMT-0400 (Eastern Daylight Time)","502501","Trustworthy,Untrustworthy","","null","","","","feedback","","","<div class='respPicDiv'><img src='img/responseButtonOffersNo0_wht.png' class='respPic'></div><div class='trialDiv'><img src='Fruit/pears.png'><br><font class='baseline'><strong>Pears Aplenty</strong><p><strong><font class='negOutcome'>You LOST</font><p>You bet: 2</strong></font> &nbsp; &nbsp; &nbsp; &nbsp; &nbsp; &nbsp;<font class='negOutcome'>You receive: <strong>0</strong></font></div>","null","11","Pears Aplenty","Fruit/pears.png","Lost","0.8,0.35","10","0.8","154","32","",""
"","","","","62f94c417a55be0afc4c5a4b","bdp_rwlrn","Tue Mar 14 2023 19:36:09 GMT-0400 (Eastern Daylight Time)","502501","Trustworthy,Untrustworthy","","","blur","106","211543","blurevent","","1","","","","","","","","","","","","",""
"","","","","62f94c417a55be0afc4c5a4b","bdp_rwlrn","Tue Mar 14 2023 19:36:09 GMT-0400 (Eastern Daylight Time)","502501","Trustworthy,Untrustworthy","","","focus","106","211543","focusevent","","","","","","","","","","","","","","",""
"html-keyboard-response","106","212589","0.0-11.0-1.32","62f94c417a55be0afc4c5a4b","bdp_rwlrn","Tue Mar 14 2023 19:36:09 GMT-0400 (Eastern Daylight Time)","502501","Trustworthy,Untrustworthy","","3638","blur","106","211543","decision","","1","<div class='trialDiv'><img src='Fruit/melon.png'><br><font class='baseline'><strong>Melon Millions</strong><p>Choose number of points to bet.</font><div class='respPicDiv'><img src='img/responseButtonOffersNo0L.png' class='respPic'></div></div>","3","11","Melon Millions","Fruit/melon.png","Won","0.35,0.8","9","0.35","159","33","",""
"html-keyboard-response","107","212850","0.0-11.0-2.32","62f94c417a55be0afc4c5a4b","bdp_rwlrn","Tue Mar 14 2023 19:36:09 GMT-0400 (Eastern Daylight Time)","502501","Trustworthy,Untrustworthy","","null","","","","decisionFB","","","<div class='trialDiv'><img src='Fruit/melon.png'><br><font class='baseline'><strong>Melon Millions</strong><p>Choose number of points to bet.</font><div class='respPicDiv'><img src='img/responseButtonOffersNo0L3.png' class='respPic'></div></div>","null","11","Melon Millions","Fruit/melon.png","Won","0.35,0.8","9","0.35","156","33","",""
"html-keyboard-response","108","213853","0.0-11.0-3.32","62f94c417a55be0afc4c5a4b","bdp_rwlrn","Tue Mar 14 2023 19:36:09 GMT-0400 (Eastern Daylight Time)","502501","Trustworthy,Untrustworthy","","null","","","","feedback","","","<div class='respPicDiv'><img src='img/responseButtonOffersNo0_wht.png' class='respPic'></div><div class='trialDiv'><img src='Fruit/melon.png'><br><font class='baseline'><strong>Melon Millions</strong><p><strong><font class='posOutcome'>You WON</font><p>You bet: 3</strong></font> &nbsp; &nbsp; &nbsp; &nbsp; &nbsp; &nbsp;<font class='posOutcome'>you receive: <strong>6</strong></font></div>","null","11","Melon Millions","Fruit/melon.png","Won","0.35,0.8","9","0.35","162","33","",""
"","","","","62f94c417a55be0afc4c5a4b","bdp_rwlrn","Tue Mar 14 2023 19:36:09 GMT-0400 (Eastern Daylight Time)","502501","Trustworthy,Untrustworthy","","","blur","109","222930","blurevent","","2","","","","","","","","","","","","",""
"","","","","62f94c417a55be0afc4c5a4b","bdp_rwlrn","Tue Mar 14 2023 19:36:09 GMT-0400 (Eastern Daylight Time)","502501","Trustworthy,Untrustworthy","","","focus","109","222930","focusevent","","","","","","","","","","","","","","",""
"image-keyboard-response","109","229239","0.0-11.0-0.33-0.33","62f94c417a55be0afc4c5a4b","bdp_rwlrn","Tue Mar 14 2023 19:36:09 GMT-0400 (Eastern Daylight Time)","502501","Trustworthy,Untrustworthy","","15384","","","","blurwarn","","1","","49","","","","","","","","","","",""
"html-keyboard-response","110","238424","0.0-11.0-1.33","62f94c417a55be0afc4c5a4b","bdp_rwlrn","Tue Mar 14 2023 19:36:09 GMT-0400 (Eastern Daylight Time)","502501","Trustworthy,Untrustworthy","","8930","","","","decision","","","<div class='trialDiv'><img src='Fruit/pears.png'><br><font class='baseline'><strong>Pears Aplenty</strong><p>Choose number of points to bet.</font><div class='respPicDiv'><img src='img/responseButtonOffersNo0L.png' class='respPic'></div></div>","2","12","Pears Aplenty","Fruit/pears.png","Won","0.8,0.35","10","0.8","167","34","",""
"html-keyboard-response","111","238681","0.0-11.0-2.33","62f94c417a55be0afc4c5a4b","bdp_rwlrn","Tue Mar 14 2023 19:36:09 GMT-0400 (Eastern Daylight Time)","502501","Trustworthy,Untrustworthy","","null","","","","decisionFB","","","<div class='trialDiv'><img src='Fruit/pears.png'><br><font class='baseline'><strong>Pears Aplenty</strong><p>Choose number of points to bet.</font><div class='respPicDiv'><img src='img/responseButtonOffersNo0L2.png' class='respPic'></div></div>","null","12","Pears Aplenty","Fruit/pears.png","Won","0.8,0.35","10","0.8","165","34","",""
"html-keyboard-response","112","239684","0.0-11.0-3.33","62f94c417a55be0afc4c5a4b","bdp_rwlrn","Tue Mar 14 2023 19:36:09 GMT-0400 (Eastern Daylight Time)","502501","Trustworthy,Untrustworthy","","null","","","","feedback","","","<div class='respPicDiv'><img src='img/responseButtonOffersNo0_wht.png' class='respPic'></div><div class='trialDiv'><img src='Fruit/pears.png'><br><font class='baseline'><strong>Pears Aplenty</strong><p><strong><font class='posOutcome'>You WON</font><p>You bet: 2</strong></font> &nbsp; &nbsp; &nbsp; &nbsp; &nbsp; &nbsp;<font class='posOutcome'>you receive: <strong>4</strong></font></div>","null","12","Pears Aplenty","Fruit/pears.png","Won","0.8,0.35","10","0.8","169","34","",""
"html-keyboard-response","113","240486","0.0-11.0-1.34","62f94c417a55be0afc4c5a4b","bdp_rwlrn","Tue Mar 14 2023 19:36:09 GMT-0400 (Eastern Daylight Time)","502501","Trustworthy,Untrustworthy","","801","","","","decision","","","<div class='trialDiv'><img src='Fruit/melon.png'><br><font class='baseline'><strong>Melon Millions</strong><p>Choose number of points to bet.</font><div class='respPicDiv'><img src='img/responseButtonOffersNo0L.png' class='respPic'></div></div>","4","12","Melon Millions","Fruit/melon.png","Lost","0.35,0.8","9","0.35","174","35","",""
"html-keyboard-response","114","240748","0.0-11.0-2.34","62f94c417a55be0afc4c5a4b","bdp_rwlrn","Tue Mar 14 2023 19:36:09 GMT-0400 (Eastern Daylight Time)","502501","Trustworthy,Untrustworthy","","null","","","","decisionFB","","","<div class='trialDiv'><img src='Fruit/melon.png'><br><font class='baseline'><strong>Melon Millions</strong><p>Choose number of points to bet.</font><div class='respPicDiv'><img src='img/responseButtonOffersNo0L4.png' class='respPic'></div></div>","null","12","Melon Millions","Fruit/melon.png","Lost","0.35,0.8","9","0.35","170","35","",""
"html-keyboard-response","115","241759","0.0-11.0-3.34","62f94c417a55be0afc4c5a4b","bdp_rwlrn","Tue Mar 14 2023 19:36:09 GMT-0400 (Eastern Daylight Time)","502501","Trustworthy,Untrustworthy","","null","","","","feedback","","","<div class='respPicDiv'><img src='img/responseButtonOffersNo0_wht.png' class='respPic'></div><div class='trialDiv'><img src='Fruit/melon.png'><br><font class='baseline'><strong>Melon Millions</strong><p><strong><font class='negOutcome'>You LOST</font><p>You bet: 4</strong></font> &nbsp; &nbsp; &nbsp; &nbsp; &nbsp; &nbsp;<font class='negOutcome'>You receive: <strong>0</strong></font></div>","null","12","Melon Millions","Fruit/melon.png","Lost","0.35,0.8","9","0.35","170","35","",""
"html-keyboard-response","116","243208","0.0-11.0-1.35","62f94c417a55be0afc4c5a4b","bdp_rwlrn","Tue Mar 14 2023 19:36:09 GMT-0400 (Eastern Daylight Time)","502501","Trustworthy,Untrustworthy","","1448","","","","decision","","","<div class='trialDiv'><img src='Fruit/orange.png'><br><font class='baseline'><strong>Odds are Orange</strong><p>Choose number of points to bet.</font><div class='respPicDiv'><img src='img/responseButtonOffersNo0L.png' class='respPic'></div></div>","3","12","Odds are Orange","Fruit/orange.png","Lost","0.2,0.8","14","0.2","175","36","",""
"html-keyboard-response","117","243471","0.0-11.0-2.35","62f94c417a55be0afc4c5a4b","bdp_rwlrn","Tue Mar 14 2023 19:36:09 GMT-0400 (Eastern Daylight Time)","502501","Trustworthy,Untrustworthy","","null","","","","decisionFB","","","<div class='trialDiv'><img src='Fruit/orange.png'><br><font class='baseline'><strong>Odds are Orange</strong><p>Choose number of points to bet.</font><div class='respPicDiv'><img src='img/responseButtonOffersNo0L3.png' class='respPic'></div></div>","null","12","Odds are Orange","Fruit/orange.png","Lost","0.2,0.8","14","0.2","172","36","",""
"html-keyboard-response","118","244478","0.0-11.0-3.35","62f94c417a55be0afc4c5a4b","bdp_rwlrn","Tue Mar 14 2023 19:36:09 GMT-0400 (Eastern Daylight Time)","502501","Trustworthy,Untrustworthy","","null","","","","feedback","","","<div class='respPicDiv'><img src='img/responseButtonOffersNo0_wht.png' class='respPic'></div><div class='trialDiv'><img src='Fruit/orange.png'><br><font class='baseline'><strong>Odds are Orange</strong><p><strong><font class='negOutcome'>You LOST</font><p>You bet: 3</strong></font> &nbsp; &nbsp; &nbsp; &nbsp; &nbsp; &nbsp;<font class='negOutcome'>You receive: <strong>0</strong></font></div>","null","12","Odds are Orange","Fruit/orange.png","Lost","0.2,0.8","14","0.2","172","36","",""
"html-keyboard-response","119","248027","0.0-11.0-1.36","62f94c417a55be0afc4c5a4b","bdp_rwlrn","Tue Mar 14 2023 19:36:09 GMT-0400 (Eastern Daylight Time)","502501","Trustworthy,Untrustworthy","","3548","","","","decision","","","<div class='trialDiv'><img src='Fruit/pears.png'><br><font class='baseline'><strong>Pears Aplenty</strong><p>Choose number of points to bet.</font><div class='respPicDiv'><img src='img/responseButtonOffersNo0L.png' class='respPic'></div></div>","5","13","Pears Aplenty","Fruit/pears.png","Lost","0.8,0.35","10","0.8","177","37","",""
"html-keyboard-response","120","248284","0.0-11.0-2.36","62f94c417a55be0afc4c5a4b","bdp_rwlrn","Tue Mar 14 2023 19:36:09 GMT-0400 (Eastern Daylight Time)","502501","Trustworthy,Untrustworthy","","null","","","","decisionFB","","","<div class='trialDiv'><img src='Fruit/pears.png'><br><font class='baseline'><strong>Pears Aplenty</strong><p>Choose number of points to bet.</font><div class='respPicDiv'><img src='img/responseButtonOffersNo0L5.png' class='respPic'></div></div>","null","13","Pears Aplenty","Fruit/pears.png","Lost","0.8,0.35","10","0.8","172","37","",""
"html-keyboard-response","121","249301","0.0-11.0-3.36","62f94c417a55be0afc4c5a4b","bdp_rwlrn","Tue Mar 14 2023 19:36:09 GMT-0400 (Eastern Daylight Time)","502501","Trustworthy,Untrustworthy","","null","","","","feedback","","","<div class='respPicDiv'><img src='img/responseButtonOffersNo0_wht.png' class='respPic'></div><div class='trialDiv'><img src='Fruit/pears.png'><br><font class='baseline'><strong>Pears Aplenty</strong><p><strong><font class='negOutcome'>You LOST</font><p>You bet: 5</strong></font> &nbsp; &nbsp; &nbsp; &nbsp; &nbsp; &nbsp;<font class='negOutcome'>You receive: <strong>0</strong></font></div>","null","13","Pears Aplenty","Fruit/pears.png","Lost","0.8,0.35","10","0.8","172","37","",""
"html-keyboard-response","122","249963","0.0-11.0-1.37","62f94c417a55be0afc4c5a4b","bdp_rwlrn","Tue Mar 14 2023 19:36:09 GMT-0400 (Eastern Daylight Time)","502501","Trustworthy,Untrustworthy","","661","","","","decision","","","<div class='trialDiv'><img src='Fruit/orange.png'><br><font class='baseline'><strong>Odds are Orange</strong><p>Choose number of points to bet.</font><div class='respPicDiv'><img src='img/responseButtonOffersNo0L.png' class='respPic'></div></div>","3","13","Odds are Orange","Fruit/orange.png","Lost","0.2,0.8","14","0.2","177","38","",""
"html-keyboard-response","123","250225","0.0-11.0-2.37","62f94c417a55be0afc4c5a4b","bdp_rwlrn","Tue Mar 14 2023 19:36:09 GMT-0400 (Eastern Daylight Time)","502501","Trustworthy,Untrustworthy","","null","","","","decisionFB","","","<div class='trialDiv'><img src='Fruit/orange.png'><br><font class='baseline'><strong>Odds are Orange</strong><p>Choose number of points to bet.</font><div class='respPicDiv'><img src='img/responseButtonOffersNo0L3.png' class='respPic'></div></div>","null","13","Odds are Orange","Fruit/orange.png","Lost","0.2,0.8","14","0.2","174","38","",""
"html-keyboard-response","124","251228","0.0-11.0-3.37","62f94c417a55be0afc4c5a4b","bdp_rwlrn","Tue Mar 14 2023 19:36:09 GMT-0400 (Eastern Daylight Time)","502501","Trustworthy,Untrustworthy","","null","","","","feedback","","","<div class='respPicDiv'><img src='img/responseButtonOffersNo0_wht.png' class='respPic'></div><div class='trialDiv'><img src='Fruit/orange.png'><br><font class='baseline'><strong>Odds are Orange</strong><p><strong><font class='negOutcome'>You LOST</font><p>You bet: 3</strong></font> &nbsp; &nbsp; &nbsp; &nbsp; &nbsp; &nbsp;<font class='negOutcome'>You receive: <strong>0</strong></font></div>","null","13","Odds are Orange","Fruit/orange.png","Lost","0.2,0.8","14","0.2","174","38","",""
"html-keyboard-response","125","252393","0.0-11.0-1.38","62f94c417a55be0afc4c5a4b","bdp_rwlrn","Tue Mar 14 2023 19:36:09 GMT-0400 (Eastern Daylight Time)","502501","Trustworthy,Untrustworthy","","1164","","","","decision","","","<div class='trialDiv'><img src='Fruit/melon.png'><br><font class='baseline'><strong>Melon Millions</strong><p>Choose number of points to bet.</font><div class='respPicDiv'><img src='img/responseButtonOffersNo0L.png' class='respPic'></div></div>","5","13","Melon Millions","Fruit/melon.png","Lost","0.35,0.8","9","0.35","179","39","",""
"html-keyboard-response","126","252657","0.0-11.0-2.38","62f94c417a55be0afc4c5a4b","bdp_rwlrn","Tue Mar 14 2023 19:36:09 GMT-0400 (Eastern Daylight Time)","502501","Trustworthy,Untrustworthy","","null","","","","decisionFB","","","<div class='trialDiv'><img src='Fruit/melon.png'><br><font class='baseline'><strong>Melon Millions</strong><p>Choose number of points to bet.</font><div class='respPicDiv'><img src='img/responseButtonOffersNo0L5.png' class='respPic'></div></div>","null","13","Melon Millions","Fruit/melon.png","Lost","0.35,0.8","9","0.35","174","39","",""
"html-keyboard-response","127","253663","0.0-11.0-3.38","62f94c417a55be0afc4c5a4b","bdp_rwlrn","Tue Mar 14 2023 19:36:09 GMT-0400 (Eastern Daylight Time)","502501","Trustworthy,Untrustworthy","","null","","","","feedback","","","<div class='respPicDiv'><img src='img/responseButtonOffersNo0_wht.png' class='respPic'></div><div class='trialDiv'><img src='Fruit/melon.png'><br><font class='baseline'><strong>Melon Millions</strong><p><strong><font class='negOutcome'>You LOST</font><p>You bet: 5</strong></font> &nbsp; &nbsp; &nbsp; &nbsp; &nbsp; &nbsp;<font class='negOutcome'>You receive: <strong>0</strong></font></div>","null","13","Melon Millions","Fruit/melon.png","Lost","0.35,0.8","9","0.35","174","39","",""
"html-keyboard-response","128","253993","0.0-11.0-1.39","62f94c417a55be0afc4c5a4b","bdp_rwlrn","Tue Mar 14 2023 19:36:09 GMT-0400 (Eastern Daylight Time)","502501","Trustworthy,Untrustworthy","","329","","","","decision","","","<div class='trialDiv'><img src='Fruit/pears.png'><br><font class='baseline'><strong>Pears Aplenty</strong><p>Choose number of points to bet.</font><div class='respPicDiv'><img src='img/responseButtonOffersNo0L.png' class='respPic'></div></div>","5","14","Pears Aplenty","Fruit/pears.png","Lost","0.8,0.35","10","0.8","179","40","",""
"html-keyboard-response","129","254257","0.0-11.0-2.39","62f94c417a55be0afc4c5a4b","bdp_rwlrn","Tue Mar 14 2023 19:36:09 GMT-0400 (Eastern Daylight Time)","502501","Trustworthy,Untrustworthy","","null","","","","decisionFB","","","<div class='trialDiv'><img src='Fruit/pears.png'><br><font class='baseline'><strong>Pears Aplenty</strong><p>Choose number of points to bet.</font><div class='respPicDiv'><img src='img/responseButtonOffersNo0L5.png' class='respPic'></div></div>","null","14","Pears Aplenty","Fruit/pears.png","Lost","0.8,0.35","10","0.8","174","40","",""
"html-keyboard-response","130","255271","0.0-11.0-3.39","62f94c417a55be0afc4c5a4b","bdp_rwlrn","Tue Mar 14 2023 19:36:09 GMT-0400 (Eastern Daylight Time)","502501","Trustworthy,Untrustworthy","","null","","","","feedback","","","<div class='respPicDiv'><img src='img/responseButtonOffersNo0_wht.png' class='respPic'></div><div class='trialDiv'><img src='Fruit/pears.png'><br><font class='baseline'><strong>Pears Aplenty</strong><p><strong><font class='negOutcome'>You LOST</font><p>You bet: 5</strong></font> &nbsp; &nbsp; &nbsp; &nbsp; &nbsp; &nbsp;<font class='negOutcome'>You receive: <strong>0</strong></font></div>","null","14","Pears Aplenty","Fruit/pears.png","Lost","0.8,0.35","10","0.8","174","40","",""
"html-keyboard-response","131","256060","0.0-11.0-1.40","62f94c417a55be0afc4c5a4b","bdp_rwlrn","Tue Mar 14 2023 19:36:09 GMT-0400 (Eastern Daylight Time)","502501","Trustworthy,Untrustworthy","","788","","","","decision","","","<div class='trialDiv'><img src='Fruit/melon.png'><br><font class='baseline'><strong>Melon Millions</strong><p>Choose number of points to bet.</font><div class='respPicDiv'><img src='img/responseButtonOffersNo0L.png' class='respPic'></div></div>","5","14","Melon Millions","Fruit/melon.png","Won","0.35,0.8","9","0.35","179","41","",""
"html-keyboard-response","132","256317","0.0-11.0-2.40","62f94c417a55be0afc4c5a4b","bdp_rwlrn","Tue Mar 14 2023 19:36:09 GMT-0400 (Eastern Daylight Time)","502501","Trustworthy,Untrustworthy","","null","","","","decisionFB","","","<div class='trialDiv'><img src='Fruit/melon.png'><br><font class='baseline'><strong>Melon Millions</strong><p>Choose number of points to bet.</font><div class='respPicDiv'><img src='img/responseButtonOffersNo0L5.png' class='respPic'></div></div>","null","14","Melon Millions","Fruit/melon.png","Won","0.35,0.8","9","0.35","174","41","",""
"html-keyboard-response","133","257321","0.0-11.0-3.40","62f94c417a55be0afc4c5a4b","bdp_rwlrn","Tue Mar 14 2023 19:36:09 GMT-0400 (Eastern Daylight Time)","502501","Trustworthy,Untrustworthy","","null","","","","feedback","","","<div class='respPicDiv'><img src='img/responseButtonOffersNo0_wht.png' class='respPic'></div><div class='trialDiv'><img src='Fruit/melon.png'><br><font class='baseline'><strong>Melon Millions</strong><p><strong><font class='posOutcome'>You WON</font><p>You bet: 5</strong></font> &nbsp; &nbsp; &nbsp; &nbsp; &nbsp; &nbsp;<font class='posOutcome'>you receive: <strong>10</strong></font></div>","null","14","Melon Millions","Fruit/melon.png","Won","0.35,0.8","9","0.35","184","41","",""
"html-keyboard-response","134","258273","0.0-11.0-1.41","62f94c417a55be0afc4c5a4b","bdp_rwlrn","Tue Mar 14 2023 19:36:09 GMT-0400 (Eastern Daylight Time)","502501","Trustworthy,Untrustworthy","","951","","","","decision","","","<div class='trialDiv'><img src='Fruit/orange.png'><br><font class='baseline'><strong>Odds are Orange</strong><p>Choose number of points to bet.</font><div class='respPicDiv'><img src='img/responseButtonOffersNo0L.png' class='respPic'></div></div>","3","14","Odds are Orange","Fruit/orange.png","Won","0.2,0.8","14","0.2","189","42","",""
"html-keyboard-response","135","258526","0.0-11.0-2.41","62f94c417a55be0afc4c5a4b","bdp_rwlrn","Tue Mar 14 2023 19:36:09 GMT-0400 (Eastern Daylight Time)","502501","Trustworthy,Untrustworthy","","null","","","","decisionFB","","","<div class='trialDiv'><img src='Fruit/orange.png'><br><font class='baseline'><strong>Odds are Orange</strong><p>Choose number of points to bet.</font><div class='respPicDiv'><img src='img/responseButtonOffersNo0L3.png' class='respPic'></div></div>","null","14","Odds are Orange","Fruit/orange.png","Won","0.2,0.8","14","0.2","186","42","",""
"html-keyboard-response","136","259530","0.0-11.0-3.41","62f94c417a55be0afc4c5a4b","bdp_rwlrn","Tue Mar 14 2023 19:36:09 GMT-0400 (Eastern Daylight Time)","502501","Trustworthy,Untrustworthy","","null","","","","feedback","","","<div class='respPicDiv'><img src='img/responseButtonOffersNo0_wht.png' class='respPic'></div><div class='trialDiv'><img src='Fruit/orange.png'><br><font class='baseline'><strong>Odds are Orange</strong><p><strong><font class='posOutcome'>You WON</font><p>You bet: 3</strong></font> &nbsp; &nbsp; &nbsp; &nbsp; &nbsp; &nbsp;<font class='posOutcome'>you receive: <strong>6</strong></font></div>","null","14","Odds are Orange","Fruit/orange.png","Won","0.2,0.8","14","0.2","192","42","",""
"html-keyboard-response","137","261342","0.0-11.0-1.42","62f94c417a55be0afc4c5a4b","bdp_rwlrn","Tue Mar 14 2023 19:36:09 GMT-0400 (Eastern Daylight Time)","502501","Trustworthy,Untrustworthy","","1811","","","","decision","","","<div class='trialDiv'><img src='Fruit/melon.png'><br><font class='baseline'><strong>Melon Millions</strong><p>Choose number of points to bet.</font><div class='respPicDiv'><img src='img/responseButtonOffersNo0L.png' class='respPic'></div></div>","3","15","Melon Millions","Fruit/melon.png","Won","0.35,0.8","9","0.35","197","43","",""
"html-keyboard-response","138","261594","0.0-11.0-2.42","62f94c417a55be0afc4c5a4b","bdp_rwlrn","Tue Mar 14 2023 19:36:09 GMT-0400 (Eastern Daylight Time)","502501","Trustworthy,Untrustworthy","","null","","","","decisionFB","","","<div class='trialDiv'><img src='Fruit/melon.png'><br><font class='baseline'><strong>Melon Millions</strong><p>Choose number of points to bet.</font><div class='respPicDiv'><img src='img/responseButtonOffersNo0L3.png' class='respPic'></div></div>","null","15","Melon Millions","Fruit/melon.png","Won","0.35,0.8","9","0.35","194","43","",""
"html-keyboard-response","139","262610","0.0-11.0-3.42","62f94c417a55be0afc4c5a4b","bdp_rwlrn","Tue Mar 14 2023 19:36:09 GMT-0400 (Eastern Daylight Time)","502501","Trustworthy,Untrustworthy","","null","","","","feedback","","","<div class='respPicDiv'><img src='img/responseButtonOffersNo0_wht.png' class='respPic'></div><div class='trialDiv'><img src='Fruit/melon.png'><br><font class='baseline'><strong>Melon Millions</strong><p><strong><font class='posOutcome'>You WON</font><p>You bet: 3</strong></font> &nbsp; &nbsp; &nbsp; &nbsp; &nbsp; &nbsp;<font class='posOutcome'>you receive: <strong>6</strong></font></div>","null","15","Melon Millions","Fruit/melon.png","Won","0.35,0.8","9","0.35","200","43","",""
"html-keyboard-response","140","263726","0.0-11.0-1.43","62f94c417a55be0afc4c5a4b","bdp_rwlrn","Tue Mar 14 2023 19:36:09 GMT-0400 (Eastern Daylight Time)","502501","Trustworthy,Untrustworthy","","1115","","","","decision","","","<div class='trialDiv'><img src='Fruit/orange.png'><br><font class='baseline'><strong>Odds are Orange</strong><p>Choose number of points to bet.</font><div class='respPicDiv'><img src='img/responseButtonOffersNo0L.png' class='respPic'></div></div>","5","15","Odds are Orange","Fruit/orange.png","Won","0.2,0.8","14","0.2","205","44","",""
"html-keyboard-response","141","263986","0.0-11.0-2.43","62f94c417a55be0afc4c5a4b","bdp_rwlrn","Tue Mar 14 2023 19:36:09 GMT-0400 (Eastern Daylight Time)","502501","Trustworthy,Untrustworthy","","null","","","","decisionFB","","","<div class='trialDiv'><img src='Fruit/orange.png'><br><font class='baseline'><strong>Odds are Orange</strong><p>Choose number of points to bet.</font><div class='respPicDiv'><img src='img/responseButtonOffersNo0L5.png' class='respPic'></div></div>","null","15","Odds are Orange","Fruit/orange.png","Won","0.2,0.8","14","0.2","200","44","",""
"html-keyboard-response","142","264989","0.0-11.0-3.43","62f94c417a55be0afc4c5a4b","bdp_rwlrn","Tue Mar 14 2023 19:36:09 GMT-0400 (Eastern Daylight Time)","502501","Trustworthy,Untrustworthy","","null","","","","feedback","","","<div class='respPicDiv'><img src='img/responseButtonOffersNo0_wht.png' class='respPic'></div><div class='trialDiv'><img src='Fruit/orange.png'><br><font class='baseline'><strong>Odds are Orange</strong><p><strong><font class='posOutcome'>You WON</font><p>You bet: 5</strong></font> &nbsp; &nbsp; &nbsp; &nbsp; &nbsp; &nbsp;<font class='posOutcome'>you receive: <strong>10</strong></font></div>","null","15","Odds are Orange","Fruit/orange.png","Won","0.2,0.8","14","0.2","210","44","",""
"html-keyboard-response","143","265859","0.0-11.0-1.44","62f94c417a55be0afc4c5a4b","bdp_rwlrn","Tue Mar 14 2023 19:36:09 GMT-0400 (Eastern Daylight Time)","502501","Trustworthy,Untrustworthy","","869","","","","decision","","","<div class='trialDiv'><img src='Fruit/pears.png'><br><font class='baseline'><strong>Pears Aplenty</strong><p>Choose number of points to bet.</font><div class='respPicDiv'><img src='img/responseButtonOffersNo0L.png' class='respPic'></div></div>","4","15","Pears Aplenty","Fruit/pears.png","Won","0.8,0.35","10","0.8","215","45","",""
"html-keyboard-response","144","266124","0.0-11.0-2.44","62f94c417a55be0afc4c5a4b","bdp_rwlrn","Tue Mar 14 2023 19:36:09 GMT-0400 (Eastern Daylight Time)","502501","Trustworthy,Untrustworthy","","null","","","","decisionFB","","","<div class='trialDiv'><img src='Fruit/pears.png'><br><font class='baseline'><strong>Pears Aplenty</strong><p>Choose number of points to bet.</font><div class='respPicDiv'><img src='img/responseButtonOffersNo0L4.png' class='respPic'></div></div>","null","15","Pears Aplenty","Fruit/pears.png","Won","0.8,0.35","10","0.8","211","45","",""
"html-keyboard-response","145","267140","0.0-11.0-3.44","62f94c417a55be0afc4c5a4b","bdp_rwlrn","Tue Mar 14 2023 19:36:09 GMT-0400 (Eastern Daylight Time)","502501","Trustworthy,Untrustworthy","","null","","","","feedback","","","<div class='respPicDiv'><img src='img/responseButtonOffersNo0_wht.png' class='respPic'></div><div class='trialDiv'><img src='Fruit/pears.png'><br><font class='baseline'><strong>Pears Aplenty</strong><p><strong><font class='posOutcome'>You WON</font><p>You bet: 4</strong></font> &nbsp; &nbsp; &nbsp; &nbsp; &nbsp; &nbsp;<font class='posOutcome'>you receive: <strong>8</strong></font></div>","null","15","Pears Aplenty","Fruit/pears.png","Won","0.8,0.35","10","0.8","219","45","",""
"html-keyboard-response","146","268725","0.0-11.0-1.45","62f94c417a55be0afc4c5a4b","bdp_rwlrn","Tue Mar 14 2023 19:36:09 GMT-0400 (Eastern Daylight Time)","502501","Trustworthy,Untrustworthy","","1584","","","","decision","","","<div class='trialDiv'><img src='Fruit/melon.png'><br><font class='baseline'><strong>Melon Millions</strong><p>Choose number of points to bet.</font><div class='respPicDiv'><img src='img/responseButtonOffersNo0L.png' class='respPic'></div></div>","4","16","Melon Millions","Fruit/melon.png","Won","0.35,0.8","9","0.35","224","46","",""
"html-keyboard-response","147","268979","0.0-11.0-2.45","62f94c417a55be0afc4c5a4b","bdp_rwlrn","Tue Mar 14 2023 19:36:09 GMT-0400 (Eastern Daylight Time)","502501","Trustworthy,Untrustworthy","","null","","","","decisionFB","","","<div class='trialDiv'><img src='Fruit/melon.png'><br><font class='baseline'><strong>Melon Millions</strong><p>Choose number of points to bet.</font><div class='respPicDiv'><img src='img/responseButtonOffersNo0L4.png' class='respPic'></div></div>","null","16","Melon Millions","Fruit/melon.png","Won","0.35,0.8","9","0.35","220","46","",""
"html-keyboard-response","148","269982","0.0-11.0-3.45","62f94c417a55be0afc4c5a4b","bdp_rwlrn","Tue Mar 14 2023 19:36:09 GMT-0400 (Eastern Daylight Time)","502501","Trustworthy,Untrustworthy","","null","","","","feedback","","","<div class='respPicDiv'><img src='img/responseButtonOffersNo0_wht.png' class='respPic'></div><div class='trialDiv'><img src='Fruit/melon.png'><br><font class='baseline'><strong>Melon Millions</strong><p><strong><font class='posOutcome'>You WON</font><p>You bet: 4</strong></font> &nbsp; &nbsp; &nbsp; &nbsp; &nbsp; &nbsp;<font class='posOutcome'>you receive: <strong>8</strong></font></div>","null","16","Melon Millions","Fruit/melon.png","Won","0.35,0.8","9","0.35","228","46","",""
"html-keyboard-response","149","273264","0.0-11.0-1.46","62f94c417a55be0afc4c5a4b","bdp_rwlrn","Tue Mar 14 2023 19:36:09 GMT-0400 (Eastern Daylight Time)","502501","Trustworthy,Untrustworthy","","3281","","","","decision","","","<div class='trialDiv'><img src='Fruit/orange.png'><br><font class='baseline'><strong>Odds are Orange</strong><p>Choose number of points to bet.</font><div class='respPicDiv'><img src='img/responseButtonOffersNo0L.png' class='respPic'></div></div>","4","16","Odds are Orange","Fruit/orange.png","Won","0.2,0.8","14","0.2","233","47","",""
"html-keyboard-response","150","273521","0.0-11.0-2.46","62f94c417a55be0afc4c5a4b","bdp_rwlrn","Tue Mar 14 2023 19:36:09 GMT-0400 (Eastern Daylight Time)","502501","Trustworthy,Untrustworthy","","null","","","","decisionFB","","","<div class='trialDiv'><img src='Fruit/orange.png'><br><font class='baseline'><strong>Odds are Orange</strong><p>Choose number of points to bet.</font><div class='respPicDiv'><img src='img/responseButtonOffersNo0L4.png' class='respPic'></div></div>","null","16","Odds are Orange","Fruit/orange.png","Won","0.2,0.8","14","0.2","229","47","",""
"html-keyboard-response","151","274527","0.0-11.0-3.46","62f94c417a55be0afc4c5a4b","bdp_rwlrn","Tue Mar 14 2023 19:36:09 GMT-0400 (Eastern Daylight Time)","502501","Trustworthy,Untrustworthy","","null","","","","feedback","","","<div class='respPicDiv'><img src='img/responseButtonOffersNo0_wht.png' class='respPic'></div><div class='trialDiv'><img src='Fruit/orange.png'><br><font class='baseline'><strong>Odds are Orange</strong><p><strong><font class='posOutcome'>You WON</font><p>You bet: 4</strong></font> &nbsp; &nbsp; &nbsp; &nbsp; &nbsp; &nbsp;<font class='posOutcome'>you receive: <strong>8</strong></font></div>","null","16","Odds are Orange","Fruit/orange.png","Won","0.2,0.8","14","0.2","237","47","",""
"html-keyboard-response","152","275319","0.0-11.0-1.47","62f94c417a55be0afc4c5a4b","bdp_rwlrn","Tue Mar 14 2023 19:36:09 GMT-0400 (Eastern Daylight Time)","502501","Trustworthy,Untrustworthy","","791","","","","decision","","","<div class='trialDiv'><img src='Fruit/pears.png'><br><font class='baseline'><strong>Pears Aplenty</strong><p>Choose number of points to bet.</font><div class='respPicDiv'><img src='img/responseButtonOffersNo0L.png' class='respPic'></div></div>","3","16","Pears Aplenty","Fruit/pears.png","Won","0.8,0.35","10","0.8","242","48","",""
"html-keyboard-response","153","275573","0.0-11.0-2.47","62f94c417a55be0afc4c5a4b","bdp_rwlrn","Tue Mar 14 2023 19:36:09 GMT-0400 (Eastern Daylight Time)","502501","Trustworthy,Untrustworthy","","null","","","","decisionFB","","","<div class='trialDiv'><img src='Fruit/pears.png'><br><font class='baseline'><strong>Pears Aplenty</strong><p>Choose number of points to bet.</font><div class='respPicDiv'><img src='img/responseButtonOffersNo0L3.png' class='respPic'></div></div>","null","16","Pears Aplenty","Fruit/pears.png","Won","0.8,0.35","10","0.8","239","48","",""
"html-keyboard-response","154","276577","0.0-11.0-3.47","62f94c417a55be0afc4c5a4b","bdp_rwlrn","Tue Mar 14 2023 19:36:09 GMT-0400 (Eastern Daylight Time)","502501","Trustworthy,Untrustworthy","","null","","","","feedback","","","<div class='respPicDiv'><img src='img/responseButtonOffersNo0_wht.png' class='respPic'></div><div class='trialDiv'><img src='Fruit/pears.png'><br><font class='baseline'><strong>Pears Aplenty</strong><p><strong><font class='posOutcome'>You WON</font><p>You bet: 3</strong></font> &nbsp; &nbsp; &nbsp; &nbsp; &nbsp; &nbsp;<font class='posOutcome'>you receive: <strong>6</strong></font></div>","null","16","Pears Aplenty","Fruit/pears.png","Won","0.8,0.35","10","0.8","245","48","",""
"html-keyboard-response","155","276873","0.0-11.0-1.48","62f94c417a55be0afc4c5a4b","bdp_rwlrn","Tue Mar 14 2023 19:36:09 GMT-0400 (Eastern Daylight Time)","502501","Trustworthy,Untrustworthy","","295","","","","decision","","","<div class='trialDiv'><img src='Fruit/melon.png'><br><font class='baseline'><strong>Melon Millions</strong><p>Choose number of points to bet.</font><div class='respPicDiv'><img src='img/responseButtonOffersNo0L.png' class='respPic'></div></div>","4","17","Melon Millions","Fruit/melon.png","Won","0.35,0.8","9","0.35","250","49","",""
"html-keyboard-response","156","277139","0.0-11.0-2.48","62f94c417a55be0afc4c5a4b","bdp_rwlrn","Tue Mar 14 2023 19:36:09 GMT-0400 (Eastern Daylight Time)","502501","Trustworthy,Untrustworthy","","null","","","","decisionFB","","","<div class='trialDiv'><img src='Fruit/melon.png'><br><font class='baseline'><strong>Melon Millions</strong><p>Choose number of points to bet.</font><div class='respPicDiv'><img src='img/responseButtonOffersNo0L4.png' class='respPic'></div></div>","null","17","Melon Millions","Fruit/melon.png","Won","0.35,0.8","9","0.35","246","49","",""
"html-keyboard-response","157","278145","0.0-11.0-3.48","62f94c417a55be0afc4c5a4b","bdp_rwlrn","Tue Mar 14 2023 19:36:09 GMT-0400 (Eastern Daylight Time)","502501","Trustworthy,Untrustworthy","","null","","","","feedback","","","<div class='respPicDiv'><img src='img/responseButtonOffersNo0_wht.png' class='respPic'></div><div class='trialDiv'><img src='Fruit/melon.png'><br><font class='baseline'><strong>Melon Millions</strong><p><strong><font class='posOutcome'>You WON</font><p>You bet: 4</strong></font> &nbsp; &nbsp; &nbsp; &nbsp; &nbsp; &nbsp;<font class='posOutcome'>you receive: <strong>8</strong></font></div>","null","17","Melon Millions","Fruit/melon.png","Won","0.35,0.8","9","0.35","254","49","",""
"html-keyboard-response","158","278490","0.0-11.0-1.49","62f94c417a55be0afc4c5a4b","bdp_rwlrn","Tue Mar 14 2023 19:36:09 GMT-0400 (Eastern Daylight Time)","502501","Trustworthy,Untrustworthy","","344","","","","decision","","","<div class='trialDiv'><img src='Fruit/pears.png'><br><font class='baseline'><strong>Pears Aplenty</strong><p>Choose number of points to bet.</font><div class='respPicDiv'><img src='img/responseButtonOffersNo0L.png' class='respPic'></div></div>","4","17","Pears Aplenty","Fruit/pears.png","Lost","0.8,0.35","10","0.8","259","50","",""
"html-keyboard-response","159","278741","0.0-11.0-2.49","62f94c417a55be0afc4c5a4b","bdp_rwlrn","Tue Mar 14 2023 19:36:09 GMT-0400 (Eastern Daylight Time)","502501","Trustworthy,Untrustworthy","","null","","","","decisionFB","","","<div class='trialDiv'><img src='Fruit/pears.png'><br><font class='baseline'><strong>Pears Aplenty</strong><p>Choose number of points to bet.</font><div class='respPicDiv'><img src='img/responseButtonOffersNo0L4.png' class='respPic'></div></div>","null","17","Pears Aplenty","Fruit/pears.png","Lost","0.8,0.35","10","0.8","255","50","",""
"html-keyboard-response","160","279755","0.0-11.0-3.49","62f94c417a55be0afc4c5a4b","bdp_rwlrn","Tue Mar 14 2023 19:36:09 GMT-0400 (Eastern Daylight Time)","502501","Trustworthy,Untrustworthy","","null","","","","feedback","","","<div class='respPicDiv'><img src='img/responseButtonOffersNo0_wht.png' class='respPic'></div><div class='trialDiv'><img src='Fruit/pears.png'><br><font class='baseline'><strong>Pears Aplenty</strong><p><strong><font class='negOutcome'>You LOST</font><p>You bet: 4</strong></font> &nbsp; &nbsp; &nbsp; &nbsp; &nbsp; &nbsp;<font class='negOutcome'>You receive: <strong>0</strong></font></div>","null","17","Pears Aplenty","Fruit/pears.png","Lost","0.8,0.35","10","0.8","255","50","",""
