"trial_type","trial_index","time_elapsed","internal_node_id","subject_id","task","startTime","totalTime","labels","view_history","rt","event","trial","time","trialtype","success","stimulus","key_press","ltround","name","fileID","outcome","lottotype","lottoswpt","lottocurrpshare","point_total","round","faceID","face"
"pavlovia","0","4","0.0-0.0","63fd6f98e4a77457f1b36b9a","bdp_rwlrn","Tue Mar 14 2023 21:30:52 GMT-0400 (Eastern Daylight Time)","759811","Trustworthy,Untrustworthy","","","","","","","","","","","","","","","","","","","",""
"instructions","1","4211","0.0-1.0","63fd6f98e4a77457f1b36b9a","bdp_rwlrn","Tue Mar 14 2023 21:30:52 GMT-0400 (Eastern Daylight Time)","759811","Trustworthy,Untrustworthy","[{""page_index"":0,""viewing_time"":4207}]","4207","","","","","","","","","","","","","","","","","",""
"","","","","63fd6f98e4a77457f1b36b9a","bdp_rwlrn","Tue Mar 14 2023 21:30:52 GMT-0400 (Eastern Daylight Time)","759811","Trustworthy,Untrustworthy","","","fullscreenenter","2","6674","fullscreenenter","","","","","","","","","","","","","",""
"fullscreen","2","7675","0.0-2.0","63fd6f98e4a77457f1b36b9a","bdp_rwlrn","Tue Mar 14 2023 21:30:52 GMT-0400 (Eastern Daylight Time)","759811","Trustworthy,Untrustworthy","","","","","","","true","","","","","","","","","","","","",""
"instructions","3","99521","0.0-4.0","63fd6f98e4a77457f1b36b9a","bdp_rwlrn","Tue Mar 14 2023 21:30:52 GMT-0400 (Eastern Daylight Time)","759811","Trustworthy,Untrustworthy","[{""page_index"":0,""viewing_time"":9780},{""page_index"":1,""viewing_time"":18850},{""page_index"":2,""viewing_time"":18109},{""page_index"":3,""viewing_time"":12346},{""page_index"":4,""viewing_time"":20810},{""page_index"":5,""viewing_time"":11950}]","91845","","","","","","","","","","","","","","","","","",""
"html-keyboard-response","4","104802","0.0-5.0","63fd6f98e4a77457f1b36b9a","bdp_rwlrn","Tue Mar 14 2023 21:30:52 GMT-0400 (Eastern Daylight Time)","759811","Trustworthy,Untrustworthy","","5279","","","","","","<div class='header' style='text-align:left; position: absolute; top: 5%; left: 5%;'><small>Task 1 of 5</small></div><div class='instruxDiv'><p><strong>1) What is the maximum number of points you can choose to bet on a lottery?</strong></p><p>a) 0</p><p>b) 1</p><p>c) 5</p>","C","","","","","","","","","","",""
"html-keyboard-response","5","107505","0.0-6.0","63fd6f98e4a77457f1b36b9a","bdp_rwlrn","Tue Mar 14 2023 21:30:52 GMT-0400 (Eastern Daylight Time)","759811","Trustworthy,Untrustworthy","","2596","","","","","","<div class='header' style='text-align:left; position: absolute; top: 5%; left: 5%;'><small>Task 1 of 5</small></div><div class='instruxDiv'><p><strong>1) What is the maximum number of points you can choose to bet on a lottery?</strong></p><p>a) 1</p><p>b) 1</p><p style='color:#00FF00'>c) 5</p><h3 style='color:#00FF00'>Correct!</h3><h3 class='center-content'>The correct response is c).</h3><h3 class='center-content'>The maximum number of points you can choose to bet on a lottery is 5 points.</h3><p><em>Press SPACEBAR to continue</em></p></div>"," ","","","","","","","","","","",""
"html-keyboard-response","6","110938","0.0-7.0","63fd6f98e4a77457f1b36b9a","bdp_rwlrn","Tue Mar 14 2023 21:30:52 GMT-0400 (Eastern Daylight Time)","759811","Trustworthy,Untrustworthy","","3331","","","","","","<div class='header' style='text-align:left; position: absolute; top: 5%; left: 5%;'><small>Task 1 of 5</small></div><div class='instruxDiv'><p><strong>2) How many points can you win each round?</strong></p><p>a) 10 points</p><p>b) Double what you bet</p><p>c) Quadruple what you bet</p>","B","","","","","","","","","","",""
"html-keyboard-response","7","112433","0.0-8.0","63fd6f98e4a77457f1b36b9a","bdp_rwlrn","Tue Mar 14 2023 21:30:52 GMT-0400 (Eastern Daylight Time)","759811","Trustworthy,Untrustworthy","","1393","","","","","","<div class='header' style='text-align:left; position: absolute; top: 5%; left: 5%;'><small>Task 1 of 5</small></div><div class='instruxDiv'><p><strong>2) How many points can you win each round?</strong></p><p>a) 10 points</p><p style='color:#00FF00'>b) Double what you bet</p><p>c) Quadruple what you bet</p><h3 style='color:#00FF00'>Correct!</h3><h3 class='center-content'>The correct response is b).</h3><h3 class='center-content'>You can win double the amount of points you bet.</h3><p><em>Press SPACEBAR to continue</em></p></div>"," ","","","","","","","","","","",""
"html-keyboard-response","8","117544","0.0-9.0","63fd6f98e4a77457f1b36b9a","bdp_rwlrn","Tue Mar 14 2023 21:30:52 GMT-0400 (Eastern Daylight Time)","759811","Trustworthy,Untrustworthy","","null","","","","","","<div class='header' style='text-align:left; position: absolute; top: 5%; left: 5%;'><small>Task 1 of 5</small></div><div class='instruxDiv'><p>Thank you for completing the quiz<p>These are the actual lotteries you will be playing in the next block:<p><div class='tc' align='center'><img class='introPic' src='Fruit/orange.png'><br><strong>Odds are Orange</strong></div><div class='bl' align='center'><img class='introPic' src='Fruit/watermelon.png'><br><strong>Watermelon Win$</strong></div><div class='br' align='center'><img class='introPic' src='Fruit/Kiwi.png'><br><strong>Kiwi Kash</strong></div></div><p>Across <strong>66 rounds</strong> you will play each lottery <strong>22 times</strong> (in random order).<p style='align:center; color:white'><font <em>Press SPACEBAR to continue</em></p>","null","","","","","","","","","","",""
"instructions","9","133071","0.0-10.0","63fd6f98e4a77457f1b36b9a","bdp_rwlrn","Tue Mar 14 2023 21:30:52 GMT-0400 (Eastern Daylight Time)","759811","Trustworthy,Untrustworthy","[{""page_index"":0,""viewing_time"":10603},{""page_index"":1,""viewing_time"":4924}]","15527","","","","","","","","","","","","","","","","","",""
"html-keyboard-response","10","141100","0.0-11.0-1.0","63fd6f98e4a77457f1b36b9a","bdp_rwlrn","Tue Mar 14 2023 21:30:52 GMT-0400 (Eastern Daylight Time)","759811","Trustworthy,Untrustworthy","","7919","","","","decision","","<div class='trialDiv'><img src='Fruit/Kiwi.png'><br><font class='baseline'><strong>Kiwi Kash</strong><p>Choose number of points to bet.</font><div class='respPicDiv'><img src='img/responseButtonOffersNo0L.png' class='respPic'></div></div>","2","1","Kiwi Kash","Fruit/Kiwi.png","Won","0.65,0.35","14","0.65","5","1","",""
"html-keyboard-response","11","141364","0.0-11.0-2.0","63fd6f98e4a77457f1b36b9a","bdp_rwlrn","Tue Mar 14 2023 21:30:52 GMT-0400 (Eastern Daylight Time)","759811","Trustworthy,Untrustworthy","","null","","","","decisionFB","","<div class='trialDiv'><img src='Fruit/Kiwi.png'><br><font class='baseline'><strong>Kiwi Kash</strong><p>Choose number of points to bet.</font><div class='respPicDiv'><img src='img/responseButtonOffersNo0L2.png' class='respPic'></div></div>","null","1","Kiwi Kash","Fruit/Kiwi.png","Won","0.65,0.35","14","0.65","3","1","",""
"html-keyboard-response","12","142367","0.0-11.0-3.0","63fd6f98e4a77457f1b36b9a","bdp_rwlrn","Tue Mar 14 2023 21:30:52 GMT-0400 (Eastern Daylight Time)","759811","Trustworthy,Untrustworthy","","null","","","","feedback","","<div class='respPicDiv'><img src='img/responseButtonOffersNo0_wht.png' class='respPic'></div><div class='trialDiv'><img src='Fruit/Kiwi.png'><br><font class='baseline'><strong>Kiwi Kash</strong><p><strong><font class='posOutcome'>You WON</font><p>You bet: 2</strong></font> &nbsp; &nbsp; &nbsp; &nbsp; &nbsp; &nbsp;<font class='posOutcome'>you receive: <strong>4</strong></font></div>","null","1","Kiwi Kash","Fruit/Kiwi.png","Won","0.65,0.35","14","0.65","7","1","",""
"html-keyboard-response","13","147894","0.0-11.0-1.1","63fd6f98e4a77457f1b36b9a","bdp_rwlrn","Tue Mar 14 2023 21:30:52 GMT-0400 (Eastern Daylight Time)","759811","Trustworthy,Untrustworthy","","5525","","","","decision","","<div class='trialDiv'><img src='Fruit/orange.png'><br><font class='baseline'><strong>Odds are Orange</strong><p>Choose number of points to bet.</font><div class='respPicDiv'><img src='img/responseButtonOffersNo0L.png' class='respPic'></div></div>","1","1","Odds are Orange","Fruit/orange.png","Won","0.35,0.8","14","0.35","12","2","",""
"html-keyboard-response","14","148151","0.0-11.0-2.1","63fd6f98e4a77457f1b36b9a","bdp_rwlrn","Tue Mar 14 2023 21:30:52 GMT-0400 (Eastern Daylight Time)","759811","Trustworthy,Untrustworthy","","null","","","","decisionFB","","<div class='trialDiv'><img src='Fruit/orange.png'><br><font class='baseline'><strong>Odds are Orange</strong><p>Choose number of points to bet.</font><div class='respPicDiv'><img src='img/responseButtonOffersNo0L1.png' class='respPic'></div></div>","null","1","Odds are Orange","Fruit/orange.png","Won","0.35,0.8","14","0.35","11","2","",""
"html-keyboard-response","15","149160","0.0-11.0-3.1","63fd6f98e4a77457f1b36b9a","bdp_rwlrn","Tue Mar 14 2023 21:30:52 GMT-0400 (Eastern Daylight Time)","759811","Trustworthy,Untrustworthy","","null","","","","feedback","","<div class='respPicDiv'><img src='img/responseButtonOffersNo0_wht.png' class='respPic'></div><div class='trialDiv'><img src='Fruit/orange.png'><br><font class='baseline'><strong>Odds are Orange</strong><p><strong><font class='posOutcome'>You WON</font><p>You bet: 1</strong></font> &nbsp; &nbsp; &nbsp; &nbsp; &nbsp; &nbsp;<font class='posOutcome'>you receive: <strong>2</strong></font></div>","null","1","Odds are Orange","Fruit/orange.png","Won","0.35,0.8","14","0.35","13","2","",""
"html-keyboard-response","16","154064","0.0-11.0-1.2","63fd6f98e4a77457f1b36b9a","bdp_rwlrn","Tue Mar 14 2023 21:30:52 GMT-0400 (Eastern Daylight Time)","759811","Trustworthy,Untrustworthy","","4903","","","","decision","","<div class='trialDiv'><img src='Fruit/watermelon.png'><br><font class='baseline'><strong>Watermelon Win$</strong><p>Choose number of points to bet.</font><div class='respPicDiv'><img src='img/responseButtonOffersNo0L.png' class='respPic'></div></div>","3","1","Watermelon Win$","Fruit/watermelon.png","Won","0.8,0.35","9","0.8","18","3","",""
"html-keyboard-response","17","154323","0.0-11.0-2.2","63fd6f98e4a77457f1b36b9a","bdp_rwlrn","Tue Mar 14 2023 21:30:52 GMT-0400 (Eastern Daylight Time)","759811","Trustworthy,Untrustworthy","","null","","","","decisionFB","","<div class='trialDiv'><img src='Fruit/watermelon.png'><br><font class='baseline'><strong>Watermelon Win$</strong><p>Choose number of points to bet.</font><div class='respPicDiv'><img src='img/responseButtonOffersNo0L3.png' class='respPic'></div></div>","null","1","Watermelon Win$","Fruit/watermelon.png","Won","0.8,0.35","9","0.8","15","3","",""
"html-keyboard-response","18","155329","0.0-11.0-3.2","63fd6f98e4a77457f1b36b9a","bdp_rwlrn","Tue Mar 14 2023 21:30:52 GMT-0400 (Eastern Daylight Time)","759811","Trustworthy,Untrustworthy","","null","","","","feedback","","<div class='respPicDiv'><img src='img/responseButtonOffersNo0_wht.png' class='respPic'></div><div class='trialDiv'><img src='Fruit/watermelon.png'><br><font class='baseline'><strong>Watermelon Win$</strong><p><strong><font class='posOutcome'>You WON</font><p>You bet: 3</strong></font> &nbsp; &nbsp; &nbsp; &nbsp; &nbsp; &nbsp;<font class='posOutcome'>you receive: <strong>6</strong></font></div>","null","1","Watermelon Win$","Fruit/watermelon.png","Won","0.8,0.35","9","0.8","21","3","",""
"html-keyboard-response","19","157961","0.0-11.0-1.3","63fd6f98e4a77457f1b36b9a","bdp_rwlrn","Tue Mar 14 2023 21:30:52 GMT-0400 (Eastern Daylight Time)","759811","Trustworthy,Untrustworthy","","2631","","","","decision","","<div class='trialDiv'><img src='Fruit/orange.png'><br><font class='baseline'><strong>Odds are Orange</strong><p>Choose number of points to bet.</font><div class='respPicDiv'><img src='img/responseButtonOffersNo0L.png' class='respPic'></div></div>","4","2","Odds are Orange","Fruit/orange.png","Lost","0.35,0.8","14","0.35","26","4","",""
"html-keyboard-response","20","158217","0.0-11.0-2.3","63fd6f98e4a77457f1b36b9a","bdp_rwlrn","Tue Mar 14 2023 21:30:52 GMT-0400 (Eastern Daylight Time)","759811","Trustworthy,Untrustworthy","","null","","","","decisionFB","","<div class='trialDiv'><img src='Fruit/orange.png'><br><font class='baseline'><strong>Odds are Orange</strong><p>Choose number of points to bet.</font><div class='respPicDiv'><img src='img/responseButtonOffersNo0L4.png' class='respPic'></div></div>","null","2","Odds are Orange","Fruit/orange.png","Lost","0.35,0.8","14","0.35","22","4","",""
"html-keyboard-response","21","159227","0.0-11.0-3.3","63fd6f98e4a77457f1b36b9a","bdp_rwlrn","Tue Mar 14 2023 21:30:52 GMT-0400 (Eastern Daylight Time)","759811","Trustworthy,Untrustworthy","","null","","","","feedback","","<div class='respPicDiv'><img src='img/responseButtonOffersNo0_wht.png' class='respPic'></div><div class='trialDiv'><img src='Fruit/orange.png'><br><font class='baseline'><strong>Odds are Orange</strong><p><strong><font class='negOutcome'>You LOST</font><p>You bet: 4</strong></font> &nbsp; &nbsp; &nbsp; &nbsp; &nbsp; &nbsp;<font class='negOutcome'>You receive: <strong>0</strong></font></div>","null","2","Odds are Orange","Fruit/orange.png","Lost","0.35,0.8","14","0.35","22","4","",""
"html-keyboard-response","22","161546","0.0-11.0-1.4","63fd6f98e4a77457f1b36b9a","bdp_rwlrn","Tue Mar 14 2023 21:30:52 GMT-0400 (Eastern Daylight Time)","759811","Trustworthy,Untrustworthy","","2318","","","","decision","","<div class='trialDiv'><img src='Fruit/watermelon.png'><br><font class='baseline'><strong>Watermelon Win$</strong><p>Choose number of points to bet.</font><div class='respPicDiv'><img src='img/responseButtonOffersNo0L.png' class='respPic'></div></div>","3","2","Watermelon Win$","Fruit/watermelon.png","Won","0.8,0.35","9","0.8","27","5","",""
"html-keyboard-response","23","161803","0.0-11.0-2.4","63fd6f98e4a77457f1b36b9a","bdp_rwlrn","Tue Mar 14 2023 21:30:52 GMT-0400 (Eastern Daylight Time)","759811","Trustworthy,Untrustworthy","","null","","","","decisionFB","","<div class='trialDiv'><img src='Fruit/watermelon.png'><br><font class='baseline'><strong>Watermelon Win$</strong><p>Choose number of points to bet.</font><div class='respPicDiv'><img src='img/responseButtonOffersNo0L3.png' class='respPic'></div></div>","null","2","Watermelon Win$","Fruit/watermelon.png","Won","0.8,0.35","9","0.8","24","5","",""
"html-keyboard-response","24","162807","0.0-11.0-3.4","63fd6f98e4a77457f1b36b9a","bdp_rwlrn","Tue Mar 14 2023 21:30:52 GMT-0400 (Eastern Daylight Time)","759811","Trustworthy,Untrustworthy","","null","","","","feedback","","<div class='respPicDiv'><img src='img/responseButtonOffersNo0_wht.png' class='respPic'></div><div class='trialDiv'><img src='Fruit/watermelon.png'><br><font class='baseline'><strong>Watermelon Win$</strong><p><strong><font class='posOutcome'>You WON</font><p>You bet: 3</strong></font> &nbsp; &nbsp; &nbsp; &nbsp; &nbsp; &nbsp;<font class='posOutcome'>you receive: <strong>6</strong></font></div>","null","2","Watermelon Win$","Fruit/watermelon.png","Won","0.8,0.35","9","0.8","30","5","",""
"html-keyboard-response","25","179417","0.0-11.0-1.5","63fd6f98e4a77457f1b36b9a","bdp_rwlrn","Tue Mar 14 2023 21:30:52 GMT-0400 (Eastern Daylight Time)","759811","Trustworthy,Untrustworthy","","16609","","","","decision","","<div class='trialDiv'><img src='Fruit/Kiwi.png'><br><font class='baseline'><strong>Kiwi Kash</strong><p>Choose number of points to bet.</font><div class='respPicDiv'><img src='img/responseButtonOffersNo0L.png' class='respPic'></div></div>","2","2","Kiwi Kash","Fruit/Kiwi.png","Lost","0.65,0.35","14","0.65","35","6","",""
"html-keyboard-response","26","179673","0.0-11.0-2.5","63fd6f98e4a77457f1b36b9a","bdp_rwlrn","Tue Mar 14 2023 21:30:52 GMT-0400 (Eastern Daylight Time)","759811","Trustworthy,Untrustworthy","","null","","","","decisionFB","","<div class='trialDiv'><img src='Fruit/Kiwi.png'><br><font class='baseline'><strong>Kiwi Kash</strong><p>Choose number of points to bet.</font><div class='respPicDiv'><img src='img/responseButtonOffersNo0L2.png' class='respPic'></div></div>","null","2","Kiwi Kash","Fruit/Kiwi.png","Lost","0.65,0.35","14","0.65","33","6","",""
"html-keyboard-response","27","180681","0.0-11.0-3.5","63fd6f98e4a77457f1b36b9a","bdp_rwlrn","Tue Mar 14 2023 21:30:52 GMT-0400 (Eastern Daylight Time)","759811","Trustworthy,Untrustworthy","","null","","","","feedback","","<div class='respPicDiv'><img src='img/responseButtonOffersNo0_wht.png' class='respPic'></div><div class='trialDiv'><img src='Fruit/Kiwi.png'><br><font class='baseline'><strong>Kiwi Kash</strong><p><strong><font class='negOutcome'>You LOST</font><p>You bet: 2</strong></font> &nbsp; &nbsp; &nbsp; &nbsp; &nbsp; &nbsp;<font class='negOutcome'>You receive: <strong>0</strong></font></div>","null","2","Kiwi Kash","Fruit/Kiwi.png","Lost","0.65,0.35","14","0.65","33","6","",""
"html-keyboard-response","28","182927","0.0-11.0-1.6","63fd6f98e4a77457f1b36b9a","bdp_rwlrn","Tue Mar 14 2023 21:30:52 GMT-0400 (Eastern Daylight Time)","759811","Trustworthy,Untrustworthy","","2245","","","","decision","","<div class='trialDiv'><img src='Fruit/watermelon.png'><br><font class='baseline'><strong>Watermelon Win$</strong><p>Choose number of points to bet.</font><div class='respPicDiv'><img src='img/responseButtonOffersNo0L.png' class='respPic'></div></div>","3","3","Watermelon Win$","Fruit/watermelon.png","Won","0.8,0.35","9","0.8","38","7","",""
"html-keyboard-response","29","183187","0.0-11.0-2.6","63fd6f98e4a77457f1b36b9a","bdp_rwlrn","Tue Mar 14 2023 21:30:52 GMT-0400 (Eastern Daylight Time)","759811","Trustworthy,Untrustworthy","","null","","","","decisionFB","","<div class='trialDiv'><img src='Fruit/watermelon.png'><br><font class='baseline'><strong>Watermelon Win$</strong><p>Choose number of points to bet.</font><div class='respPicDiv'><img src='img/responseButtonOffersNo0L3.png' class='respPic'></div></div>","null","3","Watermelon Win$","Fruit/watermelon.png","Won","0.8,0.35","9","0.8","35","7","",""
"html-keyboard-response","30","184195","0.0-11.0-3.6","63fd6f98e4a77457f1b36b9a","bdp_rwlrn","Tue Mar 14 2023 21:30:52 GMT-0400 (Eastern Daylight Time)","759811","Trustworthy,Untrustworthy","","null","","","","feedback","","<div class='respPicDiv'><img src='img/responseButtonOffersNo0_wht.png' class='respPic'></div><div class='trialDiv'><img src='Fruit/watermelon.png'><br><font class='baseline'><strong>Watermelon Win$</strong><p><strong><font class='posOutcome'>You WON</font><p>You bet: 3</strong></font> &nbsp; &nbsp; &nbsp; &nbsp; &nbsp; &nbsp;<font class='posOutcome'>you receive: <strong>6</strong></font></div>","null","3","Watermelon Win$","Fruit/watermelon.png","Won","0.8,0.35","9","0.8","41","7","",""
"html-keyboard-response","31","186216","0.0-11.0-1.7","63fd6f98e4a77457f1b36b9a","bdp_rwlrn","Tue Mar 14 2023 21:30:52 GMT-0400 (Eastern Daylight Time)","759811","Trustworthy,Untrustworthy","","2020","","","","decision","","<div class='trialDiv'><img src='Fruit/Kiwi.png'><br><font class='baseline'><strong>Kiwi Kash</strong><p>Choose number of points to bet.</font><div class='respPicDiv'><img src='img/responseButtonOffersNo0L.png' class='respPic'></div></div>","1","3","Kiwi Kash","Fruit/Kiwi.png","Won","0.65,0.35","14","0.65","46","8","",""
"html-keyboard-response","32","186471","0.0-11.0-2.7","63fd6f98e4a77457f1b36b9a","bdp_rwlrn","Tue Mar 14 2023 21:30:52 GMT-0400 (Eastern Daylight Time)","759811","Trustworthy,Untrustworthy","","null","","","","decisionFB","","<div class='trialDiv'><img src='Fruit/Kiwi.png'><br><font class='baseline'><strong>Kiwi Kash</strong><p>Choose number of points to bet.</font><div class='respPicDiv'><img src='img/responseButtonOffersNo0L1.png' class='respPic'></div></div>","null","3","Kiwi Kash","Fruit/Kiwi.png","Won","0.65,0.35","14","0.65","45","8","",""
"html-keyboard-response","33","187480","0.0-11.0-3.7","63fd6f98e4a77457f1b36b9a","bdp_rwlrn","Tue Mar 14 2023 21:30:52 GMT-0400 (Eastern Daylight Time)","759811","Trustworthy,Untrustworthy","","null","","","","feedback","","<div class='respPicDiv'><img src='img/responseButtonOffersNo0_wht.png' class='respPic'></div><div class='trialDiv'><img src='Fruit/Kiwi.png'><br><font class='baseline'><strong>Kiwi Kash</strong><p><strong><font class='posOutcome'>You WON</font><p>You bet: 1</strong></font> &nbsp; &nbsp; &nbsp; &nbsp; &nbsp; &nbsp;<font class='posOutcome'>you receive: <strong>2</strong></font></div>","null","3","Kiwi Kash","Fruit/Kiwi.png","Won","0.65,0.35","14","0.65","47","8","",""
"html-keyboard-response","34","193756","0.0-11.0-1.8","63fd6f98e4a77457f1b36b9a","bdp_rwlrn","Tue Mar 14 2023 21:30:52 GMT-0400 (Eastern Daylight Time)","759811","Trustworthy,Untrustworthy","","6275","","","","decision","","<div class='trialDiv'><img src='Fruit/orange.png'><br><font class='baseline'><strong>Odds are Orange</strong><p>Choose number of points to bet.</font><div class='respPicDiv'><img src='img/responseButtonOffersNo0L.png' class='respPic'></div></div>","4","3","Odds are Orange","Fruit/orange.png","Won","0.35,0.8","14","0.35","52","9","",""
"html-keyboard-response","35","194014","0.0-11.0-2.8","63fd6f98e4a77457f1b36b9a","bdp_rwlrn","Tue Mar 14 2023 21:30:52 GMT-0400 (Eastern Daylight Time)","759811","Trustworthy,Untrustworthy","","null","","","","decisionFB","","<div class='trialDiv'><img src='Fruit/orange.png'><br><font class='baseline'><strong>Odds are Orange</strong><p>Choose number of points to bet.</font><div class='respPicDiv'><img src='img/responseButtonOffersNo0L4.png' class='respPic'></div></div>","null","3","Odds are Orange","Fruit/orange.png","Won","0.35,0.8","14","0.35","48","9","",""
"html-keyboard-response","36","195024","0.0-11.0-3.8","63fd6f98e4a77457f1b36b9a","bdp_rwlrn","Tue Mar 14 2023 21:30:52 GMT-0400 (Eastern Daylight Time)","759811","Trustworthy,Untrustworthy","","null","","","","feedback","","<div class='respPicDiv'><img src='img/responseButtonOffersNo0_wht.png' class='respPic'></div><div class='trialDiv'><img src='Fruit/orange.png'><br><font class='baseline'><strong>Odds are Orange</strong><p><strong><font class='posOutcome'>You WON</font><p>You bet: 4</strong></font> &nbsp; &nbsp; &nbsp; &nbsp; &nbsp; &nbsp;<font class='posOutcome'>you receive: <strong>8</strong></font></div>","null","3","Odds are Orange","Fruit/orange.png","Won","0.35,0.8","14","0.35","56","9","",""
"html-keyboard-response","37","197714","0.0-11.0-1.9","63fd6f98e4a77457f1b36b9a","bdp_rwlrn","Tue Mar 14 2023 21:30:52 GMT-0400 (Eastern Daylight Time)","759811","Trustworthy,Untrustworthy","","2689","","","","decision","","<div class='trialDiv'><img src='Fruit/Kiwi.png'><br><font class='baseline'><strong>Kiwi Kash</strong><p>Choose number of points to bet.</font><div class='respPicDiv'><img src='img/responseButtonOffersNo0L.png' class='respPic'></div></div>","1","4","Kiwi Kash","Fruit/Kiwi.png","Won","0.65,0.35","14","0.65","61","10","",""
"html-keyboard-response","38","197974","0.0-11.0-2.9","63fd6f98e4a77457f1b36b9a","bdp_rwlrn","Tue Mar 14 2023 21:30:52 GMT-0400 (Eastern Daylight Time)","759811","Trustworthy,Untrustworthy","","null","","","","decisionFB","","<div class='trialDiv'><img src='Fruit/Kiwi.png'><br><font class='baseline'><strong>Kiwi Kash</strong><p>Choose number of points to bet.</font><div class='respPicDiv'><img src='img/responseButtonOffersNo0L1.png' class='respPic'></div></div>","null","4","Kiwi Kash","Fruit/Kiwi.png","Won","0.65,0.35","14","0.65","60","10","",""
"html-keyboard-response","39","198983","0.0-11.0-3.9","63fd6f98e4a77457f1b36b9a","bdp_rwlrn","Tue Mar 14 2023 21:30:52 GMT-0400 (Eastern Daylight Time)","759811","Trustworthy,Untrustworthy","","null","","","","feedback","","<div class='respPicDiv'><img src='img/responseButtonOffersNo0_wht.png' class='respPic'></div><div class='trialDiv'><img src='Fruit/Kiwi.png'><br><font class='baseline'><strong>Kiwi Kash</strong><p><strong><font class='posOutcome'>You WON</font><p>You bet: 1</strong></font> &nbsp; &nbsp; &nbsp; &nbsp; &nbsp; &nbsp;<font class='posOutcome'>you receive: <strong>2</strong></font></div>","null","4","Kiwi Kash","Fruit/Kiwi.png","Won","0.65,0.35","14","0.65","62","10","",""
"html-keyboard-response","40","200939","0.0-11.0-1.10","63fd6f98e4a77457f1b36b9a","bdp_rwlrn","Tue Mar 14 2023 21:30:52 GMT-0400 (Eastern Daylight Time)","759811","Trustworthy,Untrustworthy","","1955","","","","decision","","<div class='trialDiv'><img src='Fruit/orange.png'><br><font class='baseline'><strong>Odds are Orange</strong><p>Choose number of points to bet.</font><div class='respPicDiv'><img src='img/responseButtonOffersNo0L.png' class='respPic'></div></div>","4","4","Odds are Orange","Fruit/orange.png","Won","0.35,0.8","14","0.35","67","11","",""
"html-keyboard-response","41","201198","0.0-11.0-2.10","63fd6f98e4a77457f1b36b9a","bdp_rwlrn","Tue Mar 14 2023 21:30:52 GMT-0400 (Eastern Daylight Time)","759811","Trustworthy,Untrustworthy","","null","","","","decisionFB","","<div class='trialDiv'><img src='Fruit/orange.png'><br><font class='baseline'><strong>Odds are Orange</strong><p>Choose number of points to bet.</font><div class='respPicDiv'><img src='img/responseButtonOffersNo0L4.png' class='respPic'></div></div>","null","4","Odds are Orange","Fruit/orange.png","Won","0.35,0.8","14","0.35","63","11","",""
"html-keyboard-response","42","202207","0.0-11.0-3.10","63fd6f98e4a77457f1b36b9a","bdp_rwlrn","Tue Mar 14 2023 21:30:52 GMT-0400 (Eastern Daylight Time)","759811","Trustworthy,Untrustworthy","","null","","","","feedback","","<div class='respPicDiv'><img src='img/responseButtonOffersNo0_wht.png' class='respPic'></div><div class='trialDiv'><img src='Fruit/orange.png'><br><font class='baseline'><strong>Odds are Orange</strong><p><strong><font class='posOutcome'>You WON</font><p>You bet: 4</strong></font> &nbsp; &nbsp; &nbsp; &nbsp; &nbsp; &nbsp;<font class='posOutcome'>you receive: <strong>8</strong></font></div>","null","4","Odds are Orange","Fruit/orange.png","Won","0.35,0.8","14","0.35","71","11","",""
"html-keyboard-response","43","204796","0.0-11.0-1.11","63fd6f98e4a77457f1b36b9a","bdp_rwlrn","Tue Mar 14 2023 21:30:52 GMT-0400 (Eastern Daylight Time)","759811","Trustworthy,Untrustworthy","","2588","","","","decision","","<div class='trialDiv'><img src='Fruit/watermelon.png'><br><font class='baseline'><strong>Watermelon Win$</strong><p>Choose number of points to bet.</font><div class='respPicDiv'><img src='img/responseButtonOffersNo0L.png' class='respPic'></div></div>","3","4","Watermelon Win$","Fruit/watermelon.png","Won","0.8,0.35","9","0.8","76","12","",""
"html-keyboard-response","44","205053","0.0-11.0-2.11","63fd6f98e4a77457f1b36b9a","bdp_rwlrn","Tue Mar 14 2023 21:30:52 GMT-0400 (Eastern Daylight Time)","759811","Trustworthy,Untrustworthy","","null","","","","decisionFB","","<div class='trialDiv'><img src='Fruit/watermelon.png'><br><font class='baseline'><strong>Watermelon Win$</strong><p>Choose number of points to bet.</font><div class='respPicDiv'><img src='img/responseButtonOffersNo0L3.png' class='respPic'></div></div>","null","4","Watermelon Win$","Fruit/watermelon.png","Won","0.8,0.35","9","0.8","73","12","",""
"html-keyboard-response","45","206065","0.0-11.0-3.11","63fd6f98e4a77457f1b36b9a","bdp_rwlrn","Tue Mar 14 2023 21:30:52 GMT-0400 (Eastern Daylight Time)","759811","Trustworthy,Untrustworthy","","null","","","","feedback","","<div class='respPicDiv'><img src='img/responseButtonOffersNo0_wht.png' class='respPic'></div><div class='trialDiv'><img src='Fruit/watermelon.png'><br><font class='baseline'><strong>Watermelon Win$</strong><p><strong><font class='posOutcome'>You WON</font><p>You bet: 3</strong></font> &nbsp; &nbsp; &nbsp; &nbsp; &nbsp; &nbsp;<font class='posOutcome'>you receive: <strong>6</strong></font></div>","null","4","Watermelon Win$","Fruit/watermelon.png","Won","0.8,0.35","9","0.8","79","12","",""
"html-keyboard-response","46","207634","0.0-11.0-1.12","63fd6f98e4a77457f1b36b9a","bdp_rwlrn","Tue Mar 14 2023 21:30:52 GMT-0400 (Eastern Daylight Time)","759811","Trustworthy,Untrustworthy","","1568","","","","decision","","<div class='trialDiv'><img src='Fruit/Kiwi.png'><br><font class='baseline'><strong>Kiwi Kash</strong><p>Choose number of points to bet.</font><div class='respPicDiv'><img src='img/responseButtonOffersNo0L.png' class='respPic'></div></div>","1","5","Kiwi Kash","Fruit/Kiwi.png","Lost","0.65,0.35","14","0.65","84","13","",""
"html-keyboard-response","47","207894","0.0-11.0-2.12","63fd6f98e4a77457f1b36b9a","bdp_rwlrn","Tue Mar 14 2023 21:30:52 GMT-0400 (Eastern Daylight Time)","759811","Trustworthy,Untrustworthy","","null","","","","decisionFB","","<div class='trialDiv'><img src='Fruit/Kiwi.png'><br><font class='baseline'><strong>Kiwi Kash</strong><p>Choose number of points to bet.</font><div class='respPicDiv'><img src='img/responseButtonOffersNo0L1.png' class='respPic'></div></div>","null","5","Kiwi Kash","Fruit/Kiwi.png","Lost","0.65,0.35","14","0.65","83","13","",""
"html-keyboard-response","48","208903","0.0-11.0-3.12","63fd6f98e4a77457f1b36b9a","bdp_rwlrn","Tue Mar 14 2023 21:30:52 GMT-0400 (Eastern Daylight Time)","759811","Trustworthy,Untrustworthy","","null","","","","feedback","","<div class='respPicDiv'><img src='img/responseButtonOffersNo0_wht.png' class='respPic'></div><div class='trialDiv'><img src='Fruit/Kiwi.png'><br><font class='baseline'><strong>Kiwi Kash</strong><p><strong><font class='negOutcome'>You LOST</font><p>You bet: 1</strong></font> &nbsp; &nbsp; &nbsp; &nbsp; &nbsp; &nbsp;<font class='negOutcome'>You receive: <strong>0</strong></font></div>","null","5","Kiwi Kash","Fruit/Kiwi.png","Lost","0.65,0.35","14","0.65","83","13","",""
"html-keyboard-response","49","211567","0.0-11.0-1.13","63fd6f98e4a77457f1b36b9a","bdp_rwlrn","Tue Mar 14 2023 21:30:52 GMT-0400 (Eastern Daylight Time)","759811","Trustworthy,Untrustworthy","","2663","","","","decision","","<div class='trialDiv'><img src='Fruit/orange.png'><br><font class='baseline'><strong>Odds are Orange</strong><p>Choose number of points to bet.</font><div class='respPicDiv'><img src='img/responseButtonOffersNo0L.png' class='respPic'></div></div>","4","5","Odds are Orange","Fruit/orange.png","Lost","0.35,0.8","14","0.35","88","14","",""
"html-keyboard-response","50","211821","0.0-11.0-2.13","63fd6f98e4a77457f1b36b9a","bdp_rwlrn","Tue Mar 14 2023 21:30:52 GMT-0400 (Eastern Daylight Time)","759811","Trustworthy,Untrustworthy","","null","","","","decisionFB","","<div class='trialDiv'><img src='Fruit/orange.png'><br><font class='baseline'><strong>Odds are Orange</strong><p>Choose number of points to bet.</font><div class='respPicDiv'><img src='img/responseButtonOffersNo0L4.png' class='respPic'></div></div>","null","5","Odds are Orange","Fruit/orange.png","Lost","0.35,0.8","14","0.35","84","14","",""
"html-keyboard-response","51","212830","0.0-11.0-3.13","63fd6f98e4a77457f1b36b9a","bdp_rwlrn","Tue Mar 14 2023 21:30:52 GMT-0400 (Eastern Daylight Time)","759811","Trustworthy,Untrustworthy","","null","","","","feedback","","<div class='respPicDiv'><img src='img/responseButtonOffersNo0_wht.png' class='respPic'></div><div class='trialDiv'><img src='Fruit/orange.png'><br><font class='baseline'><strong>Odds are Orange</strong><p><strong><font class='negOutcome'>You LOST</font><p>You bet: 4</strong></font> &nbsp; &nbsp; &nbsp; &nbsp; &nbsp; &nbsp;<font class='negOutcome'>You receive: <strong>0</strong></font></div>","null","5","Odds are Orange","Fruit/orange.png","Lost","0.35,0.8","14","0.35","84","14","",""
"html-keyboard-response","52","215130","0.0-11.0-1.14","63fd6f98e4a77457f1b36b9a","bdp_rwlrn","Tue Mar 14 2023 21:30:52 GMT-0400 (Eastern Daylight Time)","759811","Trustworthy,Untrustworthy","","2299","","","","decision","","<div class='trialDiv'><img src='Fruit/watermelon.png'><br><font class='baseline'><strong>Watermelon Win$</strong><p>Choose number of points to bet.</font><div class='respPicDiv'><img src='img/responseButtonOffersNo0L.png' class='respPic'></div></div>","3","5","Watermelon Win$","Fruit/watermelon.png","Won","0.8,0.35","9","0.8","89","15","",""
"html-keyboard-response","53","215394","0.0-11.0-2.14","63fd6f98e4a77457f1b36b9a","bdp_rwlrn","Tue Mar 14 2023 21:30:52 GMT-0400 (Eastern Daylight Time)","759811","Trustworthy,Untrustworthy","","null","","","","decisionFB","","<div class='trialDiv'><img src='Fruit/watermelon.png'><br><font class='baseline'><strong>Watermelon Win$</strong><p>Choose number of points to bet.</font><div class='respPicDiv'><img src='img/responseButtonOffersNo0L3.png' class='respPic'></div></div>","null","5","Watermelon Win$","Fruit/watermelon.png","Won","0.8,0.35","9","0.8","86","15","",""
"html-keyboard-response","54","216397","0.0-11.0-3.14","63fd6f98e4a77457f1b36b9a","bdp_rwlrn","Tue Mar 14 2023 21:30:52 GMT-0400 (Eastern Daylight Time)","759811","Trustworthy,Untrustworthy","","null","","","","feedback","","<div class='respPicDiv'><img src='img/responseButtonOffersNo0_wht.png' class='respPic'></div><div class='trialDiv'><img src='Fruit/watermelon.png'><br><font class='baseline'><strong>Watermelon Win$</strong><p><strong><font class='posOutcome'>You WON</font><p>You bet: 3</strong></font> &nbsp; &nbsp; &nbsp; &nbsp; &nbsp; &nbsp;<font class='posOutcome'>you receive: <strong>6</strong></font></div>","null","5","Watermelon Win$","Fruit/watermelon.png","Won","0.8,0.35","9","0.8","92","15","",""
"html-keyboard-response","55","217961","0.0-11.0-1.15","63fd6f98e4a77457f1b36b9a","bdp_rwlrn","Tue Mar 14 2023 21:30:52 GMT-0400 (Eastern Daylight Time)","759811","Trustworthy,Untrustworthy","","1563","","","","decision","","<div class='trialDiv'><img src='Fruit/Kiwi.png'><br><font class='baseline'><strong>Kiwi Kash</strong><p>Choose number of points to bet.</font><div class='respPicDiv'><img src='img/responseButtonOffersNo0L.png' class='respPic'></div></div>","1","6","Kiwi Kash","Fruit/Kiwi.png","Lost","0.65,0.35","14","0.65","97","16","",""
"html-keyboard-response","56","218216","0.0-11.0-2.15","63fd6f98e4a77457f1b36b9a","bdp_rwlrn","Tue Mar 14 2023 21:30:52 GMT-0400 (Eastern Daylight Time)","759811","Trustworthy,Untrustworthy","","null","","","","decisionFB","","<div class='trialDiv'><img src='Fruit/Kiwi.png'><br><font class='baseline'><strong>Kiwi Kash</strong><p>Choose number of points to bet.</font><div class='respPicDiv'><img src='img/responseButtonOffersNo0L1.png' class='respPic'></div></div>","null","6","Kiwi Kash","Fruit/Kiwi.png","Lost","0.65,0.35","14","0.65","96","16","",""
"html-keyboard-response","57","219224","0.0-11.0-3.15","63fd6f98e4a77457f1b36b9a","bdp_rwlrn","Tue Mar 14 2023 21:30:52 GMT-0400 (Eastern Daylight Time)","759811","Trustworthy,Untrustworthy","","null","","","","feedback","","<div class='respPicDiv'><img src='img/responseButtonOffersNo0_wht.png' class='respPic'></div><div class='trialDiv'><img src='Fruit/Kiwi.png'><br><font class='baseline'><strong>Kiwi Kash</strong><p><strong><font class='negOutcome'>You LOST</font><p>You bet: 1</strong></font> &nbsp; &nbsp; &nbsp; &nbsp; &nbsp; &nbsp;<font class='negOutcome'>You receive: <strong>0</strong></font></div>","null","6","Kiwi Kash","Fruit/Kiwi.png","Lost","0.65,0.35","14","0.65","96","16","",""
"html-keyboard-response","58","221433","0.0-11.0-1.16","63fd6f98e4a77457f1b36b9a","bdp_rwlrn","Tue Mar 14 2023 21:30:52 GMT-0400 (Eastern Daylight Time)","759811","Trustworthy,Untrustworthy","","2208","","","","decision","","<div class='trialDiv'><img src='Fruit/watermelon.png'><br><font class='baseline'><strong>Watermelon Win$</strong><p>Choose number of points to bet.</font><div class='respPicDiv'><img src='img/responseButtonOffersNo0L.png' class='respPic'></div></div>","3","6","Watermelon Win$","Fruit/watermelon.png","Won","0.8,0.35","9","0.8","101","17","",""
"html-keyboard-response","59","221686","0.0-11.0-2.16","63fd6f98e4a77457f1b36b9a","bdp_rwlrn","Tue Mar 14 2023 21:30:52 GMT-0400 (Eastern Daylight Time)","759811","Trustworthy,Untrustworthy","","null","","","","decisionFB","","<div class='trialDiv'><img src='Fruit/watermelon.png'><br><font class='baseline'><strong>Watermelon Win$</strong><p>Choose number of points to bet.</font><div class='respPicDiv'><img src='img/responseButtonOffersNo0L3.png' class='respPic'></div></div>","null","6","Watermelon Win$","Fruit/watermelon.png","Won","0.8,0.35","9","0.8","98","17","",""
"html-keyboard-response","60","222694","0.0-11.0-3.16","63fd6f98e4a77457f1b36b9a","bdp_rwlrn","Tue Mar 14 2023 21:30:52 GMT-0400 (Eastern Daylight Time)","759811","Trustworthy,Untrustworthy","","null","","","","feedback","","<div class='respPicDiv'><img src='img/responseButtonOffersNo0_wht.png' class='respPic'></div><div class='trialDiv'><img src='Fruit/watermelon.png'><br><font class='baseline'><strong>Watermelon Win$</strong><p><strong><font class='posOutcome'>You WON</font><p>You bet: 3</strong></font> &nbsp; &nbsp; &nbsp; &nbsp; &nbsp; &nbsp;<font class='posOutcome'>you receive: <strong>6</strong></font></div>","null","6","Watermelon Win$","Fruit/watermelon.png","Won","0.8,0.35","9","0.8","104","17","",""
"html-keyboard-response","61","225782","0.0-11.0-1.17","63fd6f98e4a77457f1b36b9a","bdp_rwlrn","Tue Mar 14 2023 21:30:52 GMT-0400 (Eastern Daylight Time)","759811","Trustworthy,Untrustworthy","","3087","","","","decision","","<div class='trialDiv'><img src='Fruit/orange.png'><br><font class='baseline'><strong>Odds are Orange</strong><p>Choose number of points to bet.</font><div class='respPicDiv'><img src='img/responseButtonOffersNo0L.png' class='respPic'></div></div>","3","6","Odds are Orange","Fruit/orange.png","Lost","0.35,0.8","14","0.35","109","18","",""
"html-keyboard-response","62","226042","0.0-11.0-2.17","63fd6f98e4a77457f1b36b9a","bdp_rwlrn","Tue Mar 14 2023 21:30:52 GMT-0400 (Eastern Daylight Time)","759811","Trustworthy,Untrustworthy","","null","","","","decisionFB","","<div class='trialDiv'><img src='Fruit/orange.png'><br><font class='baseline'><strong>Odds are Orange</strong><p>Choose number of points to bet.</font><div class='respPicDiv'><img src='img/responseButtonOffersNo0L3.png' class='respPic'></div></div>","null","6","Odds are Orange","Fruit/orange.png","Lost","0.35,0.8","14","0.35","106","18","",""
"html-keyboard-response","63","227046","0.0-11.0-3.17","63fd6f98e4a77457f1b36b9a","bdp_rwlrn","Tue Mar 14 2023 21:30:52 GMT-0400 (Eastern Daylight Time)","759811","Trustworthy,Untrustworthy","","null","","","","feedback","","<div class='respPicDiv'><img src='img/responseButtonOffersNo0_wht.png' class='respPic'></div><div class='trialDiv'><img src='Fruit/orange.png'><br><font class='baseline'><strong>Odds are Orange</strong><p><strong><font class='negOutcome'>You LOST</font><p>You bet: 3</strong></font> &nbsp; &nbsp; &nbsp; &nbsp; &nbsp; &nbsp;<font class='negOutcome'>You receive: <strong>0</strong></font></div>","null","6","Odds are Orange","Fruit/orange.png","Lost","0.35,0.8","14","0.35","106","18","",""
"html-keyboard-response","64","228690","0.0-11.0-1.18","63fd6f98e4a77457f1b36b9a","bdp_rwlrn","Tue Mar 14 2023 21:30:52 GMT-0400 (Eastern Daylight Time)","759811","Trustworthy,Untrustworthy","","1643","","","","decision","","<div class='trialDiv'><img src='Fruit/Kiwi.png'><br><font class='baseline'><strong>Kiwi Kash</strong><p>Choose number of points to bet.</font><div class='respPicDiv'><img src='img/responseButtonOffersNo0L.png' class='respPic'></div></div>","1","7","Kiwi Kash","Fruit/Kiwi.png","Lost","0.65,0.35","14","0.65","111","19","",""
"html-keyboard-response","65","228954","0.0-11.0-2.18","63fd6f98e4a77457f1b36b9a","bdp_rwlrn","Tue Mar 14 2023 21:30:52 GMT-0400 (Eastern Daylight Time)","759811","Trustworthy,Untrustworthy","","null","","","","decisionFB","","<div class='trialDiv'><img src='Fruit/Kiwi.png'><br><font class='baseline'><strong>Kiwi Kash</strong><p>Choose number of points to bet.</font><div class='respPicDiv'><img src='img/responseButtonOffersNo0L1.png' class='respPic'></div></div>","null","7","Kiwi Kash","Fruit/Kiwi.png","Lost","0.65,0.35","14","0.65","110","19","",""
"html-keyboard-response","66","229962","0.0-11.0-3.18","63fd6f98e4a77457f1b36b9a","bdp_rwlrn","Tue Mar 14 2023 21:30:52 GMT-0400 (Eastern Daylight Time)","759811","Trustworthy,Untrustworthy","","null","","","","feedback","","<div class='respPicDiv'><img src='img/responseButtonOffersNo0_wht.png' class='respPic'></div><div class='trialDiv'><img src='Fruit/Kiwi.png'><br><font class='baseline'><strong>Kiwi Kash</strong><p><strong><font class='negOutcome'>You LOST</font><p>You bet: 1</strong></font> &nbsp; &nbsp; &nbsp; &nbsp; &nbsp; &nbsp;<font class='negOutcome'>You receive: <strong>0</strong></font></div>","null","7","Kiwi Kash","Fruit/Kiwi.png","Lost","0.65,0.35","14","0.65","110","19","",""
"html-keyboard-response","67","233399","0.0-11.0-1.19","63fd6f98e4a77457f1b36b9a","bdp_rwlrn","Tue Mar 14 2023 21:30:52 GMT-0400 (Eastern Daylight Time)","759811","Trustworthy,Untrustworthy","","3436","","","","decision","","<div class='trialDiv'><img src='Fruit/watermelon.png'><br><font class='baseline'><strong>Watermelon Win$</strong><p>Choose number of points to bet.</font><div class='respPicDiv'><img src='img/responseButtonOffersNo0L.png' class='respPic'></div></div>","3","7","Watermelon Win$","Fruit/watermelon.png","Won","0.8,0.35","9","0.8","115","20","",""
"html-keyboard-response","68","233654","0.0-11.0-2.19","63fd6f98e4a77457f1b36b9a","bdp_rwlrn","Tue Mar 14 2023 21:30:52 GMT-0400 (Eastern Daylight Time)","759811","Trustworthy,Untrustworthy","","null","","","","decisionFB","","<div class='trialDiv'><img src='Fruit/watermelon.png'><br><font class='baseline'><strong>Watermelon Win$</strong><p>Choose number of points to bet.</font><div class='respPicDiv'><img src='img/responseButtonOffersNo0L3.png' class='respPic'></div></div>","null","7","Watermelon Win$","Fruit/watermelon.png","Won","0.8,0.35","9","0.8","112","20","",""
"html-keyboard-response","69","234663","0.0-11.0-3.19","63fd6f98e4a77457f1b36b9a","bdp_rwlrn","Tue Mar 14 2023 21:30:52 GMT-0400 (Eastern Daylight Time)","759811","Trustworthy,Untrustworthy","","null","","","","feedback","","<div class='respPicDiv'><img src='img/responseButtonOffersNo0_wht.png' class='respPic'></div><div class='trialDiv'><img src='Fruit/watermelon.png'><br><font class='baseline'><strong>Watermelon Win$</strong><p><strong><font class='posOutcome'>You WON</font><p>You bet: 3</strong></font> &nbsp; &nbsp; &nbsp; &nbsp; &nbsp; &nbsp;<font class='posOutcome'>you receive: <strong>6</strong></font></div>","null","7","Watermelon Win$","Fruit/watermelon.png","Won","0.8,0.35","9","0.8","118","20","",""
"html-keyboard-response","70","235936","0.0-11.0-1.20","63fd6f98e4a77457f1b36b9a","bdp_rwlrn","Tue Mar 14 2023 21:30:52 GMT-0400 (Eastern Daylight Time)","759811","Trustworthy,Untrustworthy","","1272","","","","decision","","<div class='trialDiv'><img src='Fruit/orange.png'><br><font class='baseline'><strong>Odds are Orange</strong><p>Choose number of points to bet.</font><div class='respPicDiv'><img src='img/responseButtonOffersNo0L.png' class='respPic'></div></div>","4","7","Odds are Orange","Fruit/orange.png","Lost","0.35,0.8","14","0.35","123","21","",""
"html-keyboard-response","71","236193","0.0-11.0-2.20","63fd6f98e4a77457f1b36b9a","bdp_rwlrn","Tue Mar 14 2023 21:30:52 GMT-0400 (Eastern Daylight Time)","759811","Trustworthy,Untrustworthy","","null","","","","decisionFB","","<div class='trialDiv'><img src='Fruit/orange.png'><br><font class='baseline'><strong>Odds are Orange</strong><p>Choose number of points to bet.</font><div class='respPicDiv'><img src='img/responseButtonOffersNo0L4.png' class='respPic'></div></div>","null","7","Odds are Orange","Fruit/orange.png","Lost","0.35,0.8","14","0.35","119","21","",""
"html-keyboard-response","72","237197","0.0-11.0-3.20","63fd6f98e4a77457f1b36b9a","bdp_rwlrn","Tue Mar 14 2023 21:30:52 GMT-0400 (Eastern Daylight Time)","759811","Trustworthy,Untrustworthy","","null","","","","feedback","","<div class='respPicDiv'><img src='img/responseButtonOffersNo0_wht.png' class='respPic'></div><div class='trialDiv'><img src='Fruit/orange.png'><br><font class='baseline'><strong>Odds are Orange</strong><p><strong><font class='negOutcome'>You LOST</font><p>You bet: 4</strong></font> &nbsp; &nbsp; &nbsp; &nbsp; &nbsp; &nbsp;<font class='negOutcome'>You receive: <strong>0</strong></font></div>","null","7","Odds are Orange","Fruit/orange.png","Lost","0.35,0.8","14","0.35","119","21","",""
"html-keyboard-response","73","238088","0.0-11.0-1.21","63fd6f98e4a77457f1b36b9a","bdp_rwlrn","Tue Mar 14 2023 21:30:52 GMT-0400 (Eastern Daylight Time)","759811","Trustworthy,Untrustworthy","","889","","","","decision","","<div class='trialDiv'><img src='Fruit/watermelon.png'><br><font class='baseline'><strong>Watermelon Win$</strong><p>Choose number of points to bet.</font><div class='respPicDiv'><img src='img/responseButtonOffersNo0L.png' class='respPic'></div></div>","3","8","Watermelon Win$","Fruit/watermelon.png","Won","0.8,0.35","9","0.8","124","22","",""
"html-keyboard-response","74","238341","0.0-11.0-2.21","63fd6f98e4a77457f1b36b9a","bdp_rwlrn","Tue Mar 14 2023 21:30:52 GMT-0400 (Eastern Daylight Time)","759811","Trustworthy,Untrustworthy","","null","","","","decisionFB","","<div class='trialDiv'><img src='Fruit/watermelon.png'><br><font class='baseline'><strong>Watermelon Win$</strong><p>Choose number of points to bet.</font><div class='respPicDiv'><img src='img/responseButtonOffersNo0L3.png' class='respPic'></div></div>","null","8","Watermelon Win$","Fruit/watermelon.png","Won","0.8,0.35","9","0.8","121","22","",""
"html-keyboard-response","75","239350","0.0-11.0-3.21","63fd6f98e4a77457f1b36b9a","bdp_rwlrn","Tue Mar 14 2023 21:30:52 GMT-0400 (Eastern Daylight Time)","759811","Trustworthy,Untrustworthy","","null","","","","feedback","","<div class='respPicDiv'><img src='img/responseButtonOffersNo0_wht.png' class='respPic'></div><div class='trialDiv'><img src='Fruit/watermelon.png'><br><font class='baseline'><strong>Watermelon Win$</strong><p><strong><font class='posOutcome'>You WON</font><p>You bet: 3</strong></font> &nbsp; &nbsp; &nbsp; &nbsp; &nbsp; &nbsp;<font class='posOutcome'>you receive: <strong>6</strong></font></div>","null","8","Watermelon Win$","Fruit/watermelon.png","Won","0.8,0.35","9","0.8","127","22","",""
"html-keyboard-response","76","240935","0.0-11.0-1.22","63fd6f98e4a77457f1b36b9a","bdp_rwlrn","Tue Mar 14 2023 21:30:52 GMT-0400 (Eastern Daylight Time)","759811","Trustworthy,Untrustworthy","","1584","","","","decision","","<div class='trialDiv'><img src='Fruit/Kiwi.png'><br><font class='baseline'><strong>Kiwi Kash</strong><p>Choose number of points to bet.</font><div class='respPicDiv'><img src='img/responseButtonOffersNo0L.png' class='respPic'></div></div>","2","8","Kiwi Kash","Fruit/Kiwi.png","Lost","0.65,0.35","14","0.65","132","23","",""
"html-keyboard-response","77","241188","0.0-11.0-2.22","63fd6f98e4a77457f1b36b9a","bdp_rwlrn","Tue Mar 14 2023 21:30:52 GMT-0400 (Eastern Daylight Time)","759811","Trustworthy,Untrustworthy","","null","","","","decisionFB","","<div class='trialDiv'><img src='Fruit/Kiwi.png'><br><font class='baseline'><strong>Kiwi Kash</strong><p>Choose number of points to bet.</font><div class='respPicDiv'><img src='img/responseButtonOffersNo0L2.png' class='respPic'></div></div>","null","8","Kiwi Kash","Fruit/Kiwi.png","Lost","0.65,0.35","14","0.65","130","23","",""
"html-keyboard-response","78","242201","0.0-11.0-3.22","63fd6f98e4a77457f1b36b9a","bdp_rwlrn","Tue Mar 14 2023 21:30:52 GMT-0400 (Eastern Daylight Time)","759811","Trustworthy,Untrustworthy","","null","","","","feedback","","<div class='respPicDiv'><img src='img/responseButtonOffersNo0_wht.png' class='respPic'></div><div class='trialDiv'><img src='Fruit/Kiwi.png'><br><font class='baseline'><strong>Kiwi Kash</strong><p><strong><font class='negOutcome'>You LOST</font><p>You bet: 2</strong></font> &nbsp; &nbsp; &nbsp; &nbsp; &nbsp; &nbsp;<font class='negOutcome'>You receive: <strong>0</strong></font></div>","null","8","Kiwi Kash","Fruit/Kiwi.png","Lost","0.65,0.35","14","0.65","130","23","",""
"html-keyboard-response","79","247180","0.0-11.0-1.23","63fd6f98e4a77457f1b36b9a","bdp_rwlrn","Tue Mar 14 2023 21:30:52 GMT-0400 (Eastern Daylight Time)","759811","Trustworthy,Untrustworthy","","4978","","","","decision","","<div class='trialDiv'><img src='Fruit/orange.png'><br><font class='baseline'><strong>Odds are Orange</strong><p>Choose number of points to bet.</font><div class='respPicDiv'><img src='img/responseButtonOffersNo0L.png' class='respPic'></div></div>","1","8","Odds are Orange","Fruit/orange.png","Lost","0.35,0.8","14","0.35","135","24","",""
"html-keyboard-response","80","247439","0.0-11.0-2.23","63fd6f98e4a77457f1b36b9a","bdp_rwlrn","Tue Mar 14 2023 21:30:52 GMT-0400 (Eastern Daylight Time)","759811","Trustworthy,Untrustworthy","","null","","","","decisionFB","","<div class='trialDiv'><img src='Fruit/orange.png'><br><font class='baseline'><strong>Odds are Orange</strong><p>Choose number of points to bet.</font><div class='respPicDiv'><img src='img/responseButtonOffersNo0L1.png' class='respPic'></div></div>","null","8","Odds are Orange","Fruit/orange.png","Lost","0.35,0.8","14","0.35","134","24","",""
"html-keyboard-response","81","248447","0.0-11.0-3.23","63fd6f98e4a77457f1b36b9a","bdp_rwlrn","Tue Mar 14 2023 21:30:52 GMT-0400 (Eastern Daylight Time)","759811","Trustworthy,Untrustworthy","","null","","","","feedback","","<div class='respPicDiv'><img src='img/responseButtonOffersNo0_wht.png' class='respPic'></div><div class='trialDiv'><img src='Fruit/orange.png'><br><font class='baseline'><strong>Odds are Orange</strong><p><strong><font class='negOutcome'>You LOST</font><p>You bet: 1</strong></font> &nbsp; &nbsp; &nbsp; &nbsp; &nbsp; &nbsp;<font class='negOutcome'>You receive: <strong>0</strong></font></div>","null","8","Odds are Orange","Fruit/orange.png","Lost","0.35,0.8","14","0.35","134","24","",""
"html-keyboard-response","82","250939","0.0-11.0-1.24","63fd6f98e4a77457f1b36b9a","bdp_rwlrn","Tue Mar 14 2023 21:30:52 GMT-0400 (Eastern Daylight Time)","759811","Trustworthy,Untrustworthy","","2490","","","","decision","","<div class='trialDiv'><img src='Fruit/watermelon.png'><br><font class='baseline'><strong>Watermelon Win$</strong><p>Choose number of points to bet.</font><div class='respPicDiv'><img src='img/responseButtonOffersNo0L.png' class='respPic'></div></div>","3","9","Watermelon Win$","Fruit/watermelon.png","Won","0.8,0.35","9","0.8","139","25","",""
"html-keyboard-response","83","251196","0.0-11.0-2.24","63fd6f98e4a77457f1b36b9a","bdp_rwlrn","Tue Mar 14 2023 21:30:52 GMT-0400 (Eastern Daylight Time)","759811","Trustworthy,Untrustworthy","","null","","","","decisionFB","","<div class='trialDiv'><img src='Fruit/watermelon.png'><br><font class='baseline'><strong>Watermelon Win$</strong><p>Choose number of points to bet.</font><div class='respPicDiv'><img src='img/responseButtonOffersNo0L3.png' class='respPic'></div></div>","null","9","Watermelon Win$","Fruit/watermelon.png","Won","0.8,0.35","9","0.8","136","25","",""
"html-keyboard-response","84","252209","0.0-11.0-3.24","63fd6f98e4a77457f1b36b9a","bdp_rwlrn","Tue Mar 14 2023 21:30:52 GMT-0400 (Eastern Daylight Time)","759811","Trustworthy,Untrustworthy","","null","","","","feedback","","<div class='respPicDiv'><img src='img/responseButtonOffersNo0_wht.png' class='respPic'></div><div class='trialDiv'><img src='Fruit/watermelon.png'><br><font class='baseline'><strong>Watermelon Win$</strong><p><strong><font class='posOutcome'>You WON</font><p>You bet: 3</strong></font> &nbsp; &nbsp; &nbsp; &nbsp; &nbsp; &nbsp;<font class='posOutcome'>you receive: <strong>6</strong></font></div>","null","9","Watermelon Win$","Fruit/watermelon.png","Won","0.8,0.35","9","0.8","142","25","",""
"html-keyboard-response","85","254822","0.0-11.0-1.25","63fd6f98e4a77457f1b36b9a","bdp_rwlrn","Tue Mar 14 2023 21:30:52 GMT-0400 (Eastern Daylight Time)","759811","Trustworthy,Untrustworthy","","2613","","","","decision","","<div class='trialDiv'><img src='Fruit/orange.png'><br><font class='baseline'><strong>Odds are Orange</strong><p>Choose number of points to bet.</font><div class='respPicDiv'><img src='img/responseButtonOffersNo0L.png' class='respPic'></div></div>","2","9","Odds are Orange","Fruit/orange.png","Won","0.35,0.8","14","0.35","147","26","",""
"html-keyboard-response","86","255080","0.0-11.0-2.25","63fd6f98e4a77457f1b36b9a","bdp_rwlrn","Tue Mar 14 2023 21:30:52 GMT-0400 (Eastern Daylight Time)","759811","Trustworthy,Untrustworthy","","null","","","","decisionFB","","<div class='trialDiv'><img src='Fruit/orange.png'><br><font class='baseline'><strong>Odds are Orange</strong><p>Choose number of points to bet.</font><div class='respPicDiv'><img src='img/responseButtonOffersNo0L2.png' class='respPic'></div></div>","null","9","Odds are Orange","Fruit/orange.png","Won","0.35,0.8","14","0.35","145","26","",""
"html-keyboard-response","87","256085","0.0-11.0-3.25","63fd6f98e4a77457f1b36b9a","bdp_rwlrn","Tue Mar 14 2023 21:30:52 GMT-0400 (Eastern Daylight Time)","759811","Trustworthy,Untrustworthy","","null","","","","feedback","","<div class='respPicDiv'><img src='img/responseButtonOffersNo0_wht.png' class='respPic'></div><div class='trialDiv'><img src='Fruit/orange.png'><br><font class='baseline'><strong>Odds are Orange</strong><p><strong><font class='posOutcome'>You WON</font><p>You bet: 2</strong></font> &nbsp; &nbsp; &nbsp; &nbsp; &nbsp; &nbsp;<font class='posOutcome'>you receive: <strong>4</strong></font></div>","null","9","Odds are Orange","Fruit/orange.png","Won","0.35,0.8","14","0.35","149","26","",""
"html-keyboard-response","88","263075","0.0-11.0-1.26","63fd6f98e4a77457f1b36b9a","bdp_rwlrn","Tue Mar 14 2023 21:30:52 GMT-0400 (Eastern Daylight Time)","759811","Trustworthy,Untrustworthy","","6989","","","","decision","","<div class='trialDiv'><img src='Fruit/Kiwi.png'><br><font class='baseline'><strong>Kiwi Kash</strong><p>Choose number of points to bet.</font><div class='respPicDiv'><img src='img/responseButtonOffersNo0L.png' class='respPic'></div></div>","3","9","Kiwi Kash","Fruit/Kiwi.png","Won","0.65,0.35","14","0.65","154","27","",""
"html-keyboard-response","89","263335","0.0-11.0-2.26","63fd6f98e4a77457f1b36b9a","bdp_rwlrn","Tue Mar 14 2023 21:30:52 GMT-0400 (Eastern Daylight Time)","759811","Trustworthy,Untrustworthy","","null","","","","decisionFB","","<div class='trialDiv'><img src='Fruit/Kiwi.png'><br><font class='baseline'><strong>Kiwi Kash</strong><p>Choose number of points to bet.</font><div class='respPicDiv'><img src='img/responseButtonOffersNo0L3.png' class='respPic'></div></div>","null","9","Kiwi Kash","Fruit/Kiwi.png","Won","0.65,0.35","14","0.65","151","27","",""
"html-keyboard-response","90","264341","0.0-11.0-3.26","63fd6f98e4a77457f1b36b9a","bdp_rwlrn","Tue Mar 14 2023 21:30:52 GMT-0400 (Eastern Daylight Time)","759811","Trustworthy,Untrustworthy","","null","","","","feedback","","<div class='respPicDiv'><img src='img/responseButtonOffersNo0_wht.png' class='respPic'></div><div class='trialDiv'><img src='Fruit/Kiwi.png'><br><font class='baseline'><strong>Kiwi Kash</strong><p><strong><font class='posOutcome'>You WON</font><p>You bet: 3</strong></font> &nbsp; &nbsp; &nbsp; &nbsp; &nbsp; &nbsp;<font class='posOutcome'>you receive: <strong>6</strong></font></div>","null","9","Kiwi Kash","Fruit/Kiwi.png","Won","0.65,0.35","14","0.65","157","27","",""
"html-keyboard-response","91","268755","0.0-11.0-1.27","63fd6f98e4a77457f1b36b9a","bdp_rwlrn","Tue Mar 14 2023 21:30:52 GMT-0400 (Eastern Daylight Time)","759811","Trustworthy,Untrustworthy","","4412","","","","decision","","<div class='trialDiv'><img src='Fruit/orange.png'><br><font class='baseline'><strong>Odds are Orange</strong><p>Choose number of points to bet.</font><div class='respPicDiv'><img src='img/responseButtonOffersNo0L.png' class='respPic'></div></div>","2","10","Odds are Orange","Fruit/orange.png","Won","0.35,0.8","14","0.35","162","28","",""
"html-keyboard-response","92","269017","0.0-11.0-2.27","63fd6f98e4a77457f1b36b9a","bdp_rwlrn","Tue Mar 14 2023 21:30:52 GMT-0400 (Eastern Daylight Time)","759811","Trustworthy,Untrustworthy","","null","","","","decisionFB","","<div class='trialDiv'><img src='Fruit/orange.png'><br><font class='baseline'><strong>Odds are Orange</strong><p>Choose number of points to bet.</font><div class='respPicDiv'><img src='img/responseButtonOffersNo0L2.png' class='respPic'></div></div>","null","10","Odds are Orange","Fruit/orange.png","Won","0.35,0.8","14","0.35","160","28","",""
"html-keyboard-response","93","270025","0.0-11.0-3.27","63fd6f98e4a77457f1b36b9a","bdp_rwlrn","Tue Mar 14 2023 21:30:52 GMT-0400 (Eastern Daylight Time)","759811","Trustworthy,Untrustworthy","","null","","","","feedback","","<div class='respPicDiv'><img src='img/responseButtonOffersNo0_wht.png' class='respPic'></div><div class='trialDiv'><img src='Fruit/orange.png'><br><font class='baseline'><strong>Odds are Orange</strong><p><strong><font class='posOutcome'>You WON</font><p>You bet: 2</strong></font> &nbsp; &nbsp; &nbsp; &nbsp; &nbsp; &nbsp;<font class='posOutcome'>you receive: <strong>4</strong></font></div>","null","10","Odds are Orange","Fruit/orange.png","Won","0.35,0.8","14","0.35","164","28","",""
"html-keyboard-response","94","275405","0.0-11.0-1.28","63fd6f98e4a77457f1b36b9a","bdp_rwlrn","Tue Mar 14 2023 21:30:52 GMT-0400 (Eastern Daylight Time)","759811","Trustworthy,Untrustworthy","","5379","","","","decision","","<div class='trialDiv'><img src='Fruit/Kiwi.png'><br><font class='baseline'><strong>Kiwi Kash</strong><p>Choose number of points to bet.</font><div class='respPicDiv'><img src='img/responseButtonOffersNo0L.png' class='respPic'></div></div>","3","10","Kiwi Kash","Fruit/Kiwi.png","Won","0.65,0.35","14","0.65","169","29","",""
"html-keyboard-response","95","275660","0.0-11.0-2.28","63fd6f98e4a77457f1b36b9a","bdp_rwlrn","Tue Mar 14 2023 21:30:52 GMT-0400 (Eastern Daylight Time)","759811","Trustworthy,Untrustworthy","","null","","","","decisionFB","","<div class='trialDiv'><img src='Fruit/Kiwi.png'><br><font class='baseline'><strong>Kiwi Kash</strong><p>Choose number of points to bet.</font><div class='respPicDiv'><img src='img/responseButtonOffersNo0L3.png' class='respPic'></div></div>","null","10","Kiwi Kash","Fruit/Kiwi.png","Won","0.65,0.35","14","0.65","166","29","",""
"html-keyboard-response","96","276669","0.0-11.0-3.28","63fd6f98e4a77457f1b36b9a","bdp_rwlrn","Tue Mar 14 2023 21:30:52 GMT-0400 (Eastern Daylight Time)","759811","Trustworthy,Untrustworthy","","null","","","","feedback","","<div class='respPicDiv'><img src='img/responseButtonOffersNo0_wht.png' class='respPic'></div><div class='trialDiv'><img src='Fruit/Kiwi.png'><br><font class='baseline'><strong>Kiwi Kash</strong><p><strong><font class='posOutcome'>You WON</font><p>You bet: 3</strong></font> &nbsp; &nbsp; &nbsp; &nbsp; &nbsp; &nbsp;<font class='posOutcome'>you receive: <strong>6</strong></font></div>","null","10","Kiwi Kash","Fruit/Kiwi.png","Won","0.65,0.35","14","0.65","172","29","",""
"html-keyboard-response","97","279318","0.0-11.0-1.29","63fd6f98e4a77457f1b36b9a","bdp_rwlrn","Tue Mar 14 2023 21:30:52 GMT-0400 (Eastern Daylight Time)","759811","Trustworthy,Untrustworthy","","2648","","","","decision","","<div class='trialDiv'><img src='Fruit/watermelon.png'><br><font class='baseline'><strong>Watermelon Win$</strong><p>Choose number of points to bet.</font><div class='respPicDiv'><img src='img/responseButtonOffersNo0L.png' class='respPic'></div></div>","3","10","Watermelon Win$","Fruit/watermelon.png","Lost","0.8,0.35","9","0.8","177","30","",""
"html-keyboard-response","98","279572","0.0-11.0-2.29","63fd6f98e4a77457f1b36b9a","bdp_rwlrn","Tue Mar 14 2023 21:30:52 GMT-0400 (Eastern Daylight Time)","759811","Trustworthy,Untrustworthy","","null","","","","decisionFB","","<div class='trialDiv'><img src='Fruit/watermelon.png'><br><font class='baseline'><strong>Watermelon Win$</strong><p>Choose number of points to bet.</font><div class='respPicDiv'><img src='img/responseButtonOffersNo0L3.png' class='respPic'></div></div>","null","10","Watermelon Win$","Fruit/watermelon.png","Lost","0.8,0.35","9","0.8","174","30","",""
"html-keyboard-response","99","280584","0.0-11.0-3.29","63fd6f98e4a77457f1b36b9a","bdp_rwlrn","Tue Mar 14 2023 21:30:52 GMT-0400 (Eastern Daylight Time)","759811","Trustworthy,Untrustworthy","","null","","","","feedback","","<div class='respPicDiv'><img src='img/responseButtonOffersNo0_wht.png' class='respPic'></div><div class='trialDiv'><img src='Fruit/watermelon.png'><br><font class='baseline'><strong>Watermelon Win$</strong><p><strong><font class='negOutcome'>You LOST</font><p>You bet: 3</strong></font> &nbsp; &nbsp; &nbsp; &nbsp; &nbsp; &nbsp;<font class='negOutcome'>You receive: <strong>0</strong></font></div>","null","10","Watermelon Win$","Fruit/watermelon.png","Lost","0.8,0.35","9","0.8","174","30","",""
"html-keyboard-response","100","283076","0.0-11.0-1.30","63fd6f98e4a77457f1b36b9a","bdp_rwlrn","Tue Mar 14 2023 21:30:52 GMT-0400 (Eastern Daylight Time)","759811","Trustworthy,Untrustworthy","","2491","","","","decision","","<div class='trialDiv'><img src='Fruit/Kiwi.png'><br><font class='baseline'><strong>Kiwi Kash</strong><p>Choose number of points to bet.</font><div class='respPicDiv'><img src='img/responseButtonOffersNo0L.png' class='respPic'></div></div>","3","11","Kiwi Kash","Fruit/Kiwi.png","Won","0.65,0.35","14","0.65","179","31","",""
"html-keyboard-response","101","283334","0.0-11.0-2.30","63fd6f98e4a77457f1b36b9a","bdp_rwlrn","Tue Mar 14 2023 21:30:52 GMT-0400 (Eastern Daylight Time)","759811","Trustworthy,Untrustworthy","","null","","","","decisionFB","","<div class='trialDiv'><img src='Fruit/Kiwi.png'><br><font class='baseline'><strong>Kiwi Kash</strong><p>Choose number of points to bet.</font><div class='respPicDiv'><img src='img/responseButtonOffersNo0L3.png' class='respPic'></div></div>","null","11","Kiwi Kash","Fruit/Kiwi.png","Won","0.65,0.35","14","0.65","176","31","",""
"html-keyboard-response","102","284343","0.0-11.0-3.30","63fd6f98e4a77457f1b36b9a","bdp_rwlrn","Tue Mar 14 2023 21:30:52 GMT-0400 (Eastern Daylight Time)","759811","Trustworthy,Untrustworthy","","null","","","","feedback","","<div class='respPicDiv'><img src='img/responseButtonOffersNo0_wht.png' class='respPic'></div><div class='trialDiv'><img src='Fruit/Kiwi.png'><br><font class='baseline'><strong>Kiwi Kash</strong><p><strong><font class='posOutcome'>You WON</font><p>You bet: 3</strong></font> &nbsp; &nbsp; &nbsp; &nbsp; &nbsp; &nbsp;<font class='posOutcome'>you receive: <strong>6</strong></font></div>","null","11","Kiwi Kash","Fruit/Kiwi.png","Won","0.65,0.35","14","0.65","182","31","",""
"html-keyboard-response","103","286477","0.0-11.0-1.31","63fd6f98e4a77457f1b36b9a","bdp_rwlrn","Tue Mar 14 2023 21:30:52 GMT-0400 (Eastern Daylight Time)","759811","Trustworthy,Untrustworthy","","2132","","","","decision","","<div class='trialDiv'><img src='Fruit/watermelon.png'><br><font class='baseline'><strong>Watermelon Win$</strong><p>Choose number of points to bet.</font><div class='respPicDiv'><img src='img/responseButtonOffersNo0L.png' class='respPic'></div></div>","4","11","Watermelon Win$","Fruit/watermelon.png","Lost","0.8,0.35","9","0.8","187","32","",""
"html-keyboard-response","104","286734","0.0-11.0-2.31","63fd6f98e4a77457f1b36b9a","bdp_rwlrn","Tue Mar 14 2023 21:30:52 GMT-0400 (Eastern Daylight Time)","759811","Trustworthy,Untrustworthy","","null","","","","decisionFB","","<div class='trialDiv'><img src='Fruit/watermelon.png'><br><font class='baseline'><strong>Watermelon Win$</strong><p>Choose number of points to bet.</font><div class='respPicDiv'><img src='img/responseButtonOffersNo0L4.png' class='respPic'></div></div>","null","11","Watermelon Win$","Fruit/watermelon.png","Lost","0.8,0.35","9","0.8","183","32","",""
"html-keyboard-response","105","287743","0.0-11.0-3.31","63fd6f98e4a77457f1b36b9a","bdp_rwlrn","Tue Mar 14 2023 21:30:52 GMT-0400 (Eastern Daylight Time)","759811","Trustworthy,Untrustworthy","","null","","","","feedback","","<div class='respPicDiv'><img src='img/responseButtonOffersNo0_wht.png' class='respPic'></div><div class='trialDiv'><img src='Fruit/watermelon.png'><br><font class='baseline'><strong>Watermelon Win$</strong><p><strong><font class='negOutcome'>You LOST</font><p>You bet: 4</strong></font> &nbsp; &nbsp; &nbsp; &nbsp; &nbsp; &nbsp;<font class='negOutcome'>You receive: <strong>0</strong></font></div>","null","11","Watermelon Win$","Fruit/watermelon.png","Lost","0.8,0.35","9","0.8","183","32","",""
"html-keyboard-response","106","291638","0.0-11.0-1.32","63fd6f98e4a77457f1b36b9a","bdp_rwlrn","Tue Mar 14 2023 21:30:52 GMT-0400 (Eastern Daylight Time)","759811","Trustworthy,Untrustworthy","","3894","","","","decision","","<div class='trialDiv'><img src='Fruit/orange.png'><br><font class='baseline'><strong>Odds are Orange</strong><p>Choose number of points to bet.</font><div class='respPicDiv'><img src='img/responseButtonOffersNo0L.png' class='respPic'></div></div>","2","11","Odds are Orange","Fruit/orange.png","Won","0.35,0.8","14","0.35","188","33","",""
"html-keyboard-response","107","291895","0.0-11.0-2.32","63fd6f98e4a77457f1b36b9a","bdp_rwlrn","Tue Mar 14 2023 21:30:52 GMT-0400 (Eastern Daylight Time)","759811","Trustworthy,Untrustworthy","","null","","","","decisionFB","","<div class='trialDiv'><img src='Fruit/orange.png'><br><font class='baseline'><strong>Odds are Orange</strong><p>Choose number of points to bet.</font><div class='respPicDiv'><img src='img/responseButtonOffersNo0L2.png' class='respPic'></div></div>","null","11","Odds are Orange","Fruit/orange.png","Won","0.35,0.8","14","0.35","186","33","",""
"html-keyboard-response","108","292903","0.0-11.0-3.32","63fd6f98e4a77457f1b36b9a","bdp_rwlrn","Tue Mar 14 2023 21:30:52 GMT-0400 (Eastern Daylight Time)","759811","Trustworthy,Untrustworthy","","null","","","","feedback","","<div class='respPicDiv'><img src='img/responseButtonOffersNo0_wht.png' class='respPic'></div><div class='trialDiv'><img src='Fruit/orange.png'><br><font class='baseline'><strong>Odds are Orange</strong><p><strong><font class='posOutcome'>You WON</font><p>You bet: 2</strong></font> &nbsp; &nbsp; &nbsp; &nbsp; &nbsp; &nbsp;<font class='posOutcome'>you receive: <strong>4</strong></font></div>","null","11","Odds are Orange","Fruit/orange.png","Won","0.35,0.8","14","0.35","190","33","",""
"html-keyboard-response","109","296373","0.0-11.0-1.33","63fd6f98e4a77457f1b36b9a","bdp_rwlrn","Tue Mar 14 2023 21:30:52 GMT-0400 (Eastern Daylight Time)","759811","Trustworthy,Untrustworthy","","3469","","","","decision","","<div class='trialDiv'><img src='Fruit/Kiwi.png'><br><font class='baseline'><strong>Kiwi Kash</strong><p>Choose number of points to bet.</font><div class='respPicDiv'><img src='img/responseButtonOffersNo0L.png' class='respPic'></div></div>","3","12","Kiwi Kash","Fruit/Kiwi.png","Won","0.65,0.35","14","0.65","195","34","",""
"html-keyboard-response","110","296632","0.0-11.0-2.33","63fd6f98e4a77457f1b36b9a","bdp_rwlrn","Tue Mar 14 2023 21:30:52 GMT-0400 (Eastern Daylight Time)","759811","Trustworthy,Untrustworthy","","null","","","","decisionFB","","<div class='trialDiv'><img src='Fruit/Kiwi.png'><br><font class='baseline'><strong>Kiwi Kash</strong><p>Choose number of points to bet.</font><div class='respPicDiv'><img src='img/responseButtonOffersNo0L3.png' class='respPic'></div></div>","null","12","Kiwi Kash","Fruit/Kiwi.png","Won","0.65,0.35","14","0.65","192","34","",""
"html-keyboard-response","111","297640","0.0-11.0-3.33","63fd6f98e4a77457f1b36b9a","bdp_rwlrn","Tue Mar 14 2023 21:30:52 GMT-0400 (Eastern Daylight Time)","759811","Trustworthy,Untrustworthy","","null","","","","feedback","","<div class='respPicDiv'><img src='img/responseButtonOffersNo0_wht.png' class='respPic'></div><div class='trialDiv'><img src='Fruit/Kiwi.png'><br><font class='baseline'><strong>Kiwi Kash</strong><p><strong><font class='posOutcome'>You WON</font><p>You bet: 3</strong></font> &nbsp; &nbsp; &nbsp; &nbsp; &nbsp; &nbsp;<font class='posOutcome'>you receive: <strong>6</strong></font></div>","null","12","Kiwi Kash","Fruit/Kiwi.png","Won","0.65,0.35","14","0.65","198","34","",""
"html-keyboard-response","112","300069","0.0-11.0-1.34","63fd6f98e4a77457f1b36b9a","bdp_rwlrn","Tue Mar 14 2023 21:30:52 GMT-0400 (Eastern Daylight Time)","759811","Trustworthy,Untrustworthy","","2428","","","","decision","","<div class='trialDiv'><img src='Fruit/orange.png'><br><font class='baseline'><strong>Odds are Orange</strong><p>Choose number of points to bet.</font><div class='respPicDiv'><img src='img/responseButtonOffersNo0L.png' class='respPic'></div></div>","2","12","Odds are Orange","Fruit/orange.png","Lost","0.35,0.8","14","0.35","203","35","",""
"html-keyboard-response","113","300324","0.0-11.0-2.34","63fd6f98e4a77457f1b36b9a","bdp_rwlrn","Tue Mar 14 2023 21:30:52 GMT-0400 (Eastern Daylight Time)","759811","Trustworthy,Untrustworthy","","null","","","","decisionFB","","<div class='trialDiv'><img src='Fruit/orange.png'><br><font class='baseline'><strong>Odds are Orange</strong><p>Choose number of points to bet.</font><div class='respPicDiv'><img src='img/responseButtonOffersNo0L2.png' class='respPic'></div></div>","null","12","Odds are Orange","Fruit/orange.png","Lost","0.35,0.8","14","0.35","201","35","",""
"html-keyboard-response","114","301334","0.0-11.0-3.34","63fd6f98e4a77457f1b36b9a","bdp_rwlrn","Tue Mar 14 2023 21:30:52 GMT-0400 (Eastern Daylight Time)","759811","Trustworthy,Untrustworthy","","null","","","","feedback","","<div class='respPicDiv'><img src='img/responseButtonOffersNo0_wht.png' class='respPic'></div><div class='trialDiv'><img src='Fruit/orange.png'><br><font class='baseline'><strong>Odds are Orange</strong><p><strong><font class='negOutcome'>You LOST</font><p>You bet: 2</strong></font> &nbsp; &nbsp; &nbsp; &nbsp; &nbsp; &nbsp;<font class='negOutcome'>You receive: <strong>0</strong></font></div>","null","12","Odds are Orange","Fruit/orange.png","Lost","0.35,0.8","14","0.35","201","35","",""
"html-keyboard-response","115","309588","0.0-11.0-1.35","63fd6f98e4a77457f1b36b9a","bdp_rwlrn","Tue Mar 14 2023 21:30:52 GMT-0400 (Eastern Daylight Time)","759811","Trustworthy,Untrustworthy","","8253","","","","decision","","<div class='trialDiv'><img src='Fruit/watermelon.png'><br><font class='baseline'><strong>Watermelon Win$</strong><p>Choose number of points to bet.</font><div class='respPicDiv'><img src='img/responseButtonOffersNo0L.png' class='respPic'></div></div>","1","12","Watermelon Win$","Fruit/watermelon.png","Won","0.8,0.35","9","0.8","206","36","",""
"html-keyboard-response","116","309848","0.0-11.0-2.35","63fd6f98e4a77457f1b36b9a","bdp_rwlrn","Tue Mar 14 2023 21:30:52 GMT-0400 (Eastern Daylight Time)","759811","Trustworthy,Untrustworthy","","null","","","","decisionFB","","<div class='trialDiv'><img src='Fruit/watermelon.png'><br><font class='baseline'><strong>Watermelon Win$</strong><p>Choose number of points to bet.</font><div class='respPicDiv'><img src='img/responseButtonOffersNo0L1.png' class='respPic'></div></div>","null","12","Watermelon Win$","Fruit/watermelon.png","Won","0.8,0.35","9","0.8","205","36","",""
"html-keyboard-response","117","310851","0.0-11.0-3.35","63fd6f98e4a77457f1b36b9a","bdp_rwlrn","Tue Mar 14 2023 21:30:52 GMT-0400 (Eastern Daylight Time)","759811","Trustworthy,Untrustworthy","","null","","","","feedback","","<div class='respPicDiv'><img src='img/responseButtonOffersNo0_wht.png' class='respPic'></div><div class='trialDiv'><img src='Fruit/watermelon.png'><br><font class='baseline'><strong>Watermelon Win$</strong><p><strong><font class='posOutcome'>You WON</font><p>You bet: 1</strong></font> &nbsp; &nbsp; &nbsp; &nbsp; &nbsp; &nbsp;<font class='posOutcome'>you receive: <strong>2</strong></font></div>","null","12","Watermelon Win$","Fruit/watermelon.png","Won","0.8,0.35","9","0.8","207","36","",""
"html-keyboard-response","118","318712","0.0-11.0-1.36","63fd6f98e4a77457f1b36b9a","bdp_rwlrn","Tue Mar 14 2023 21:30:52 GMT-0400 (Eastern Daylight Time)","759811","Trustworthy,Untrustworthy","","7859","","","","decision","","<div class='trialDiv'><img src='Fruit/orange.png'><br><font class='baseline'><strong>Odds are Orange</strong><p>Choose number of points to bet.</font><div class='respPicDiv'><img src='img/responseButtonOffersNo0L.png' class='respPic'></div></div>","3","13","Odds are Orange","Fruit/orange.png","Won","0.35,0.8","14","0.35","212","37","",""
"html-keyboard-response","119","318976","0.0-11.0-2.36","63fd6f98e4a77457f1b36b9a","bdp_rwlrn","Tue Mar 14 2023 21:30:52 GMT-0400 (Eastern Daylight Time)","759811","Trustworthy,Untrustworthy","","null","","","","decisionFB","","<div class='trialDiv'><img src='Fruit/orange.png'><br><font class='baseline'><strong>Odds are Orange</strong><p>Choose number of points to bet.</font><div class='respPicDiv'><img src='img/responseButtonOffersNo0L3.png' class='respPic'></div></div>","null","13","Odds are Orange","Fruit/orange.png","Won","0.35,0.8","14","0.35","209","37","",""
"html-keyboard-response","120","319984","0.0-11.0-3.36","63fd6f98e4a77457f1b36b9a","bdp_rwlrn","Tue Mar 14 2023 21:30:52 GMT-0400 (Eastern Daylight Time)","759811","Trustworthy,Untrustworthy","","null","","","","feedback","","<div class='respPicDiv'><img src='img/responseButtonOffersNo0_wht.png' class='respPic'></div><div class='trialDiv'><img src='Fruit/orange.png'><br><font class='baseline'><strong>Odds are Orange</strong><p><strong><font class='posOutcome'>You WON</font><p>You bet: 3</strong></font> &nbsp; &nbsp; &nbsp; &nbsp; &nbsp; &nbsp;<font class='posOutcome'>you receive: <strong>6</strong></font></div>","null","13","Odds are Orange","Fruit/orange.png","Won","0.35,0.8","14","0.35","215","37","",""
"html-keyboard-response","121","325208","0.0-11.0-1.37","63fd6f98e4a77457f1b36b9a","bdp_rwlrn","Tue Mar 14 2023 21:30:52 GMT-0400 (Eastern Daylight Time)","759811","Trustworthy,Untrustworthy","","5222","","","","decision","","<div class='trialDiv'><img src='Fruit/Kiwi.png'><br><font class='baseline'><strong>Kiwi Kash</strong><p>Choose number of points to bet.</font><div class='respPicDiv'><img src='img/responseButtonOffersNo0L.png' class='respPic'></div></div>","2","13","Kiwi Kash","Fruit/Kiwi.png","Won","0.65,0.35","14","0.65","220","38","",""
"html-keyboard-response","122","325468","0.0-11.0-2.37","63fd6f98e4a77457f1b36b9a","bdp_rwlrn","Tue Mar 14 2023 21:30:52 GMT-0400 (Eastern Daylight Time)","759811","Trustworthy,Untrustworthy","","null","","","","decisionFB","","<div class='trialDiv'><img src='Fruit/Kiwi.png'><br><font class='baseline'><strong>Kiwi Kash</strong><p>Choose number of points to bet.</font><div class='respPicDiv'><img src='img/responseButtonOffersNo0L2.png' class='respPic'></div></div>","null","13","Kiwi Kash","Fruit/Kiwi.png","Won","0.65,0.35","14","0.65","218","38","",""
"html-keyboard-response","123","326477","0.0-11.0-3.37","63fd6f98e4a77457f1b36b9a","bdp_rwlrn","Tue Mar 14 2023 21:30:52 GMT-0400 (Eastern Daylight Time)","759811","Trustworthy,Untrustworthy","","null","","","","feedback","","<div class='respPicDiv'><img src='img/responseButtonOffersNo0_wht.png' class='respPic'></div><div class='trialDiv'><img src='Fruit/Kiwi.png'><br><font class='baseline'><strong>Kiwi Kash</strong><p><strong><font class='posOutcome'>You WON</font><p>You bet: 2</strong></font> &nbsp; &nbsp; &nbsp; &nbsp; &nbsp; &nbsp;<font class='posOutcome'>you receive: <strong>4</strong></font></div>","null","13","Kiwi Kash","Fruit/Kiwi.png","Won","0.65,0.35","14","0.65","222","38","",""
"html-keyboard-response","124","329379","0.0-11.0-1.38","63fd6f98e4a77457f1b36b9a","bdp_rwlrn","Tue Mar 14 2023 21:30:52 GMT-0400 (Eastern Daylight Time)","759811","Trustworthy,Untrustworthy","","2901","","","","decision","","<div class='trialDiv'><img src='Fruit/watermelon.png'><br><font class='baseline'><strong>Watermelon Win$</strong><p>Choose number of points to bet.</font><div class='respPicDiv'><img src='img/responseButtonOffersNo0L.png' class='respPic'></div></div>","1","13","Watermelon Win$","Fruit/watermelon.png","Lost","0.8,0.35","9","0.8","227","39","",""
"html-keyboard-response","125","329638","0.0-11.0-2.38","63fd6f98e4a77457f1b36b9a","bdp_rwlrn","Tue Mar 14 2023 21:30:52 GMT-0400 (Eastern Daylight Time)","759811","Trustworthy,Untrustworthy","","null","","","","decisionFB","","<div class='trialDiv'><img src='Fruit/watermelon.png'><br><font class='baseline'><strong>Watermelon Win$</strong><p>Choose number of points to bet.</font><div class='respPicDiv'><img src='img/responseButtonOffersNo0L1.png' class='respPic'></div></div>","null","13","Watermelon Win$","Fruit/watermelon.png","Lost","0.8,0.35","9","0.8","226","39","",""
"html-keyboard-response","126","330646","0.0-11.0-3.38","63fd6f98e4a77457f1b36b9a","bdp_rwlrn","Tue Mar 14 2023 21:30:52 GMT-0400 (Eastern Daylight Time)","759811","Trustworthy,Untrustworthy","","null","","","","feedback","","<div class='respPicDiv'><img src='img/responseButtonOffersNo0_wht.png' class='respPic'></div><div class='trialDiv'><img src='Fruit/watermelon.png'><br><font class='baseline'><strong>Watermelon Win$</strong><p><strong><font class='negOutcome'>You LOST</font><p>You bet: 1</strong></font> &nbsp; &nbsp; &nbsp; &nbsp; &nbsp; &nbsp;<font class='negOutcome'>You receive: <strong>0</strong></font></div>","null","13","Watermelon Win$","Fruit/watermelon.png","Lost","0.8,0.35","9","0.8","226","39","",""
"html-keyboard-response","127","335696","0.0-11.0-1.39","63fd6f98e4a77457f1b36b9a","bdp_rwlrn","Tue Mar 14 2023 21:30:52 GMT-0400 (Eastern Daylight Time)","759811","Trustworthy,Untrustworthy","","5048","","","","decision","","<div class='trialDiv'><img src='Fruit/Kiwi.png'><br><font class='baseline'><strong>Kiwi Kash</strong><p>Choose number of points to bet.</font><div class='respPicDiv'><img src='img/responseButtonOffersNo0L.png' class='respPic'></div></div>","2","14","Kiwi Kash","Fruit/Kiwi.png","Won","0.65,0.35","14","0.65","231","40","",""
"html-keyboard-response","128","335959","0.0-11.0-2.39","63fd6f98e4a77457f1b36b9a","bdp_rwlrn","Tue Mar 14 2023 21:30:52 GMT-0400 (Eastern Daylight Time)","759811","Trustworthy,Untrustworthy","","null","","","","decisionFB","","<div class='trialDiv'><img src='Fruit/Kiwi.png'><br><font class='baseline'><strong>Kiwi Kash</strong><p>Choose number of points to bet.</font><div class='respPicDiv'><img src='img/responseButtonOffersNo0L2.png' class='respPic'></div></div>","null","14","Kiwi Kash","Fruit/Kiwi.png","Won","0.65,0.35","14","0.65","229","40","",""
"html-keyboard-response","129","336964","0.0-11.0-3.39","63fd6f98e4a77457f1b36b9a","bdp_rwlrn","Tue Mar 14 2023 21:30:52 GMT-0400 (Eastern Daylight Time)","759811","Trustworthy,Untrustworthy","","null","","","","feedback","","<div class='respPicDiv'><img src='img/responseButtonOffersNo0_wht.png' class='respPic'></div><div class='trialDiv'><img src='Fruit/Kiwi.png'><br><font class='baseline'><strong>Kiwi Kash</strong><p><strong><font class='posOutcome'>You WON</font><p>You bet: 2</strong></font> &nbsp; &nbsp; &nbsp; &nbsp; &nbsp; &nbsp;<font class='posOutcome'>you receive: <strong>4</strong></font></div>","null","14","Kiwi Kash","Fruit/Kiwi.png","Won","0.65,0.35","14","0.65","233","40","",""
"html-keyboard-response","130","341608","0.0-11.0-1.40","63fd6f98e4a77457f1b36b9a","bdp_rwlrn","Tue Mar 14 2023 21:30:52 GMT-0400 (Eastern Daylight Time)","759811","Trustworthy,Untrustworthy","","4643","","","","decision","","<div class='trialDiv'><img src='Fruit/watermelon.png'><br><font class='baseline'><strong>Watermelon Win$</strong><p>Choose number of points to bet.</font><div class='respPicDiv'><img src='img/responseButtonOffersNo0L.png' class='respPic'></div></div>","1","14","Watermelon Win$","Fruit/watermelon.png","Won","0.8,0.35","9","0.8","238","41","",""
"html-keyboard-response","131","341869","0.0-11.0-2.40","63fd6f98e4a77457f1b36b9a","bdp_rwlrn","Tue Mar 14 2023 21:30:52 GMT-0400 (Eastern Daylight Time)","759811","Trustworthy,Untrustworthy","","null","","","","decisionFB","","<div class='trialDiv'><img src='Fruit/watermelon.png'><br><font class='baseline'><strong>Watermelon Win$</strong><p>Choose number of points to bet.</font><div class='respPicDiv'><img src='img/responseButtonOffersNo0L1.png' class='respPic'></div></div>","null","14","Watermelon Win$","Fruit/watermelon.png","Won","0.8,0.35","9","0.8","237","41","",""
"html-keyboard-response","132","342875","0.0-11.0-3.40","63fd6f98e4a77457f1b36b9a","bdp_rwlrn","Tue Mar 14 2023 21:30:52 GMT-0400 (Eastern Daylight Time)","759811","Trustworthy,Untrustworthy","","null","","","","feedback","","<div class='respPicDiv'><img src='img/responseButtonOffersNo0_wht.png' class='respPic'></div><div class='trialDiv'><img src='Fruit/watermelon.png'><br><font class='baseline'><strong>Watermelon Win$</strong><p><strong><font class='posOutcome'>You WON</font><p>You bet: 1</strong></font> &nbsp; &nbsp; &nbsp; &nbsp; &nbsp; &nbsp;<font class='posOutcome'>you receive: <strong>2</strong></font></div>","null","14","Watermelon Win$","Fruit/watermelon.png","Won","0.8,0.35","9","0.8","239","41","",""
"html-keyboard-response","133","347294","0.0-11.0-1.41","63fd6f98e4a77457f1b36b9a","bdp_rwlrn","Tue Mar 14 2023 21:30:52 GMT-0400 (Eastern Daylight Time)","759811","Trustworthy,Untrustworthy","","4417","","","","decision","","<div class='trialDiv'><img src='Fruit/orange.png'><br><font class='baseline'><strong>Odds are Orange</strong><p>Choose number of points to bet.</font><div class='respPicDiv'><img src='img/responseButtonOffersNo0L.png' class='respPic'></div></div>","3","14","Odds are Orange","Fruit/orange.png","Won","0.35,0.8","14","0.35","244","42","",""
"html-keyboard-response","134","347547","0.0-11.0-2.41","63fd6f98e4a77457f1b36b9a","bdp_rwlrn","Tue Mar 14 2023 21:30:52 GMT-0400 (Eastern Daylight Time)","759811","Trustworthy,Untrustworthy","","null","","","","decisionFB","","<div class='trialDiv'><img src='Fruit/orange.png'><br><font class='baseline'><strong>Odds are Orange</strong><p>Choose number of points to bet.</font><div class='respPicDiv'><img src='img/responseButtonOffersNo0L3.png' class='respPic'></div></div>","null","14","Odds are Orange","Fruit/orange.png","Won","0.35,0.8","14","0.35","241","42","",""
"html-keyboard-response","135","348556","0.0-11.0-3.41","63fd6f98e4a77457f1b36b9a","bdp_rwlrn","Tue Mar 14 2023 21:30:52 GMT-0400 (Eastern Daylight Time)","759811","Trustworthy,Untrustworthy","","null","","","","feedback","","<div class='respPicDiv'><img src='img/responseButtonOffersNo0_wht.png' class='respPic'></div><div class='trialDiv'><img src='Fruit/orange.png'><br><font class='baseline'><strong>Odds are Orange</strong><p><strong><font class='posOutcome'>You WON</font><p>You bet: 3</strong></font> &nbsp; &nbsp; &nbsp; &nbsp; &nbsp; &nbsp;<font class='posOutcome'>you receive: <strong>6</strong></font></div>","null","14","Odds are Orange","Fruit/orange.png","Won","0.35,0.8","14","0.35","247","42","",""
"html-keyboard-response","136","350077","0.0-11.0-1.42","63fd6f98e4a77457f1b36b9a","bdp_rwlrn","Tue Mar 14 2023 21:30:52 GMT-0400 (Eastern Daylight Time)","759811","Trustworthy,Untrustworthy","","1521","","","","decision","","<div class='trialDiv'><img src='Fruit/watermelon.png'><br><font class='baseline'><strong>Watermelon Win$</strong><p>Choose number of points to bet.</font><div class='respPicDiv'><img src='img/responseButtonOffersNo0L.png' class='respPic'></div></div>","1","15","Watermelon Win$","Fruit/watermelon.png","Lost","0.8,0.35","9","0.8","252","43","",""
"html-keyboard-response","137","350332","0.0-11.0-2.42","63fd6f98e4a77457f1b36b9a","bdp_rwlrn","Tue Mar 14 2023 21:30:52 GMT-0400 (Eastern Daylight Time)","759811","Trustworthy,Untrustworthy","","null","","","","decisionFB","","<div class='trialDiv'><img src='Fruit/watermelon.png'><br><font class='baseline'><strong>Watermelon Win$</strong><p>Choose number of points to bet.</font><div class='respPicDiv'><img src='img/responseButtonOffersNo0L1.png' class='respPic'></div></div>","null","15","Watermelon Win$","Fruit/watermelon.png","Lost","0.8,0.35","9","0.8","251","43","",""
"html-keyboard-response","138","351340","0.0-11.0-3.42","63fd6f98e4a77457f1b36b9a","bdp_rwlrn","Tue Mar 14 2023 21:30:52 GMT-0400 (Eastern Daylight Time)","759811","Trustworthy,Untrustworthy","","null","","","","feedback","","<div class='respPicDiv'><img src='img/responseButtonOffersNo0_wht.png' class='respPic'></div><div class='trialDiv'><img src='Fruit/watermelon.png'><br><font class='baseline'><strong>Watermelon Win$</strong><p><strong><font class='negOutcome'>You LOST</font><p>You bet: 1</strong></font> &nbsp; &nbsp; &nbsp; &nbsp; &nbsp; &nbsp;<font class='negOutcome'>You receive: <strong>0</strong></font></div>","null","15","Watermelon Win$","Fruit/watermelon.png","Lost","0.8,0.35","9","0.8","251","43","",""
"html-keyboard-response","139","354075","0.0-11.0-1.43","63fd6f98e4a77457f1b36b9a","bdp_rwlrn","Tue Mar 14 2023 21:30:52 GMT-0400 (Eastern Daylight Time)","759811","Trustworthy,Untrustworthy","","2734","","","","decision","","<div class='trialDiv'><img src='Fruit/orange.png'><br><font class='baseline'><strong>Odds are Orange</strong><p>Choose number of points to bet.</font><div class='respPicDiv'><img src='img/responseButtonOffersNo0L.png' class='respPic'></div></div>","3","15","Odds are Orange","Fruit/orange.png","Lost","0.35,0.8","14","0.35","256","44","",""
"html-keyboard-response","140","354333","0.0-11.0-2.43","63fd6f98e4a77457f1b36b9a","bdp_rwlrn","Tue Mar 14 2023 21:30:52 GMT-0400 (Eastern Daylight Time)","759811","Trustworthy,Untrustworthy","","null","","","","decisionFB","","<div class='trialDiv'><img src='Fruit/orange.png'><br><font class='baseline'><strong>Odds are Orange</strong><p>Choose number of points to bet.</font><div class='respPicDiv'><img src='img/responseButtonOffersNo0L3.png' class='respPic'></div></div>","null","15","Odds are Orange","Fruit/orange.png","Lost","0.35,0.8","14","0.35","253","44","",""
"html-keyboard-response","141","355342","0.0-11.0-3.43","63fd6f98e4a77457f1b36b9a","bdp_rwlrn","Tue Mar 14 2023 21:30:52 GMT-0400 (Eastern Daylight Time)","759811","Trustworthy,Untrustworthy","","null","","","","feedback","","<div class='respPicDiv'><img src='img/responseButtonOffersNo0_wht.png' class='respPic'></div><div class='trialDiv'><img src='Fruit/orange.png'><br><font class='baseline'><strong>Odds are Orange</strong><p><strong><font class='negOutcome'>You LOST</font><p>You bet: 3</strong></font> &nbsp; &nbsp; &nbsp; &nbsp; &nbsp; &nbsp;<font class='negOutcome'>You receive: <strong>0</strong></font></div>","null","15","Odds are Orange","Fruit/orange.png","Lost","0.35,0.8","14","0.35","253","44","",""
"html-keyboard-response","142","357474","0.0-11.0-1.44","63fd6f98e4a77457f1b36b9a","bdp_rwlrn","Tue Mar 14 2023 21:30:52 GMT-0400 (Eastern Daylight Time)","759811","Trustworthy,Untrustworthy","","2131","","","","decision","","<div class='trialDiv'><img src='Fruit/Kiwi.png'><br><font class='baseline'><strong>Kiwi Kash</strong><p>Choose number of points to bet.</font><div class='respPicDiv'><img src='img/responseButtonOffersNo0L.png' class='respPic'></div></div>","2","15","Kiwi Kash","Fruit/Kiwi.png","Won","0.65,0.35","14","0.65","258","45","",""
"html-keyboard-response","143","357733","0.0-11.0-2.44","63fd6f98e4a77457f1b36b9a","bdp_rwlrn","Tue Mar 14 2023 21:30:52 GMT-0400 (Eastern Daylight Time)","759811","Trustworthy,Untrustworthy","","null","","","","decisionFB","","<div class='trialDiv'><img src='Fruit/Kiwi.png'><br><font class='baseline'><strong>Kiwi Kash</strong><p>Choose number of points to bet.</font><div class='respPicDiv'><img src='img/responseButtonOffersNo0L2.png' class='respPic'></div></div>","null","15","Kiwi Kash","Fruit/Kiwi.png","Won","0.65,0.35","14","0.65","256","45","",""
"html-keyboard-response","144","358742","0.0-11.0-3.44","63fd6f98e4a77457f1b36b9a","bdp_rwlrn","Tue Mar 14 2023 21:30:52 GMT-0400 (Eastern Daylight Time)","759811","Trustworthy,Untrustworthy","","null","","","","feedback","","<div class='respPicDiv'><img src='img/responseButtonOffersNo0_wht.png' class='respPic'></div><div class='trialDiv'><img src='Fruit/Kiwi.png'><br><font class='baseline'><strong>Kiwi Kash</strong><p><strong><font class='posOutcome'>You WON</font><p>You bet: 2</strong></font> &nbsp; &nbsp; &nbsp; &nbsp; &nbsp; &nbsp;<font class='posOutcome'>you receive: <strong>4</strong></font></div>","null","15","Kiwi Kash","Fruit/Kiwi.png","Won","0.65,0.35","14","0.65","260","45","",""
"html-keyboard-response","145","362485","0.0-11.0-1.45","63fd6f98e4a77457f1b36b9a","bdp_rwlrn","Tue Mar 14 2023 21:30:52 GMT-0400 (Eastern Daylight Time)","759811","Trustworthy,Untrustworthy","","3743","","","","decision","","<div class='trialDiv'><img src='Fruit/watermelon.png'><br><font class='baseline'><strong>Watermelon Win$</strong><p>Choose number of points to bet.</font><div class='respPicDiv'><img src='img/responseButtonOffersNo0L.png' class='respPic'></div></div>","3","16","Watermelon Win$","Fruit/watermelon.png","Lost","0.8,0.35","9","0.8","265","46","",""
"html-keyboard-response","146","362739","0.0-11.0-2.45","63fd6f98e4a77457f1b36b9a","bdp_rwlrn","Tue Mar 14 2023 21:30:52 GMT-0400 (Eastern Daylight Time)","759811","Trustworthy,Untrustworthy","","null","","","","decisionFB","","<div class='trialDiv'><img src='Fruit/watermelon.png'><br><font class='baseline'><strong>Watermelon Win$</strong><p>Choose number of points to bet.</font><div class='respPicDiv'><img src='img/responseButtonOffersNo0L3.png' class='respPic'></div></div>","null","16","Watermelon Win$","Fruit/watermelon.png","Lost","0.8,0.35","9","0.8","262","46","",""
"html-keyboard-response","147","363748","0.0-11.0-3.45","63fd6f98e4a77457f1b36b9a","bdp_rwlrn","Tue Mar 14 2023 21:30:52 GMT-0400 (Eastern Daylight Time)","759811","Trustworthy,Untrustworthy","","null","","","","feedback","","<div class='respPicDiv'><img src='img/responseButtonOffersNo0_wht.png' class='respPic'></div><div class='trialDiv'><img src='Fruit/watermelon.png'><br><font class='baseline'><strong>Watermelon Win$</strong><p><strong><font class='negOutcome'>You LOST</font><p>You bet: 3</strong></font> &nbsp; &nbsp; &nbsp; &nbsp; &nbsp; &nbsp;<font class='negOutcome'>You receive: <strong>0</strong></font></div>","null","16","Watermelon Win$","Fruit/watermelon.png","Lost","0.8,0.35","9","0.8","262","46","",""
"html-keyboard-response","148","367269","0.0-11.0-1.46","63fd6f98e4a77457f1b36b9a","bdp_rwlrn","Tue Mar 14 2023 21:30:52 GMT-0400 (Eastern Daylight Time)","759811","Trustworthy,Untrustworthy","","3521","","","","decision","","<div class='trialDiv'><img src='Fruit/orange.png'><br><font class='baseline'><strong>Odds are Orange</strong><p>Choose number of points to bet.</font><div class='respPicDiv'><img src='img/responseButtonOffersNo0L.png' class='respPic'></div></div>","1","16","Odds are Orange","Fruit/orange.png","Won","0.35,0.8","14","0.35","267","47","",""
"html-keyboard-response","149","367521","0.0-11.0-2.46","63fd6f98e4a77457f1b36b9a","bdp_rwlrn","Tue Mar 14 2023 21:30:52 GMT-0400 (Eastern Daylight Time)","759811","Trustworthy,Untrustworthy","","null","","","","decisionFB","","<div class='trialDiv'><img src='Fruit/orange.png'><br><font class='baseline'><strong>Odds are Orange</strong><p>Choose number of points to bet.</font><div class='respPicDiv'><img src='img/responseButtonOffersNo0L1.png' class='respPic'></div></div>","null","16","Odds are Orange","Fruit/orange.png","Won","0.35,0.8","14","0.35","266","47","",""
"html-keyboard-response","150","368533","0.0-11.0-3.46","63fd6f98e4a77457f1b36b9a","bdp_rwlrn","Tue Mar 14 2023 21:30:52 GMT-0400 (Eastern Daylight Time)","759811","Trustworthy,Untrustworthy","","null","","","","feedback","","<div class='respPicDiv'><img src='img/responseButtonOffersNo0_wht.png' class='respPic'></div><div class='trialDiv'><img src='Fruit/orange.png'><br><font class='baseline'><strong>Odds are Orange</strong><p><strong><font class='posOutcome'>You WON</font><p>You bet: 1</strong></font> &nbsp; &nbsp; &nbsp; &nbsp; &nbsp; &nbsp;<font class='posOutcome'>you receive: <strong>2</strong></font></div>","null","16","Odds are Orange","Fruit/orange.png","Won","0.35,0.8","14","0.35","268","47","",""
"html-keyboard-response","151","373005","0.0-11.0-1.47","63fd6f98e4a77457f1b36b9a","bdp_rwlrn","Tue Mar 14 2023 21:30:52 GMT-0400 (Eastern Daylight Time)","759811","Trustworthy,Untrustworthy","","4471","","","","decision","","<div class='trialDiv'><img src='Fruit/Kiwi.png'><br><font class='baseline'><strong>Kiwi Kash</strong><p>Choose number of points to bet.</font><div class='respPicDiv'><img src='img/responseButtonOffersNo0L.png' class='respPic'></div></div>","2","16","Kiwi Kash","Fruit/Kiwi.png","Won","0.65,0.35","14","0.65","273","48","",""
"html-keyboard-response","152","373262","0.0-11.0-2.47","63fd6f98e4a77457f1b36b9a","bdp_rwlrn","Tue Mar 14 2023 21:30:52 GMT-0400 (Eastern Daylight Time)","759811","Trustworthy,Untrustworthy","","null","","","","decisionFB","","<div class='trialDiv'><img src='Fruit/Kiwi.png'><br><font class='baseline'><strong>Kiwi Kash</strong><p>Choose number of points to bet.</font><div class='respPicDiv'><img src='img/responseButtonOffersNo0L2.png' class='respPic'></div></div>","null","16","Kiwi Kash","Fruit/Kiwi.png","Won","0.65,0.35","14","0.65","271","48","",""
"html-keyboard-response","153","374266","0.0-11.0-3.47","63fd6f98e4a77457f1b36b9a","bdp_rwlrn","Tue Mar 14 2023 21:30:52 GMT-0400 (Eastern Daylight Time)","759811","Trustworthy,Untrustworthy","","null","","","","feedback","","<div class='respPicDiv'><img src='img/responseButtonOffersNo0_wht.png' class='respPic'></div><div class='trialDiv'><img src='Fruit/Kiwi.png'><br><font class='baseline'><strong>Kiwi Kash</strong><p><strong><font class='posOutcome'>You WON</font><p>You bet: 2</strong></font> &nbsp; &nbsp; &nbsp; &nbsp; &nbsp; &nbsp;<font class='posOutcome'>you receive: <strong>4</strong></font></div>","null","16","Kiwi Kash","Fruit/Kiwi.png","Won","0.65,0.35","14","0.65","275","48","",""
"html-keyboard-response","154","376053","0.0-11.0-1.48","63fd6f98e4a77457f1b36b9a","bdp_rwlrn","Tue Mar 14 2023 21:30:52 GMT-0400 (Eastern Daylight Time)","759811","Trustworthy,Untrustworthy","","1787","","","","decision","","<div class='trialDiv'><img src='Fruit/watermelon.png'><br><font class='baseline'><strong>Watermelon Win$</strong><p>Choose number of points to bet.</font><div class='respPicDiv'><img src='img/responseButtonOffersNo0L.png' class='respPic'></div></div>","3","17","Watermelon Win$","Fruit/watermelon.png","Won","0.8,0.35","9","0.8","280","49","",""
"html-keyboard-response","155","376310","0.0-11.0-2.48","63fd6f98e4a77457f1b36b9a","bdp_rwlrn","Tue Mar 14 2023 21:30:52 GMT-0400 (Eastern Daylight Time)","759811","Trustworthy,Untrustworthy","","null","","","","decisionFB","","<div class='trialDiv'><img src='Fruit/watermelon.png'><br><font class='baseline'><strong>Watermelon Win$</strong><p>Choose number of points to bet.</font><div class='respPicDiv'><img src='img/responseButtonOffersNo0L3.png' class='respPic'></div></div>","null","17","Watermelon Win$","Fruit/watermelon.png","Won","0.8,0.35","9","0.8","277","49","",""
"html-keyboard-response","156","377318","0.0-11.0-3.48","63fd6f98e4a77457f1b36b9a","bdp_rwlrn","Tue Mar 14 2023 21:30:52 GMT-0400 (Eastern Daylight Time)","759811","Trustworthy,Untrustworthy","","null","","","","feedback","","<div class='respPicDiv'><img src='img/responseButtonOffersNo0_wht.png' class='respPic'></div><div class='trialDiv'><img src='Fruit/watermelon.png'><br><font class='baseline'><strong>Watermelon Win$</strong><p><strong><font class='posOutcome'>You WON</font><p>You bet: 3</strong></font> &nbsp; &nbsp; &nbsp; &nbsp; &nbsp; &nbsp;<font class='posOutcome'>you receive: <strong>6</strong></font></div>","null","17","Watermelon Win$","Fruit/watermelon.png","Won","0.8,0.35","9","0.8","283","49","",""
"html-keyboard-response","157","380737","0.0-11.0-1.49","63fd6f98e4a77457f1b36b9a","bdp_rwlrn","Tue Mar 14 2023 21:30:52 GMT-0400 (Eastern Daylight Time)","759811","Trustworthy,Untrustworthy","","3418","","","","decision","","<div class='trialDiv'><img src='Fruit/Kiwi.png'><br><font class='baseline'><strong>Kiwi Kash</strong><p>Choose number of points to bet.</font><div class='respPicDiv'><img src='img/responseButtonOffersNo0L.png' class='respPic'></div></div>","2","17","Kiwi Kash","Fruit/Kiwi.png","Lost","0.65,0.35","14","0.65","288","50","",""
"html-keyboard-response","158","380998","0.0-11.0-2.49","63fd6f98e4a77457f1b36b9a","bdp_rwlrn","Tue Mar 14 2023 21:30:52 GMT-0400 (Eastern Daylight Time)","759811","Trustworthy,Untrustworthy","","null","","","","decisionFB","","<div class='trialDiv'><img src='Fruit/Kiwi.png'><br><font class='baseline'><strong>Kiwi Kash</strong><p>Choose number of points to bet.</font><div class='respPicDiv'><img src='img/responseButtonOffersNo0L2.png' class='respPic'></div></div>","null","17","Kiwi Kash","Fruit/Kiwi.png","Lost","0.65,0.35","14","0.65","286","50","",""
"html-keyboard-response","159","382002","0.0-11.0-3.49","63fd6f98e4a77457f1b36b9a","bdp_rwlrn","Tue Mar 14 2023 21:30:52 GMT-0400 (Eastern Daylight Time)","759811","Trustworthy,Untrustworthy","","null","","","","feedback","","<div class='respPicDiv'><img src='img/responseButtonOffersNo0_wht.png' class='respPic'></div><div class='trialDiv'><img src='Fruit/Kiwi.png'><br><font class='baseline'><strong>Kiwi Kash</strong><p><strong><font class='negOutcome'>You LOST</font><p>You bet: 2</strong></font> &nbsp; &nbsp; &nbsp; &nbsp; &nbsp; &nbsp;<font class='negOutcome'>You receive: <strong>0</strong></font></div>","null","17","Kiwi Kash","Fruit/Kiwi.png","Lost","0.65,0.35","14","0.65","286","50","",""
"html-keyboard-response","160","384609","0.0-11.0-1.50","63fd6f98e4a77457f1b36b9a","bdp_rwlrn","Tue Mar 14 2023 21:30:52 GMT-0400 (Eastern Daylight Time)","759811","Trustworthy,Untrustworthy","","2606","","","","decision","","<div class='trialDiv'><img src='Fruit/orange.png'><br><font class='baseline'><strong>Odds are Orange</strong><p>Choose number of points to bet.</font><div class='respPicDiv'><img src='img/responseButtonOffersNo0L.png' class='respPic'></div></div>","1","17","Odds are Orange","Fruit/orange.png","Won","0.35,0.8","14","0.35","291","51","",""
"html-keyboard-response","161","384868","0.0-11.0-2.50","63fd6f98e4a77457f1b36b9a","bdp_rwlrn","Tue Mar 14 2023 21:30:52 GMT-0400 (Eastern Daylight Time)","759811","Trustworthy,Untrustworthy","","null","","","","decisionFB","","<div class='trialDiv'><img src='Fruit/orange.png'><br><font class='baseline'><strong>Odds are Orange</strong><p>Choose number of points to bet.</font><div class='respPicDiv'><img src='img/responseButtonOffersNo0L1.png' class='respPic'></div></div>","null","17","Odds are Orange","Fruit/orange.png","Won","0.35,0.8","14","0.35","290","51","",""
"html-keyboard-response","162","385877","0.0-11.0-3.50","63fd6f98e4a77457f1b36b9a","bdp_rwlrn","Tue Mar 14 2023 21:30:52 GMT-0400 (Eastern Daylight Time)","759811","Trustworthy,Untrustworthy","","null","","","","feedback","","<div class='respPicDiv'><img src='img/responseButtonOffersNo0_wht.png' class='respPic'></div><div class='trialDiv'><img src='Fruit/orange.png'><br><font class='baseline'><strong>Odds are Orange</strong><p><strong><font class='posOutcome'>You WON</font><p>You bet: 1</strong></font> &nbsp; &nbsp; &nbsp; &nbsp; &nbsp; &nbsp;<font class='posOutcome'>you receive: <strong>2</strong></font></div>","null","17","Odds are Orange","Fruit/orange.png","Won","0.35,0.8","14","0.35","292","51","",""
