"event","trial","time","trialtype","subject_id","task","startTime","totalTime","labels","trial_type","trial_index","time_elapsed","internal_node_id","view_history","rt","success","stimulus","key_press","ltround","name","fileID","outcome","lottotype","lottoswpt","lottocurrpshare","point_total","round","faceID","face"
"focus","0","0","focusevent","60fd80b85dd6b22f66d16822","bdp_rwlrn","Wed Mar 15 2023 14:51:39 GMT-0500 (Central Daylight Time)","360863","Untrustworthy,Trustworthy","","","","","","","","","","","","","","","","","","","",""
"","","","","60fd80b85dd6b22f66d16822","bdp_rwlrn","Wed Mar 15 2023 14:51:39 GMT-0500 (Central Daylight Time)","360863","Untrustworthy,Trustworthy","pavlovia","0","6","0.0-0.0","","","","","","","","","","","","","","","",""
"","","","","60fd80b85dd6b22f66d16822","bdp_rwlrn","Wed Mar 15 2023 14:51:39 GMT-0500 (Central Daylight Time)","360863","Untrustworthy,Trustworthy","instructions","1","3736","0.0-1.0","[{""page_index"":0,""viewing_time"":3728}]","3729","","","","","","","","","","","","","",""
"fullscreenexit","2","7521","fullscreenexit","60fd80b85dd6b22f66d16822","bdp_rwlrn","Wed Mar 15 2023 14:51:39 GMT-0500 (Central Daylight Time)","360863","Untrustworthy,Trustworthy","","","","","","","","","","","","","","","","","","","",""
"","","","","60fd80b85dd6b22f66d16822","bdp_rwlrn","Wed Mar 15 2023 14:51:39 GMT-0500 (Central Daylight Time)","360863","Untrustworthy,Trustworthy","fullscreen","2","8509","0.0-2.0","","","true","","","","","","","","","","","","",""
"","","","fullscreenfail","60fd80b85dd6b22f66d16822","bdp_rwlrn","Wed Mar 15 2023 14:51:39 GMT-0500 (Central Daylight Time)","360863","Untrustworthy,Trustworthy","image-keyboard-response","3","13509","0.0-3.0-0.0","","4996","","","32","","","","","","","","","","",""
"","","","","60fd80b85dd6b22f66d16822","bdp_rwlrn","Wed Mar 15 2023 14:51:39 GMT-0500 (Central Daylight Time)","360863","Untrustworthy,Trustworthy","instructions","4","44609","0.0-4.0","[{""page_index"":0,""viewing_time"":10111},{""page_index"":1,""viewing_time"":11578},{""page_index"":2,""viewing_time"":3545},{""page_index"":3,""viewing_time"":3103},{""page_index"":4,""viewing_time"":1522},{""page_index"":5,""viewing_time"":984}]","30843","","","","","","","","","","","","","",""
"","","","","60fd80b85dd6b22f66d16822","bdp_rwlrn","Wed Mar 15 2023 14:51:39 GMT-0500 (Central Daylight Time)","360863","Untrustworthy,Trustworthy","html-keyboard-response","5","53665","0.0-5.0","","9055","","<div class='header' style='text-align:left; position: absolute; top: 5%; left: 5%;'><small>Task 3 of 5</small></div><div class='instruxDiv'><p><strong>1) What is the maximum number of points you can choose to bet on a lottery?</strong></p><p>a) 0</p><p>b) 1</p><p>c) 5</p>","C","","","","","","","","","","",""
"","","","","60fd80b85dd6b22f66d16822","bdp_rwlrn","Wed Mar 15 2023 14:51:39 GMT-0500 (Central Daylight Time)","360863","Untrustworthy,Trustworthy","html-keyboard-response","6","54807","0.0-6.0","","1035","","<div class='header' style='text-align:left; position: absolute; top: 5%; left: 5%;'><small>Task 3 of 5</small></div><div class='instruxDiv'><p><strong>1) What is the maximum number of points you can choose to bet on a lottery?</strong></p><p>a) 1</p><p>b) 1</p><p style='color:#00FF00'>c) 5</p><h3 style='color:#00FF00'>Correct!</h3><h3 class='center-content'>The correct response is c).</h3><h3 class='center-content'>The maximum number of points you can choose to bet on a lottery is 5 points.</h3><p><em>Press SPACEBAR to continue</em></p></div>"," ","","","","","","","","","","",""
"","","","","60fd80b85dd6b22f66d16822","bdp_rwlrn","Wed Mar 15 2023 14:51:39 GMT-0500 (Central Daylight Time)","360863","Untrustworthy,Trustworthy","html-keyboard-response","7","60856","0.0-7.0","","5945","","<div class='header' style='text-align:left; position: absolute; top: 5%; left: 5%;'><small>Task 3 of 5</small></div><div class='instruxDiv'><p><strong>2) How many points can you win each round?</strong></p><p>a) 10 points</p><p>b) Double what you bet</p><p>c) Quadruple what you bet</p>","B","","","","","","","","","","",""
"","","","","60fd80b85dd6b22f66d16822","bdp_rwlrn","Wed Mar 15 2023 14:51:39 GMT-0500 (Central Daylight Time)","360863","Untrustworthy,Trustworthy","html-keyboard-response","8","61822","0.0-8.0","","859","","<div class='header' style='text-align:left; position: absolute; top: 5%; left: 5%;'><small>Task 3 of 5</small></div><div class='instruxDiv'><p><strong>2) How many points can you win each round?</strong></p><p>a) 10 points</p><p style='color:#00FF00'>b) Double what you bet</p><p>c) Quadruple what you bet</p><h3 style='color:#00FF00'>Correct!</h3><h3 class='center-content'>The correct response is b).</h3><h3 class='center-content'>You can win double the amount of points you bet.</h3><p><em>Press SPACEBAR to continue</em></p></div>"," ","","","","","","","","","","",""
"","","","","60fd80b85dd6b22f66d16822","bdp_rwlrn","Wed Mar 15 2023 14:51:39 GMT-0500 (Central Daylight Time)","360863","Untrustworthy,Trustworthy","html-keyboard-response","9","66934","0.0-9.0","","null","","<div class='header' style='text-align:left; position: absolute; top: 5%; left: 5%;'><small>Task 3 of 5</small></div><div class='instruxDiv'><p>Thank you for completing the quiz<p>These are the actual lotteries you will be playing in the next block:<p><div class='tc' align='center'><img class='introPic' src='Fruit/melon.png'><br><strong>Melon Millions</strong></div><div class='bl' align='center'><img class='introPic' src='Fruit/mango.png'><br><strong>Mega Mangos</strong></div><div class='br' align='center'><img class='introPic' src='Fruit/mixed-berries2.png'><br><strong>Berry Bla$t</strong></div></div><p>Across <strong>66 rounds</strong> you will play each lottery <strong>22 times</strong> (in random order).<p style='align:center; color:white'><font <em>Press SPACEBAR to continue</em></p>","null","","","","","","","","","","",""
"","","","","60fd80b85dd6b22f66d16822","bdp_rwlrn","Wed Mar 15 2023 14:51:39 GMT-0500 (Central Daylight Time)","360863","Untrustworthy,Trustworthy","instructions","10","70773","0.0-10.0","[{""page_index"":0,""viewing_time"":2394},{""page_index"":1,""viewing_time"":1443}]","3837","","","","","","","","","","","","","",""
"","","","decision","60fd80b85dd6b22f66d16822","bdp_rwlrn","Wed Mar 15 2023 14:51:39 GMT-0500 (Central Daylight Time)","360863","Untrustworthy,Trustworthy","html-keyboard-response","11","71835","0.0-11.0-1.0","","955","","<div class='trialDiv'><img src='Fruit/melon.png'><br><font class='baseline'><strong>Melon Millions</strong><p>Choose number of points to bet.</font><div class='respPicDiv'><img src='img/responseButtonOffersNo0L.png' class='respPic'></div></div>","3","1","Melon Millions","Fruit/melon.png","Lost","0.2,0.65","11","0.2","5","1","",""
"","","","decisionFB","60fd80b85dd6b22f66d16822","bdp_rwlrn","Wed Mar 15 2023 14:51:39 GMT-0500 (Central Daylight Time)","360863","Untrustworthy,Trustworthy","html-keyboard-response","12","72088","0.0-11.0-2.0","","null","","<div class='trialDiv'><img src='Fruit/melon.png'><br><font class='baseline'><strong>Melon Millions</strong><p>Choose number of points to bet.</font><div class='respPicDiv'><img src='img/responseButtonOffersNo0L3.png' class='respPic'></div></div>","null","1","Melon Millions","Fruit/melon.png","Lost","0.2,0.65","11","0.2","2","1","",""
"","","","feedback","60fd80b85dd6b22f66d16822","bdp_rwlrn","Wed Mar 15 2023 14:51:39 GMT-0500 (Central Daylight Time)","360863","Untrustworthy,Trustworthy","html-keyboard-response","13","73094","0.0-11.0-3.0","","null","","<div class='respPicDiv'><img src='img/responseButtonOffersNo0_wht.png' class='respPic'></div><div class='trialDiv'><img src='Fruit/melon.png'><br><font class='baseline'><strong>Melon Millions</strong><p><strong><font class='negOutcome'>You LOST</font><p>You bet: 3</strong></font> &nbsp; &nbsp; &nbsp; &nbsp; &nbsp; &nbsp;<font class='negOutcome'>You receive: <strong>0</strong></font></div>","null","1","Melon Millions","Fruit/melon.png","Lost","0.2,0.65","11","0.2","2","1","",""
"","","","decision","60fd80b85dd6b22f66d16822","bdp_rwlrn","Wed Mar 15 2023 14:51:39 GMT-0500 (Central Daylight Time)","360863","Untrustworthy,Trustworthy","html-keyboard-response","14","73434","0.0-11.0-1.1","","339","","<div class='trialDiv'><img src='Fruit/mango.png'><br><font class='baseline'><strong>Mega Mangos</strong><p>Choose number of points to bet.</font><div class='respPicDiv'><img src='img/responseButtonOffersNo0L.png' class='respPic'></div></div>","2","1","Mega Mangos","Fruit/mango.png","Won","0.8,0.35","9","0.8","7","2","",""
"","","","decisionFB","60fd80b85dd6b22f66d16822","bdp_rwlrn","Wed Mar 15 2023 14:51:39 GMT-0500 (Central Daylight Time)","360863","Untrustworthy,Trustworthy","html-keyboard-response","15","73691","0.0-11.0-2.1","","null","","<div class='trialDiv'><img src='Fruit/mango.png'><br><font class='baseline'><strong>Mega Mangos</strong><p>Choose number of points to bet.</font><div class='respPicDiv'><img src='img/responseButtonOffersNo0L2.png' class='respPic'></div></div>","null","1","Mega Mangos","Fruit/mango.png","Won","0.8,0.35","9","0.8","5","2","",""
"","","","feedback","60fd80b85dd6b22f66d16822","bdp_rwlrn","Wed Mar 15 2023 14:51:39 GMT-0500 (Central Daylight Time)","360863","Untrustworthy,Trustworthy","html-keyboard-response","16","74693","0.0-11.0-3.1","","null","","<div class='respPicDiv'><img src='img/responseButtonOffersNo0_wht.png' class='respPic'></div><div class='trialDiv'><img src='Fruit/mango.png'><br><font class='baseline'><strong>Mega Mangos</strong><p><strong><font class='posOutcome'>You WON</font><p>You bet: 2</strong></font> &nbsp; &nbsp; &nbsp; &nbsp; &nbsp; &nbsp;<font class='posOutcome'>you receive: <strong>4</strong></font></div>","null","1","Mega Mangos","Fruit/mango.png","Won","0.8,0.35","9","0.8","9","2","",""
"","","","decision","60fd80b85dd6b22f66d16822","bdp_rwlrn","Wed Mar 15 2023 14:51:39 GMT-0500 (Central Daylight Time)","360863","Untrustworthy,Trustworthy","html-keyboard-response","17","75036","0.0-11.0-1.2","","341","","<div class='trialDiv'><img src='Fruit/mixed-berries2.png'><br><font class='baseline'><strong>Berry Bla$t</strong><p>Choose number of points to bet.</font><div class='respPicDiv'><img src='img/responseButtonOffersNo0L.png' class='respPic'></div></div>","5","1","Berry Bla$t","Fruit/mixed-berries2.png","Lost","0.2,0.8","11","0.2","14","3","",""
"","","","decisionFB","60fd80b85dd6b22f66d16822","bdp_rwlrn","Wed Mar 15 2023 14:51:39 GMT-0500 (Central Daylight Time)","360863","Untrustworthy,Trustworthy","html-keyboard-response","18","75292","0.0-11.0-2.2","","null","","<div class='trialDiv'><img src='Fruit/mixed-berries2.png'><br><font class='baseline'><strong>Berry Bla$t</strong><p>Choose number of points to bet.</font><div class='respPicDiv'><img src='img/responseButtonOffersNo0L5.png' class='respPic'></div></div>","null","1","Berry Bla$t","Fruit/mixed-berries2.png","Lost","0.2,0.8","11","0.2","9","3","",""
"","","","feedback","60fd80b85dd6b22f66d16822","bdp_rwlrn","Wed Mar 15 2023 14:51:39 GMT-0500 (Central Daylight Time)","360863","Untrustworthy,Trustworthy","html-keyboard-response","19","76293","0.0-11.0-3.2","","null","","<div class='respPicDiv'><img src='img/responseButtonOffersNo0_wht.png' class='respPic'></div><div class='trialDiv'><img src='Fruit/mixed-berries2.png'><br><font class='baseline'><strong>Berry Bla$t</strong><p><strong><font class='negOutcome'>You LOST</font><p>You bet: 5</strong></font> &nbsp; &nbsp; &nbsp; &nbsp; &nbsp; &nbsp;<font class='negOutcome'>You receive: <strong>0</strong></font></div>","null","1","Berry Bla$t","Fruit/mixed-berries2.png","Lost","0.2,0.8","11","0.2","9","3","",""
"","","","decision","60fd80b85dd6b22f66d16822","bdp_rwlrn","Wed Mar 15 2023 14:51:39 GMT-0500 (Central Daylight Time)","360863","Untrustworthy,Trustworthy","html-keyboard-response","20","76615","0.0-11.0-1.3","","319","","<div class='trialDiv'><img src='Fruit/mango.png'><br><font class='baseline'><strong>Mega Mangos</strong><p>Choose number of points to bet.</font><div class='respPicDiv'><img src='img/responseButtonOffersNo0L.png' class='respPic'></div></div>","4","2","Mega Mangos","Fruit/mango.png","Won","0.8,0.35","9","0.8","14","4","",""
"","","","decisionFB","60fd80b85dd6b22f66d16822","bdp_rwlrn","Wed Mar 15 2023 14:51:39 GMT-0500 (Central Daylight Time)","360863","Untrustworthy,Trustworthy","html-keyboard-response","21","76872","0.0-11.0-2.3","","null","","<div class='trialDiv'><img src='Fruit/mango.png'><br><font class='baseline'><strong>Mega Mangos</strong><p>Choose number of points to bet.</font><div class='respPicDiv'><img src='img/responseButtonOffersNo0L4.png' class='respPic'></div></div>","null","2","Mega Mangos","Fruit/mango.png","Won","0.8,0.35","9","0.8","10","4","",""
"","","","feedback","60fd80b85dd6b22f66d16822","bdp_rwlrn","Wed Mar 15 2023 14:51:39 GMT-0500 (Central Daylight Time)","360863","Untrustworthy,Trustworthy","html-keyboard-response","22","77878","0.0-11.0-3.3","","null","","<div class='respPicDiv'><img src='img/responseButtonOffersNo0_wht.png' class='respPic'></div><div class='trialDiv'><img src='Fruit/mango.png'><br><font class='baseline'><strong>Mega Mangos</strong><p><strong><font class='posOutcome'>You WON</font><p>You bet: 4</strong></font> &nbsp; &nbsp; &nbsp; &nbsp; &nbsp; &nbsp;<font class='posOutcome'>you receive: <strong>8</strong></font></div>","null","2","Mega Mangos","Fruit/mango.png","Won","0.8,0.35","9","0.8","18","4","",""
"","","","decision","60fd80b85dd6b22f66d16822","bdp_rwlrn","Wed Mar 15 2023 14:51:39 GMT-0500 (Central Daylight Time)","360863","Untrustworthy,Trustworthy","html-keyboard-response","23","78240","0.0-11.0-1.4","","362","","<div class='trialDiv'><img src='Fruit/melon.png'><br><font class='baseline'><strong>Melon Millions</strong><p>Choose number of points to bet.</font><div class='respPicDiv'><img src='img/responseButtonOffersNo0L.png' class='respPic'></div></div>","1","2","Melon Millions","Fruit/melon.png","Won","0.2,0.65","11","0.2","23","5","",""
"","","","decisionFB","60fd80b85dd6b22f66d16822","bdp_rwlrn","Wed Mar 15 2023 14:51:39 GMT-0500 (Central Daylight Time)","360863","Untrustworthy,Trustworthy","html-keyboard-response","24","78492","0.0-11.0-2.4","","null","","<div class='trialDiv'><img src='Fruit/melon.png'><br><font class='baseline'><strong>Melon Millions</strong><p>Choose number of points to bet.</font><div class='respPicDiv'><img src='img/responseButtonOffersNo0L1.png' class='respPic'></div></div>","null","2","Melon Millions","Fruit/melon.png","Won","0.2,0.65","11","0.2","22","5","",""
"","","","feedback","60fd80b85dd6b22f66d16822","bdp_rwlrn","Wed Mar 15 2023 14:51:39 GMT-0500 (Central Daylight Time)","360863","Untrustworthy,Trustworthy","html-keyboard-response","25","79498","0.0-11.0-3.4","","null","","<div class='respPicDiv'><img src='img/responseButtonOffersNo0_wht.png' class='respPic'></div><div class='trialDiv'><img src='Fruit/melon.png'><br><font class='baseline'><strong>Melon Millions</strong><p><strong><font class='posOutcome'>You WON</font><p>You bet: 1</strong></font> &nbsp; &nbsp; &nbsp; &nbsp; &nbsp; &nbsp;<font class='posOutcome'>you receive: <strong>2</strong></font></div>","null","2","Melon Millions","Fruit/melon.png","Won","0.2,0.65","11","0.2","24","5","",""
"","","","decision","60fd80b85dd6b22f66d16822","bdp_rwlrn","Wed Mar 15 2023 14:51:39 GMT-0500 (Central Daylight Time)","360863","Untrustworthy,Trustworthy","html-keyboard-response","26","80047","0.0-11.0-1.5","","547","","<div class='trialDiv'><img src='Fruit/mixed-berries2.png'><br><font class='baseline'><strong>Berry Bla$t</strong><p>Choose number of points to bet.</font><div class='respPicDiv'><img src='img/responseButtonOffersNo0L.png' class='respPic'></div></div>","3","2","Berry Bla$t","Fruit/mixed-berries2.png","Won","0.2,0.8","11","0.2","29","6","",""
"","","","decisionFB","60fd80b85dd6b22f66d16822","bdp_rwlrn","Wed Mar 15 2023 14:51:39 GMT-0500 (Central Daylight Time)","360863","Untrustworthy,Trustworthy","html-keyboard-response","27","80303","0.0-11.0-2.5","","null","","<div class='trialDiv'><img src='Fruit/mixed-berries2.png'><br><font class='baseline'><strong>Berry Bla$t</strong><p>Choose number of points to bet.</font><div class='respPicDiv'><img src='img/responseButtonOffersNo0L3.png' class='respPic'></div></div>","null","2","Berry Bla$t","Fruit/mixed-berries2.png","Won","0.2,0.8","11","0.2","26","6","",""
"","","","feedback","60fd80b85dd6b22f66d16822","bdp_rwlrn","Wed Mar 15 2023 14:51:39 GMT-0500 (Central Daylight Time)","360863","Untrustworthy,Trustworthy","html-keyboard-response","28","81307","0.0-11.0-3.5","","null","","<div class='respPicDiv'><img src='img/responseButtonOffersNo0_wht.png' class='respPic'></div><div class='trialDiv'><img src='Fruit/mixed-berries2.png'><br><font class='baseline'><strong>Berry Bla$t</strong><p><strong><font class='posOutcome'>You WON</font><p>You bet: 3</strong></font> &nbsp; &nbsp; &nbsp; &nbsp; &nbsp; &nbsp;<font class='posOutcome'>you receive: <strong>6</strong></font></div>","null","2","Berry Bla$t","Fruit/mixed-berries2.png","Won","0.2,0.8","11","0.2","32","6","",""
"","","","decision","60fd80b85dd6b22f66d16822","bdp_rwlrn","Wed Mar 15 2023 14:51:39 GMT-0500 (Central Daylight Time)","360863","Untrustworthy,Trustworthy","html-keyboard-response","29","82267","0.0-11.0-1.6","","958","","<div class='trialDiv'><img src='Fruit/melon.png'><br><font class='baseline'><strong>Melon Millions</strong><p>Choose number of points to bet.</font><div class='respPicDiv'><img src='img/responseButtonOffersNo0L.png' class='respPic'></div></div>","5","3","Melon Millions","Fruit/melon.png","Won","0.2,0.65","11","0.2","37","7","",""
"","","","decisionFB","60fd80b85dd6b22f66d16822","bdp_rwlrn","Wed Mar 15 2023 14:51:39 GMT-0500 (Central Daylight Time)","360863","Untrustworthy,Trustworthy","html-keyboard-response","30","82524","0.0-11.0-2.6","","null","","<div class='trialDiv'><img src='Fruit/melon.png'><br><font class='baseline'><strong>Melon Millions</strong><p>Choose number of points to bet.</font><div class='respPicDiv'><img src='img/responseButtonOffersNo0L5.png' class='respPic'></div></div>","null","3","Melon Millions","Fruit/melon.png","Won","0.2,0.65","11","0.2","32","7","",""
"","","","feedback","60fd80b85dd6b22f66d16822","bdp_rwlrn","Wed Mar 15 2023 14:51:39 GMT-0500 (Central Daylight Time)","360863","Untrustworthy,Trustworthy","html-keyboard-response","31","83529","0.0-11.0-3.6","","null","","<div class='respPicDiv'><img src='img/responseButtonOffersNo0_wht.png' class='respPic'></div><div class='trialDiv'><img src='Fruit/melon.png'><br><font class='baseline'><strong>Melon Millions</strong><p><strong><font class='posOutcome'>You WON</font><p>You bet: 5</strong></font> &nbsp; &nbsp; &nbsp; &nbsp; &nbsp; &nbsp;<font class='posOutcome'>you receive: <strong>10</strong></font></div>","null","3","Melon Millions","Fruit/melon.png","Won","0.2,0.65","11","0.2","42","7","",""
"","","","decision","60fd80b85dd6b22f66d16822","bdp_rwlrn","Wed Mar 15 2023 14:51:39 GMT-0500 (Central Daylight Time)","360863","Untrustworthy,Trustworthy","html-keyboard-response","32","86163","0.0-11.0-1.7","","2634","","<div class='trialDiv'><img src='Fruit/mixed-berries2.png'><br><font class='baseline'><strong>Berry Bla$t</strong><p>Choose number of points to bet.</font><div class='respPicDiv'><img src='img/responseButtonOffersNo0L.png' class='respPic'></div></div>","3","3","Berry Bla$t","Fruit/mixed-berries2.png","Lost","0.2,0.8","11","0.2","47","8","",""
"","","","decisionFB","60fd80b85dd6b22f66d16822","bdp_rwlrn","Wed Mar 15 2023 14:51:39 GMT-0500 (Central Daylight Time)","360863","Untrustworthy,Trustworthy","html-keyboard-response","33","86421","0.0-11.0-2.7","","null","","<div class='trialDiv'><img src='Fruit/mixed-berries2.png'><br><font class='baseline'><strong>Berry Bla$t</strong><p>Choose number of points to bet.</font><div class='respPicDiv'><img src='img/responseButtonOffersNo0L3.png' class='respPic'></div></div>","null","3","Berry Bla$t","Fruit/mixed-berries2.png","Lost","0.2,0.8","11","0.2","44","8","",""
"","","","feedback","60fd80b85dd6b22f66d16822","bdp_rwlrn","Wed Mar 15 2023 14:51:39 GMT-0500 (Central Daylight Time)","360863","Untrustworthy,Trustworthy","html-keyboard-response","34","87426","0.0-11.0-3.7","","null","","<div class='respPicDiv'><img src='img/responseButtonOffersNo0_wht.png' class='respPic'></div><div class='trialDiv'><img src='Fruit/mixed-berries2.png'><br><font class='baseline'><strong>Berry Bla$t</strong><p><strong><font class='negOutcome'>You LOST</font><p>You bet: 3</strong></font> &nbsp; &nbsp; &nbsp; &nbsp; &nbsp; &nbsp;<font class='negOutcome'>You receive: <strong>0</strong></font></div>","null","3","Berry Bla$t","Fruit/mixed-berries2.png","Lost","0.2,0.8","11","0.2","44","8","",""
"","","","decision","60fd80b85dd6b22f66d16822","bdp_rwlrn","Wed Mar 15 2023 14:51:39 GMT-0500 (Central Daylight Time)","360863","Untrustworthy,Trustworthy","html-keyboard-response","35","87883","0.0-11.0-1.8","","456","","<div class='trialDiv'><img src='Fruit/mango.png'><br><font class='baseline'><strong>Mega Mangos</strong><p>Choose number of points to bet.</font><div class='respPicDiv'><img src='img/responseButtonOffersNo0L.png' class='respPic'></div></div>","5","3","Mega Mangos","Fruit/mango.png","Won","0.8,0.35","9","0.8","49","9","",""
"","","","decisionFB","60fd80b85dd6b22f66d16822","bdp_rwlrn","Wed Mar 15 2023 14:51:39 GMT-0500 (Central Daylight Time)","360863","Untrustworthy,Trustworthy","html-keyboard-response","36","88139","0.0-11.0-2.8","","null","","<div class='trialDiv'><img src='Fruit/mango.png'><br><font class='baseline'><strong>Mega Mangos</strong><p>Choose number of points to bet.</font><div class='respPicDiv'><img src='img/responseButtonOffersNo0L5.png' class='respPic'></div></div>","null","3","Mega Mangos","Fruit/mango.png","Won","0.8,0.35","9","0.8","44","9","",""
"","","","feedback","60fd80b85dd6b22f66d16822","bdp_rwlrn","Wed Mar 15 2023 14:51:39 GMT-0500 (Central Daylight Time)","360863","Untrustworthy,Trustworthy","html-keyboard-response","37","89145","0.0-11.0-3.8","","null","","<div class='respPicDiv'><img src='img/responseButtonOffersNo0_wht.png' class='respPic'></div><div class='trialDiv'><img src='Fruit/mango.png'><br><font class='baseline'><strong>Mega Mangos</strong><p><strong><font class='posOutcome'>You WON</font><p>You bet: 5</strong></font> &nbsp; &nbsp; &nbsp; &nbsp; &nbsp; &nbsp;<font class='posOutcome'>you receive: <strong>10</strong></font></div>","null","3","Mega Mangos","Fruit/mango.png","Won","0.8,0.35","9","0.8","54","9","",""
"","","","decision","60fd80b85dd6b22f66d16822","bdp_rwlrn","Wed Mar 15 2023 14:51:39 GMT-0500 (Central Daylight Time)","360863","Untrustworthy,Trustworthy","html-keyboard-response","38","91509","0.0-11.0-1.9","","2364","","<div class='trialDiv'><img src='Fruit/mixed-berries2.png'><br><font class='baseline'><strong>Berry Bla$t</strong><p>Choose number of points to bet.</font><div class='respPicDiv'><img src='img/responseButtonOffersNo0L.png' class='respPic'></div></div>","2","4","Berry Bla$t","Fruit/mixed-berries2.png","Lost","0.2,0.8","11","0.2","59","10","",""
"","","","decisionFB","60fd80b85dd6b22f66d16822","bdp_rwlrn","Wed Mar 15 2023 14:51:39 GMT-0500 (Central Daylight Time)","360863","Untrustworthy,Trustworthy","html-keyboard-response","39","91763","0.0-11.0-2.9","","null","","<div class='trialDiv'><img src='Fruit/mixed-berries2.png'><br><font class='baseline'><strong>Berry Bla$t</strong><p>Choose number of points to bet.</font><div class='respPicDiv'><img src='img/responseButtonOffersNo0L2.png' class='respPic'></div></div>","null","4","Berry Bla$t","Fruit/mixed-berries2.png","Lost","0.2,0.8","11","0.2","57","10","",""
"","","","feedback","60fd80b85dd6b22f66d16822","bdp_rwlrn","Wed Mar 15 2023 14:51:39 GMT-0500 (Central Daylight Time)","360863","Untrustworthy,Trustworthy","html-keyboard-response","40","92770","0.0-11.0-3.9","","null","","<div class='respPicDiv'><img src='img/responseButtonOffersNo0_wht.png' class='respPic'></div><div class='trialDiv'><img src='Fruit/mixed-berries2.png'><br><font class='baseline'><strong>Berry Bla$t</strong><p><strong><font class='negOutcome'>You LOST</font><p>You bet: 2</strong></font> &nbsp; &nbsp; &nbsp; &nbsp; &nbsp; &nbsp;<font class='negOutcome'>You receive: <strong>0</strong></font></div>","null","4","Berry Bla$t","Fruit/mixed-berries2.png","Lost","0.2,0.8","11","0.2","57","10","",""
"","","","decision","60fd80b85dd6b22f66d16822","bdp_rwlrn","Wed Mar 15 2023 14:51:39 GMT-0500 (Central Daylight Time)","360863","Untrustworthy,Trustworthy","html-keyboard-response","41","93563","0.0-11.0-1.10","","792","","<div class='trialDiv'><img src='Fruit/melon.png'><br><font class='baseline'><strong>Melon Millions</strong><p>Choose number of points to bet.</font><div class='respPicDiv'><img src='img/responseButtonOffersNo0L.png' class='respPic'></div></div>","4","4","Melon Millions","Fruit/melon.png","Lost","0.2,0.65","11","0.2","62","11","",""
"","","","decisionFB","60fd80b85dd6b22f66d16822","bdp_rwlrn","Wed Mar 15 2023 14:51:39 GMT-0500 (Central Daylight Time)","360863","Untrustworthy,Trustworthy","html-keyboard-response","42","93820","0.0-11.0-2.10","","null","","<div class='trialDiv'><img src='Fruit/melon.png'><br><font class='baseline'><strong>Melon Millions</strong><p>Choose number of points to bet.</font><div class='respPicDiv'><img src='img/responseButtonOffersNo0L4.png' class='respPic'></div></div>","null","4","Melon Millions","Fruit/melon.png","Lost","0.2,0.65","11","0.2","58","11","",""
"","","","feedback","60fd80b85dd6b22f66d16822","bdp_rwlrn","Wed Mar 15 2023 14:51:39 GMT-0500 (Central Daylight Time)","360863","Untrustworthy,Trustworthy","html-keyboard-response","43","94825","0.0-11.0-3.10","","null","","<div class='respPicDiv'><img src='img/responseButtonOffersNo0_wht.png' class='respPic'></div><div class='trialDiv'><img src='Fruit/melon.png'><br><font class='baseline'><strong>Melon Millions</strong><p><strong><font class='negOutcome'>You LOST</font><p>You bet: 4</strong></font> &nbsp; &nbsp; &nbsp; &nbsp; &nbsp; &nbsp;<font class='negOutcome'>You receive: <strong>0</strong></font></div>","null","4","Melon Millions","Fruit/melon.png","Lost","0.2,0.65","11","0.2","58","11","",""
"","","","decision","60fd80b85dd6b22f66d16822","bdp_rwlrn","Wed Mar 15 2023 14:51:39 GMT-0500 (Central Daylight Time)","360863","Untrustworthy,Trustworthy","html-keyboard-response","44","95185","0.0-11.0-1.11","","358","","<div class='trialDiv'><img src='Fruit/mango.png'><br><font class='baseline'><strong>Mega Mangos</strong><p>Choose number of points to bet.</font><div class='respPicDiv'><img src='img/responseButtonOffersNo0L.png' class='respPic'></div></div>","2","4","Mega Mangos","Fruit/mango.png","Won","0.8,0.35","9","0.8","63","12","",""
"","","","decisionFB","60fd80b85dd6b22f66d16822","bdp_rwlrn","Wed Mar 15 2023 14:51:39 GMT-0500 (Central Daylight Time)","360863","Untrustworthy,Trustworthy","html-keyboard-response","45","95441","0.0-11.0-2.11","","null","","<div class='trialDiv'><img src='Fruit/mango.png'><br><font class='baseline'><strong>Mega Mangos</strong><p>Choose number of points to bet.</font><div class='respPicDiv'><img src='img/responseButtonOffersNo0L2.png' class='respPic'></div></div>","null","4","Mega Mangos","Fruit/mango.png","Won","0.8,0.35","9","0.8","61","12","",""
"","","","feedback","60fd80b85dd6b22f66d16822","bdp_rwlrn","Wed Mar 15 2023 14:51:39 GMT-0500 (Central Daylight Time)","360863","Untrustworthy,Trustworthy","html-keyboard-response","46","96444","0.0-11.0-3.11","","null","","<div class='respPicDiv'><img src='img/responseButtonOffersNo0_wht.png' class='respPic'></div><div class='trialDiv'><img src='Fruit/mango.png'><br><font class='baseline'><strong>Mega Mangos</strong><p><strong><font class='posOutcome'>You WON</font><p>You bet: 2</strong></font> &nbsp; &nbsp; &nbsp; &nbsp; &nbsp; &nbsp;<font class='posOutcome'>you receive: <strong>4</strong></font></div>","null","4","Mega Mangos","Fruit/mango.png","Won","0.8,0.35","9","0.8","65","12","",""
"","","","decision","60fd80b85dd6b22f66d16822","bdp_rwlrn","Wed Mar 15 2023 14:51:39 GMT-0500 (Central Daylight Time)","360863","Untrustworthy,Trustworthy","html-keyboard-response","47","97821","0.0-11.0-1.12","","1376","","<div class='trialDiv'><img src='Fruit/mixed-berries2.png'><br><font class='baseline'><strong>Berry Bla$t</strong><p>Choose number of points to bet.</font><div class='respPicDiv'><img src='img/responseButtonOffersNo0L.png' class='respPic'></div></div>","5","5","Berry Bla$t","Fruit/mixed-berries2.png","Lost","0.2,0.8","11","0.2","70","13","",""
"","","","decisionFB","60fd80b85dd6b22f66d16822","bdp_rwlrn","Wed Mar 15 2023 14:51:39 GMT-0500 (Central Daylight Time)","360863","Untrustworthy,Trustworthy","html-keyboard-response","48","98077","0.0-11.0-2.12","","null","","<div class='trialDiv'><img src='Fruit/mixed-berries2.png'><br><font class='baseline'><strong>Berry Bla$t</strong><p>Choose number of points to bet.</font><div class='respPicDiv'><img src='img/responseButtonOffersNo0L5.png' class='respPic'></div></div>","null","5","Berry Bla$t","Fruit/mixed-berries2.png","Lost","0.2,0.8","11","0.2","65","13","",""
"","","","feedback","60fd80b85dd6b22f66d16822","bdp_rwlrn","Wed Mar 15 2023 14:51:39 GMT-0500 (Central Daylight Time)","360863","Untrustworthy,Trustworthy","html-keyboard-response","49","99083","0.0-11.0-3.12","","null","","<div class='respPicDiv'><img src='img/responseButtonOffersNo0_wht.png' class='respPic'></div><div class='trialDiv'><img src='Fruit/mixed-berries2.png'><br><font class='baseline'><strong>Berry Bla$t</strong><p><strong><font class='negOutcome'>You LOST</font><p>You bet: 5</strong></font> &nbsp; &nbsp; &nbsp; &nbsp; &nbsp; &nbsp;<font class='negOutcome'>You receive: <strong>0</strong></font></div>","null","5","Berry Bla$t","Fruit/mixed-berries2.png","Lost","0.2,0.8","11","0.2","65","13","",""
"","","","decision","60fd80b85dd6b22f66d16822","bdp_rwlrn","Wed Mar 15 2023 14:51:39 GMT-0500 (Central Daylight Time)","360863","Untrustworthy,Trustworthy","html-keyboard-response","50","99400","0.0-11.0-1.13","","316","","<div class='trialDiv'><img src='Fruit/mango.png'><br><font class='baseline'><strong>Mega Mangos</strong><p>Choose number of points to bet.</font><div class='respPicDiv'><img src='img/responseButtonOffersNo0L.png' class='respPic'></div></div>","4","5","Mega Mangos","Fruit/mango.png","Won","0.8,0.35","9","0.8","70","14","",""
"","","","decisionFB","60fd80b85dd6b22f66d16822","bdp_rwlrn","Wed Mar 15 2023 14:51:39 GMT-0500 (Central Daylight Time)","360863","Untrustworthy,Trustworthy","html-keyboard-response","51","99656","0.0-11.0-2.13","","null","","<div class='trialDiv'><img src='Fruit/mango.png'><br><font class='baseline'><strong>Mega Mangos</strong><p>Choose number of points to bet.</font><div class='respPicDiv'><img src='img/responseButtonOffersNo0L4.png' class='respPic'></div></div>","null","5","Mega Mangos","Fruit/mango.png","Won","0.8,0.35","9","0.8","66","14","",""
"","","","feedback","60fd80b85dd6b22f66d16822","bdp_rwlrn","Wed Mar 15 2023 14:51:39 GMT-0500 (Central Daylight Time)","360863","Untrustworthy,Trustworthy","html-keyboard-response","52","100662","0.0-11.0-3.13","","null","","<div class='respPicDiv'><img src='img/responseButtonOffersNo0_wht.png' class='respPic'></div><div class='trialDiv'><img src='Fruit/mango.png'><br><font class='baseline'><strong>Mega Mangos</strong><p><strong><font class='posOutcome'>You WON</font><p>You bet: 4</strong></font> &nbsp; &nbsp; &nbsp; &nbsp; &nbsp; &nbsp;<font class='posOutcome'>you receive: <strong>8</strong></font></div>","null","5","Mega Mangos","Fruit/mango.png","Won","0.8,0.35","9","0.8","74","14","",""
"","","","decision","60fd80b85dd6b22f66d16822","bdp_rwlrn","Wed Mar 15 2023 14:51:39 GMT-0500 (Central Daylight Time)","360863","Untrustworthy,Trustworthy","html-keyboard-response","53","101012","0.0-11.0-1.14","","349","","<div class='trialDiv'><img src='Fruit/melon.png'><br><font class='baseline'><strong>Melon Millions</strong><p>Choose number of points to bet.</font><div class='respPicDiv'><img src='img/responseButtonOffersNo0L.png' class='respPic'></div></div>","1","5","Melon Millions","Fruit/melon.png","Lost","0.2,0.65","11","0.2","79","15","",""
"","","","decisionFB","60fd80b85dd6b22f66d16822","bdp_rwlrn","Wed Mar 15 2023 14:51:39 GMT-0500 (Central Daylight Time)","360863","Untrustworthy,Trustworthy","html-keyboard-response","54","101263","0.0-11.0-2.14","","null","","<div class='trialDiv'><img src='Fruit/melon.png'><br><font class='baseline'><strong>Melon Millions</strong><p>Choose number of points to bet.</font><div class='respPicDiv'><img src='img/responseButtonOffersNo0L1.png' class='respPic'></div></div>","null","5","Melon Millions","Fruit/melon.png","Lost","0.2,0.65","11","0.2","78","15","",""
"","","","feedback","60fd80b85dd6b22f66d16822","bdp_rwlrn","Wed Mar 15 2023 14:51:39 GMT-0500 (Central Daylight Time)","360863","Untrustworthy,Trustworthy","html-keyboard-response","55","102268","0.0-11.0-3.14","","null","","<div class='respPicDiv'><img src='img/responseButtonOffersNo0_wht.png' class='respPic'></div><div class='trialDiv'><img src='Fruit/melon.png'><br><font class='baseline'><strong>Melon Millions</strong><p><strong><font class='negOutcome'>You LOST</font><p>You bet: 1</strong></font> &nbsp; &nbsp; &nbsp; &nbsp; &nbsp; &nbsp;<font class='negOutcome'>You receive: <strong>0</strong></font></div>","null","5","Melon Millions","Fruit/melon.png","Lost","0.2,0.65","11","0.2","78","15","",""
"","","","decision","60fd80b85dd6b22f66d16822","bdp_rwlrn","Wed Mar 15 2023 14:51:39 GMT-0500 (Central Daylight Time)","360863","Untrustworthy,Trustworthy","html-keyboard-response","56","102644","0.0-11.0-1.15","","374","","<div class='trialDiv'><img src='Fruit/mango.png'><br><font class='baseline'><strong>Mega Mangos</strong><p>Choose number of points to bet.</font><div class='respPicDiv'><img src='img/responseButtonOffersNo0L.png' class='respPic'></div></div>","3","6","Mega Mangos","Fruit/mango.png","Won","0.8,0.35","9","0.8","83","16","",""
"","","","decisionFB","60fd80b85dd6b22f66d16822","bdp_rwlrn","Wed Mar 15 2023 14:51:39 GMT-0500 (Central Daylight Time)","360863","Untrustworthy,Trustworthy","html-keyboard-response","57","102900","0.0-11.0-2.15","","null","","<div class='trialDiv'><img src='Fruit/mango.png'><br><font class='baseline'><strong>Mega Mangos</strong><p>Choose number of points to bet.</font><div class='respPicDiv'><img src='img/responseButtonOffersNo0L3.png' class='respPic'></div></div>","null","6","Mega Mangos","Fruit/mango.png","Won","0.8,0.35","9","0.8","80","16","",""
"","","","feedback","60fd80b85dd6b22f66d16822","bdp_rwlrn","Wed Mar 15 2023 14:51:39 GMT-0500 (Central Daylight Time)","360863","Untrustworthy,Trustworthy","html-keyboard-response","58","103904","0.0-11.0-3.15","","null","","<div class='respPicDiv'><img src='img/responseButtonOffersNo0_wht.png' class='respPic'></div><div class='trialDiv'><img src='Fruit/mango.png'><br><font class='baseline'><strong>Mega Mangos</strong><p><strong><font class='posOutcome'>You WON</font><p>You bet: 3</strong></font> &nbsp; &nbsp; &nbsp; &nbsp; &nbsp; &nbsp;<font class='posOutcome'>you receive: <strong>6</strong></font></div>","null","6","Mega Mangos","Fruit/mango.png","Won","0.8,0.35","9","0.8","86","16","",""
"","","","decision","60fd80b85dd6b22f66d16822","bdp_rwlrn","Wed Mar 15 2023 14:51:39 GMT-0500 (Central Daylight Time)","360863","Untrustworthy,Trustworthy","html-keyboard-response","59","104199","0.0-11.0-1.16","","293","","<div class='trialDiv'><img src='Fruit/melon.png'><br><font class='baseline'><strong>Melon Millions</strong><p>Choose number of points to bet.</font><div class='respPicDiv'><img src='img/responseButtonOffersNo0L.png' class='respPic'></div></div>","4","6","Melon Millions","Fruit/melon.png","Lost","0.2,0.65","11","0.2","91","17","",""
"","","","decisionFB","60fd80b85dd6b22f66d16822","bdp_rwlrn","Wed Mar 15 2023 14:51:39 GMT-0500 (Central Daylight Time)","360863","Untrustworthy,Trustworthy","html-keyboard-response","60","104451","0.0-11.0-2.16","","null","","<div class='trialDiv'><img src='Fruit/melon.png'><br><font class='baseline'><strong>Melon Millions</strong><p>Choose number of points to bet.</font><div class='respPicDiv'><img src='img/responseButtonOffersNo0L4.png' class='respPic'></div></div>","null","6","Melon Millions","Fruit/melon.png","Lost","0.2,0.65","11","0.2","87","17","",""
"","","","feedback","60fd80b85dd6b22f66d16822","bdp_rwlrn","Wed Mar 15 2023 14:51:39 GMT-0500 (Central Daylight Time)","360863","Untrustworthy,Trustworthy","html-keyboard-response","61","105457","0.0-11.0-3.16","","null","","<div class='respPicDiv'><img src='img/responseButtonOffersNo0_wht.png' class='respPic'></div><div class='trialDiv'><img src='Fruit/melon.png'><br><font class='baseline'><strong>Melon Millions</strong><p><strong><font class='negOutcome'>You LOST</font><p>You bet: 4</strong></font> &nbsp; &nbsp; &nbsp; &nbsp; &nbsp; &nbsp;<font class='negOutcome'>You receive: <strong>0</strong></font></div>","null","6","Melon Millions","Fruit/melon.png","Lost","0.2,0.65","11","0.2","87","17","",""
"","","","decision","60fd80b85dd6b22f66d16822","bdp_rwlrn","Wed Mar 15 2023 14:51:39 GMT-0500 (Central Daylight Time)","360863","Untrustworthy,Trustworthy","html-keyboard-response","62","106617","0.0-11.0-1.17","","1158","","<div class='trialDiv'><img src='Fruit/mixed-berries2.png'><br><font class='baseline'><strong>Berry Bla$t</strong><p>Choose number of points to bet.</font><div class='respPicDiv'><img src='img/responseButtonOffersNo0L.png' class='respPic'></div></div>","5","6","Berry Bla$t","Fruit/mixed-berries2.png","Won","0.2,0.8","11","0.2","92","18","",""
"","","","decisionFB","60fd80b85dd6b22f66d16822","bdp_rwlrn","Wed Mar 15 2023 14:51:39 GMT-0500 (Central Daylight Time)","360863","Untrustworthy,Trustworthy","html-keyboard-response","63","106873","0.0-11.0-2.17","","null","","<div class='trialDiv'><img src='Fruit/mixed-berries2.png'><br><font class='baseline'><strong>Berry Bla$t</strong><p>Choose number of points to bet.</font><div class='respPicDiv'><img src='img/responseButtonOffersNo0L5.png' class='respPic'></div></div>","null","6","Berry Bla$t","Fruit/mixed-berries2.png","Won","0.2,0.8","11","0.2","87","18","",""
"","","","feedback","60fd80b85dd6b22f66d16822","bdp_rwlrn","Wed Mar 15 2023 14:51:39 GMT-0500 (Central Daylight Time)","360863","Untrustworthy,Trustworthy","html-keyboard-response","64","107880","0.0-11.0-3.17","","null","","<div class='respPicDiv'><img src='img/responseButtonOffersNo0_wht.png' class='respPic'></div><div class='trialDiv'><img src='Fruit/mixed-berries2.png'><br><font class='baseline'><strong>Berry Bla$t</strong><p><strong><font class='posOutcome'>You WON</font><p>You bet: 5</strong></font> &nbsp; &nbsp; &nbsp; &nbsp; &nbsp; &nbsp;<font class='posOutcome'>you receive: <strong>10</strong></font></div>","null","6","Berry Bla$t","Fruit/mixed-berries2.png","Won","0.2,0.8","11","0.2","97","18","",""
"","","","decision","60fd80b85dd6b22f66d16822","bdp_rwlrn","Wed Mar 15 2023 14:51:39 GMT-0500 (Central Daylight Time)","360863","Untrustworthy,Trustworthy","html-keyboard-response","65","108455","0.0-11.0-1.18","","574","","<div class='trialDiv'><img src='Fruit/mango.png'><br><font class='baseline'><strong>Mega Mangos</strong><p>Choose number of points to bet.</font><div class='respPicDiv'><img src='img/responseButtonOffersNo0L.png' class='respPic'></div></div>","2","7","Mega Mangos","Fruit/mango.png","Won","0.8,0.35","9","0.8","102","19","",""
"","","","decisionFB","60fd80b85dd6b22f66d16822","bdp_rwlrn","Wed Mar 15 2023 14:51:39 GMT-0500 (Central Daylight Time)","360863","Untrustworthy,Trustworthy","html-keyboard-response","66","108711","0.0-11.0-2.18","","null","","<div class='trialDiv'><img src='Fruit/mango.png'><br><font class='baseline'><strong>Mega Mangos</strong><p>Choose number of points to bet.</font><div class='respPicDiv'><img src='img/responseButtonOffersNo0L2.png' class='respPic'></div></div>","null","7","Mega Mangos","Fruit/mango.png","Won","0.8,0.35","9","0.8","100","19","",""
"","","","feedback","60fd80b85dd6b22f66d16822","bdp_rwlrn","Wed Mar 15 2023 14:51:39 GMT-0500 (Central Daylight Time)","360863","Untrustworthy,Trustworthy","html-keyboard-response","67","109716","0.0-11.0-3.18","","null","","<div class='respPicDiv'><img src='img/responseButtonOffersNo0_wht.png' class='respPic'></div><div class='trialDiv'><img src='Fruit/mango.png'><br><font class='baseline'><strong>Mega Mangos</strong><p><strong><font class='posOutcome'>You WON</font><p>You bet: 2</strong></font> &nbsp; &nbsp; &nbsp; &nbsp; &nbsp; &nbsp;<font class='posOutcome'>you receive: <strong>4</strong></font></div>","null","7","Mega Mangos","Fruit/mango.png","Won","0.8,0.35","9","0.8","104","19","",""
"","","","decision","60fd80b85dd6b22f66d16822","bdp_rwlrn","Wed Mar 15 2023 14:51:39 GMT-0500 (Central Daylight Time)","360863","Untrustworthy,Trustworthy","html-keyboard-response","68","110195","0.0-11.0-1.19","","478","","<div class='trialDiv'><img src='Fruit/melon.png'><br><font class='baseline'><strong>Melon Millions</strong><p>Choose number of points to bet.</font><div class='respPicDiv'><img src='img/responseButtonOffersNo0L.png' class='respPic'></div></div>","4","7","Melon Millions","Fruit/melon.png","Won","0.2,0.65","11","0.2","109","20","",""
"","","","decisionFB","60fd80b85dd6b22f66d16822","bdp_rwlrn","Wed Mar 15 2023 14:51:39 GMT-0500 (Central Daylight Time)","360863","Untrustworthy,Trustworthy","html-keyboard-response","69","110452","0.0-11.0-2.19","","null","","<div class='trialDiv'><img src='Fruit/melon.png'><br><font class='baseline'><strong>Melon Millions</strong><p>Choose number of points to bet.</font><div class='respPicDiv'><img src='img/responseButtonOffersNo0L4.png' class='respPic'></div></div>","null","7","Melon Millions","Fruit/melon.png","Won","0.2,0.65","11","0.2","105","20","",""
"","","","feedback","60fd80b85dd6b22f66d16822","bdp_rwlrn","Wed Mar 15 2023 14:51:39 GMT-0500 (Central Daylight Time)","360863","Untrustworthy,Trustworthy","html-keyboard-response","70","111458","0.0-11.0-3.19","","null","","<div class='respPicDiv'><img src='img/responseButtonOffersNo0_wht.png' class='respPic'></div><div class='trialDiv'><img src='Fruit/melon.png'><br><font class='baseline'><strong>Melon Millions</strong><p><strong><font class='posOutcome'>You WON</font><p>You bet: 4</strong></font> &nbsp; &nbsp; &nbsp; &nbsp; &nbsp; &nbsp;<font class='posOutcome'>you receive: <strong>8</strong></font></div>","null","7","Melon Millions","Fruit/melon.png","Won","0.2,0.65","11","0.2","113","20","",""
"","","","decision","60fd80b85dd6b22f66d16822","bdp_rwlrn","Wed Mar 15 2023 14:51:39 GMT-0500 (Central Daylight Time)","360863","Untrustworthy,Trustworthy","html-keyboard-response","71","112713","0.0-11.0-1.20","","1253","","<div class='trialDiv'><img src='Fruit/mixed-berries2.png'><br><font class='baseline'><strong>Berry Bla$t</strong><p>Choose number of points to bet.</font><div class='respPicDiv'><img src='img/responseButtonOffersNo0L.png' class='respPic'></div></div>","5","7","Berry Bla$t","Fruit/mixed-berries2.png","Lost","0.2,0.8","11","0.2","118","21","",""
"","","","decisionFB","60fd80b85dd6b22f66d16822","bdp_rwlrn","Wed Mar 15 2023 14:51:39 GMT-0500 (Central Daylight Time)","360863","Untrustworthy,Trustworthy","html-keyboard-response","72","112968","0.0-11.0-2.20","","null","","<div class='trialDiv'><img src='Fruit/mixed-berries2.png'><br><font class='baseline'><strong>Berry Bla$t</strong><p>Choose number of points to bet.</font><div class='respPicDiv'><img src='img/responseButtonOffersNo0L5.png' class='respPic'></div></div>","null","7","Berry Bla$t","Fruit/mixed-berries2.png","Lost","0.2,0.8","11","0.2","113","21","",""
"","","","feedback","60fd80b85dd6b22f66d16822","bdp_rwlrn","Wed Mar 15 2023 14:51:39 GMT-0500 (Central Daylight Time)","360863","Untrustworthy,Trustworthy","html-keyboard-response","73","113975","0.0-11.0-3.20","","null","","<div class='respPicDiv'><img src='img/responseButtonOffersNo0_wht.png' class='respPic'></div><div class='trialDiv'><img src='Fruit/mixed-berries2.png'><br><font class='baseline'><strong>Berry Bla$t</strong><p><strong><font class='negOutcome'>You LOST</font><p>You bet: 5</strong></font> &nbsp; &nbsp; &nbsp; &nbsp; &nbsp; &nbsp;<font class='negOutcome'>You receive: <strong>0</strong></font></div>","null","7","Berry Bla$t","Fruit/mixed-berries2.png","Lost","0.2,0.8","11","0.2","113","21","",""
"","","","decision","60fd80b85dd6b22f66d16822","bdp_rwlrn","Wed Mar 15 2023 14:51:39 GMT-0500 (Central Daylight Time)","360863","Untrustworthy,Trustworthy","html-keyboard-response","74","115459","0.0-11.0-1.21","","1483","","<div class='trialDiv'><img src='Fruit/melon.png'><br><font class='baseline'><strong>Melon Millions</strong><p>Choose number of points to bet.</font><div class='respPicDiv'><img src='img/responseButtonOffersNo0L.png' class='respPic'></div></div>","3","8","Melon Millions","Fruit/melon.png","Won","0.2,0.65","11","0.2","118","22","",""
"","","","decisionFB","60fd80b85dd6b22f66d16822","bdp_rwlrn","Wed Mar 15 2023 14:51:39 GMT-0500 (Central Daylight Time)","360863","Untrustworthy,Trustworthy","html-keyboard-response","75","115712","0.0-11.0-2.21","","null","","<div class='trialDiv'><img src='Fruit/melon.png'><br><font class='baseline'><strong>Melon Millions</strong><p>Choose number of points to bet.</font><div class='respPicDiv'><img src='img/responseButtonOffersNo0L3.png' class='respPic'></div></div>","null","8","Melon Millions","Fruit/melon.png","Won","0.2,0.65","11","0.2","115","22","",""
"","","","feedback","60fd80b85dd6b22f66d16822","bdp_rwlrn","Wed Mar 15 2023 14:51:39 GMT-0500 (Central Daylight Time)","360863","Untrustworthy,Trustworthy","html-keyboard-response","76","116717","0.0-11.0-3.21","","null","","<div class='respPicDiv'><img src='img/responseButtonOffersNo0_wht.png' class='respPic'></div><div class='trialDiv'><img src='Fruit/melon.png'><br><font class='baseline'><strong>Melon Millions</strong><p><strong><font class='posOutcome'>You WON</font><p>You bet: 3</strong></font> &nbsp; &nbsp; &nbsp; &nbsp; &nbsp; &nbsp;<font class='posOutcome'>you receive: <strong>6</strong></font></div>","null","8","Melon Millions","Fruit/melon.png","Won","0.2,0.65","11","0.2","121","22","",""
"","","","decision","60fd80b85dd6b22f66d16822","bdp_rwlrn","Wed Mar 15 2023 14:51:39 GMT-0500 (Central Daylight Time)","360863","Untrustworthy,Trustworthy","html-keyboard-response","77","121174","0.0-11.0-1.22","","4455","","<div class='trialDiv'><img src='Fruit/mixed-berries2.png'><br><font class='baseline'><strong>Berry Bla$t</strong><p>Choose number of points to bet.</font><div class='respPicDiv'><img src='img/responseButtonOffersNo0L.png' class='respPic'></div></div>","2","8","Berry Bla$t","Fruit/mixed-berries2.png","Lost","0.2,0.8","11","0.2","126","23","",""
"","","","decisionFB","60fd80b85dd6b22f66d16822","bdp_rwlrn","Wed Mar 15 2023 14:51:39 GMT-0500 (Central Daylight Time)","360863","Untrustworthy,Trustworthy","html-keyboard-response","78","121429","0.0-11.0-2.22","","null","","<div class='trialDiv'><img src='Fruit/mixed-berries2.png'><br><font class='baseline'><strong>Berry Bla$t</strong><p>Choose number of points to bet.</font><div class='respPicDiv'><img src='img/responseButtonOffersNo0L2.png' class='respPic'></div></div>","null","8","Berry Bla$t","Fruit/mixed-berries2.png","Lost","0.2,0.8","11","0.2","124","23","",""
"","","","feedback","60fd80b85dd6b22f66d16822","bdp_rwlrn","Wed Mar 15 2023 14:51:39 GMT-0500 (Central Daylight Time)","360863","Untrustworthy,Trustworthy","html-keyboard-response","79","122435","0.0-11.0-3.22","","null","","<div class='respPicDiv'><img src='img/responseButtonOffersNo0_wht.png' class='respPic'></div><div class='trialDiv'><img src='Fruit/mixed-berries2.png'><br><font class='baseline'><strong>Berry Bla$t</strong><p><strong><font class='negOutcome'>You LOST</font><p>You bet: 2</strong></font> &nbsp; &nbsp; &nbsp; &nbsp; &nbsp; &nbsp;<font class='negOutcome'>You receive: <strong>0</strong></font></div>","null","8","Berry Bla$t","Fruit/mixed-berries2.png","Lost","0.2,0.8","11","0.2","124","23","",""
"","","","decision","60fd80b85dd6b22f66d16822","bdp_rwlrn","Wed Mar 15 2023 14:51:39 GMT-0500 (Central Daylight Time)","360863","Untrustworthy,Trustworthy","html-keyboard-response","80","122970","0.0-11.0-1.23","","533","","<div class='trialDiv'><img src='Fruit/mango.png'><br><font class='baseline'><strong>Mega Mangos</strong><p>Choose number of points to bet.</font><div class='respPicDiv'><img src='img/responseButtonOffersNo0L.png' class='respPic'></div></div>","4","8","Mega Mangos","Fruit/mango.png","Won","0.8,0.35","9","0.8","129","24","",""
"","","","decisionFB","60fd80b85dd6b22f66d16822","bdp_rwlrn","Wed Mar 15 2023 14:51:39 GMT-0500 (Central Daylight Time)","360863","Untrustworthy,Trustworthy","html-keyboard-response","81","123226","0.0-11.0-2.23","","null","","<div class='trialDiv'><img src='Fruit/mango.png'><br><font class='baseline'><strong>Mega Mangos</strong><p>Choose number of points to bet.</font><div class='respPicDiv'><img src='img/responseButtonOffersNo0L4.png' class='respPic'></div></div>","null","8","Mega Mangos","Fruit/mango.png","Won","0.8,0.35","9","0.8","125","24","",""
"","","","feedback","60fd80b85dd6b22f66d16822","bdp_rwlrn","Wed Mar 15 2023 14:51:39 GMT-0500 (Central Daylight Time)","360863","Untrustworthy,Trustworthy","html-keyboard-response","82","124232","0.0-11.0-3.23","","null","","<div class='respPicDiv'><img src='img/responseButtonOffersNo0_wht.png' class='respPic'></div><div class='trialDiv'><img src='Fruit/mango.png'><br><font class='baseline'><strong>Mega Mangos</strong><p><strong><font class='posOutcome'>You WON</font><p>You bet: 4</strong></font> &nbsp; &nbsp; &nbsp; &nbsp; &nbsp; &nbsp;<font class='posOutcome'>you receive: <strong>8</strong></font></div>","null","8","Mega Mangos","Fruit/mango.png","Won","0.8,0.35","9","0.8","133","24","",""
"","","","decision","60fd80b85dd6b22f66d16822","bdp_rwlrn","Wed Mar 15 2023 14:51:39 GMT-0500 (Central Daylight Time)","360863","Untrustworthy,Trustworthy","html-keyboard-response","83","124778","0.0-11.0-1.24","","546","","<div class='trialDiv'><img src='Fruit/mixed-berries2.png'><br><font class='baseline'><strong>Berry Bla$t</strong><p>Choose number of points to bet.</font><div class='respPicDiv'><img src='img/responseButtonOffersNo0L.png' class='respPic'></div></div>","2","9","Berry Bla$t","Fruit/mixed-berries2.png","Lost","0.2,0.8","11","0.2","138","25","",""
"","","","decisionFB","60fd80b85dd6b22f66d16822","bdp_rwlrn","Wed Mar 15 2023 14:51:39 GMT-0500 (Central Daylight Time)","360863","Untrustworthy,Trustworthy","html-keyboard-response","84","125035","0.0-11.0-2.24","","null","","<div class='trialDiv'><img src='Fruit/mixed-berries2.png'><br><font class='baseline'><strong>Berry Bla$t</strong><p>Choose number of points to bet.</font><div class='respPicDiv'><img src='img/responseButtonOffersNo0L2.png' class='respPic'></div></div>","null","9","Berry Bla$t","Fruit/mixed-berries2.png","Lost","0.2,0.8","11","0.2","136","25","",""
"","","","feedback","60fd80b85dd6b22f66d16822","bdp_rwlrn","Wed Mar 15 2023 14:51:39 GMT-0500 (Central Daylight Time)","360863","Untrustworthy,Trustworthy","html-keyboard-response","85","126041","0.0-11.0-3.24","","null","","<div class='respPicDiv'><img src='img/responseButtonOffersNo0_wht.png' class='respPic'></div><div class='trialDiv'><img src='Fruit/mixed-berries2.png'><br><font class='baseline'><strong>Berry Bla$t</strong><p><strong><font class='negOutcome'>You LOST</font><p>You bet: 2</strong></font> &nbsp; &nbsp; &nbsp; &nbsp; &nbsp; &nbsp;<font class='negOutcome'>You receive: <strong>0</strong></font></div>","null","9","Berry Bla$t","Fruit/mixed-berries2.png","Lost","0.2,0.8","11","0.2","136","25","",""
"","","","decision","60fd80b85dd6b22f66d16822","bdp_rwlrn","Wed Mar 15 2023 14:51:39 GMT-0500 (Central Daylight Time)","360863","Untrustworthy,Trustworthy","html-keyboard-response","86","126488","0.0-11.0-1.25","","446","","<div class='trialDiv'><img src='Fruit/mango.png'><br><font class='baseline'><strong>Mega Mangos</strong><p>Choose number of points to bet.</font><div class='respPicDiv'><img src='img/responseButtonOffersNo0L.png' class='respPic'></div></div>","4","9","Mega Mangos","Fruit/mango.png","Lost","0.8,0.35","9","0.8","141","26","",""
"","","","decisionFB","60fd80b85dd6b22f66d16822","bdp_rwlrn","Wed Mar 15 2023 14:51:39 GMT-0500 (Central Daylight Time)","360863","Untrustworthy,Trustworthy","html-keyboard-response","87","126744","0.0-11.0-2.25","","null","","<div class='trialDiv'><img src='Fruit/mango.png'><br><font class='baseline'><strong>Mega Mangos</strong><p>Choose number of points to bet.</font><div class='respPicDiv'><img src='img/responseButtonOffersNo0L4.png' class='respPic'></div></div>","null","9","Mega Mangos","Fruit/mango.png","Lost","0.8,0.35","9","0.8","137","26","",""
"","","","feedback","60fd80b85dd6b22f66d16822","bdp_rwlrn","Wed Mar 15 2023 14:51:39 GMT-0500 (Central Daylight Time)","360863","Untrustworthy,Trustworthy","html-keyboard-response","88","127750","0.0-11.0-3.25","","null","","<div class='respPicDiv'><img src='img/responseButtonOffersNo0_wht.png' class='respPic'></div><div class='trialDiv'><img src='Fruit/mango.png'><br><font class='baseline'><strong>Mega Mangos</strong><p><strong><font class='negOutcome'>You LOST</font><p>You bet: 4</strong></font> &nbsp; &nbsp; &nbsp; &nbsp; &nbsp; &nbsp;<font class='negOutcome'>You receive: <strong>0</strong></font></div>","null","9","Mega Mangos","Fruit/mango.png","Lost","0.8,0.35","9","0.8","137","26","",""
"","","","decision","60fd80b85dd6b22f66d16822","bdp_rwlrn","Wed Mar 15 2023 14:51:39 GMT-0500 (Central Daylight Time)","360863","Untrustworthy,Trustworthy","html-keyboard-response","89","128033","0.0-11.0-1.26","","282","","<div class='trialDiv'><img src='Fruit/melon.png'><br><font class='baseline'><strong>Melon Millions</strong><p>Choose number of points to bet.</font><div class='respPicDiv'><img src='img/responseButtonOffersNo0L.png' class='respPic'></div></div>","2","9","Melon Millions","Fruit/melon.png","Won","0.2,0.65","11","0.2","142","27","",""
"","","","decisionFB","60fd80b85dd6b22f66d16822","bdp_rwlrn","Wed Mar 15 2023 14:51:39 GMT-0500 (Central Daylight Time)","360863","Untrustworthy,Trustworthy","html-keyboard-response","90","128292","0.0-11.0-2.26","","null","","<div class='trialDiv'><img src='Fruit/melon.png'><br><font class='baseline'><strong>Melon Millions</strong><p>Choose number of points to bet.</font><div class='respPicDiv'><img src='img/responseButtonOffersNo0L2.png' class='respPic'></div></div>","null","9","Melon Millions","Fruit/melon.png","Won","0.2,0.65","11","0.2","140","27","",""
"","","","feedback","60fd80b85dd6b22f66d16822","bdp_rwlrn","Wed Mar 15 2023 14:51:39 GMT-0500 (Central Daylight Time)","360863","Untrustworthy,Trustworthy","html-keyboard-response","91","129293","0.0-11.0-3.26","","null","","<div class='respPicDiv'><img src='img/responseButtonOffersNo0_wht.png' class='respPic'></div><div class='trialDiv'><img src='Fruit/melon.png'><br><font class='baseline'><strong>Melon Millions</strong><p><strong><font class='posOutcome'>You WON</font><p>You bet: 2</strong></font> &nbsp; &nbsp; &nbsp; &nbsp; &nbsp; &nbsp;<font class='posOutcome'>you receive: <strong>4</strong></font></div>","null","9","Melon Millions","Fruit/melon.png","Won","0.2,0.65","11","0.2","144","27","",""
"","","","decision","60fd80b85dd6b22f66d16822","bdp_rwlrn","Wed Mar 15 2023 14:51:39 GMT-0500 (Central Daylight Time)","360863","Untrustworthy,Trustworthy","html-keyboard-response","92","130010","0.0-11.0-1.27","","716","","<div class='trialDiv'><img src='Fruit/mango.png'><br><font class='baseline'><strong>Mega Mangos</strong><p>Choose number of points to bet.</font><div class='respPicDiv'><img src='img/responseButtonOffersNo0L.png' class='respPic'></div></div>","4","10","Mega Mangos","Fruit/mango.png","Lost","0.8,0.35","9","0.8","149","28","",""
"","","","decisionFB","60fd80b85dd6b22f66d16822","bdp_rwlrn","Wed Mar 15 2023 14:51:39 GMT-0500 (Central Daylight Time)","360863","Untrustworthy,Trustworthy","html-keyboard-response","93","130265","0.0-11.0-2.27","","null","","<div class='trialDiv'><img src='Fruit/mango.png'><br><font class='baseline'><strong>Mega Mangos</strong><p>Choose number of points to bet.</font><div class='respPicDiv'><img src='img/responseButtonOffersNo0L4.png' class='respPic'></div></div>","null","10","Mega Mangos","Fruit/mango.png","Lost","0.8,0.35","9","0.8","145","28","",""
"","","","feedback","60fd80b85dd6b22f66d16822","bdp_rwlrn","Wed Mar 15 2023 14:51:39 GMT-0500 (Central Daylight Time)","360863","Untrustworthy,Trustworthy","html-keyboard-response","94","131271","0.0-11.0-3.27","","null","","<div class='respPicDiv'><img src='img/responseButtonOffersNo0_wht.png' class='respPic'></div><div class='trialDiv'><img src='Fruit/mango.png'><br><font class='baseline'><strong>Mega Mangos</strong><p><strong><font class='negOutcome'>You LOST</font><p>You bet: 4</strong></font> &nbsp; &nbsp; &nbsp; &nbsp; &nbsp; &nbsp;<font class='negOutcome'>You receive: <strong>0</strong></font></div>","null","10","Mega Mangos","Fruit/mango.png","Lost","0.8,0.35","9","0.8","145","28","",""
"","","","decision","60fd80b85dd6b22f66d16822","bdp_rwlrn","Wed Mar 15 2023 14:51:39 GMT-0500 (Central Daylight Time)","360863","Untrustworthy,Trustworthy","html-keyboard-response","95","132778","0.0-11.0-1.28","","1506","","<div class='trialDiv'><img src='Fruit/melon.png'><br><font class='baseline'><strong>Melon Millions</strong><p>Choose number of points to bet.</font><div class='respPicDiv'><img src='img/responseButtonOffersNo0L.png' class='respPic'></div></div>","3","10","Melon Millions","Fruit/melon.png","Lost","0.2,0.65","11","0.2","150","29","",""
"","","","decisionFB","60fd80b85dd6b22f66d16822","bdp_rwlrn","Wed Mar 15 2023 14:51:39 GMT-0500 (Central Daylight Time)","360863","Untrustworthy,Trustworthy","html-keyboard-response","96","133034","0.0-11.0-2.28","","null","","<div class='trialDiv'><img src='Fruit/melon.png'><br><font class='baseline'><strong>Melon Millions</strong><p>Choose number of points to bet.</font><div class='respPicDiv'><img src='img/responseButtonOffersNo0L3.png' class='respPic'></div></div>","null","10","Melon Millions","Fruit/melon.png","Lost","0.2,0.65","11","0.2","147","29","",""
"","","","feedback","60fd80b85dd6b22f66d16822","bdp_rwlrn","Wed Mar 15 2023 14:51:39 GMT-0500 (Central Daylight Time)","360863","Untrustworthy,Trustworthy","html-keyboard-response","97","134035","0.0-11.0-3.28","","null","","<div class='respPicDiv'><img src='img/responseButtonOffersNo0_wht.png' class='respPic'></div><div class='trialDiv'><img src='Fruit/melon.png'><br><font class='baseline'><strong>Melon Millions</strong><p><strong><font class='negOutcome'>You LOST</font><p>You bet: 3</strong></font> &nbsp; &nbsp; &nbsp; &nbsp; &nbsp; &nbsp;<font class='negOutcome'>You receive: <strong>0</strong></font></div>","null","10","Melon Millions","Fruit/melon.png","Lost","0.2,0.65","11","0.2","147","29","",""
"","","","decision","60fd80b85dd6b22f66d16822","bdp_rwlrn","Wed Mar 15 2023 14:51:39 GMT-0500 (Central Daylight Time)","360863","Untrustworthy,Trustworthy","html-keyboard-response","98","134850","0.0-11.0-1.29","","813","","<div class='trialDiv'><img src='Fruit/mixed-berries2.png'><br><font class='baseline'><strong>Berry Bla$t</strong><p>Choose number of points to bet.</font><div class='respPicDiv'><img src='img/responseButtonOffersNo0L.png' class='respPic'></div></div>","4","10","Berry Bla$t","Fruit/mixed-berries2.png","Lost","0.2,0.8","11","0.2","152","30","",""
"","","","decisionFB","60fd80b85dd6b22f66d16822","bdp_rwlrn","Wed Mar 15 2023 14:51:39 GMT-0500 (Central Daylight Time)","360863","Untrustworthy,Trustworthy","html-keyboard-response","99","135107","0.0-11.0-2.29","","null","","<div class='trialDiv'><img src='Fruit/mixed-berries2.png'><br><font class='baseline'><strong>Berry Bla$t</strong><p>Choose number of points to bet.</font><div class='respPicDiv'><img src='img/responseButtonOffersNo0L4.png' class='respPic'></div></div>","null","10","Berry Bla$t","Fruit/mixed-berries2.png","Lost","0.2,0.8","11","0.2","148","30","",""
"","","","feedback","60fd80b85dd6b22f66d16822","bdp_rwlrn","Wed Mar 15 2023 14:51:39 GMT-0500 (Central Daylight Time)","360863","Untrustworthy,Trustworthy","html-keyboard-response","100","136112","0.0-11.0-3.29","","null","","<div class='respPicDiv'><img src='img/responseButtonOffersNo0_wht.png' class='respPic'></div><div class='trialDiv'><img src='Fruit/mixed-berries2.png'><br><font class='baseline'><strong>Berry Bla$t</strong><p><strong><font class='negOutcome'>You LOST</font><p>You bet: 4</strong></font> &nbsp; &nbsp; &nbsp; &nbsp; &nbsp; &nbsp;<font class='negOutcome'>You receive: <strong>0</strong></font></div>","null","10","Berry Bla$t","Fruit/mixed-berries2.png","Lost","0.2,0.8","11","0.2","148","30","",""
"","","","decision","60fd80b85dd6b22f66d16822","bdp_rwlrn","Wed Mar 15 2023 14:51:39 GMT-0500 (Central Daylight Time)","360863","Untrustworthy,Trustworthy","html-keyboard-response","101","136418","0.0-11.0-1.30","","305","","<div class='trialDiv'><img src='Fruit/mango.png'><br><font class='baseline'><strong>Mega Mangos</strong><p>Choose number of points to bet.</font><div class='respPicDiv'><img src='img/responseButtonOffersNo0L.png' class='respPic'></div></div>","5","11","Mega Mangos","Fruit/mango.png","Lost","0.8,0.35","9","0.8","153","31","",""
"","","","decisionFB","60fd80b85dd6b22f66d16822","bdp_rwlrn","Wed Mar 15 2023 14:51:39 GMT-0500 (Central Daylight Time)","360863","Untrustworthy,Trustworthy","html-keyboard-response","102","136675","0.0-11.0-2.30","","null","","<div class='trialDiv'><img src='Fruit/mango.png'><br><font class='baseline'><strong>Mega Mangos</strong><p>Choose number of points to bet.</font><div class='respPicDiv'><img src='img/responseButtonOffersNo0L5.png' class='respPic'></div></div>","null","11","Mega Mangos","Fruit/mango.png","Lost","0.8,0.35","9","0.8","148","31","",""
"","","","feedback","60fd80b85dd6b22f66d16822","bdp_rwlrn","Wed Mar 15 2023 14:51:39 GMT-0500 (Central Daylight Time)","360863","Untrustworthy,Trustworthy","html-keyboard-response","103","137680","0.0-11.0-3.30","","null","","<div class='respPicDiv'><img src='img/responseButtonOffersNo0_wht.png' class='respPic'></div><div class='trialDiv'><img src='Fruit/mango.png'><br><font class='baseline'><strong>Mega Mangos</strong><p><strong><font class='negOutcome'>You LOST</font><p>You bet: 5</strong></font> &nbsp; &nbsp; &nbsp; &nbsp; &nbsp; &nbsp;<font class='negOutcome'>You receive: <strong>0</strong></font></div>","null","11","Mega Mangos","Fruit/mango.png","Lost","0.8,0.35","9","0.8","148","31","",""
"","","","decision","60fd80b85dd6b22f66d16822","bdp_rwlrn","Wed Mar 15 2023 14:51:39 GMT-0500 (Central Daylight Time)","360863","Untrustworthy,Trustworthy","html-keyboard-response","104","138130","0.0-11.0-1.31","","448","","<div class='trialDiv'><img src='Fruit/melon.png'><br><font class='baseline'><strong>Melon Millions</strong><p>Choose number of points to bet.</font><div class='respPicDiv'><img src='img/responseButtonOffersNo0L.png' class='respPic'></div></div>","2","11","Melon Millions","Fruit/melon.png","Lost","0.2,0.65","11","0.2","153","32","",""
"","","","decisionFB","60fd80b85dd6b22f66d16822","bdp_rwlrn","Wed Mar 15 2023 14:51:39 GMT-0500 (Central Daylight Time)","360863","Untrustworthy,Trustworthy","html-keyboard-response","105","138386","0.0-11.0-2.31","","null","","<div class='trialDiv'><img src='Fruit/melon.png'><br><font class='baseline'><strong>Melon Millions</strong><p>Choose number of points to bet.</font><div class='respPicDiv'><img src='img/responseButtonOffersNo0L2.png' class='respPic'></div></div>","null","11","Melon Millions","Fruit/melon.png","Lost","0.2,0.65","11","0.2","151","32","",""
"","","","feedback","60fd80b85dd6b22f66d16822","bdp_rwlrn","Wed Mar 15 2023 14:51:39 GMT-0500 (Central Daylight Time)","360863","Untrustworthy,Trustworthy","html-keyboard-response","106","139388","0.0-11.0-3.31","","null","","<div class='respPicDiv'><img src='img/responseButtonOffersNo0_wht.png' class='respPic'></div><div class='trialDiv'><img src='Fruit/melon.png'><br><font class='baseline'><strong>Melon Millions</strong><p><strong><font class='negOutcome'>You LOST</font><p>You bet: 2</strong></font> &nbsp; &nbsp; &nbsp; &nbsp; &nbsp; &nbsp;<font class='negOutcome'>You receive: <strong>0</strong></font></div>","null","11","Melon Millions","Fruit/melon.png","Lost","0.2,0.65","11","0.2","151","32","",""
"","","","decision","60fd80b85dd6b22f66d16822","bdp_rwlrn","Wed Mar 15 2023 14:51:39 GMT-0500 (Central Daylight Time)","360863","Untrustworthy,Trustworthy","html-keyboard-response","107","139713","0.0-11.0-1.32","","324","","<div class='trialDiv'><img src='Fruit/mixed-berries2.png'><br><font class='baseline'><strong>Berry Bla$t</strong><p>Choose number of points to bet.</font><div class='respPicDiv'><img src='img/responseButtonOffersNo0L.png' class='respPic'></div></div>","1","11","Berry Bla$t","Fruit/mixed-berries2.png","Won","0.2,0.8","11","0.2","156","33","",""
"","","","decisionFB","60fd80b85dd6b22f66d16822","bdp_rwlrn","Wed Mar 15 2023 14:51:39 GMT-0500 (Central Daylight Time)","360863","Untrustworthy,Trustworthy","html-keyboard-response","108","139969","0.0-11.0-2.32","","null","","<div class='trialDiv'><img src='Fruit/mixed-berries2.png'><br><font class='baseline'><strong>Berry Bla$t</strong><p>Choose number of points to bet.</font><div class='respPicDiv'><img src='img/responseButtonOffersNo0L1.png' class='respPic'></div></div>","null","11","Berry Bla$t","Fruit/mixed-berries2.png","Won","0.2,0.8","11","0.2","155","33","",""
"","","","feedback","60fd80b85dd6b22f66d16822","bdp_rwlrn","Wed Mar 15 2023 14:51:39 GMT-0500 (Central Daylight Time)","360863","Untrustworthy,Trustworthy","html-keyboard-response","109","140977","0.0-11.0-3.32","","null","","<div class='respPicDiv'><img src='img/responseButtonOffersNo0_wht.png' class='respPic'></div><div class='trialDiv'><img src='Fruit/mixed-berries2.png'><br><font class='baseline'><strong>Berry Bla$t</strong><p><strong><font class='posOutcome'>You WON</font><p>You bet: 1</strong></font> &nbsp; &nbsp; &nbsp; &nbsp; &nbsp; &nbsp;<font class='posOutcome'>you receive: <strong>2</strong></font></div>","null","11","Berry Bla$t","Fruit/mixed-berries2.png","Won","0.2,0.8","11","0.2","157","33","",""
"","","","decision","60fd80b85dd6b22f66d16822","bdp_rwlrn","Wed Mar 15 2023 14:51:39 GMT-0500 (Central Daylight Time)","360863","Untrustworthy,Trustworthy","html-keyboard-response","110","141299","0.0-11.0-1.33","","322","","<div class='trialDiv'><img src='Fruit/melon.png'><br><font class='baseline'><strong>Melon Millions</strong><p>Choose number of points to bet.</font><div class='respPicDiv'><img src='img/responseButtonOffersNo0L.png' class='respPic'></div></div>","3","12","Melon Millions","Fruit/melon.png","Won","0.2,0.65","11","0.2","162","34","",""
"","","","decisionFB","60fd80b85dd6b22f66d16822","bdp_rwlrn","Wed Mar 15 2023 14:51:39 GMT-0500 (Central Daylight Time)","360863","Untrustworthy,Trustworthy","html-keyboard-response","111","141556","0.0-11.0-2.33","","null","","<div class='trialDiv'><img src='Fruit/melon.png'><br><font class='baseline'><strong>Melon Millions</strong><p>Choose number of points to bet.</font><div class='respPicDiv'><img src='img/responseButtonOffersNo0L3.png' class='respPic'></div></div>","null","12","Melon Millions","Fruit/melon.png","Won","0.2,0.65","11","0.2","159","34","",""
"","","","feedback","60fd80b85dd6b22f66d16822","bdp_rwlrn","Wed Mar 15 2023 14:51:39 GMT-0500 (Central Daylight Time)","360863","Untrustworthy,Trustworthy","html-keyboard-response","112","142562","0.0-11.0-3.33","","null","","<div class='respPicDiv'><img src='img/responseButtonOffersNo0_wht.png' class='respPic'></div><div class='trialDiv'><img src='Fruit/melon.png'><br><font class='baseline'><strong>Melon Millions</strong><p><strong><font class='posOutcome'>You WON</font><p>You bet: 3</strong></font> &nbsp; &nbsp; &nbsp; &nbsp; &nbsp; &nbsp;<font class='posOutcome'>you receive: <strong>6</strong></font></div>","null","12","Melon Millions","Fruit/melon.png","Won","0.2,0.65","11","0.2","165","34","",""
"","","","decision","60fd80b85dd6b22f66d16822","bdp_rwlrn","Wed Mar 15 2023 14:51:39 GMT-0500 (Central Daylight Time)","360863","Untrustworthy,Trustworthy","html-keyboard-response","113","142802","0.0-11.0-1.34","","238","","<div class='trialDiv'><img src='Fruit/mango.png'><br><font class='baseline'><strong>Mega Mangos</strong><p>Choose number of points to bet.</font><div class='respPicDiv'><img src='img/responseButtonOffersNo0L.png' class='respPic'></div></div>","5","12","Mega Mangos","Fruit/mango.png","Lost","0.8,0.35","9","0.8","170","35","",""
"","","","decisionFB","60fd80b85dd6b22f66d16822","bdp_rwlrn","Wed Mar 15 2023 14:51:39 GMT-0500 (Central Daylight Time)","360863","Untrustworthy,Trustworthy","html-keyboard-response","114","143053","0.0-11.0-2.34","","null","","<div class='trialDiv'><img src='Fruit/mango.png'><br><font class='baseline'><strong>Mega Mangos</strong><p>Choose number of points to bet.</font><div class='respPicDiv'><img src='img/responseButtonOffersNo0L5.png' class='respPic'></div></div>","null","12","Mega Mangos","Fruit/mango.png","Lost","0.8,0.35","9","0.8","165","35","",""
"","","","feedback","60fd80b85dd6b22f66d16822","bdp_rwlrn","Wed Mar 15 2023 14:51:39 GMT-0500 (Central Daylight Time)","360863","Untrustworthy,Trustworthy","html-keyboard-response","115","144059","0.0-11.0-3.34","","null","","<div class='respPicDiv'><img src='img/responseButtonOffersNo0_wht.png' class='respPic'></div><div class='trialDiv'><img src='Fruit/mango.png'><br><font class='baseline'><strong>Mega Mangos</strong><p><strong><font class='negOutcome'>You LOST</font><p>You bet: 5</strong></font> &nbsp; &nbsp; &nbsp; &nbsp; &nbsp; &nbsp;<font class='negOutcome'>You receive: <strong>0</strong></font></div>","null","12","Mega Mangos","Fruit/mango.png","Lost","0.8,0.35","9","0.8","165","35","",""
"","","","decision","60fd80b85dd6b22f66d16822","bdp_rwlrn","Wed Mar 15 2023 14:51:39 GMT-0500 (Central Daylight Time)","360863","Untrustworthy,Trustworthy","html-keyboard-response","116","144381","0.0-11.0-1.35","","321","","<div class='trialDiv'><img src='Fruit/mixed-berries2.png'><br><font class='baseline'><strong>Berry Bla$t</strong><p>Choose number of points to bet.</font><div class='respPicDiv'><img src='img/responseButtonOffersNo0L.png' class='respPic'></div></div>","4","12","Berry Bla$t","Fruit/mixed-berries2.png","Won","0.2,0.8","11","0.2","170","36","",""
"","","","decisionFB","60fd80b85dd6b22f66d16822","bdp_rwlrn","Wed Mar 15 2023 14:51:39 GMT-0500 (Central Daylight Time)","360863","Untrustworthy,Trustworthy","html-keyboard-response","117","144637","0.0-11.0-2.35","","null","","<div class='trialDiv'><img src='Fruit/mixed-berries2.png'><br><font class='baseline'><strong>Berry Bla$t</strong><p>Choose number of points to bet.</font><div class='respPicDiv'><img src='img/responseButtonOffersNo0L4.png' class='respPic'></div></div>","null","12","Berry Bla$t","Fruit/mixed-berries2.png","Won","0.2,0.8","11","0.2","166","36","",""
"","","","feedback","60fd80b85dd6b22f66d16822","bdp_rwlrn","Wed Mar 15 2023 14:51:39 GMT-0500 (Central Daylight Time)","360863","Untrustworthy,Trustworthy","html-keyboard-response","118","145642","0.0-11.0-3.35","","null","","<div class='respPicDiv'><img src='img/responseButtonOffersNo0_wht.png' class='respPic'></div><div class='trialDiv'><img src='Fruit/mixed-berries2.png'><br><font class='baseline'><strong>Berry Bla$t</strong><p><strong><font class='posOutcome'>You WON</font><p>You bet: 4</strong></font> &nbsp; &nbsp; &nbsp; &nbsp; &nbsp; &nbsp;<font class='posOutcome'>you receive: <strong>8</strong></font></div>","null","12","Berry Bla$t","Fruit/mixed-berries2.png","Won","0.2,0.8","11","0.2","174","36","",""
"","","","decision","60fd80b85dd6b22f66d16822","bdp_rwlrn","Wed Mar 15 2023 14:51:39 GMT-0500 (Central Daylight Time)","360863","Untrustworthy,Trustworthy","html-keyboard-response","119","145887","0.0-11.0-1.36","","243","","<div class='trialDiv'><img src='Fruit/mango.png'><br><font class='baseline'><strong>Mega Mangos</strong><p>Choose number of points to bet.</font><div class='respPicDiv'><img src='img/responseButtonOffersNo0L.png' class='respPic'></div></div>","2","13","Mega Mangos","Fruit/mango.png","Lost","0.8,0.35","9","0.8","179","37","",""
"","","","decisionFB","60fd80b85dd6b22f66d16822","bdp_rwlrn","Wed Mar 15 2023 14:51:39 GMT-0500 (Central Daylight Time)","360863","Untrustworthy,Trustworthy","html-keyboard-response","120","146144","0.0-11.0-2.36","","null","","<div class='trialDiv'><img src='Fruit/mango.png'><br><font class='baseline'><strong>Mega Mangos</strong><p>Choose number of points to bet.</font><div class='respPicDiv'><img src='img/responseButtonOffersNo0L2.png' class='respPic'></div></div>","null","13","Mega Mangos","Fruit/mango.png","Lost","0.8,0.35","9","0.8","177","37","",""
"","","","feedback","60fd80b85dd6b22f66d16822","bdp_rwlrn","Wed Mar 15 2023 14:51:39 GMT-0500 (Central Daylight Time)","360863","Untrustworthy,Trustworthy","html-keyboard-response","121","147149","0.0-11.0-3.36","","null","","<div class='respPicDiv'><img src='img/responseButtonOffersNo0_wht.png' class='respPic'></div><div class='trialDiv'><img src='Fruit/mango.png'><br><font class='baseline'><strong>Mega Mangos</strong><p><strong><font class='negOutcome'>You LOST</font><p>You bet: 2</strong></font> &nbsp; &nbsp; &nbsp; &nbsp; &nbsp; &nbsp;<font class='negOutcome'>You receive: <strong>0</strong></font></div>","null","13","Mega Mangos","Fruit/mango.png","Lost","0.8,0.35","9","0.8","177","37","",""
"","","","decision","60fd80b85dd6b22f66d16822","bdp_rwlrn","Wed Mar 15 2023 14:51:39 GMT-0500 (Central Daylight Time)","360863","Untrustworthy,Trustworthy","html-keyboard-response","122","147866","0.0-11.0-1.37","","716","","<div class='trialDiv'><img src='Fruit/mixed-berries2.png'><br><font class='baseline'><strong>Berry Bla$t</strong><p>Choose number of points to bet.</font><div class='respPicDiv'><img src='img/responseButtonOffersNo0L.png' class='respPic'></div></div>","3","13","Berry Bla$t","Fruit/mixed-berries2.png","Won","0.2,0.8","11","0.2","182","38","",""
"","","","decisionFB","60fd80b85dd6b22f66d16822","bdp_rwlrn","Wed Mar 15 2023 14:51:39 GMT-0500 (Central Daylight Time)","360863","Untrustworthy,Trustworthy","html-keyboard-response","123","148118","0.0-11.0-2.37","","null","","<div class='trialDiv'><img src='Fruit/mixed-berries2.png'><br><font class='baseline'><strong>Berry Bla$t</strong><p>Choose number of points to bet.</font><div class='respPicDiv'><img src='img/responseButtonOffersNo0L3.png' class='respPic'></div></div>","null","13","Berry Bla$t","Fruit/mixed-berries2.png","Won","0.2,0.8","11","0.2","179","38","",""
"","","","feedback","60fd80b85dd6b22f66d16822","bdp_rwlrn","Wed Mar 15 2023 14:51:39 GMT-0500 (Central Daylight Time)","360863","Untrustworthy,Trustworthy","html-keyboard-response","124","149123","0.0-11.0-3.37","","null","","<div class='respPicDiv'><img src='img/responseButtonOffersNo0_wht.png' class='respPic'></div><div class='trialDiv'><img src='Fruit/mixed-berries2.png'><br><font class='baseline'><strong>Berry Bla$t</strong><p><strong><font class='posOutcome'>You WON</font><p>You bet: 3</strong></font> &nbsp; &nbsp; &nbsp; &nbsp; &nbsp; &nbsp;<font class='posOutcome'>you receive: <strong>6</strong></font></div>","null","13","Berry Bla$t","Fruit/mixed-berries2.png","Won","0.2,0.8","11","0.2","185","38","",""
"","","","decision","60fd80b85dd6b22f66d16822","bdp_rwlrn","Wed Mar 15 2023 14:51:39 GMT-0500 (Central Daylight Time)","360863","Untrustworthy,Trustworthy","html-keyboard-response","125","149856","0.0-11.0-1.38","","732","","<div class='trialDiv'><img src='Fruit/melon.png'><br><font class='baseline'><strong>Melon Millions</strong><p>Choose number of points to bet.</font><div class='respPicDiv'><img src='img/responseButtonOffersNo0L.png' class='respPic'></div></div>","2","13","Melon Millions","Fruit/melon.png","Lost","0.2,0.65","11","0.2","190","39","",""
"","","","decisionFB","60fd80b85dd6b22f66d16822","bdp_rwlrn","Wed Mar 15 2023 14:51:39 GMT-0500 (Central Daylight Time)","360863","Untrustworthy,Trustworthy","html-keyboard-response","126","150112","0.0-11.0-2.38","","null","","<div class='trialDiv'><img src='Fruit/melon.png'><br><font class='baseline'><strong>Melon Millions</strong><p>Choose number of points to bet.</font><div class='respPicDiv'><img src='img/responseButtonOffersNo0L2.png' class='respPic'></div></div>","null","13","Melon Millions","Fruit/melon.png","Lost","0.2,0.65","11","0.2","188","39","",""
"","","","feedback","60fd80b85dd6b22f66d16822","bdp_rwlrn","Wed Mar 15 2023 14:51:39 GMT-0500 (Central Daylight Time)","360863","Untrustworthy,Trustworthy","html-keyboard-response","127","151113","0.0-11.0-3.38","","null","","<div class='respPicDiv'><img src='img/responseButtonOffersNo0_wht.png' class='respPic'></div><div class='trialDiv'><img src='Fruit/melon.png'><br><font class='baseline'><strong>Melon Millions</strong><p><strong><font class='negOutcome'>You LOST</font><p>You bet: 2</strong></font> &nbsp; &nbsp; &nbsp; &nbsp; &nbsp; &nbsp;<font class='negOutcome'>You receive: <strong>0</strong></font></div>","null","13","Melon Millions","Fruit/melon.png","Lost","0.2,0.65","11","0.2","188","39","",""
"","","","decision","60fd80b85dd6b22f66d16822","bdp_rwlrn","Wed Mar 15 2023 14:51:39 GMT-0500 (Central Daylight Time)","360863","Untrustworthy,Trustworthy","html-keyboard-response","128","152257","0.0-11.0-1.39","","1143","","<div class='trialDiv'><img src='Fruit/mango.png'><br><font class='baseline'><strong>Mega Mangos</strong><p>Choose number of points to bet.</font><div class='respPicDiv'><img src='img/responseButtonOffersNo0L.png' class='respPic'></div></div>","3","14","Mega Mangos","Fruit/mango.png","Lost","0.8,0.35","9","0.8","193","40","",""
"","","","decisionFB","60fd80b85dd6b22f66d16822","bdp_rwlrn","Wed Mar 15 2023 14:51:39 GMT-0500 (Central Daylight Time)","360863","Untrustworthy,Trustworthy","html-keyboard-response","129","152514","0.0-11.0-2.39","","null","","<div class='trialDiv'><img src='Fruit/mango.png'><br><font class='baseline'><strong>Mega Mangos</strong><p>Choose number of points to bet.</font><div class='respPicDiv'><img src='img/responseButtonOffersNo0L3.png' class='respPic'></div></div>","null","14","Mega Mangos","Fruit/mango.png","Lost","0.8,0.35","9","0.8","190","40","",""
"","","","feedback","60fd80b85dd6b22f66d16822","bdp_rwlrn","Wed Mar 15 2023 14:51:39 GMT-0500 (Central Daylight Time)","360863","Untrustworthy,Trustworthy","html-keyboard-response","130","153521","0.0-11.0-3.39","","null","","<div class='respPicDiv'><img src='img/responseButtonOffersNo0_wht.png' class='respPic'></div><div class='trialDiv'><img src='Fruit/mango.png'><br><font class='baseline'><strong>Mega Mangos</strong><p><strong><font class='negOutcome'>You LOST</font><p>You bet: 3</strong></font> &nbsp; &nbsp; &nbsp; &nbsp; &nbsp; &nbsp;<font class='negOutcome'>You receive: <strong>0</strong></font></div>","null","14","Mega Mangos","Fruit/mango.png","Lost","0.8,0.35","9","0.8","190","40","",""
"","","","decision","60fd80b85dd6b22f66d16822","bdp_rwlrn","Wed Mar 15 2023 14:51:39 GMT-0500 (Central Daylight Time)","360863","Untrustworthy,Trustworthy","html-keyboard-response","131","155315","0.0-11.0-1.40","","1793","","<div class='trialDiv'><img src='Fruit/melon.png'><br><font class='baseline'><strong>Melon Millions</strong><p>Choose number of points to bet.</font><div class='respPicDiv'><img src='img/responseButtonOffersNo0L.png' class='respPic'></div></div>","2","14","Melon Millions","Fruit/melon.png","Won","0.2,0.65","11","0.2","195","41","",""
"","","","decisionFB","60fd80b85dd6b22f66d16822","bdp_rwlrn","Wed Mar 15 2023 14:51:39 GMT-0500 (Central Daylight Time)","360863","Untrustworthy,Trustworthy","html-keyboard-response","132","155572","0.0-11.0-2.40","","null","","<div class='trialDiv'><img src='Fruit/melon.png'><br><font class='baseline'><strong>Melon Millions</strong><p>Choose number of points to bet.</font><div class='respPicDiv'><img src='img/responseButtonOffersNo0L2.png' class='respPic'></div></div>","null","14","Melon Millions","Fruit/melon.png","Won","0.2,0.65","11","0.2","193","41","",""
"","","","feedback","60fd80b85dd6b22f66d16822","bdp_rwlrn","Wed Mar 15 2023 14:51:39 GMT-0500 (Central Daylight Time)","360863","Untrustworthy,Trustworthy","html-keyboard-response","133","156577","0.0-11.0-3.40","","null","","<div class='respPicDiv'><img src='img/responseButtonOffersNo0_wht.png' class='respPic'></div><div class='trialDiv'><img src='Fruit/melon.png'><br><font class='baseline'><strong>Melon Millions</strong><p><strong><font class='posOutcome'>You WON</font><p>You bet: 2</strong></font> &nbsp; &nbsp; &nbsp; &nbsp; &nbsp; &nbsp;<font class='posOutcome'>you receive: <strong>4</strong></font></div>","null","14","Melon Millions","Fruit/melon.png","Won","0.2,0.65","11","0.2","197","41","",""
"","","","decision","60fd80b85dd6b22f66d16822","bdp_rwlrn","Wed Mar 15 2023 14:51:39 GMT-0500 (Central Daylight Time)","360863","Untrustworthy,Trustworthy","html-keyboard-response","134","157441","0.0-11.0-1.41","","864","","<div class='trialDiv'><img src='Fruit/mixed-berries2.png'><br><font class='baseline'><strong>Berry Bla$t</strong><p>Choose number of points to bet.</font><div class='respPicDiv'><img src='img/responseButtonOffersNo0L.png' class='respPic'></div></div>","3","14","Berry Bla$t","Fruit/mixed-berries2.png","Won","0.2,0.8","11","0.2","202","42","",""
"","","","decisionFB","60fd80b85dd6b22f66d16822","bdp_rwlrn","Wed Mar 15 2023 14:51:39 GMT-0500 (Central Daylight Time)","360863","Untrustworthy,Trustworthy","html-keyboard-response","135","157698","0.0-11.0-2.41","","null","","<div class='trialDiv'><img src='Fruit/mixed-berries2.png'><br><font class='baseline'><strong>Berry Bla$t</strong><p>Choose number of points to bet.</font><div class='respPicDiv'><img src='img/responseButtonOffersNo0L3.png' class='respPic'></div></div>","null","14","Berry Bla$t","Fruit/mixed-berries2.png","Won","0.2,0.8","11","0.2","199","42","",""
"","","","feedback","60fd80b85dd6b22f66d16822","bdp_rwlrn","Wed Mar 15 2023 14:51:39 GMT-0500 (Central Daylight Time)","360863","Untrustworthy,Trustworthy","html-keyboard-response","136","158701","0.0-11.0-3.41","","null","","<div class='respPicDiv'><img src='img/responseButtonOffersNo0_wht.png' class='respPic'></div><div class='trialDiv'><img src='Fruit/mixed-berries2.png'><br><font class='baseline'><strong>Berry Bla$t</strong><p><strong><font class='posOutcome'>You WON</font><p>You bet: 3</strong></font> &nbsp; &nbsp; &nbsp; &nbsp; &nbsp; &nbsp;<font class='posOutcome'>you receive: <strong>6</strong></font></div>","null","14","Berry Bla$t","Fruit/mixed-berries2.png","Won","0.2,0.8","11","0.2","205","42","",""
"","","","decision","60fd80b85dd6b22f66d16822","bdp_rwlrn","Wed Mar 15 2023 14:51:39 GMT-0500 (Central Daylight Time)","360863","Untrustworthy,Trustworthy","html-keyboard-response","137","159547","0.0-11.0-1.42","","846","","<div class='trialDiv'><img src='Fruit/melon.png'><br><font class='baseline'><strong>Melon Millions</strong><p>Choose number of points to bet.</font><div class='respPicDiv'><img src='img/responseButtonOffersNo0L.png' class='respPic'></div></div>","4","15","Melon Millions","Fruit/melon.png","Won","0.2,0.65","11","0.2","210","43","",""
"","","","decisionFB","60fd80b85dd6b22f66d16822","bdp_rwlrn","Wed Mar 15 2023 14:51:39 GMT-0500 (Central Daylight Time)","360863","Untrustworthy,Trustworthy","html-keyboard-response","138","159804","0.0-11.0-2.42","","null","","<div class='trialDiv'><img src='Fruit/melon.png'><br><font class='baseline'><strong>Melon Millions</strong><p>Choose number of points to bet.</font><div class='respPicDiv'><img src='img/responseButtonOffersNo0L4.png' class='respPic'></div></div>","null","15","Melon Millions","Fruit/melon.png","Won","0.2,0.65","11","0.2","206","43","",""
"","","","feedback","60fd80b85dd6b22f66d16822","bdp_rwlrn","Wed Mar 15 2023 14:51:39 GMT-0500 (Central Daylight Time)","360863","Untrustworthy,Trustworthy","html-keyboard-response","139","160807","0.0-11.0-3.42","","null","","<div class='respPicDiv'><img src='img/responseButtonOffersNo0_wht.png' class='respPic'></div><div class='trialDiv'><img src='Fruit/melon.png'><br><font class='baseline'><strong>Melon Millions</strong><p><strong><font class='posOutcome'>You WON</font><p>You bet: 4</strong></font> &nbsp; &nbsp; &nbsp; &nbsp; &nbsp; &nbsp;<font class='posOutcome'>you receive: <strong>8</strong></font></div>","null","15","Melon Millions","Fruit/melon.png","Won","0.2,0.65","11","0.2","214","43","",""
"","","","decision","60fd80b85dd6b22f66d16822","bdp_rwlrn","Wed Mar 15 2023 14:51:39 GMT-0500 (Central Daylight Time)","360863","Untrustworthy,Trustworthy","html-keyboard-response","140","161413","0.0-11.0-1.43","","606","","<div class='trialDiv'><img src='Fruit/mango.png'><br><font class='baseline'><strong>Mega Mangos</strong><p>Choose number of points to bet.</font><div class='respPicDiv'><img src='img/responseButtonOffersNo0L.png' class='respPic'></div></div>","3","15","Mega Mangos","Fruit/mango.png","Lost","0.8,0.35","9","0.8","219","44","",""
"","","","decisionFB","60fd80b85dd6b22f66d16822","bdp_rwlrn","Wed Mar 15 2023 14:51:39 GMT-0500 (Central Daylight Time)","360863","Untrustworthy,Trustworthy","html-keyboard-response","141","161670","0.0-11.0-2.43","","null","","<div class='trialDiv'><img src='Fruit/mango.png'><br><font class='baseline'><strong>Mega Mangos</strong><p>Choose number of points to bet.</font><div class='respPicDiv'><img src='img/responseButtonOffersNo0L3.png' class='respPic'></div></div>","null","15","Mega Mangos","Fruit/mango.png","Lost","0.8,0.35","9","0.8","216","44","",""
"","","","feedback","60fd80b85dd6b22f66d16822","bdp_rwlrn","Wed Mar 15 2023 14:51:39 GMT-0500 (Central Daylight Time)","360863","Untrustworthy,Trustworthy","html-keyboard-response","142","162676","0.0-11.0-3.43","","null","","<div class='respPicDiv'><img src='img/responseButtonOffersNo0_wht.png' class='respPic'></div><div class='trialDiv'><img src='Fruit/mango.png'><br><font class='baseline'><strong>Mega Mangos</strong><p><strong><font class='negOutcome'>You LOST</font><p>You bet: 3</strong></font> &nbsp; &nbsp; &nbsp; &nbsp; &nbsp; &nbsp;<font class='negOutcome'>You receive: <strong>0</strong></font></div>","null","15","Mega Mangos","Fruit/mango.png","Lost","0.8,0.35","9","0.8","216","44","",""
"","","","decision","60fd80b85dd6b22f66d16822","bdp_rwlrn","Wed Mar 15 2023 14:51:39 GMT-0500 (Central Daylight Time)","360863","Untrustworthy,Trustworthy","html-keyboard-response","143","164973","0.0-11.0-1.44","","2296","","<div class='trialDiv'><img src='Fruit/mixed-berries2.png'><br><font class='baseline'><strong>Berry Bla$t</strong><p>Choose number of points to bet.</font><div class='respPicDiv'><img src='img/responseButtonOffersNo0L.png' class='respPic'></div></div>","5","15","Berry Bla$t","Fruit/mixed-berries2.png","Won","0.2,0.8","11","0.2","221","45","",""
"","","","decisionFB","60fd80b85dd6b22f66d16822","bdp_rwlrn","Wed Mar 15 2023 14:51:39 GMT-0500 (Central Daylight Time)","360863","Untrustworthy,Trustworthy","html-keyboard-response","144","165229","0.0-11.0-2.44","","null","","<div class='trialDiv'><img src='Fruit/mixed-berries2.png'><br><font class='baseline'><strong>Berry Bla$t</strong><p>Choose number of points to bet.</font><div class='respPicDiv'><img src='img/responseButtonOffersNo0L5.png' class='respPic'></div></div>","null","15","Berry Bla$t","Fruit/mixed-berries2.png","Won","0.2,0.8","11","0.2","216","45","",""
"","","","feedback","60fd80b85dd6b22f66d16822","bdp_rwlrn","Wed Mar 15 2023 14:51:39 GMT-0500 (Central Daylight Time)","360863","Untrustworthy,Trustworthy","html-keyboard-response","145","166236","0.0-11.0-3.44","","null","","<div class='respPicDiv'><img src='img/responseButtonOffersNo0_wht.png' class='respPic'></div><div class='trialDiv'><img src='Fruit/mixed-berries2.png'><br><font class='baseline'><strong>Berry Bla$t</strong><p><strong><font class='posOutcome'>You WON</font><p>You bet: 5</strong></font> &nbsp; &nbsp; &nbsp; &nbsp; &nbsp; &nbsp;<font class='posOutcome'>you receive: <strong>10</strong></font></div>","null","15","Berry Bla$t","Fruit/mixed-berries2.png","Won","0.2,0.8","11","0.2","226","45","",""
"","","","decision","60fd80b85dd6b22f66d16822","bdp_rwlrn","Wed Mar 15 2023 14:51:39 GMT-0500 (Central Daylight Time)","360863","Untrustworthy,Trustworthy","html-keyboard-response","146","168694","0.0-11.0-1.45","","2456","","<div class='trialDiv'><img src='Fruit/mango.png'><br><font class='baseline'><strong>Mega Mangos</strong><p>Choose number of points to bet.</font><div class='respPicDiv'><img src='img/responseButtonOffersNo0L.png' class='respPic'></div></div>","2","16","Mega Mangos","Fruit/mango.png","Lost","0.8,0.35","9","0.8","231","46","",""
"","","","decisionFB","60fd80b85dd6b22f66d16822","bdp_rwlrn","Wed Mar 15 2023 14:51:39 GMT-0500 (Central Daylight Time)","360863","Untrustworthy,Trustworthy","html-keyboard-response","147","168950","0.0-11.0-2.45","","null","","<div class='trialDiv'><img src='Fruit/mango.png'><br><font class='baseline'><strong>Mega Mangos</strong><p>Choose number of points to bet.</font><div class='respPicDiv'><img src='img/responseButtonOffersNo0L2.png' class='respPic'></div></div>","null","16","Mega Mangos","Fruit/mango.png","Lost","0.8,0.35","9","0.8","229","46","",""
"","","","feedback","60fd80b85dd6b22f66d16822","bdp_rwlrn","Wed Mar 15 2023 14:51:39 GMT-0500 (Central Daylight Time)","360863","Untrustworthy,Trustworthy","html-keyboard-response","148","169951","0.0-11.0-3.45","","null","","<div class='respPicDiv'><img src='img/responseButtonOffersNo0_wht.png' class='respPic'></div><div class='trialDiv'><img src='Fruit/mango.png'><br><font class='baseline'><strong>Mega Mangos</strong><p><strong><font class='negOutcome'>You LOST</font><p>You bet: 2</strong></font> &nbsp; &nbsp; &nbsp; &nbsp; &nbsp; &nbsp;<font class='negOutcome'>You receive: <strong>0</strong></font></div>","null","16","Mega Mangos","Fruit/mango.png","Lost","0.8,0.35","9","0.8","229","46","",""
"","","","decision","60fd80b85dd6b22f66d16822","bdp_rwlrn","Wed Mar 15 2023 14:51:39 GMT-0500 (Central Daylight Time)","360863","Untrustworthy,Trustworthy","html-keyboard-response","149","170221","0.0-11.0-1.46","","268","","<div class='trialDiv'><img src='Fruit/melon.png'><br><font class='baseline'><strong>Melon Millions</strong><p>Choose number of points to bet.</font><div class='respPicDiv'><img src='img/responseButtonOffersNo0L.png' class='respPic'></div></div>","2","16","Melon Millions","Fruit/melon.png","Won","0.2,0.65","11","0.2","234","47","",""
"","","","decisionFB","60fd80b85dd6b22f66d16822","bdp_rwlrn","Wed Mar 15 2023 14:51:39 GMT-0500 (Central Daylight Time)","360863","Untrustworthy,Trustworthy","html-keyboard-response","150","170478","0.0-11.0-2.46","","null","","<div class='trialDiv'><img src='Fruit/melon.png'><br><font class='baseline'><strong>Melon Millions</strong><p>Choose number of points to bet.</font><div class='respPicDiv'><img src='img/responseButtonOffersNo0L2.png' class='respPic'></div></div>","null","16","Melon Millions","Fruit/melon.png","Won","0.2,0.65","11","0.2","232","47","",""
"","","","feedback","60fd80b85dd6b22f66d16822","bdp_rwlrn","Wed Mar 15 2023 14:51:39 GMT-0500 (Central Daylight Time)","360863","Untrustworthy,Trustworthy","html-keyboard-response","151","171484","0.0-11.0-3.46","","null","","<div class='respPicDiv'><img src='img/responseButtonOffersNo0_wht.png' class='respPic'></div><div class='trialDiv'><img src='Fruit/melon.png'><br><font class='baseline'><strong>Melon Millions</strong><p><strong><font class='posOutcome'>You WON</font><p>You bet: 2</strong></font> &nbsp; &nbsp; &nbsp; &nbsp; &nbsp; &nbsp;<font class='posOutcome'>you receive: <strong>4</strong></font></div>","null","16","Melon Millions","Fruit/melon.png","Won","0.2,0.65","11","0.2","236","47","",""
"","","","decision","60fd80b85dd6b22f66d16822","bdp_rwlrn","Wed Mar 15 2023 14:51:39 GMT-0500 (Central Daylight Time)","360863","Untrustworthy,Trustworthy","html-keyboard-response","152","172380","0.0-11.0-1.47","","896","","<div class='trialDiv'><img src='Fruit/mixed-berries2.png'><br><font class='baseline'><strong>Berry Bla$t</strong><p>Choose number of points to bet.</font><div class='respPicDiv'><img src='img/responseButtonOffersNo0L.png' class='respPic'></div></div>","4","16","Berry Bla$t","Fruit/mixed-berries2.png","Won","0.2,0.8","11","0.2","241","48","",""
"","","","decisionFB","60fd80b85dd6b22f66d16822","bdp_rwlrn","Wed Mar 15 2023 14:51:39 GMT-0500 (Central Daylight Time)","360863","Untrustworthy,Trustworthy","html-keyboard-response","153","172637","0.0-11.0-2.47","","null","","<div class='trialDiv'><img src='Fruit/mixed-berries2.png'><br><font class='baseline'><strong>Berry Bla$t</strong><p>Choose number of points to bet.</font><div class='respPicDiv'><img src='img/responseButtonOffersNo0L4.png' class='respPic'></div></div>","null","16","Berry Bla$t","Fruit/mixed-berries2.png","Won","0.2,0.8","11","0.2","237","48","",""
"","","","feedback","60fd80b85dd6b22f66d16822","bdp_rwlrn","Wed Mar 15 2023 14:51:39 GMT-0500 (Central Daylight Time)","360863","Untrustworthy,Trustworthy","html-keyboard-response","154","173644","0.0-11.0-3.47","","null","","<div class='respPicDiv'><img src='img/responseButtonOffersNo0_wht.png' class='respPic'></div><div class='trialDiv'><img src='Fruit/mixed-berries2.png'><br><font class='baseline'><strong>Berry Bla$t</strong><p><strong><font class='posOutcome'>You WON</font><p>You bet: 4</strong></font> &nbsp; &nbsp; &nbsp; &nbsp; &nbsp; &nbsp;<font class='posOutcome'>you receive: <strong>8</strong></font></div>","null","16","Berry Bla$t","Fruit/mixed-berries2.png","Won","0.2,0.8","11","0.2","245","48","",""
"","","","decision","60fd80b85dd6b22f66d16822","bdp_rwlrn","Wed Mar 15 2023 14:51:39 GMT-0500 (Central Daylight Time)","360863","Untrustworthy,Trustworthy","html-keyboard-response","155","174519","0.0-11.0-1.48","","875","","<div class='trialDiv'><img src='Fruit/melon.png'><br><font class='baseline'><strong>Melon Millions</strong><p>Choose number of points to bet.</font><div class='respPicDiv'><img src='img/responseButtonOffersNo0L.png' class='respPic'></div></div>","5","17","Melon Millions","Fruit/melon.png","Lost","0.2,0.65","11","0.2","250","49","",""
"","","","decisionFB","60fd80b85dd6b22f66d16822","bdp_rwlrn","Wed Mar 15 2023 14:51:39 GMT-0500 (Central Daylight Time)","360863","Untrustworthy,Trustworthy","html-keyboard-response","156","174776","0.0-11.0-2.48","","null","","<div class='trialDiv'><img src='Fruit/melon.png'><br><font class='baseline'><strong>Melon Millions</strong><p>Choose number of points to bet.</font><div class='respPicDiv'><img src='img/responseButtonOffersNo0L5.png' class='respPic'></div></div>","null","17","Melon Millions","Fruit/melon.png","Lost","0.2,0.65","11","0.2","245","49","",""
"","","","feedback","60fd80b85dd6b22f66d16822","bdp_rwlrn","Wed Mar 15 2023 14:51:39 GMT-0500 (Central Daylight Time)","360863","Untrustworthy,Trustworthy","html-keyboard-response","157","175779","0.0-11.0-3.48","","null","","<div class='respPicDiv'><img src='img/responseButtonOffersNo0_wht.png' class='respPic'></div><div class='trialDiv'><img src='Fruit/melon.png'><br><font class='baseline'><strong>Melon Millions</strong><p><strong><font class='negOutcome'>You LOST</font><p>You bet: 5</strong></font> &nbsp; &nbsp; &nbsp; &nbsp; &nbsp; &nbsp;<font class='negOutcome'>You receive: <strong>0</strong></font></div>","null","17","Melon Millions","Fruit/melon.png","Lost","0.2,0.65","11","0.2","245","49","",""
"","","","decision","60fd80b85dd6b22f66d16822","bdp_rwlrn","Wed Mar 15 2023 14:51:39 GMT-0500 (Central Daylight Time)","360863","Untrustworthy,Trustworthy","html-keyboard-response","158","179436","0.0-11.0-1.49","","3655","","<div class='trialDiv'><img src='Fruit/mango.png'><br><font class='baseline'><strong>Mega Mangos</strong><p>Choose number of points to bet.</font><div class='respPicDiv'><img src='img/responseButtonOffersNo0L.png' class='respPic'></div></div>","4","17","Mega Mangos","Fruit/mango.png","Lost","0.8,0.35","9","0.8","250","50","",""
"","","","decisionFB","60fd80b85dd6b22f66d16822","bdp_rwlrn","Wed Mar 15 2023 14:51:39 GMT-0500 (Central Daylight Time)","360863","Untrustworthy,Trustworthy","html-keyboard-response","159","179691","0.0-11.0-2.49","","null","","<div class='trialDiv'><img src='Fruit/mango.png'><br><font class='baseline'><strong>Mega Mangos</strong><p>Choose number of points to bet.</font><div class='respPicDiv'><img src='img/responseButtonOffersNo0L4.png' class='respPic'></div></div>","null","17","Mega Mangos","Fruit/mango.png","Lost","0.8,0.35","9","0.8","246","50","",""
"","","","feedback","60fd80b85dd6b22f66d16822","bdp_rwlrn","Wed Mar 15 2023 14:51:39 GMT-0500 (Central Daylight Time)","360863","Untrustworthy,Trustworthy","html-keyboard-response","160","180697","0.0-11.0-3.49","","null","","<div class='respPicDiv'><img src='img/responseButtonOffersNo0_wht.png' class='respPic'></div><div class='trialDiv'><img src='Fruit/mango.png'><br><font class='baseline'><strong>Mega Mangos</strong><p><strong><font class='negOutcome'>You LOST</font><p>You bet: 4</strong></font> &nbsp; &nbsp; &nbsp; &nbsp; &nbsp; &nbsp;<font class='negOutcome'>You receive: <strong>0</strong></font></div>","null","17","Mega Mangos","Fruit/mango.png","Lost","0.8,0.35","9","0.8","246","50","",""
"","","","decision","60fd80b85dd6b22f66d16822","bdp_rwlrn","Wed Mar 15 2023 14:51:39 GMT-0500 (Central Daylight Time)","360863","Untrustworthy,Trustworthy","html-keyboard-response","161","181355","0.0-11.0-1.50","","657","","<div class='trialDiv'><img src='Fruit/mixed-berries2.png'><br><font class='baseline'><strong>Berry Bla$t</strong><p>Choose number of points to bet.</font><div class='respPicDiv'><img src='img/responseButtonOffersNo0L.png' class='respPic'></div></div>","2","17","Berry Bla$t","Fruit/mixed-berries2.png","Lost","0.2,0.8","11","0.2","251","51","",""
"","","","decisionFB","60fd80b85dd6b22f66d16822","bdp_rwlrn","Wed Mar 15 2023 14:51:39 GMT-0500 (Central Daylight Time)","360863","Untrustworthy,Trustworthy","html-keyboard-response","162","181611","0.0-11.0-2.50","","null","","<div class='trialDiv'><img src='Fruit/mixed-berries2.png'><br><font class='baseline'><strong>Berry Bla$t</strong><p>Choose number of points to bet.</font><div class='respPicDiv'><img src='img/responseButtonOffersNo0L2.png' class='respPic'></div></div>","null","17","Berry Bla$t","Fruit/mixed-berries2.png","Lost","0.2,0.8","11","0.2","249","51","",""
"","","","feedback","60fd80b85dd6b22f66d16822","bdp_rwlrn","Wed Mar 15 2023 14:51:39 GMT-0500 (Central Daylight Time)","360863","Untrustworthy,Trustworthy","html-keyboard-response","163","182617","0.0-11.0-3.50","","null","","<div class='respPicDiv'><img src='img/responseButtonOffersNo0_wht.png' class='respPic'></div><div class='trialDiv'><img src='Fruit/mixed-berries2.png'><br><font class='baseline'><strong>Berry Bla$t</strong><p><strong><font class='negOutcome'>You LOST</font><p>You bet: 2</strong></font> &nbsp; &nbsp; &nbsp; &nbsp; &nbsp; &nbsp;<font class='negOutcome'>You receive: <strong>0</strong></font></div>","null","17","Berry Bla$t","Fruit/mixed-berries2.png","Lost","0.2,0.8","11","0.2","249","51","",""
