"trial_type","trial_index","time_elapsed","internal_node_id","subject_id","task","startTime","totalTime","labels","view_history","rt","event","trial","time","trialtype","success","stimulus","key_press","ltround","name","fileID","outcome","lottotype","lottoswpt","lottocurrpshare","point_total","round","faceID","face"
"pavlovia","0","5","0.0-0.0","6144bf2539bc8f85335af4be","bdp_rwlrn","Wed Mar 15 2023 15:33:15 GMT-0400 (Eastern Daylight Time)","525090","Trustworthy,Untrustworthy","","","","","","","","","","","","","","","","","","","",""
"instructions","1","4930","0.0-1.0","6144bf2539bc8f85335af4be","bdp_rwlrn","Wed Mar 15 2023 15:33:15 GMT-0400 (Eastern Daylight Time)","525090","Trustworthy,Untrustworthy","[{""page_index"":0,""viewing_time"":4925}]","4925","","","","","","","","","","","","","","","","","",""
"","","","","6144bf2539bc8f85335af4be","bdp_rwlrn","Wed Mar 15 2023 15:33:15 GMT-0400 (Eastern Daylight Time)","525090","Trustworthy,Untrustworthy","","","fullscreenenter","2","6983","fullscreenenter","","","","","","","","","","","","","",""
"fullscreen","2","7980","0.0-2.0","6144bf2539bc8f85335af4be","bdp_rwlrn","Wed Mar 15 2023 15:33:15 GMT-0400 (Eastern Daylight Time)","525090","Trustworthy,Untrustworthy","","","","","","","true","","","","","","","","","","","","",""
"instructions","3","82181","0.0-4.0","6144bf2539bc8f85335af4be","bdp_rwlrn","Wed Mar 15 2023 15:33:15 GMT-0400 (Eastern Daylight Time)","525090","Trustworthy,Untrustworthy","[{""page_index"":0,""viewing_time"":8232},{""page_index"":1,""viewing_time"":12858},{""page_index"":2,""viewing_time"":10131},{""page_index"":1,""viewing_time"":2740},{""page_index"":0,""viewing_time"":3192},{""page_index"":1,""viewing_time"":1123},{""page_index"":2,""viewing_time"":1125},{""page_index"":3,""viewing_time"":7689},{""page_index"":4,""viewing_time"":23243},{""page_index"":5,""viewing_time"":3866}]","74199","","","","","","","","","","","","","","","","","",""
"html-keyboard-response","4","85212","0.0-5.0","6144bf2539bc8f85335af4be","bdp_rwlrn","Wed Mar 15 2023 15:33:15 GMT-0400 (Eastern Daylight Time)","525090","Trustworthy,Untrustworthy","","3025","","","","","","<div class='header' style='text-align:left; position: absolute; top: 5%; left: 5%;'><small>Task 1 of 5</small></div><div class='instruxDiv'><p><strong>1) What is the maximum number of points you can choose to bet on a lottery?</strong></p><p>a) 0</p><p>b) 1</p><p>c) 5</p>","C","","","","","","","","","","",""
"html-keyboard-response","5","87538","0.0-6.0","6144bf2539bc8f85335af4be","bdp_rwlrn","Wed Mar 15 2023 15:33:15 GMT-0400 (Eastern Daylight Time)","525090","Trustworthy,Untrustworthy","","2221","","","","","","<div class='header' style='text-align:left; position: absolute; top: 5%; left: 5%;'><small>Task 1 of 5</small></div><div class='instruxDiv'><p><strong>1) What is the maximum number of points you can choose to bet on a lottery?</strong></p><p>a) 1</p><p>b) 1</p><p style='color:#00FF00'>c) 5</p><h3 style='color:#00FF00'>Correct!</h3><h3 class='center-content'>The correct response is c).</h3><h3 class='center-content'>The maximum number of points you can choose to bet on a lottery is 5 points.</h3><p><em>Press SPACEBAR to continue</em></p></div>"," ","","","","","","","","","","",""
"html-keyboard-response","6","91789","0.0-7.0","6144bf2539bc8f85335af4be","bdp_rwlrn","Wed Mar 15 2023 15:33:15 GMT-0400 (Eastern Daylight Time)","525090","Trustworthy,Untrustworthy","","4145","","","","","","<div class='header' style='text-align:left; position: absolute; top: 5%; left: 5%;'><small>Task 1 of 5</small></div><div class='instruxDiv'><p><strong>2) How many points can you win each round?</strong></p><p>a) 10 points</p><p>b) Double what you bet</p><p>c) Quadruple what you bet</p>","B","","","","","","","","","","",""
"html-keyboard-response","7","93468","0.0-8.0","6144bf2539bc8f85335af4be","bdp_rwlrn","Wed Mar 15 2023 15:33:15 GMT-0400 (Eastern Daylight Time)","525090","Trustworthy,Untrustworthy","","1568","","","","","","<div class='header' style='text-align:left; position: absolute; top: 5%; left: 5%;'><small>Task 1 of 5</small></div><div class='instruxDiv'><p><strong>2) How many points can you win each round?</strong></p><p>a) 10 points</p><p style='color:#00FF00'>b) Double what you bet</p><p>c) Quadruple what you bet</p><h3 style='color:#00FF00'>Correct!</h3><h3 class='center-content'>The correct response is b).</h3><h3 class='center-content'>You can win double the amount of points you bet.</h3><p><em>Press SPACEBAR to continue</em></p></div>"," ","","","","","","","","","","",""
"html-keyboard-response","8","98588","0.0-9.0","6144bf2539bc8f85335af4be","bdp_rwlrn","Wed Mar 15 2023 15:33:15 GMT-0400 (Eastern Daylight Time)","525090","Trustworthy,Untrustworthy","","null","","","","","","<div class='header' style='text-align:left; position: absolute; top: 5%; left: 5%;'><small>Task 1 of 5</small></div><div class='instruxDiv'><p>Thank you for completing the quiz<p>These are the actual lotteries you will be playing in the next block:<p><div class='tc' align='center'><img class='introPic' src='Fruit/apple.png'><br><strong>Awesome Apples</strong></div><div class='bl' align='center'><img class='introPic' src='Fruit/pineapple.png'><br><strong>Primo Pineapple</strong></div><div class='br' align='center'><img class='introPic' src='Fruit/mango.png'><br><strong>Mega Mangos</strong></div></div><p>Across <strong>66 rounds</strong> you will play each lottery <strong>22 times</strong> (in random order).<p style='align:center; color:white'><font <em>Press SPACEBAR to continue</em></p>","null","","","","","","","","","","",""
"instructions","9","110436","0.0-10.0","6144bf2539bc8f85335af4be","bdp_rwlrn","Wed Mar 15 2023 15:33:15 GMT-0400 (Eastern Daylight Time)","525090","Trustworthy,Untrustworthy","[{""page_index"":0,""viewing_time"":7601},{""page_index"":1,""viewing_time"":4246}]","11847","","","","","","","","","","","","","","","","","",""
"html-keyboard-response","10","111684","0.0-11.0-1.0","6144bf2539bc8f85335af4be","bdp_rwlrn","Wed Mar 15 2023 15:33:15 GMT-0400 (Eastern Daylight Time)","525090","Trustworthy,Untrustworthy","","1132","","","","decision","","<div class='trialDiv'><img src='Fruit/mango.png'><br><font class='baseline'><strong>Mega Mangos</strong><p>Choose number of points to bet.</font><div class='respPicDiv'><img src='img/responseButtonOffersNo0L.png' class='respPic'></div></div>","3","1","Mega Mangos","Fruit/mango.png","Lost","0.2,0.65","10","0.2","5","1","",""
"html-keyboard-response","11","111947","0.0-11.0-2.0","6144bf2539bc8f85335af4be","bdp_rwlrn","Wed Mar 15 2023 15:33:15 GMT-0400 (Eastern Daylight Time)","525090","Trustworthy,Untrustworthy","","null","","","","decisionFB","","<div class='trialDiv'><img src='Fruit/mango.png'><br><font class='baseline'><strong>Mega Mangos</strong><p>Choose number of points to bet.</font><div class='respPicDiv'><img src='img/responseButtonOffersNo0L3.png' class='respPic'></div></div>","null","1","Mega Mangos","Fruit/mango.png","Lost","0.2,0.65","10","0.2","2","1","",""
"html-keyboard-response","12","112955","0.0-11.0-3.0","6144bf2539bc8f85335af4be","bdp_rwlrn","Wed Mar 15 2023 15:33:15 GMT-0400 (Eastern Daylight Time)","525090","Trustworthy,Untrustworthy","","null","","","","feedback","","<div class='respPicDiv'><img src='img/responseButtonOffersNo0_wht.png' class='respPic'></div><div class='trialDiv'><img src='Fruit/mango.png'><br><font class='baseline'><strong>Mega Mangos</strong><p><strong><font class='negOutcome'>You LOST</font><p>You bet: 3</strong></font> &nbsp; &nbsp; &nbsp; &nbsp; &nbsp; &nbsp;<font class='negOutcome'>You receive: <strong>0</strong></font></div>","null","1","Mega Mangos","Fruit/mango.png","Lost","0.2,0.65","10","0.2","2","1","",""
"html-keyboard-response","13","114757","0.0-11.0-1.1","6144bf2539bc8f85335af4be","bdp_rwlrn","Wed Mar 15 2023 15:33:15 GMT-0400 (Eastern Daylight Time)","525090","Trustworthy,Untrustworthy","","1800","","","","decision","","<div class='trialDiv'><img src='Fruit/apple.png'><br><font class='baseline'><strong>Awesome Apples</strong><p>Choose number of points to bet.</font><div class='respPicDiv'><img src='img/responseButtonOffersNo0L.png' class='respPic'></div></div>","3","1","Awesome Apples","Fruit/apple.png","Lost","0.2,0.8","8","0.2","7","2","",""
"html-keyboard-response","14","115019","0.0-11.0-2.1","6144bf2539bc8f85335af4be","bdp_rwlrn","Wed Mar 15 2023 15:33:15 GMT-0400 (Eastern Daylight Time)","525090","Trustworthy,Untrustworthy","","null","","","","decisionFB","","<div class='trialDiv'><img src='Fruit/apple.png'><br><font class='baseline'><strong>Awesome Apples</strong><p>Choose number of points to bet.</font><div class='respPicDiv'><img src='img/responseButtonOffersNo0L3.png' class='respPic'></div></div>","null","1","Awesome Apples","Fruit/apple.png","Lost","0.2,0.8","8","0.2","4","2","",""
"html-keyboard-response","15","116025","0.0-11.0-3.1","6144bf2539bc8f85335af4be","bdp_rwlrn","Wed Mar 15 2023 15:33:15 GMT-0400 (Eastern Daylight Time)","525090","Trustworthy,Untrustworthy","","null","","","","feedback","","<div class='respPicDiv'><img src='img/responseButtonOffersNo0_wht.png' class='respPic'></div><div class='trialDiv'><img src='Fruit/apple.png'><br><font class='baseline'><strong>Awesome Apples</strong><p><strong><font class='negOutcome'>You LOST</font><p>You bet: 3</strong></font> &nbsp; &nbsp; &nbsp; &nbsp; &nbsp; &nbsp;<font class='negOutcome'>You receive: <strong>0</strong></font></div>","null","1","Awesome Apples","Fruit/apple.png","Lost","0.2,0.8","8","0.2","4","2","",""
"html-keyboard-response","16","116746","0.0-11.0-1.2","6144bf2539bc8f85335af4be","bdp_rwlrn","Wed Mar 15 2023 15:33:15 GMT-0400 (Eastern Daylight Time)","525090","Trustworthy,Untrustworthy","","718","","","","decision","","<div class='trialDiv'><img src='Fruit/pineapple.png'><br><font class='baseline'><strong>Primo Pineapple</strong><p>Choose number of points to bet.</font><div class='respPicDiv'><img src='img/responseButtonOffersNo0L.png' class='respPic'></div></div>","3","1","Primo Pineapple","Fruit/pineapple.png","Won","0.8,0.35","11","0.8","9","3","",""
"html-keyboard-response","17","117002","0.0-11.0-2.2","6144bf2539bc8f85335af4be","bdp_rwlrn","Wed Mar 15 2023 15:33:15 GMT-0400 (Eastern Daylight Time)","525090","Trustworthy,Untrustworthy","","null","","","","decisionFB","","<div class='trialDiv'><img src='Fruit/pineapple.png'><br><font class='baseline'><strong>Primo Pineapple</strong><p>Choose number of points to bet.</font><div class='respPicDiv'><img src='img/responseButtonOffersNo0L3.png' class='respPic'></div></div>","null","1","Primo Pineapple","Fruit/pineapple.png","Won","0.8,0.35","11","0.8","6","3","",""
"html-keyboard-response","18","118009","0.0-11.0-3.2","6144bf2539bc8f85335af4be","bdp_rwlrn","Wed Mar 15 2023 15:33:15 GMT-0400 (Eastern Daylight Time)","525090","Trustworthy,Untrustworthy","","null","","","","feedback","","<div class='respPicDiv'><img src='img/responseButtonOffersNo0_wht.png' class='respPic'></div><div class='trialDiv'><img src='Fruit/pineapple.png'><br><font class='baseline'><strong>Primo Pineapple</strong><p><strong><font class='posOutcome'>You WON</font><p>You bet: 3</strong></font> &nbsp; &nbsp; &nbsp; &nbsp; &nbsp; &nbsp;<font class='posOutcome'>you receive: <strong>6</strong></font></div>","null","1","Primo Pineapple","Fruit/pineapple.png","Won","0.8,0.35","11","0.8","12","3","",""
"html-keyboard-response","19","120094","0.0-11.0-1.3","6144bf2539bc8f85335af4be","bdp_rwlrn","Wed Mar 15 2023 15:33:15 GMT-0400 (Eastern Daylight Time)","525090","Trustworthy,Untrustworthy","","2083","","","","decision","","<div class='trialDiv'><img src='Fruit/mango.png'><br><font class='baseline'><strong>Mega Mangos</strong><p>Choose number of points to bet.</font><div class='respPicDiv'><img src='img/responseButtonOffersNo0L.png' class='respPic'></div></div>","2","2","Mega Mangos","Fruit/mango.png","Lost","0.2,0.65","10","0.2","17","4","",""
"html-keyboard-response","20","120354","0.0-11.0-2.3","6144bf2539bc8f85335af4be","bdp_rwlrn","Wed Mar 15 2023 15:33:15 GMT-0400 (Eastern Daylight Time)","525090","Trustworthy,Untrustworthy","","null","","","","decisionFB","","<div class='trialDiv'><img src='Fruit/mango.png'><br><font class='baseline'><strong>Mega Mangos</strong><p>Choose number of points to bet.</font><div class='respPicDiv'><img src='img/responseButtonOffersNo0L2.png' class='respPic'></div></div>","null","2","Mega Mangos","Fruit/mango.png","Lost","0.2,0.65","10","0.2","15","4","",""
"html-keyboard-response","21","121363","0.0-11.0-3.3","6144bf2539bc8f85335af4be","bdp_rwlrn","Wed Mar 15 2023 15:33:15 GMT-0400 (Eastern Daylight Time)","525090","Trustworthy,Untrustworthy","","null","","","","feedback","","<div class='respPicDiv'><img src='img/responseButtonOffersNo0_wht.png' class='respPic'></div><div class='trialDiv'><img src='Fruit/mango.png'><br><font class='baseline'><strong>Mega Mangos</strong><p><strong><font class='negOutcome'>You LOST</font><p>You bet: 2</strong></font> &nbsp; &nbsp; &nbsp; &nbsp; &nbsp; &nbsp;<font class='negOutcome'>You receive: <strong>0</strong></font></div>","null","2","Mega Mangos","Fruit/mango.png","Lost","0.2,0.65","10","0.2","15","4","",""
"html-keyboard-response","22","123072","0.0-11.0-1.4","6144bf2539bc8f85335af4be","bdp_rwlrn","Wed Mar 15 2023 15:33:15 GMT-0400 (Eastern Daylight Time)","525090","Trustworthy,Untrustworthy","","1707","","","","decision","","<div class='trialDiv'><img src='Fruit/apple.png'><br><font class='baseline'><strong>Awesome Apples</strong><p>Choose number of points to bet.</font><div class='respPicDiv'><img src='img/responseButtonOffersNo0L.png' class='respPic'></div></div>","2","2","Awesome Apples","Fruit/apple.png","Won","0.2,0.8","8","0.2","20","5","",""
"html-keyboard-response","23","123329","0.0-11.0-2.4","6144bf2539bc8f85335af4be","bdp_rwlrn","Wed Mar 15 2023 15:33:15 GMT-0400 (Eastern Daylight Time)","525090","Trustworthy,Untrustworthy","","null","","","","decisionFB","","<div class='trialDiv'><img src='Fruit/apple.png'><br><font class='baseline'><strong>Awesome Apples</strong><p>Choose number of points to bet.</font><div class='respPicDiv'><img src='img/responseButtonOffersNo0L2.png' class='respPic'></div></div>","null","2","Awesome Apples","Fruit/apple.png","Won","0.2,0.8","8","0.2","18","5","",""
"html-keyboard-response","24","124335","0.0-11.0-3.4","6144bf2539bc8f85335af4be","bdp_rwlrn","Wed Mar 15 2023 15:33:15 GMT-0400 (Eastern Daylight Time)","525090","Trustworthy,Untrustworthy","","null","","","","feedback","","<div class='respPicDiv'><img src='img/responseButtonOffersNo0_wht.png' class='respPic'></div><div class='trialDiv'><img src='Fruit/apple.png'><br><font class='baseline'><strong>Awesome Apples</strong><p><strong><font class='posOutcome'>You WON</font><p>You bet: 2</strong></font> &nbsp; &nbsp; &nbsp; &nbsp; &nbsp; &nbsp;<font class='posOutcome'>you receive: <strong>4</strong></font></div>","null","2","Awesome Apples","Fruit/apple.png","Won","0.2,0.8","8","0.2","22","5","",""
"html-keyboard-response","25","126020","0.0-11.0-1.5","6144bf2539bc8f85335af4be","bdp_rwlrn","Wed Mar 15 2023 15:33:15 GMT-0400 (Eastern Daylight Time)","525090","Trustworthy,Untrustworthy","","1683","","","","decision","","<div class='trialDiv'><img src='Fruit/pineapple.png'><br><font class='baseline'><strong>Primo Pineapple</strong><p>Choose number of points to bet.</font><div class='respPicDiv'><img src='img/responseButtonOffersNo0L.png' class='respPic'></div></div>","3","2","Primo Pineapple","Fruit/pineapple.png","Won","0.8,0.35","11","0.8","27","6","",""
"html-keyboard-response","26","126283","0.0-11.0-2.5","6144bf2539bc8f85335af4be","bdp_rwlrn","Wed Mar 15 2023 15:33:15 GMT-0400 (Eastern Daylight Time)","525090","Trustworthy,Untrustworthy","","null","","","","decisionFB","","<div class='trialDiv'><img src='Fruit/pineapple.png'><br><font class='baseline'><strong>Primo Pineapple</strong><p>Choose number of points to bet.</font><div class='respPicDiv'><img src='img/responseButtonOffersNo0L3.png' class='respPic'></div></div>","null","2","Primo Pineapple","Fruit/pineapple.png","Won","0.8,0.35","11","0.8","24","6","",""
"html-keyboard-response","27","127289","0.0-11.0-3.5","6144bf2539bc8f85335af4be","bdp_rwlrn","Wed Mar 15 2023 15:33:15 GMT-0400 (Eastern Daylight Time)","525090","Trustworthy,Untrustworthy","","null","","","","feedback","","<div class='respPicDiv'><img src='img/responseButtonOffersNo0_wht.png' class='respPic'></div><div class='trialDiv'><img src='Fruit/pineapple.png'><br><font class='baseline'><strong>Primo Pineapple</strong><p><strong><font class='posOutcome'>You WON</font><p>You bet: 3</strong></font> &nbsp; &nbsp; &nbsp; &nbsp; &nbsp; &nbsp;<font class='posOutcome'>you receive: <strong>6</strong></font></div>","null","2","Primo Pineapple","Fruit/pineapple.png","Won","0.8,0.35","11","0.8","30","6","",""
"html-keyboard-response","28","128772","0.0-11.0-1.6","6144bf2539bc8f85335af4be","bdp_rwlrn","Wed Mar 15 2023 15:33:15 GMT-0400 (Eastern Daylight Time)","525090","Trustworthy,Untrustworthy","","1481","","","","decision","","<div class='trialDiv'><img src='Fruit/mango.png'><br><font class='baseline'><strong>Mega Mangos</strong><p>Choose number of points to bet.</font><div class='respPicDiv'><img src='img/responseButtonOffersNo0L.png' class='respPic'></div></div>","4","3","Mega Mangos","Fruit/mango.png","Lost","0.2,0.65","10","0.2","35","7","",""
"html-keyboard-response","29","129032","0.0-11.0-2.6","6144bf2539bc8f85335af4be","bdp_rwlrn","Wed Mar 15 2023 15:33:15 GMT-0400 (Eastern Daylight Time)","525090","Trustworthy,Untrustworthy","","null","","","","decisionFB","","<div class='trialDiv'><img src='Fruit/mango.png'><br><font class='baseline'><strong>Mega Mangos</strong><p>Choose number of points to bet.</font><div class='respPicDiv'><img src='img/responseButtonOffersNo0L4.png' class='respPic'></div></div>","null","3","Mega Mangos","Fruit/mango.png","Lost","0.2,0.65","10","0.2","31","7","",""
"html-keyboard-response","30","130043","0.0-11.0-3.6","6144bf2539bc8f85335af4be","bdp_rwlrn","Wed Mar 15 2023 15:33:15 GMT-0400 (Eastern Daylight Time)","525090","Trustworthy,Untrustworthy","","null","","","","feedback","","<div class='respPicDiv'><img src='img/responseButtonOffersNo0_wht.png' class='respPic'></div><div class='trialDiv'><img src='Fruit/mango.png'><br><font class='baseline'><strong>Mega Mangos</strong><p><strong><font class='negOutcome'>You LOST</font><p>You bet: 4</strong></font> &nbsp; &nbsp; &nbsp; &nbsp; &nbsp; &nbsp;<font class='negOutcome'>You receive: <strong>0</strong></font></div>","null","3","Mega Mangos","Fruit/mango.png","Lost","0.2,0.65","10","0.2","31","7","",""
"html-keyboard-response","31","131817","0.0-11.0-1.7","6144bf2539bc8f85335af4be","bdp_rwlrn","Wed Mar 15 2023 15:33:15 GMT-0400 (Eastern Daylight Time)","525090","Trustworthy,Untrustworthy","","1774","","","","decision","","<div class='trialDiv'><img src='Fruit/apple.png'><br><font class='baseline'><strong>Awesome Apples</strong><p>Choose number of points to bet.</font><div class='respPicDiv'><img src='img/responseButtonOffersNo0L.png' class='respPic'></div></div>","2","3","Awesome Apples","Fruit/apple.png","Lost","0.2,0.8","8","0.2","36","8","",""
"html-keyboard-response","32","132074","0.0-11.0-2.7","6144bf2539bc8f85335af4be","bdp_rwlrn","Wed Mar 15 2023 15:33:15 GMT-0400 (Eastern Daylight Time)","525090","Trustworthy,Untrustworthy","","null","","","","decisionFB","","<div class='trialDiv'><img src='Fruit/apple.png'><br><font class='baseline'><strong>Awesome Apples</strong><p>Choose number of points to bet.</font><div class='respPicDiv'><img src='img/responseButtonOffersNo0L2.png' class='respPic'></div></div>","null","3","Awesome Apples","Fruit/apple.png","Lost","0.2,0.8","8","0.2","34","8","",""
"html-keyboard-response","33","133081","0.0-11.0-3.7","6144bf2539bc8f85335af4be","bdp_rwlrn","Wed Mar 15 2023 15:33:15 GMT-0400 (Eastern Daylight Time)","525090","Trustworthy,Untrustworthy","","null","","","","feedback","","<div class='respPicDiv'><img src='img/responseButtonOffersNo0_wht.png' class='respPic'></div><div class='trialDiv'><img src='Fruit/apple.png'><br><font class='baseline'><strong>Awesome Apples</strong><p><strong><font class='negOutcome'>You LOST</font><p>You bet: 2</strong></font> &nbsp; &nbsp; &nbsp; &nbsp; &nbsp; &nbsp;<font class='negOutcome'>You receive: <strong>0</strong></font></div>","null","3","Awesome Apples","Fruit/apple.png","Lost","0.2,0.8","8","0.2","34","8","",""
"html-keyboard-response","34","134946","0.0-11.0-1.8","6144bf2539bc8f85335af4be","bdp_rwlrn","Wed Mar 15 2023 15:33:15 GMT-0400 (Eastern Daylight Time)","525090","Trustworthy,Untrustworthy","","1864","","","","decision","","<div class='trialDiv'><img src='Fruit/pineapple.png'><br><font class='baseline'><strong>Primo Pineapple</strong><p>Choose number of points to bet.</font><div class='respPicDiv'><img src='img/responseButtonOffersNo0L.png' class='respPic'></div></div>","4","3","Primo Pineapple","Fruit/pineapple.png","Won","0.8,0.35","11","0.8","39","9","",""
"html-keyboard-response","35","135211","0.0-11.0-2.8","6144bf2539bc8f85335af4be","bdp_rwlrn","Wed Mar 15 2023 15:33:15 GMT-0400 (Eastern Daylight Time)","525090","Trustworthy,Untrustworthy","","null","","","","decisionFB","","<div class='trialDiv'><img src='Fruit/pineapple.png'><br><font class='baseline'><strong>Primo Pineapple</strong><p>Choose number of points to bet.</font><div class='respPicDiv'><img src='img/responseButtonOffersNo0L4.png' class='respPic'></div></div>","null","3","Primo Pineapple","Fruit/pineapple.png","Won","0.8,0.35","11","0.8","35","9","",""
"html-keyboard-response","36","136219","0.0-11.0-3.8","6144bf2539bc8f85335af4be","bdp_rwlrn","Wed Mar 15 2023 15:33:15 GMT-0400 (Eastern Daylight Time)","525090","Trustworthy,Untrustworthy","","null","","","","feedback","","<div class='respPicDiv'><img src='img/responseButtonOffersNo0_wht.png' class='respPic'></div><div class='trialDiv'><img src='Fruit/pineapple.png'><br><font class='baseline'><strong>Primo Pineapple</strong><p><strong><font class='posOutcome'>You WON</font><p>You bet: 4</strong></font> &nbsp; &nbsp; &nbsp; &nbsp; &nbsp; &nbsp;<font class='posOutcome'>you receive: <strong>8</strong></font></div>","null","3","Primo Pineapple","Fruit/pineapple.png","Won","0.8,0.35","11","0.8","43","9","",""
"html-keyboard-response","37","140830","0.0-11.0-1.9","6144bf2539bc8f85335af4be","bdp_rwlrn","Wed Mar 15 2023 15:33:15 GMT-0400 (Eastern Daylight Time)","525090","Trustworthy,Untrustworthy","","4609","","","","decision","","<div class='trialDiv'><img src='Fruit/apple.png'><br><font class='baseline'><strong>Awesome Apples</strong><p>Choose number of points to bet.</font><div class='respPicDiv'><img src='img/responseButtonOffersNo0L.png' class='respPic'></div></div>","3","4","Awesome Apples","Fruit/apple.png","Lost","0.2,0.8","8","0.2","48","10","",""
"html-keyboard-response","38","141088","0.0-11.0-2.9","6144bf2539bc8f85335af4be","bdp_rwlrn","Wed Mar 15 2023 15:33:15 GMT-0400 (Eastern Daylight Time)","525090","Trustworthy,Untrustworthy","","null","","","","decisionFB","","<div class='trialDiv'><img src='Fruit/apple.png'><br><font class='baseline'><strong>Awesome Apples</strong><p>Choose number of points to bet.</font><div class='respPicDiv'><img src='img/responseButtonOffersNo0L3.png' class='respPic'></div></div>","null","4","Awesome Apples","Fruit/apple.png","Lost","0.2,0.8","8","0.2","45","10","",""
"html-keyboard-response","39","142099","0.0-11.0-3.9","6144bf2539bc8f85335af4be","bdp_rwlrn","Wed Mar 15 2023 15:33:15 GMT-0400 (Eastern Daylight Time)","525090","Trustworthy,Untrustworthy","","null","","","","feedback","","<div class='respPicDiv'><img src='img/responseButtonOffersNo0_wht.png' class='respPic'></div><div class='trialDiv'><img src='Fruit/apple.png'><br><font class='baseline'><strong>Awesome Apples</strong><p><strong><font class='negOutcome'>You LOST</font><p>You bet: 3</strong></font> &nbsp; &nbsp; &nbsp; &nbsp; &nbsp; &nbsp;<font class='negOutcome'>You receive: <strong>0</strong></font></div>","null","4","Awesome Apples","Fruit/apple.png","Lost","0.2,0.8","8","0.2","45","10","",""
"html-keyboard-response","40","143306","0.0-11.0-1.10","6144bf2539bc8f85335af4be","bdp_rwlrn","Wed Mar 15 2023 15:33:15 GMT-0400 (Eastern Daylight Time)","525090","Trustworthy,Untrustworthy","","1206","","","","decision","","<div class='trialDiv'><img src='Fruit/mango.png'><br><font class='baseline'><strong>Mega Mangos</strong><p>Choose number of points to bet.</font><div class='respPicDiv'><img src='img/responseButtonOffersNo0L.png' class='respPic'></div></div>","1","4","Mega Mangos","Fruit/mango.png","Lost","0.2,0.65","10","0.2","50","11","",""
"html-keyboard-response","41","143561","0.0-11.0-2.10","6144bf2539bc8f85335af4be","bdp_rwlrn","Wed Mar 15 2023 15:33:15 GMT-0400 (Eastern Daylight Time)","525090","Trustworthy,Untrustworthy","","null","","","","decisionFB","","<div class='trialDiv'><img src='Fruit/mango.png'><br><font class='baseline'><strong>Mega Mangos</strong><p>Choose number of points to bet.</font><div class='respPicDiv'><img src='img/responseButtonOffersNo0L1.png' class='respPic'></div></div>","null","4","Mega Mangos","Fruit/mango.png","Lost","0.2,0.65","10","0.2","49","11","",""
"html-keyboard-response","42","144571","0.0-11.0-3.10","6144bf2539bc8f85335af4be","bdp_rwlrn","Wed Mar 15 2023 15:33:15 GMT-0400 (Eastern Daylight Time)","525090","Trustworthy,Untrustworthy","","null","","","","feedback","","<div class='respPicDiv'><img src='img/responseButtonOffersNo0_wht.png' class='respPic'></div><div class='trialDiv'><img src='Fruit/mango.png'><br><font class='baseline'><strong>Mega Mangos</strong><p><strong><font class='negOutcome'>You LOST</font><p>You bet: 1</strong></font> &nbsp; &nbsp; &nbsp; &nbsp; &nbsp; &nbsp;<font class='negOutcome'>You receive: <strong>0</strong></font></div>","null","4","Mega Mangos","Fruit/mango.png","Lost","0.2,0.65","10","0.2","49","11","",""
"html-keyboard-response","43","147550","0.0-11.0-1.11","6144bf2539bc8f85335af4be","bdp_rwlrn","Wed Mar 15 2023 15:33:15 GMT-0400 (Eastern Daylight Time)","525090","Trustworthy,Untrustworthy","","2977","","","","decision","","<div class='trialDiv'><img src='Fruit/pineapple.png'><br><font class='baseline'><strong>Primo Pineapple</strong><p>Choose number of points to bet.</font><div class='respPicDiv'><img src='img/responseButtonOffersNo0L.png' class='respPic'></div></div>","5","4","Primo Pineapple","Fruit/pineapple.png","Won","0.8,0.35","11","0.8","54","12","",""
"html-keyboard-response","44","147807","0.0-11.0-2.11","6144bf2539bc8f85335af4be","bdp_rwlrn","Wed Mar 15 2023 15:33:15 GMT-0400 (Eastern Daylight Time)","525090","Trustworthy,Untrustworthy","","null","","","","decisionFB","","<div class='trialDiv'><img src='Fruit/pineapple.png'><br><font class='baseline'><strong>Primo Pineapple</strong><p>Choose number of points to bet.</font><div class='respPicDiv'><img src='img/responseButtonOffersNo0L5.png' class='respPic'></div></div>","null","4","Primo Pineapple","Fruit/pineapple.png","Won","0.8,0.35","11","0.8","49","12","",""
"html-keyboard-response","45","148817","0.0-11.0-3.11","6144bf2539bc8f85335af4be","bdp_rwlrn","Wed Mar 15 2023 15:33:15 GMT-0400 (Eastern Daylight Time)","525090","Trustworthy,Untrustworthy","","null","","","","feedback","","<div class='respPicDiv'><img src='img/responseButtonOffersNo0_wht.png' class='respPic'></div><div class='trialDiv'><img src='Fruit/pineapple.png'><br><font class='baseline'><strong>Primo Pineapple</strong><p><strong><font class='posOutcome'>You WON</font><p>You bet: 5</strong></font> &nbsp; &nbsp; &nbsp; &nbsp; &nbsp; &nbsp;<font class='posOutcome'>you receive: <strong>10</strong></font></div>","null","4","Primo Pineapple","Fruit/pineapple.png","Won","0.8,0.35","11","0.8","59","12","",""
"html-keyboard-response","46","150581","0.0-11.0-1.12","6144bf2539bc8f85335af4be","bdp_rwlrn","Wed Mar 15 2023 15:33:15 GMT-0400 (Eastern Daylight Time)","525090","Trustworthy,Untrustworthy","","1764","","","","decision","","<div class='trialDiv'><img src='Fruit/apple.png'><br><font class='baseline'><strong>Awesome Apples</strong><p>Choose number of points to bet.</font><div class='respPicDiv'><img src='img/responseButtonOffersNo0L.png' class='respPic'></div></div>","3","5","Awesome Apples","Fruit/apple.png","Lost","0.2,0.8","8","0.2","64","13","",""
"html-keyboard-response","47","150842","0.0-11.0-2.12","6144bf2539bc8f85335af4be","bdp_rwlrn","Wed Mar 15 2023 15:33:15 GMT-0400 (Eastern Daylight Time)","525090","Trustworthy,Untrustworthy","","null","","","","decisionFB","","<div class='trialDiv'><img src='Fruit/apple.png'><br><font class='baseline'><strong>Awesome Apples</strong><p>Choose number of points to bet.</font><div class='respPicDiv'><img src='img/responseButtonOffersNo0L3.png' class='respPic'></div></div>","null","5","Awesome Apples","Fruit/apple.png","Lost","0.2,0.8","8","0.2","61","13","",""
"html-keyboard-response","48","151850","0.0-11.0-3.12","6144bf2539bc8f85335af4be","bdp_rwlrn","Wed Mar 15 2023 15:33:15 GMT-0400 (Eastern Daylight Time)","525090","Trustworthy,Untrustworthy","","null","","","","feedback","","<div class='respPicDiv'><img src='img/responseButtonOffersNo0_wht.png' class='respPic'></div><div class='trialDiv'><img src='Fruit/apple.png'><br><font class='baseline'><strong>Awesome Apples</strong><p><strong><font class='negOutcome'>You LOST</font><p>You bet: 3</strong></font> &nbsp; &nbsp; &nbsp; &nbsp; &nbsp; &nbsp;<font class='negOutcome'>You receive: <strong>0</strong></font></div>","null","5","Awesome Apples","Fruit/apple.png","Lost","0.2,0.8","8","0.2","61","13","",""
"html-keyboard-response","49","155308","0.0-11.0-1.13","6144bf2539bc8f85335af4be","bdp_rwlrn","Wed Mar 15 2023 15:33:15 GMT-0400 (Eastern Daylight Time)","525090","Trustworthy,Untrustworthy","","3455","","","","decision","","<div class='trialDiv'><img src='Fruit/pineapple.png'><br><font class='baseline'><strong>Primo Pineapple</strong><p>Choose number of points to bet.</font><div class='respPicDiv'><img src='img/responseButtonOffersNo0L.png' class='respPic'></div></div>","5","5","Primo Pineapple","Fruit/pineapple.png","Won","0.8,0.35","11","0.8","66","14","",""
"html-keyboard-response","50","155570","0.0-11.0-2.13","6144bf2539bc8f85335af4be","bdp_rwlrn","Wed Mar 15 2023 15:33:15 GMT-0400 (Eastern Daylight Time)","525090","Trustworthy,Untrustworthy","","null","","","","decisionFB","","<div class='trialDiv'><img src='Fruit/pineapple.png'><br><font class='baseline'><strong>Primo Pineapple</strong><p>Choose number of points to bet.</font><div class='respPicDiv'><img src='img/responseButtonOffersNo0L5.png' class='respPic'></div></div>","null","5","Primo Pineapple","Fruit/pineapple.png","Won","0.8,0.35","11","0.8","61","14","",""
"html-keyboard-response","51","156574","0.0-11.0-3.13","6144bf2539bc8f85335af4be","bdp_rwlrn","Wed Mar 15 2023 15:33:15 GMT-0400 (Eastern Daylight Time)","525090","Trustworthy,Untrustworthy","","null","","","","feedback","","<div class='respPicDiv'><img src='img/responseButtonOffersNo0_wht.png' class='respPic'></div><div class='trialDiv'><img src='Fruit/pineapple.png'><br><font class='baseline'><strong>Primo Pineapple</strong><p><strong><font class='posOutcome'>You WON</font><p>You bet: 5</strong></font> &nbsp; &nbsp; &nbsp; &nbsp; &nbsp; &nbsp;<font class='posOutcome'>you receive: <strong>10</strong></font></div>","null","5","Primo Pineapple","Fruit/pineapple.png","Won","0.8,0.35","11","0.8","71","14","",""
"html-keyboard-response","52","157493","0.0-11.0-1.14","6144bf2539bc8f85335af4be","bdp_rwlrn","Wed Mar 15 2023 15:33:15 GMT-0400 (Eastern Daylight Time)","525090","Trustworthy,Untrustworthy","","917","","","","decision","","<div class='trialDiv'><img src='Fruit/mango.png'><br><font class='baseline'><strong>Mega Mangos</strong><p>Choose number of points to bet.</font><div class='respPicDiv'><img src='img/responseButtonOffersNo0L.png' class='respPic'></div></div>","1","5","Mega Mangos","Fruit/mango.png","Lost","0.2,0.65","10","0.2","76","15","",""
"html-keyboard-response","53","157754","0.0-11.0-2.14","6144bf2539bc8f85335af4be","bdp_rwlrn","Wed Mar 15 2023 15:33:15 GMT-0400 (Eastern Daylight Time)","525090","Trustworthy,Untrustworthy","","null","","","","decisionFB","","<div class='trialDiv'><img src='Fruit/mango.png'><br><font class='baseline'><strong>Mega Mangos</strong><p>Choose number of points to bet.</font><div class='respPicDiv'><img src='img/responseButtonOffersNo0L1.png' class='respPic'></div></div>","null","5","Mega Mangos","Fruit/mango.png","Lost","0.2,0.65","10","0.2","75","15","",""
"html-keyboard-response","54","158758","0.0-11.0-3.14","6144bf2539bc8f85335af4be","bdp_rwlrn","Wed Mar 15 2023 15:33:15 GMT-0400 (Eastern Daylight Time)","525090","Trustworthy,Untrustworthy","","null","","","","feedback","","<div class='respPicDiv'><img src='img/responseButtonOffersNo0_wht.png' class='respPic'></div><div class='trialDiv'><img src='Fruit/mango.png'><br><font class='baseline'><strong>Mega Mangos</strong><p><strong><font class='negOutcome'>You LOST</font><p>You bet: 1</strong></font> &nbsp; &nbsp; &nbsp; &nbsp; &nbsp; &nbsp;<font class='negOutcome'>You receive: <strong>0</strong></font></div>","null","5","Mega Mangos","Fruit/mango.png","Lost","0.2,0.65","10","0.2","75","15","",""
"html-keyboard-response","55","159721","0.0-11.0-1.15","6144bf2539bc8f85335af4be","bdp_rwlrn","Wed Mar 15 2023 15:33:15 GMT-0400 (Eastern Daylight Time)","525090","Trustworthy,Untrustworthy","","961","","","","decision","","<div class='trialDiv'><img src='Fruit/pineapple.png'><br><font class='baseline'><strong>Primo Pineapple</strong><p>Choose number of points to bet.</font><div class='respPicDiv'><img src='img/responseButtonOffersNo0L.png' class='respPic'></div></div>","5","6","Primo Pineapple","Fruit/pineapple.png","Won","0.8,0.35","11","0.8","80","16","",""
"html-keyboard-response","56","159982","0.0-11.0-2.15","6144bf2539bc8f85335af4be","bdp_rwlrn","Wed Mar 15 2023 15:33:15 GMT-0400 (Eastern Daylight Time)","525090","Trustworthy,Untrustworthy","","null","","","","decisionFB","","<div class='trialDiv'><img src='Fruit/pineapple.png'><br><font class='baseline'><strong>Primo Pineapple</strong><p>Choose number of points to bet.</font><div class='respPicDiv'><img src='img/responseButtonOffersNo0L5.png' class='respPic'></div></div>","null","6","Primo Pineapple","Fruit/pineapple.png","Won","0.8,0.35","11","0.8","75","16","",""
"html-keyboard-response","57","160990","0.0-11.0-3.15","6144bf2539bc8f85335af4be","bdp_rwlrn","Wed Mar 15 2023 15:33:15 GMT-0400 (Eastern Daylight Time)","525090","Trustworthy,Untrustworthy","","null","","","","feedback","","<div class='respPicDiv'><img src='img/responseButtonOffersNo0_wht.png' class='respPic'></div><div class='trialDiv'><img src='Fruit/pineapple.png'><br><font class='baseline'><strong>Primo Pineapple</strong><p><strong><font class='posOutcome'>You WON</font><p>You bet: 5</strong></font> &nbsp; &nbsp; &nbsp; &nbsp; &nbsp; &nbsp;<font class='posOutcome'>you receive: <strong>10</strong></font></div>","null","6","Primo Pineapple","Fruit/pineapple.png","Won","0.8,0.35","11","0.8","85","16","",""
"html-keyboard-response","58","161600","0.0-11.0-1.16","6144bf2539bc8f85335af4be","bdp_rwlrn","Wed Mar 15 2023 15:33:15 GMT-0400 (Eastern Daylight Time)","525090","Trustworthy,Untrustworthy","","607","","","","decision","","<div class='trialDiv'><img src='Fruit/mango.png'><br><font class='baseline'><strong>Mega Mangos</strong><p>Choose number of points to bet.</font><div class='respPicDiv'><img src='img/responseButtonOffersNo0L.png' class='respPic'></div></div>","1","6","Mega Mangos","Fruit/mango.png","Lost","0.2,0.65","10","0.2","90","17","",""
"html-keyboard-response","59","161853","0.0-11.0-2.16","6144bf2539bc8f85335af4be","bdp_rwlrn","Wed Mar 15 2023 15:33:15 GMT-0400 (Eastern Daylight Time)","525090","Trustworthy,Untrustworthy","","null","","","","decisionFB","","<div class='trialDiv'><img src='Fruit/mango.png'><br><font class='baseline'><strong>Mega Mangos</strong><p>Choose number of points to bet.</font><div class='respPicDiv'><img src='img/responseButtonOffersNo0L1.png' class='respPic'></div></div>","null","6","Mega Mangos","Fruit/mango.png","Lost","0.2,0.65","10","0.2","89","17","",""
"html-keyboard-response","60","162865","0.0-11.0-3.16","6144bf2539bc8f85335af4be","bdp_rwlrn","Wed Mar 15 2023 15:33:15 GMT-0400 (Eastern Daylight Time)","525090","Trustworthy,Untrustworthy","","null","","","","feedback","","<div class='respPicDiv'><img src='img/responseButtonOffersNo0_wht.png' class='respPic'></div><div class='trialDiv'><img src='Fruit/mango.png'><br><font class='baseline'><strong>Mega Mangos</strong><p><strong><font class='negOutcome'>You LOST</font><p>You bet: 1</strong></font> &nbsp; &nbsp; &nbsp; &nbsp; &nbsp; &nbsp;<font class='negOutcome'>You receive: <strong>0</strong></font></div>","null","6","Mega Mangos","Fruit/mango.png","Lost","0.2,0.65","10","0.2","89","17","",""
"html-keyboard-response","61","164637","0.0-11.0-1.17","6144bf2539bc8f85335af4be","bdp_rwlrn","Wed Mar 15 2023 15:33:15 GMT-0400 (Eastern Daylight Time)","525090","Trustworthy,Untrustworthy","","1770","","","","decision","","<div class='trialDiv'><img src='Fruit/apple.png'><br><font class='baseline'><strong>Awesome Apples</strong><p>Choose number of points to bet.</font><div class='respPicDiv'><img src='img/responseButtonOffersNo0L.png' class='respPic'></div></div>","3","6","Awesome Apples","Fruit/apple.png","Won","0.2,0.8","8","0.2","94","18","",""
"html-keyboard-response","62","164894","0.0-11.0-2.17","6144bf2539bc8f85335af4be","bdp_rwlrn","Wed Mar 15 2023 15:33:15 GMT-0400 (Eastern Daylight Time)","525090","Trustworthy,Untrustworthy","","null","","","","decisionFB","","<div class='trialDiv'><img src='Fruit/apple.png'><br><font class='baseline'><strong>Awesome Apples</strong><p>Choose number of points to bet.</font><div class='respPicDiv'><img src='img/responseButtonOffersNo0L3.png' class='respPic'></div></div>","null","6","Awesome Apples","Fruit/apple.png","Won","0.2,0.8","8","0.2","91","18","",""
"html-keyboard-response","63","165903","0.0-11.0-3.17","6144bf2539bc8f85335af4be","bdp_rwlrn","Wed Mar 15 2023 15:33:15 GMT-0400 (Eastern Daylight Time)","525090","Trustworthy,Untrustworthy","","null","","","","feedback","","<div class='respPicDiv'><img src='img/responseButtonOffersNo0_wht.png' class='respPic'></div><div class='trialDiv'><img src='Fruit/apple.png'><br><font class='baseline'><strong>Awesome Apples</strong><p><strong><font class='posOutcome'>You WON</font><p>You bet: 3</strong></font> &nbsp; &nbsp; &nbsp; &nbsp; &nbsp; &nbsp;<font class='posOutcome'>you receive: <strong>6</strong></font></div>","null","6","Awesome Apples","Fruit/apple.png","Won","0.2,0.8","8","0.2","97","18","",""
"html-keyboard-response","64","168014","0.0-11.0-1.18","6144bf2539bc8f85335af4be","bdp_rwlrn","Wed Mar 15 2023 15:33:15 GMT-0400 (Eastern Daylight Time)","525090","Trustworthy,Untrustworthy","","2110","","","","decision","","<div class='trialDiv'><img src='Fruit/pineapple.png'><br><font class='baseline'><strong>Primo Pineapple</strong><p>Choose number of points to bet.</font><div class='respPicDiv'><img src='img/responseButtonOffersNo0L.png' class='respPic'></div></div>","5","7","Primo Pineapple","Fruit/pineapple.png","Lost","0.8,0.35","11","0.8","102","19","",""
"html-keyboard-response","65","168272","0.0-11.0-2.18","6144bf2539bc8f85335af4be","bdp_rwlrn","Wed Mar 15 2023 15:33:15 GMT-0400 (Eastern Daylight Time)","525090","Trustworthy,Untrustworthy","","null","","","","decisionFB","","<div class='trialDiv'><img src='Fruit/pineapple.png'><br><font class='baseline'><strong>Primo Pineapple</strong><p>Choose number of points to bet.</font><div class='respPicDiv'><img src='img/responseButtonOffersNo0L5.png' class='respPic'></div></div>","null","7","Primo Pineapple","Fruit/pineapple.png","Lost","0.8,0.35","11","0.8","97","19","",""
"html-keyboard-response","66","169282","0.0-11.0-3.18","6144bf2539bc8f85335af4be","bdp_rwlrn","Wed Mar 15 2023 15:33:15 GMT-0400 (Eastern Daylight Time)","525090","Trustworthy,Untrustworthy","","null","","","","feedback","","<div class='respPicDiv'><img src='img/responseButtonOffersNo0_wht.png' class='respPic'></div><div class='trialDiv'><img src='Fruit/pineapple.png'><br><font class='baseline'><strong>Primo Pineapple</strong><p><strong><font class='negOutcome'>You LOST</font><p>You bet: 5</strong></font> &nbsp; &nbsp; &nbsp; &nbsp; &nbsp; &nbsp;<font class='negOutcome'>You receive: <strong>0</strong></font></div>","null","7","Primo Pineapple","Fruit/pineapple.png","Lost","0.8,0.35","11","0.8","97","19","",""
"html-keyboard-response","67","171816","0.0-11.0-1.19","6144bf2539bc8f85335af4be","bdp_rwlrn","Wed Mar 15 2023 15:33:15 GMT-0400 (Eastern Daylight Time)","525090","Trustworthy,Untrustworthy","","2531","","","","decision","","<div class='trialDiv'><img src='Fruit/apple.png'><br><font class='baseline'><strong>Awesome Apples</strong><p>Choose number of points to bet.</font><div class='respPicDiv'><img src='img/responseButtonOffersNo0L.png' class='respPic'></div></div>","3","7","Awesome Apples","Fruit/apple.png","Won","0.2,0.8","8","0.2","102","20","",""
"html-keyboard-response","68","172070","0.0-11.0-2.19","6144bf2539bc8f85335af4be","bdp_rwlrn","Wed Mar 15 2023 15:33:15 GMT-0400 (Eastern Daylight Time)","525090","Trustworthy,Untrustworthy","","null","","","","decisionFB","","<div class='trialDiv'><img src='Fruit/apple.png'><br><font class='baseline'><strong>Awesome Apples</strong><p>Choose number of points to bet.</font><div class='respPicDiv'><img src='img/responseButtonOffersNo0L3.png' class='respPic'></div></div>","null","7","Awesome Apples","Fruit/apple.png","Won","0.2,0.8","8","0.2","99","20","",""
"html-keyboard-response","69","173082","0.0-11.0-3.19","6144bf2539bc8f85335af4be","bdp_rwlrn","Wed Mar 15 2023 15:33:15 GMT-0400 (Eastern Daylight Time)","525090","Trustworthy,Untrustworthy","","null","","","","feedback","","<div class='respPicDiv'><img src='img/responseButtonOffersNo0_wht.png' class='respPic'></div><div class='trialDiv'><img src='Fruit/apple.png'><br><font class='baseline'><strong>Awesome Apples</strong><p><strong><font class='posOutcome'>You WON</font><p>You bet: 3</strong></font> &nbsp; &nbsp; &nbsp; &nbsp; &nbsp; &nbsp;<font class='posOutcome'>you receive: <strong>6</strong></font></div>","null","7","Awesome Apples","Fruit/apple.png","Won","0.2,0.8","8","0.2","105","20","",""
"html-keyboard-response","70","173938","0.0-11.0-1.20","6144bf2539bc8f85335af4be","bdp_rwlrn","Wed Mar 15 2023 15:33:15 GMT-0400 (Eastern Daylight Time)","525090","Trustworthy,Untrustworthy","","856","","","","decision","","<div class='trialDiv'><img src='Fruit/mango.png'><br><font class='baseline'><strong>Mega Mangos</strong><p>Choose number of points to bet.</font><div class='respPicDiv'><img src='img/responseButtonOffersNo0L.png' class='respPic'></div></div>","1","7","Mega Mangos","Fruit/mango.png","Lost","0.2,0.65","10","0.2","110","21","",""
"html-keyboard-response","71","174202","0.0-11.0-2.20","6144bf2539bc8f85335af4be","bdp_rwlrn","Wed Mar 15 2023 15:33:15 GMT-0400 (Eastern Daylight Time)","525090","Trustworthy,Untrustworthy","","null","","","","decisionFB","","<div class='trialDiv'><img src='Fruit/mango.png'><br><font class='baseline'><strong>Mega Mangos</strong><p>Choose number of points to bet.</font><div class='respPicDiv'><img src='img/responseButtonOffersNo0L1.png' class='respPic'></div></div>","null","7","Mega Mangos","Fruit/mango.png","Lost","0.2,0.65","10","0.2","109","21","",""
"html-keyboard-response","72","175210","0.0-11.0-3.20","6144bf2539bc8f85335af4be","bdp_rwlrn","Wed Mar 15 2023 15:33:15 GMT-0400 (Eastern Daylight Time)","525090","Trustworthy,Untrustworthy","","null","","","","feedback","","<div class='respPicDiv'><img src='img/responseButtonOffersNo0_wht.png' class='respPic'></div><div class='trialDiv'><img src='Fruit/mango.png'><br><font class='baseline'><strong>Mega Mangos</strong><p><strong><font class='negOutcome'>You LOST</font><p>You bet: 1</strong></font> &nbsp; &nbsp; &nbsp; &nbsp; &nbsp; &nbsp;<font class='negOutcome'>You receive: <strong>0</strong></font></div>","null","7","Mega Mangos","Fruit/mango.png","Lost","0.2,0.65","10","0.2","109","21","",""
"html-keyboard-response","73","176545","0.0-11.0-1.21","6144bf2539bc8f85335af4be","bdp_rwlrn","Wed Mar 15 2023 15:33:15 GMT-0400 (Eastern Daylight Time)","525090","Trustworthy,Untrustworthy","","1334","","","","decision","","<div class='trialDiv'><img src='Fruit/apple.png'><br><font class='baseline'><strong>Awesome Apples</strong><p>Choose number of points to bet.</font><div class='respPicDiv'><img src='img/responseButtonOffersNo0L.png' class='respPic'></div></div>","3","8","Awesome Apples","Fruit/apple.png","Won","0.2,0.8","8","0.2","114","22","",""
"html-keyboard-response","74","176810","0.0-11.0-2.21","6144bf2539bc8f85335af4be","bdp_rwlrn","Wed Mar 15 2023 15:33:15 GMT-0400 (Eastern Daylight Time)","525090","Trustworthy,Untrustworthy","","null","","","","decisionFB","","<div class='trialDiv'><img src='Fruit/apple.png'><br><font class='baseline'><strong>Awesome Apples</strong><p>Choose number of points to bet.</font><div class='respPicDiv'><img src='img/responseButtonOffersNo0L3.png' class='respPic'></div></div>","null","8","Awesome Apples","Fruit/apple.png","Won","0.2,0.8","8","0.2","111","22","",""
"html-keyboard-response","75","177813","0.0-11.0-3.21","6144bf2539bc8f85335af4be","bdp_rwlrn","Wed Mar 15 2023 15:33:15 GMT-0400 (Eastern Daylight Time)","525090","Trustworthy,Untrustworthy","","null","","","","feedback","","<div class='respPicDiv'><img src='img/responseButtonOffersNo0_wht.png' class='respPic'></div><div class='trialDiv'><img src='Fruit/apple.png'><br><font class='baseline'><strong>Awesome Apples</strong><p><strong><font class='posOutcome'>You WON</font><p>You bet: 3</strong></font> &nbsp; &nbsp; &nbsp; &nbsp; &nbsp; &nbsp;<font class='posOutcome'>you receive: <strong>6</strong></font></div>","null","8","Awesome Apples","Fruit/apple.png","Won","0.2,0.8","8","0.2","117","22","",""
"html-keyboard-response","76","178299","0.0-11.0-1.22","6144bf2539bc8f85335af4be","bdp_rwlrn","Wed Mar 15 2023 15:33:15 GMT-0400 (Eastern Daylight Time)","525090","Trustworthy,Untrustworthy","","484","","","","decision","","<div class='trialDiv'><img src='Fruit/mango.png'><br><font class='baseline'><strong>Mega Mangos</strong><p>Choose number of points to bet.</font><div class='respPicDiv'><img src='img/responseButtonOffersNo0L.png' class='respPic'></div></div>","5","8","Mega Mangos","Fruit/mango.png","Lost","0.2,0.65","10","0.2","122","23","",""
"html-keyboard-response","77","178553","0.0-11.0-2.22","6144bf2539bc8f85335af4be","bdp_rwlrn","Wed Mar 15 2023 15:33:15 GMT-0400 (Eastern Daylight Time)","525090","Trustworthy,Untrustworthy","","null","","","","decisionFB","","<div class='trialDiv'><img src='Fruit/mango.png'><br><font class='baseline'><strong>Mega Mangos</strong><p>Choose number of points to bet.</font><div class='respPicDiv'><img src='img/responseButtonOffersNo0L5.png' class='respPic'></div></div>","null","8","Mega Mangos","Fruit/mango.png","Lost","0.2,0.65","10","0.2","117","23","",""
"html-keyboard-response","78","179558","0.0-11.0-3.22","6144bf2539bc8f85335af4be","bdp_rwlrn","Wed Mar 15 2023 15:33:15 GMT-0400 (Eastern Daylight Time)","525090","Trustworthy,Untrustworthy","","null","","","","feedback","","<div class='respPicDiv'><img src='img/responseButtonOffersNo0_wht.png' class='respPic'></div><div class='trialDiv'><img src='Fruit/mango.png'><br><font class='baseline'><strong>Mega Mangos</strong><p><strong><font class='negOutcome'>You LOST</font><p>You bet: 5</strong></font> &nbsp; &nbsp; &nbsp; &nbsp; &nbsp; &nbsp;<font class='negOutcome'>You receive: <strong>0</strong></font></div>","null","8","Mega Mangos","Fruit/mango.png","Lost","0.2,0.65","10","0.2","117","23","",""
"html-keyboard-response","79","180119","0.0-11.0-1.23","6144bf2539bc8f85335af4be","bdp_rwlrn","Wed Mar 15 2023 15:33:15 GMT-0400 (Eastern Daylight Time)","525090","Trustworthy,Untrustworthy","","561","","","","decision","","<div class='trialDiv'><img src='Fruit/pineapple.png'><br><font class='baseline'><strong>Primo Pineapple</strong><p>Choose number of points to bet.</font><div class='respPicDiv'><img src='img/responseButtonOffersNo0L.png' class='respPic'></div></div>","5","8","Primo Pineapple","Fruit/pineapple.png","Won","0.8,0.35","11","0.8","122","24","",""
"html-keyboard-response","80","180375","0.0-11.0-2.23","6144bf2539bc8f85335af4be","bdp_rwlrn","Wed Mar 15 2023 15:33:15 GMT-0400 (Eastern Daylight Time)","525090","Trustworthy,Untrustworthy","","null","","","","decisionFB","","<div class='trialDiv'><img src='Fruit/pineapple.png'><br><font class='baseline'><strong>Primo Pineapple</strong><p>Choose number of points to bet.</font><div class='respPicDiv'><img src='img/responseButtonOffersNo0L5.png' class='respPic'></div></div>","null","8","Primo Pineapple","Fruit/pineapple.png","Won","0.8,0.35","11","0.8","117","24","",""
"html-keyboard-response","81","181386","0.0-11.0-3.23","6144bf2539bc8f85335af4be","bdp_rwlrn","Wed Mar 15 2023 15:33:15 GMT-0400 (Eastern Daylight Time)","525090","Trustworthy,Untrustworthy","","null","","","","feedback","","<div class='respPicDiv'><img src='img/responseButtonOffersNo0_wht.png' class='respPic'></div><div class='trialDiv'><img src='Fruit/pineapple.png'><br><font class='baseline'><strong>Primo Pineapple</strong><p><strong><font class='posOutcome'>You WON</font><p>You bet: 5</strong></font> &nbsp; &nbsp; &nbsp; &nbsp; &nbsp; &nbsp;<font class='posOutcome'>you receive: <strong>10</strong></font></div>","null","8","Primo Pineapple","Fruit/pineapple.png","Won","0.8,0.35","11","0.8","127","24","",""
"html-keyboard-response","82","182188","0.0-11.0-1.24","6144bf2539bc8f85335af4be","bdp_rwlrn","Wed Mar 15 2023 15:33:15 GMT-0400 (Eastern Daylight Time)","525090","Trustworthy,Untrustworthy","","801","","","","decision","","<div class='trialDiv'><img src='Fruit/mango.png'><br><font class='baseline'><strong>Mega Mangos</strong><p>Choose number of points to bet.</font><div class='respPicDiv'><img src='img/responseButtonOffersNo0L.png' class='respPic'></div></div>","1","9","Mega Mangos","Fruit/mango.png","Won","0.2,0.65","10","0.2","132","25","",""
"html-keyboard-response","83","182471","0.0-11.0-2.24","6144bf2539bc8f85335af4be","bdp_rwlrn","Wed Mar 15 2023 15:33:15 GMT-0400 (Eastern Daylight Time)","525090","Trustworthy,Untrustworthy","","null","","","","decisionFB","","<div class='trialDiv'><img src='Fruit/mango.png'><br><font class='baseline'><strong>Mega Mangos</strong><p>Choose number of points to bet.</font><div class='respPicDiv'><img src='img/responseButtonOffersNo0L1.png' class='respPic'></div></div>","null","9","Mega Mangos","Fruit/mango.png","Won","0.2,0.65","10","0.2","131","25","",""
"html-keyboard-response","84","183479","0.0-11.0-3.24","6144bf2539bc8f85335af4be","bdp_rwlrn","Wed Mar 15 2023 15:33:15 GMT-0400 (Eastern Daylight Time)","525090","Trustworthy,Untrustworthy","","null","","","","feedback","","<div class='respPicDiv'><img src='img/responseButtonOffersNo0_wht.png' class='respPic'></div><div class='trialDiv'><img src='Fruit/mango.png'><br><font class='baseline'><strong>Mega Mangos</strong><p><strong><font class='posOutcome'>You WON</font><p>You bet: 1</strong></font> &nbsp; &nbsp; &nbsp; &nbsp; &nbsp; &nbsp;<font class='posOutcome'>you receive: <strong>2</strong></font></div>","null","9","Mega Mangos","Fruit/mango.png","Won","0.2,0.65","10","0.2","133","25","",""
"html-keyboard-response","85","184323","0.0-11.0-1.25","6144bf2539bc8f85335af4be","bdp_rwlrn","Wed Mar 15 2023 15:33:15 GMT-0400 (Eastern Daylight Time)","525090","Trustworthy,Untrustworthy","","841","","","","decision","","<div class='trialDiv'><img src='Fruit/pineapple.png'><br><font class='baseline'><strong>Primo Pineapple</strong><p>Choose number of points to bet.</font><div class='respPicDiv'><img src='img/responseButtonOffersNo0L.png' class='respPic'></div></div>","5","9","Primo Pineapple","Fruit/pineapple.png","Won","0.8,0.35","11","0.8","138","26","",""
"html-keyboard-response","86","184576","0.0-11.0-2.25","6144bf2539bc8f85335af4be","bdp_rwlrn","Wed Mar 15 2023 15:33:15 GMT-0400 (Eastern Daylight Time)","525090","Trustworthy,Untrustworthy","","null","","","","decisionFB","","<div class='trialDiv'><img src='Fruit/pineapple.png'><br><font class='baseline'><strong>Primo Pineapple</strong><p>Choose number of points to bet.</font><div class='respPicDiv'><img src='img/responseButtonOffersNo0L5.png' class='respPic'></div></div>","null","9","Primo Pineapple","Fruit/pineapple.png","Won","0.8,0.35","11","0.8","133","26","",""
"html-keyboard-response","87","185583","0.0-11.0-3.25","6144bf2539bc8f85335af4be","bdp_rwlrn","Wed Mar 15 2023 15:33:15 GMT-0400 (Eastern Daylight Time)","525090","Trustworthy,Untrustworthy","","null","","","","feedback","","<div class='respPicDiv'><img src='img/responseButtonOffersNo0_wht.png' class='respPic'></div><div class='trialDiv'><img src='Fruit/pineapple.png'><br><font class='baseline'><strong>Primo Pineapple</strong><p><strong><font class='posOutcome'>You WON</font><p>You bet: 5</strong></font> &nbsp; &nbsp; &nbsp; &nbsp; &nbsp; &nbsp;<font class='posOutcome'>you receive: <strong>10</strong></font></div>","null","9","Primo Pineapple","Fruit/pineapple.png","Won","0.8,0.35","11","0.8","143","26","",""
"html-keyboard-response","88","186655","0.0-11.0-1.26","6144bf2539bc8f85335af4be","bdp_rwlrn","Wed Mar 15 2023 15:33:15 GMT-0400 (Eastern Daylight Time)","525090","Trustworthy,Untrustworthy","","1071","","","","decision","","<div class='trialDiv'><img src='Fruit/apple.png'><br><font class='baseline'><strong>Awesome Apples</strong><p>Choose number of points to bet.</font><div class='respPicDiv'><img src='img/responseButtonOffersNo0L.png' class='respPic'></div></div>","3","9","Awesome Apples","Fruit/apple.png","Won","0.2,0.8","8","0.2","148","27","",""
"html-keyboard-response","89","186910","0.0-11.0-2.26","6144bf2539bc8f85335af4be","bdp_rwlrn","Wed Mar 15 2023 15:33:15 GMT-0400 (Eastern Daylight Time)","525090","Trustworthy,Untrustworthy","","null","","","","decisionFB","","<div class='trialDiv'><img src='Fruit/apple.png'><br><font class='baseline'><strong>Awesome Apples</strong><p>Choose number of points to bet.</font><div class='respPicDiv'><img src='img/responseButtonOffersNo0L3.png' class='respPic'></div></div>","null","9","Awesome Apples","Fruit/apple.png","Won","0.2,0.8","8","0.2","145","27","",""
"html-keyboard-response","90","187922","0.0-11.0-3.26","6144bf2539bc8f85335af4be","bdp_rwlrn","Wed Mar 15 2023 15:33:15 GMT-0400 (Eastern Daylight Time)","525090","Trustworthy,Untrustworthy","","null","","","","feedback","","<div class='respPicDiv'><img src='img/responseButtonOffersNo0_wht.png' class='respPic'></div><div class='trialDiv'><img src='Fruit/apple.png'><br><font class='baseline'><strong>Awesome Apples</strong><p><strong><font class='posOutcome'>You WON</font><p>You bet: 3</strong></font> &nbsp; &nbsp; &nbsp; &nbsp; &nbsp; &nbsp;<font class='posOutcome'>you receive: <strong>6</strong></font></div>","null","9","Awesome Apples","Fruit/apple.png","Won","0.2,0.8","8","0.2","151","27","",""
"html-keyboard-response","91","189514","0.0-11.0-1.27","6144bf2539bc8f85335af4be","bdp_rwlrn","Wed Mar 15 2023 15:33:15 GMT-0400 (Eastern Daylight Time)","525090","Trustworthy,Untrustworthy","","1591","","","","decision","","<div class='trialDiv'><img src='Fruit/pineapple.png'><br><font class='baseline'><strong>Primo Pineapple</strong><p>Choose number of points to bet.</font><div class='respPicDiv'><img src='img/responseButtonOffersNo0L.png' class='respPic'></div></div>","5","10","Primo Pineapple","Fruit/pineapple.png","Won","0.8,0.35","11","0.8","156","28","",""
"html-keyboard-response","92","189769","0.0-11.0-2.27","6144bf2539bc8f85335af4be","bdp_rwlrn","Wed Mar 15 2023 15:33:15 GMT-0400 (Eastern Daylight Time)","525090","Trustworthy,Untrustworthy","","null","","","","decisionFB","","<div class='trialDiv'><img src='Fruit/pineapple.png'><br><font class='baseline'><strong>Primo Pineapple</strong><p>Choose number of points to bet.</font><div class='respPicDiv'><img src='img/responseButtonOffersNo0L5.png' class='respPic'></div></div>","null","10","Primo Pineapple","Fruit/pineapple.png","Won","0.8,0.35","11","0.8","151","28","",""
"html-keyboard-response","93","190777","0.0-11.0-3.27","6144bf2539bc8f85335af4be","bdp_rwlrn","Wed Mar 15 2023 15:33:15 GMT-0400 (Eastern Daylight Time)","525090","Trustworthy,Untrustworthy","","null","","","","feedback","","<div class='respPicDiv'><img src='img/responseButtonOffersNo0_wht.png' class='respPic'></div><div class='trialDiv'><img src='Fruit/pineapple.png'><br><font class='baseline'><strong>Primo Pineapple</strong><p><strong><font class='posOutcome'>You WON</font><p>You bet: 5</strong></font> &nbsp; &nbsp; &nbsp; &nbsp; &nbsp; &nbsp;<font class='posOutcome'>you receive: <strong>10</strong></font></div>","null","10","Primo Pineapple","Fruit/pineapple.png","Won","0.8,0.35","11","0.8","161","28","",""
"html-keyboard-response","94","192023","0.0-11.0-1.28","6144bf2539bc8f85335af4be","bdp_rwlrn","Wed Mar 15 2023 15:33:15 GMT-0400 (Eastern Daylight Time)","525090","Trustworthy,Untrustworthy","","1244","","","","decision","","<div class='trialDiv'><img src='Fruit/apple.png'><br><font class='baseline'><strong>Awesome Apples</strong><p>Choose number of points to bet.</font><div class='respPicDiv'><img src='img/responseButtonOffersNo0L.png' class='respPic'></div></div>","3","10","Awesome Apples","Fruit/apple.png","Won","0.2,0.8","8","0.2","166","29","",""
"html-keyboard-response","95","192281","0.0-11.0-2.28","6144bf2539bc8f85335af4be","bdp_rwlrn","Wed Mar 15 2023 15:33:15 GMT-0400 (Eastern Daylight Time)","525090","Trustworthy,Untrustworthy","","null","","","","decisionFB","","<div class='trialDiv'><img src='Fruit/apple.png'><br><font class='baseline'><strong>Awesome Apples</strong><p>Choose number of points to bet.</font><div class='respPicDiv'><img src='img/responseButtonOffersNo0L3.png' class='respPic'></div></div>","null","10","Awesome Apples","Fruit/apple.png","Won","0.2,0.8","8","0.2","163","29","",""
"html-keyboard-response","96","193285","0.0-11.0-3.28","6144bf2539bc8f85335af4be","bdp_rwlrn","Wed Mar 15 2023 15:33:15 GMT-0400 (Eastern Daylight Time)","525090","Trustworthy,Untrustworthy","","null","","","","feedback","","<div class='respPicDiv'><img src='img/responseButtonOffersNo0_wht.png' class='respPic'></div><div class='trialDiv'><img src='Fruit/apple.png'><br><font class='baseline'><strong>Awesome Apples</strong><p><strong><font class='posOutcome'>You WON</font><p>You bet: 3</strong></font> &nbsp; &nbsp; &nbsp; &nbsp; &nbsp; &nbsp;<font class='posOutcome'>you receive: <strong>6</strong></font></div>","null","10","Awesome Apples","Fruit/apple.png","Won","0.2,0.8","8","0.2","169","29","",""
"html-keyboard-response","97","193986","0.0-11.0-1.29","6144bf2539bc8f85335af4be","bdp_rwlrn","Wed Mar 15 2023 15:33:15 GMT-0400 (Eastern Daylight Time)","525090","Trustworthy,Untrustworthy","","699","","","","decision","","<div class='trialDiv'><img src='Fruit/mango.png'><br><font class='baseline'><strong>Mega Mangos</strong><p>Choose number of points to bet.</font><div class='respPicDiv'><img src='img/responseButtonOffersNo0L.png' class='respPic'></div></div>","1","10","Mega Mangos","Fruit/mango.png","Won","0.2,0.65","10","0.2","174","30","",""
"html-keyboard-response","98","194247","0.0-11.0-2.29","6144bf2539bc8f85335af4be","bdp_rwlrn","Wed Mar 15 2023 15:33:15 GMT-0400 (Eastern Daylight Time)","525090","Trustworthy,Untrustworthy","","null","","","","decisionFB","","<div class='trialDiv'><img src='Fruit/mango.png'><br><font class='baseline'><strong>Mega Mangos</strong><p>Choose number of points to bet.</font><div class='respPicDiv'><img src='img/responseButtonOffersNo0L1.png' class='respPic'></div></div>","null","10","Mega Mangos","Fruit/mango.png","Won","0.2,0.65","10","0.2","173","30","",""
"html-keyboard-response","99","195253","0.0-11.0-3.29","6144bf2539bc8f85335af4be","bdp_rwlrn","Wed Mar 15 2023 15:33:15 GMT-0400 (Eastern Daylight Time)","525090","Trustworthy,Untrustworthy","","null","","","","feedback","","<div class='respPicDiv'><img src='img/responseButtonOffersNo0_wht.png' class='respPic'></div><div class='trialDiv'><img src='Fruit/mango.png'><br><font class='baseline'><strong>Mega Mangos</strong><p><strong><font class='posOutcome'>You WON</font><p>You bet: 1</strong></font> &nbsp; &nbsp; &nbsp; &nbsp; &nbsp; &nbsp;<font class='posOutcome'>you receive: <strong>2</strong></font></div>","null","10","Mega Mangos","Fruit/mango.png","Won","0.2,0.65","10","0.2","175","30","",""
"html-keyboard-response","100","196371","0.0-11.0-1.30","6144bf2539bc8f85335af4be","bdp_rwlrn","Wed Mar 15 2023 15:33:15 GMT-0400 (Eastern Daylight Time)","525090","Trustworthy,Untrustworthy","","1116","","","","decision","","<div class='trialDiv'><img src='Fruit/apple.png'><br><font class='baseline'><strong>Awesome Apples</strong><p>Choose number of points to bet.</font><div class='respPicDiv'><img src='img/responseButtonOffersNo0L.png' class='respPic'></div></div>","3","11","Awesome Apples","Fruit/apple.png","Won","0.2,0.8","8","0.2","180","31","",""
"html-keyboard-response","101","196625","0.0-11.0-2.30","6144bf2539bc8f85335af4be","bdp_rwlrn","Wed Mar 15 2023 15:33:15 GMT-0400 (Eastern Daylight Time)","525090","Trustworthy,Untrustworthy","","null","","","","decisionFB","","<div class='trialDiv'><img src='Fruit/apple.png'><br><font class='baseline'><strong>Awesome Apples</strong><p>Choose number of points to bet.</font><div class='respPicDiv'><img src='img/responseButtonOffersNo0L3.png' class='respPic'></div></div>","null","11","Awesome Apples","Fruit/apple.png","Won","0.2,0.8","8","0.2","177","31","",""
"html-keyboard-response","102","197633","0.0-11.0-3.30","6144bf2539bc8f85335af4be","bdp_rwlrn","Wed Mar 15 2023 15:33:15 GMT-0400 (Eastern Daylight Time)","525090","Trustworthy,Untrustworthy","","null","","","","feedback","","<div class='respPicDiv'><img src='img/responseButtonOffersNo0_wht.png' class='respPic'></div><div class='trialDiv'><img src='Fruit/apple.png'><br><font class='baseline'><strong>Awesome Apples</strong><p><strong><font class='posOutcome'>You WON</font><p>You bet: 3</strong></font> &nbsp; &nbsp; &nbsp; &nbsp; &nbsp; &nbsp;<font class='posOutcome'>you receive: <strong>6</strong></font></div>","null","11","Awesome Apples","Fruit/apple.png","Won","0.2,0.8","8","0.2","183","31","",""
"html-keyboard-response","103","198468","0.0-11.0-1.31","6144bf2539bc8f85335af4be","bdp_rwlrn","Wed Mar 15 2023 15:33:15 GMT-0400 (Eastern Daylight Time)","525090","Trustworthy,Untrustworthy","","833","","","","decision","","<div class='trialDiv'><img src='Fruit/mango.png'><br><font class='baseline'><strong>Mega Mangos</strong><p>Choose number of points to bet.</font><div class='respPicDiv'><img src='img/responseButtonOffersNo0L.png' class='respPic'></div></div>","1","11","Mega Mangos","Fruit/mango.png","Won","0.2,0.65","10","0.2","188","32","",""
"html-keyboard-response","104","198727","0.0-11.0-2.31","6144bf2539bc8f85335af4be","bdp_rwlrn","Wed Mar 15 2023 15:33:15 GMT-0400 (Eastern Daylight Time)","525090","Trustworthy,Untrustworthy","","null","","","","decisionFB","","<div class='trialDiv'><img src='Fruit/mango.png'><br><font class='baseline'><strong>Mega Mangos</strong><p>Choose number of points to bet.</font><div class='respPicDiv'><img src='img/responseButtonOffersNo0L1.png' class='respPic'></div></div>","null","11","Mega Mangos","Fruit/mango.png","Won","0.2,0.65","10","0.2","187","32","",""
"html-keyboard-response","105","199733","0.0-11.0-3.31","6144bf2539bc8f85335af4be","bdp_rwlrn","Wed Mar 15 2023 15:33:15 GMT-0400 (Eastern Daylight Time)","525090","Trustworthy,Untrustworthy","","null","","","","feedback","","<div class='respPicDiv'><img src='img/responseButtonOffersNo0_wht.png' class='respPic'></div><div class='trialDiv'><img src='Fruit/mango.png'><br><font class='baseline'><strong>Mega Mangos</strong><p><strong><font class='posOutcome'>You WON</font><p>You bet: 1</strong></font> &nbsp; &nbsp; &nbsp; &nbsp; &nbsp; &nbsp;<font class='posOutcome'>you receive: <strong>2</strong></font></div>","null","11","Mega Mangos","Fruit/mango.png","Won","0.2,0.65","10","0.2","189","32","",""
"html-keyboard-response","106","200303","0.0-11.0-1.32","6144bf2539bc8f85335af4be","bdp_rwlrn","Wed Mar 15 2023 15:33:15 GMT-0400 (Eastern Daylight Time)","525090","Trustworthy,Untrustworthy","","568","","","","decision","","<div class='trialDiv'><img src='Fruit/pineapple.png'><br><font class='baseline'><strong>Primo Pineapple</strong><p>Choose number of points to bet.</font><div class='respPicDiv'><img src='img/responseButtonOffersNo0L.png' class='respPic'></div></div>","5","11","Primo Pineapple","Fruit/pineapple.png","Won","0.8,0.35","11","0.8","194","33","",""
"html-keyboard-response","107","200556","0.0-11.0-2.32","6144bf2539bc8f85335af4be","bdp_rwlrn","Wed Mar 15 2023 15:33:15 GMT-0400 (Eastern Daylight Time)","525090","Trustworthy,Untrustworthy","","null","","","","decisionFB","","<div class='trialDiv'><img src='Fruit/pineapple.png'><br><font class='baseline'><strong>Primo Pineapple</strong><p>Choose number of points to bet.</font><div class='respPicDiv'><img src='img/responseButtonOffersNo0L5.png' class='respPic'></div></div>","null","11","Primo Pineapple","Fruit/pineapple.png","Won","0.8,0.35","11","0.8","189","33","",""
"html-keyboard-response","108","201569","0.0-11.0-3.32","6144bf2539bc8f85335af4be","bdp_rwlrn","Wed Mar 15 2023 15:33:15 GMT-0400 (Eastern Daylight Time)","525090","Trustworthy,Untrustworthy","","null","","","","feedback","","<div class='respPicDiv'><img src='img/responseButtonOffersNo0_wht.png' class='respPic'></div><div class='trialDiv'><img src='Fruit/pineapple.png'><br><font class='baseline'><strong>Primo Pineapple</strong><p><strong><font class='posOutcome'>You WON</font><p>You bet: 5</strong></font> &nbsp; &nbsp; &nbsp; &nbsp; &nbsp; &nbsp;<font class='posOutcome'>you receive: <strong>10</strong></font></div>","null","11","Primo Pineapple","Fruit/pineapple.png","Won","0.8,0.35","11","0.8","199","33","",""
"html-keyboard-response","109","202215","0.0-11.0-1.33","6144bf2539bc8f85335af4be","bdp_rwlrn","Wed Mar 15 2023 15:33:15 GMT-0400 (Eastern Daylight Time)","525090","Trustworthy,Untrustworthy","","643","","","","decision","","<div class='trialDiv'><img src='Fruit/mango.png'><br><font class='baseline'><strong>Mega Mangos</strong><p>Choose number of points to bet.</font><div class='respPicDiv'><img src='img/responseButtonOffersNo0L.png' class='respPic'></div></div>","1","12","Mega Mangos","Fruit/mango.png","Lost","0.2,0.65","10","0.2","204","34","",""
"html-keyboard-response","110","202471","0.0-11.0-2.33","6144bf2539bc8f85335af4be","bdp_rwlrn","Wed Mar 15 2023 15:33:15 GMT-0400 (Eastern Daylight Time)","525090","Trustworthy,Untrustworthy","","null","","","","decisionFB","","<div class='trialDiv'><img src='Fruit/mango.png'><br><font class='baseline'><strong>Mega Mangos</strong><p>Choose number of points to bet.</font><div class='respPicDiv'><img src='img/responseButtonOffersNo0L1.png' class='respPic'></div></div>","null","12","Mega Mangos","Fruit/mango.png","Lost","0.2,0.65","10","0.2","203","34","",""
"html-keyboard-response","111","203477","0.0-11.0-3.33","6144bf2539bc8f85335af4be","bdp_rwlrn","Wed Mar 15 2023 15:33:15 GMT-0400 (Eastern Daylight Time)","525090","Trustworthy,Untrustworthy","","null","","","","feedback","","<div class='respPicDiv'><img src='img/responseButtonOffersNo0_wht.png' class='respPic'></div><div class='trialDiv'><img src='Fruit/mango.png'><br><font class='baseline'><strong>Mega Mangos</strong><p><strong><font class='negOutcome'>You LOST</font><p>You bet: 1</strong></font> &nbsp; &nbsp; &nbsp; &nbsp; &nbsp; &nbsp;<font class='negOutcome'>You receive: <strong>0</strong></font></div>","null","12","Mega Mangos","Fruit/mango.png","Lost","0.2,0.65","10","0.2","203","34","",""
"html-keyboard-response","112","205022","0.0-11.0-1.34","6144bf2539bc8f85335af4be","bdp_rwlrn","Wed Mar 15 2023 15:33:15 GMT-0400 (Eastern Daylight Time)","525090","Trustworthy,Untrustworthy","","1543","","","","decision","","<div class='trialDiv'><img src='Fruit/apple.png'><br><font class='baseline'><strong>Awesome Apples</strong><p>Choose number of points to bet.</font><div class='respPicDiv'><img src='img/responseButtonOffersNo0L.png' class='respPic'></div></div>","3","12","Awesome Apples","Fruit/apple.png","Won","0.2,0.8","8","0.2","208","35","",""
"html-keyboard-response","113","205281","0.0-11.0-2.34","6144bf2539bc8f85335af4be","bdp_rwlrn","Wed Mar 15 2023 15:33:15 GMT-0400 (Eastern Daylight Time)","525090","Trustworthy,Untrustworthy","","null","","","","decisionFB","","<div class='trialDiv'><img src='Fruit/apple.png'><br><font class='baseline'><strong>Awesome Apples</strong><p>Choose number of points to bet.</font><div class='respPicDiv'><img src='img/responseButtonOffersNo0L3.png' class='respPic'></div></div>","null","12","Awesome Apples","Fruit/apple.png","Won","0.2,0.8","8","0.2","205","35","",""
"html-keyboard-response","114","206285","0.0-11.0-3.34","6144bf2539bc8f85335af4be","bdp_rwlrn","Wed Mar 15 2023 15:33:15 GMT-0400 (Eastern Daylight Time)","525090","Trustworthy,Untrustworthy","","null","","","","feedback","","<div class='respPicDiv'><img src='img/responseButtonOffersNo0_wht.png' class='respPic'></div><div class='trialDiv'><img src='Fruit/apple.png'><br><font class='baseline'><strong>Awesome Apples</strong><p><strong><font class='posOutcome'>You WON</font><p>You bet: 3</strong></font> &nbsp; &nbsp; &nbsp; &nbsp; &nbsp; &nbsp;<font class='posOutcome'>you receive: <strong>6</strong></font></div>","null","12","Awesome Apples","Fruit/apple.png","Won","0.2,0.8","8","0.2","211","35","",""
"html-keyboard-response","115","207417","0.0-11.0-1.35","6144bf2539bc8f85335af4be","bdp_rwlrn","Wed Mar 15 2023 15:33:15 GMT-0400 (Eastern Daylight Time)","525090","Trustworthy,Untrustworthy","","1131","","","","decision","","<div class='trialDiv'><img src='Fruit/pineapple.png'><br><font class='baseline'><strong>Primo Pineapple</strong><p>Choose number of points to bet.</font><div class='respPicDiv'><img src='img/responseButtonOffersNo0L.png' class='respPic'></div></div>","5","12","Primo Pineapple","Fruit/pineapple.png","Lost","0.8,0.35","11","0.8","216","36","",""
"html-keyboard-response","116","207677","0.0-11.0-2.35","6144bf2539bc8f85335af4be","bdp_rwlrn","Wed Mar 15 2023 15:33:15 GMT-0400 (Eastern Daylight Time)","525090","Trustworthy,Untrustworthy","","null","","","","decisionFB","","<div class='trialDiv'><img src='Fruit/pineapple.png'><br><font class='baseline'><strong>Primo Pineapple</strong><p>Choose number of points to bet.</font><div class='respPicDiv'><img src='img/responseButtonOffersNo0L5.png' class='respPic'></div></div>","null","12","Primo Pineapple","Fruit/pineapple.png","Lost","0.8,0.35","11","0.8","211","36","",""
"html-keyboard-response","117","208688","0.0-11.0-3.35","6144bf2539bc8f85335af4be","bdp_rwlrn","Wed Mar 15 2023 15:33:15 GMT-0400 (Eastern Daylight Time)","525090","Trustworthy,Untrustworthy","","null","","","","feedback","","<div class='respPicDiv'><img src='img/responseButtonOffersNo0_wht.png' class='respPic'></div><div class='trialDiv'><img src='Fruit/pineapple.png'><br><font class='baseline'><strong>Primo Pineapple</strong><p><strong><font class='negOutcome'>You LOST</font><p>You bet: 5</strong></font> &nbsp; &nbsp; &nbsp; &nbsp; &nbsp; &nbsp;<font class='negOutcome'>You receive: <strong>0</strong></font></div>","null","12","Primo Pineapple","Fruit/pineapple.png","Lost","0.8,0.35","11","0.8","211","36","",""
"html-keyboard-response","118","210887","0.0-11.0-1.36","6144bf2539bc8f85335af4be","bdp_rwlrn","Wed Mar 15 2023 15:33:15 GMT-0400 (Eastern Daylight Time)","525090","Trustworthy,Untrustworthy","","2198","","","","decision","","<div class='trialDiv'><img src='Fruit/apple.png'><br><font class='baseline'><strong>Awesome Apples</strong><p>Choose number of points to bet.</font><div class='respPicDiv'><img src='img/responseButtonOffersNo0L.png' class='respPic'></div></div>","3","13","Awesome Apples","Fruit/apple.png","Won","0.2,0.8","8","0.2","216","37","",""
"html-keyboard-response","119","211142","0.0-11.0-2.36","6144bf2539bc8f85335af4be","bdp_rwlrn","Wed Mar 15 2023 15:33:15 GMT-0400 (Eastern Daylight Time)","525090","Trustworthy,Untrustworthy","","null","","","","decisionFB","","<div class='trialDiv'><img src='Fruit/apple.png'><br><font class='baseline'><strong>Awesome Apples</strong><p>Choose number of points to bet.</font><div class='respPicDiv'><img src='img/responseButtonOffersNo0L3.png' class='respPic'></div></div>","null","13","Awesome Apples","Fruit/apple.png","Won","0.2,0.8","8","0.2","213","37","",""
"html-keyboard-response","120","212152","0.0-11.0-3.36","6144bf2539bc8f85335af4be","bdp_rwlrn","Wed Mar 15 2023 15:33:15 GMT-0400 (Eastern Daylight Time)","525090","Trustworthy,Untrustworthy","","null","","","","feedback","","<div class='respPicDiv'><img src='img/responseButtonOffersNo0_wht.png' class='respPic'></div><div class='trialDiv'><img src='Fruit/apple.png'><br><font class='baseline'><strong>Awesome Apples</strong><p><strong><font class='posOutcome'>You WON</font><p>You bet: 3</strong></font> &nbsp; &nbsp; &nbsp; &nbsp; &nbsp; &nbsp;<font class='posOutcome'>you receive: <strong>6</strong></font></div>","null","13","Awesome Apples","Fruit/apple.png","Won","0.2,0.8","8","0.2","219","37","",""
"html-keyboard-response","121","213000","0.0-11.0-1.37","6144bf2539bc8f85335af4be","bdp_rwlrn","Wed Mar 15 2023 15:33:15 GMT-0400 (Eastern Daylight Time)","525090","Trustworthy,Untrustworthy","","845","","","","decision","","<div class='trialDiv'><img src='Fruit/pineapple.png'><br><font class='baseline'><strong>Primo Pineapple</strong><p>Choose number of points to bet.</font><div class='respPicDiv'><img src='img/responseButtonOffersNo0L.png' class='respPic'></div></div>","5","13","Primo Pineapple","Fruit/pineapple.png","Lost","0.8,0.35","11","0.8","224","38","",""
"html-keyboard-response","122","213252","0.0-11.0-2.37","6144bf2539bc8f85335af4be","bdp_rwlrn","Wed Mar 15 2023 15:33:15 GMT-0400 (Eastern Daylight Time)","525090","Trustworthy,Untrustworthy","","null","","","","decisionFB","","<div class='trialDiv'><img src='Fruit/pineapple.png'><br><font class='baseline'><strong>Primo Pineapple</strong><p>Choose number of points to bet.</font><div class='respPicDiv'><img src='img/responseButtonOffersNo0L5.png' class='respPic'></div></div>","null","13","Primo Pineapple","Fruit/pineapple.png","Lost","0.8,0.35","11","0.8","219","38","",""
"html-keyboard-response","123","214260","0.0-11.0-3.37","6144bf2539bc8f85335af4be","bdp_rwlrn","Wed Mar 15 2023 15:33:15 GMT-0400 (Eastern Daylight Time)","525090","Trustworthy,Untrustworthy","","null","","","","feedback","","<div class='respPicDiv'><img src='img/responseButtonOffersNo0_wht.png' class='respPic'></div><div class='trialDiv'><img src='Fruit/pineapple.png'><br><font class='baseline'><strong>Primo Pineapple</strong><p><strong><font class='negOutcome'>You LOST</font><p>You bet: 5</strong></font> &nbsp; &nbsp; &nbsp; &nbsp; &nbsp; &nbsp;<font class='negOutcome'>You receive: <strong>0</strong></font></div>","null","13","Primo Pineapple","Fruit/pineapple.png","Lost","0.8,0.35","11","0.8","219","38","",""
"html-keyboard-response","124","215747","0.0-11.0-1.38","6144bf2539bc8f85335af4be","bdp_rwlrn","Wed Mar 15 2023 15:33:15 GMT-0400 (Eastern Daylight Time)","525090","Trustworthy,Untrustworthy","","1485","","","","decision","","<div class='trialDiv'><img src='Fruit/mango.png'><br><font class='baseline'><strong>Mega Mangos</strong><p>Choose number of points to bet.</font><div class='respPicDiv'><img src='img/responseButtonOffersNo0L.png' class='respPic'></div></div>","3","13","Mega Mangos","Fruit/mango.png","Lost","0.2,0.65","10","0.2","224","39","",""
"html-keyboard-response","125","216007","0.0-11.0-2.38","6144bf2539bc8f85335af4be","bdp_rwlrn","Wed Mar 15 2023 15:33:15 GMT-0400 (Eastern Daylight Time)","525090","Trustworthy,Untrustworthy","","null","","","","decisionFB","","<div class='trialDiv'><img src='Fruit/mango.png'><br><font class='baseline'><strong>Mega Mangos</strong><p>Choose number of points to bet.</font><div class='respPicDiv'><img src='img/responseButtonOffersNo0L3.png' class='respPic'></div></div>","null","13","Mega Mangos","Fruit/mango.png","Lost","0.2,0.65","10","0.2","221","39","",""
"html-keyboard-response","126","217014","0.0-11.0-3.38","6144bf2539bc8f85335af4be","bdp_rwlrn","Wed Mar 15 2023 15:33:15 GMT-0400 (Eastern Daylight Time)","525090","Trustworthy,Untrustworthy","","null","","","","feedback","","<div class='respPicDiv'><img src='img/responseButtonOffersNo0_wht.png' class='respPic'></div><div class='trialDiv'><img src='Fruit/mango.png'><br><font class='baseline'><strong>Mega Mangos</strong><p><strong><font class='negOutcome'>You LOST</font><p>You bet: 3</strong></font> &nbsp; &nbsp; &nbsp; &nbsp; &nbsp; &nbsp;<font class='negOutcome'>You receive: <strong>0</strong></font></div>","null","13","Mega Mangos","Fruit/mango.png","Lost","0.2,0.65","10","0.2","221","39","",""
"html-keyboard-response","127","217846","0.0-11.0-1.39","6144bf2539bc8f85335af4be","bdp_rwlrn","Wed Mar 15 2023 15:33:15 GMT-0400 (Eastern Daylight Time)","525090","Trustworthy,Untrustworthy","","829","","","","decision","","<div class='trialDiv'><img src='Fruit/apple.png'><br><font class='baseline'><strong>Awesome Apples</strong><p>Choose number of points to bet.</font><div class='respPicDiv'><img src='img/responseButtonOffersNo0L.png' class='respPic'></div></div>","3","14","Awesome Apples","Fruit/apple.png","Lost","0.2,0.8","8","0.2","226","40","",""
"html-keyboard-response","128","218102","0.0-11.0-2.39","6144bf2539bc8f85335af4be","bdp_rwlrn","Wed Mar 15 2023 15:33:15 GMT-0400 (Eastern Daylight Time)","525090","Trustworthy,Untrustworthy","","null","","","","decisionFB","","<div class='trialDiv'><img src='Fruit/apple.png'><br><font class='baseline'><strong>Awesome Apples</strong><p>Choose number of points to bet.</font><div class='respPicDiv'><img src='img/responseButtonOffersNo0L3.png' class='respPic'></div></div>","null","14","Awesome Apples","Fruit/apple.png","Lost","0.2,0.8","8","0.2","223","40","",""
"html-keyboard-response","129","219113","0.0-11.0-3.39","6144bf2539bc8f85335af4be","bdp_rwlrn","Wed Mar 15 2023 15:33:15 GMT-0400 (Eastern Daylight Time)","525090","Trustworthy,Untrustworthy","","null","","","","feedback","","<div class='respPicDiv'><img src='img/responseButtonOffersNo0_wht.png' class='respPic'></div><div class='trialDiv'><img src='Fruit/apple.png'><br><font class='baseline'><strong>Awesome Apples</strong><p><strong><font class='negOutcome'>You LOST</font><p>You bet: 3</strong></font> &nbsp; &nbsp; &nbsp; &nbsp; &nbsp; &nbsp;<font class='negOutcome'>You receive: <strong>0</strong></font></div>","null","14","Awesome Apples","Fruit/apple.png","Lost","0.2,0.8","8","0.2","223","40","",""
"html-keyboard-response","130","219938","0.0-11.0-1.40","6144bf2539bc8f85335af4be","bdp_rwlrn","Wed Mar 15 2023 15:33:15 GMT-0400 (Eastern Daylight Time)","525090","Trustworthy,Untrustworthy","","825","","","","decision","","<div class='trialDiv'><img src='Fruit/pineapple.png'><br><font class='baseline'><strong>Primo Pineapple</strong><p>Choose number of points to bet.</font><div class='respPicDiv'><img src='img/responseButtonOffersNo0L.png' class='respPic'></div></div>","5","14","Primo Pineapple","Fruit/pineapple.png","Lost","0.8,0.35","11","0.8","228","41","",""
"html-keyboard-response","131","220197","0.0-11.0-2.40","6144bf2539bc8f85335af4be","bdp_rwlrn","Wed Mar 15 2023 15:33:15 GMT-0400 (Eastern Daylight Time)","525090","Trustworthy,Untrustworthy","","null","","","","decisionFB","","<div class='trialDiv'><img src='Fruit/pineapple.png'><br><font class='baseline'><strong>Primo Pineapple</strong><p>Choose number of points to bet.</font><div class='respPicDiv'><img src='img/responseButtonOffersNo0L5.png' class='respPic'></div></div>","null","14","Primo Pineapple","Fruit/pineapple.png","Lost","0.8,0.35","11","0.8","223","41","",""
"html-keyboard-response","132","221209","0.0-11.0-3.40","6144bf2539bc8f85335af4be","bdp_rwlrn","Wed Mar 15 2023 15:33:15 GMT-0400 (Eastern Daylight Time)","525090","Trustworthy,Untrustworthy","","null","","","","feedback","","<div class='respPicDiv'><img src='img/responseButtonOffersNo0_wht.png' class='respPic'></div><div class='trialDiv'><img src='Fruit/pineapple.png'><br><font class='baseline'><strong>Primo Pineapple</strong><p><strong><font class='negOutcome'>You LOST</font><p>You bet: 5</strong></font> &nbsp; &nbsp; &nbsp; &nbsp; &nbsp; &nbsp;<font class='negOutcome'>You receive: <strong>0</strong></font></div>","null","14","Primo Pineapple","Fruit/pineapple.png","Lost","0.8,0.35","11","0.8","223","41","",""
"html-keyboard-response","133","223558","0.0-11.0-1.41","6144bf2539bc8f85335af4be","bdp_rwlrn","Wed Mar 15 2023 15:33:15 GMT-0400 (Eastern Daylight Time)","525090","Trustworthy,Untrustworthy","","2347","","","","decision","","<div class='trialDiv'><img src='Fruit/mango.png'><br><font class='baseline'><strong>Mega Mangos</strong><p>Choose number of points to bet.</font><div class='respPicDiv'><img src='img/responseButtonOffersNo0L.png' class='respPic'></div></div>","1","14","Mega Mangos","Fruit/mango.png","Lost","0.2,0.65","10","0.2","228","42","",""
"html-keyboard-response","134","223816","0.0-11.0-2.41","6144bf2539bc8f85335af4be","bdp_rwlrn","Wed Mar 15 2023 15:33:15 GMT-0400 (Eastern Daylight Time)","525090","Trustworthy,Untrustworthy","","null","","","","decisionFB","","<div class='trialDiv'><img src='Fruit/mango.png'><br><font class='baseline'><strong>Mega Mangos</strong><p>Choose number of points to bet.</font><div class='respPicDiv'><img src='img/responseButtonOffersNo0L1.png' class='respPic'></div></div>","null","14","Mega Mangos","Fruit/mango.png","Lost","0.2,0.65","10","0.2","227","42","",""
"html-keyboard-response","135","224825","0.0-11.0-3.41","6144bf2539bc8f85335af4be","bdp_rwlrn","Wed Mar 15 2023 15:33:15 GMT-0400 (Eastern Daylight Time)","525090","Trustworthy,Untrustworthy","","null","","","","feedback","","<div class='respPicDiv'><img src='img/responseButtonOffersNo0_wht.png' class='respPic'></div><div class='trialDiv'><img src='Fruit/mango.png'><br><font class='baseline'><strong>Mega Mangos</strong><p><strong><font class='negOutcome'>You LOST</font><p>You bet: 1</strong></font> &nbsp; &nbsp; &nbsp; &nbsp; &nbsp; &nbsp;<font class='negOutcome'>You receive: <strong>0</strong></font></div>","null","14","Mega Mangos","Fruit/mango.png","Lost","0.2,0.65","10","0.2","227","42","",""
"html-keyboard-response","136","225854","0.0-11.0-1.42","6144bf2539bc8f85335af4be","bdp_rwlrn","Wed Mar 15 2023 15:33:15 GMT-0400 (Eastern Daylight Time)","525090","Trustworthy,Untrustworthy","","1027","","","","decision","","<div class='trialDiv'><img src='Fruit/apple.png'><br><font class='baseline'><strong>Awesome Apples</strong><p>Choose number of points to bet.</font><div class='respPicDiv'><img src='img/responseButtonOffersNo0L.png' class='respPic'></div></div>","3","15","Awesome Apples","Fruit/apple.png","Won","0.2,0.8","8","0.2","232","43","",""
"html-keyboard-response","137","226109","0.0-11.0-2.42","6144bf2539bc8f85335af4be","bdp_rwlrn","Wed Mar 15 2023 15:33:15 GMT-0400 (Eastern Daylight Time)","525090","Trustworthy,Untrustworthy","","null","","","","decisionFB","","<div class='trialDiv'><img src='Fruit/apple.png'><br><font class='baseline'><strong>Awesome Apples</strong><p>Choose number of points to bet.</font><div class='respPicDiv'><img src='img/responseButtonOffersNo0L3.png' class='respPic'></div></div>","null","15","Awesome Apples","Fruit/apple.png","Won","0.2,0.8","8","0.2","229","43","",""
"html-keyboard-response","138","227119","0.0-11.0-3.42","6144bf2539bc8f85335af4be","bdp_rwlrn","Wed Mar 15 2023 15:33:15 GMT-0400 (Eastern Daylight Time)","525090","Trustworthy,Untrustworthy","","null","","","","feedback","","<div class='respPicDiv'><img src='img/responseButtonOffersNo0_wht.png' class='respPic'></div><div class='trialDiv'><img src='Fruit/apple.png'><br><font class='baseline'><strong>Awesome Apples</strong><p><strong><font class='posOutcome'>You WON</font><p>You bet: 3</strong></font> &nbsp; &nbsp; &nbsp; &nbsp; &nbsp; &nbsp;<font class='posOutcome'>you receive: <strong>6</strong></font></div>","null","15","Awesome Apples","Fruit/apple.png","Won","0.2,0.8","8","0.2","235","43","",""
"html-keyboard-response","139","227692","0.0-11.0-1.43","6144bf2539bc8f85335af4be","bdp_rwlrn","Wed Mar 15 2023 15:33:15 GMT-0400 (Eastern Daylight Time)","525090","Trustworthy,Untrustworthy","","571","","","","decision","","<div class='trialDiv'><img src='Fruit/pineapple.png'><br><font class='baseline'><strong>Primo Pineapple</strong><p>Choose number of points to bet.</font><div class='respPicDiv'><img src='img/responseButtonOffersNo0L.png' class='respPic'></div></div>","5","15","Primo Pineapple","Fruit/pineapple.png","Lost","0.8,0.35","11","0.8","240","44","",""
"html-keyboard-response","140","227952","0.0-11.0-2.43","6144bf2539bc8f85335af4be","bdp_rwlrn","Wed Mar 15 2023 15:33:15 GMT-0400 (Eastern Daylight Time)","525090","Trustworthy,Untrustworthy","","null","","","","decisionFB","","<div class='trialDiv'><img src='Fruit/pineapple.png'><br><font class='baseline'><strong>Primo Pineapple</strong><p>Choose number of points to bet.</font><div class='respPicDiv'><img src='img/responseButtonOffersNo0L5.png' class='respPic'></div></div>","null","15","Primo Pineapple","Fruit/pineapple.png","Lost","0.8,0.35","11","0.8","235","44","",""
"html-keyboard-response","141","228956","0.0-11.0-3.43","6144bf2539bc8f85335af4be","bdp_rwlrn","Wed Mar 15 2023 15:33:15 GMT-0400 (Eastern Daylight Time)","525090","Trustworthy,Untrustworthy","","null","","","","feedback","","<div class='respPicDiv'><img src='img/responseButtonOffersNo0_wht.png' class='respPic'></div><div class='trialDiv'><img src='Fruit/pineapple.png'><br><font class='baseline'><strong>Primo Pineapple</strong><p><strong><font class='negOutcome'>You LOST</font><p>You bet: 5</strong></font> &nbsp; &nbsp; &nbsp; &nbsp; &nbsp; &nbsp;<font class='negOutcome'>You receive: <strong>0</strong></font></div>","null","15","Primo Pineapple","Fruit/pineapple.png","Lost","0.8,0.35","11","0.8","235","44","",""
"html-keyboard-response","142","233129","0.0-11.0-1.44","6144bf2539bc8f85335af4be","bdp_rwlrn","Wed Mar 15 2023 15:33:15 GMT-0400 (Eastern Daylight Time)","525090","Trustworthy,Untrustworthy","","4172","","","","decision","","<div class='trialDiv'><img src='Fruit/mango.png'><br><font class='baseline'><strong>Mega Mangos</strong><p>Choose number of points to bet.</font><div class='respPicDiv'><img src='img/responseButtonOffersNo0L.png' class='respPic'></div></div>","1","15","Mega Mangos","Fruit/mango.png","Lost","0.2,0.65","10","0.2","240","45","",""
"html-keyboard-response","143","233388","0.0-11.0-2.44","6144bf2539bc8f85335af4be","bdp_rwlrn","Wed Mar 15 2023 15:33:15 GMT-0400 (Eastern Daylight Time)","525090","Trustworthy,Untrustworthy","","null","","","","decisionFB","","<div class='trialDiv'><img src='Fruit/mango.png'><br><font class='baseline'><strong>Mega Mangos</strong><p>Choose number of points to bet.</font><div class='respPicDiv'><img src='img/responseButtonOffersNo0L1.png' class='respPic'></div></div>","null","15","Mega Mangos","Fruit/mango.png","Lost","0.2,0.65","10","0.2","239","45","",""
"html-keyboard-response","144","234399","0.0-11.0-3.44","6144bf2539bc8f85335af4be","bdp_rwlrn","Wed Mar 15 2023 15:33:15 GMT-0400 (Eastern Daylight Time)","525090","Trustworthy,Untrustworthy","","null","","","","feedback","","<div class='respPicDiv'><img src='img/responseButtonOffersNo0_wht.png' class='respPic'></div><div class='trialDiv'><img src='Fruit/mango.png'><br><font class='baseline'><strong>Mega Mangos</strong><p><strong><font class='negOutcome'>You LOST</font><p>You bet: 1</strong></font> &nbsp; &nbsp; &nbsp; &nbsp; &nbsp; &nbsp;<font class='negOutcome'>You receive: <strong>0</strong></font></div>","null","15","Mega Mangos","Fruit/mango.png","Lost","0.2,0.65","10","0.2","239","45","",""
"html-keyboard-response","145","235395","0.0-11.0-1.45","6144bf2539bc8f85335af4be","bdp_rwlrn","Wed Mar 15 2023 15:33:15 GMT-0400 (Eastern Daylight Time)","525090","Trustworthy,Untrustworthy","","995","","","","decision","","<div class='trialDiv'><img src='Fruit/pineapple.png'><br><font class='baseline'><strong>Primo Pineapple</strong><p>Choose number of points to bet.</font><div class='respPicDiv'><img src='img/responseButtonOffersNo0L.png' class='respPic'></div></div>","5","16","Primo Pineapple","Fruit/pineapple.png","Lost","0.8,0.35","11","0.8","244","46","",""
"html-keyboard-response","146","235652","0.0-11.0-2.45","6144bf2539bc8f85335af4be","bdp_rwlrn","Wed Mar 15 2023 15:33:15 GMT-0400 (Eastern Daylight Time)","525090","Trustworthy,Untrustworthy","","null","","","","decisionFB","","<div class='trialDiv'><img src='Fruit/pineapple.png'><br><font class='baseline'><strong>Primo Pineapple</strong><p>Choose number of points to bet.</font><div class='respPicDiv'><img src='img/responseButtonOffersNo0L5.png' class='respPic'></div></div>","null","16","Primo Pineapple","Fruit/pineapple.png","Lost","0.8,0.35","11","0.8","239","46","",""
"html-keyboard-response","147","236664","0.0-11.0-3.45","6144bf2539bc8f85335af4be","bdp_rwlrn","Wed Mar 15 2023 15:33:15 GMT-0400 (Eastern Daylight Time)","525090","Trustworthy,Untrustworthy","","null","","","","feedback","","<div class='respPicDiv'><img src='img/responseButtonOffersNo0_wht.png' class='respPic'></div><div class='trialDiv'><img src='Fruit/pineapple.png'><br><font class='baseline'><strong>Primo Pineapple</strong><p><strong><font class='negOutcome'>You LOST</font><p>You bet: 5</strong></font> &nbsp; &nbsp; &nbsp; &nbsp; &nbsp; &nbsp;<font class='negOutcome'>You receive: <strong>0</strong></font></div>","null","16","Primo Pineapple","Fruit/pineapple.png","Lost","0.8,0.35","11","0.8","239","46","",""
"html-keyboard-response","148","239187","0.0-11.0-1.46","6144bf2539bc8f85335af4be","bdp_rwlrn","Wed Mar 15 2023 15:33:15 GMT-0400 (Eastern Daylight Time)","525090","Trustworthy,Untrustworthy","","2521","","","","decision","","<div class='trialDiv'><img src='Fruit/mango.png'><br><font class='baseline'><strong>Mega Mangos</strong><p>Choose number of points to bet.</font><div class='respPicDiv'><img src='img/responseButtonOffersNo0L.png' class='respPic'></div></div>","1","16","Mega Mangos","Fruit/mango.png","Won","0.2,0.65","10","0.2","244","47","",""
"html-keyboard-response","149","239447","0.0-11.0-2.46","6144bf2539bc8f85335af4be","bdp_rwlrn","Wed Mar 15 2023 15:33:15 GMT-0400 (Eastern Daylight Time)","525090","Trustworthy,Untrustworthy","","null","","","","decisionFB","","<div class='trialDiv'><img src='Fruit/mango.png'><br><font class='baseline'><strong>Mega Mangos</strong><p>Choose number of points to bet.</font><div class='respPicDiv'><img src='img/responseButtonOffersNo0L1.png' class='respPic'></div></div>","null","16","Mega Mangos","Fruit/mango.png","Won","0.2,0.65","10","0.2","243","47","",""
"html-keyboard-response","150","240452","0.0-11.0-3.46","6144bf2539bc8f85335af4be","bdp_rwlrn","Wed Mar 15 2023 15:33:15 GMT-0400 (Eastern Daylight Time)","525090","Trustworthy,Untrustworthy","","null","","","","feedback","","<div class='respPicDiv'><img src='img/responseButtonOffersNo0_wht.png' class='respPic'></div><div class='trialDiv'><img src='Fruit/mango.png'><br><font class='baseline'><strong>Mega Mangos</strong><p><strong><font class='posOutcome'>You WON</font><p>You bet: 1</strong></font> &nbsp; &nbsp; &nbsp; &nbsp; &nbsp; &nbsp;<font class='posOutcome'>you receive: <strong>2</strong></font></div>","null","16","Mega Mangos","Fruit/mango.png","Won","0.2,0.65","10","0.2","245","47","",""
"html-keyboard-response","151","241563","0.0-11.0-1.47","6144bf2539bc8f85335af4be","bdp_rwlrn","Wed Mar 15 2023 15:33:15 GMT-0400 (Eastern Daylight Time)","525090","Trustworthy,Untrustworthy","","1109","","","","decision","","<div class='trialDiv'><img src='Fruit/apple.png'><br><font class='baseline'><strong>Awesome Apples</strong><p>Choose number of points to bet.</font><div class='respPicDiv'><img src='img/responseButtonOffersNo0L.png' class='respPic'></div></div>","3","16","Awesome Apples","Fruit/apple.png","Won","0.2,0.8","8","0.2","250","48","",""
"html-keyboard-response","152","241822","0.0-11.0-2.47","6144bf2539bc8f85335af4be","bdp_rwlrn","Wed Mar 15 2023 15:33:15 GMT-0400 (Eastern Daylight Time)","525090","Trustworthy,Untrustworthy","","null","","","","decisionFB","","<div class='trialDiv'><img src='Fruit/apple.png'><br><font class='baseline'><strong>Awesome Apples</strong><p>Choose number of points to bet.</font><div class='respPicDiv'><img src='img/responseButtonOffersNo0L3.png' class='respPic'></div></div>","null","16","Awesome Apples","Fruit/apple.png","Won","0.2,0.8","8","0.2","247","48","",""
"html-keyboard-response","153","242832","0.0-11.0-3.47","6144bf2539bc8f85335af4be","bdp_rwlrn","Wed Mar 15 2023 15:33:15 GMT-0400 (Eastern Daylight Time)","525090","Trustworthy,Untrustworthy","","null","","","","feedback","","<div class='respPicDiv'><img src='img/responseButtonOffersNo0_wht.png' class='respPic'></div><div class='trialDiv'><img src='Fruit/apple.png'><br><font class='baseline'><strong>Awesome Apples</strong><p><strong><font class='posOutcome'>You WON</font><p>You bet: 3</strong></font> &nbsp; &nbsp; &nbsp; &nbsp; &nbsp; &nbsp;<font class='posOutcome'>you receive: <strong>6</strong></font></div>","null","16","Awesome Apples","Fruit/apple.png","Won","0.2,0.8","8","0.2","253","48","",""
"html-keyboard-response","154","243664","0.0-11.0-1.48","6144bf2539bc8f85335af4be","bdp_rwlrn","Wed Mar 15 2023 15:33:15 GMT-0400 (Eastern Daylight Time)","525090","Trustworthy,Untrustworthy","","831","","","","decision","","<div class='trialDiv'><img src='Fruit/pineapple.png'><br><font class='baseline'><strong>Primo Pineapple</strong><p>Choose number of points to bet.</font><div class='respPicDiv'><img src='img/responseButtonOffersNo0L.png' class='respPic'></div></div>","5","17","Primo Pineapple","Fruit/pineapple.png","Lost","0.8,0.35","11","0.8","258","49","",""
"html-keyboard-response","155","243928","0.0-11.0-2.48","6144bf2539bc8f85335af4be","bdp_rwlrn","Wed Mar 15 2023 15:33:15 GMT-0400 (Eastern Daylight Time)","525090","Trustworthy,Untrustworthy","","null","","","","decisionFB","","<div class='trialDiv'><img src='Fruit/pineapple.png'><br><font class='baseline'><strong>Primo Pineapple</strong><p>Choose number of points to bet.</font><div class='respPicDiv'><img src='img/responseButtonOffersNo0L5.png' class='respPic'></div></div>","null","17","Primo Pineapple","Fruit/pineapple.png","Lost","0.8,0.35","11","0.8","253","49","",""
"html-keyboard-response","156","244932","0.0-11.0-3.48","6144bf2539bc8f85335af4be","bdp_rwlrn","Wed Mar 15 2023 15:33:15 GMT-0400 (Eastern Daylight Time)","525090","Trustworthy,Untrustworthy","","null","","","","feedback","","<div class='respPicDiv'><img src='img/responseButtonOffersNo0_wht.png' class='respPic'></div><div class='trialDiv'><img src='Fruit/pineapple.png'><br><font class='baseline'><strong>Primo Pineapple</strong><p><strong><font class='negOutcome'>You LOST</font><p>You bet: 5</strong></font> &nbsp; &nbsp; &nbsp; &nbsp; &nbsp; &nbsp;<font class='negOutcome'>You receive: <strong>0</strong></font></div>","null","17","Primo Pineapple","Fruit/pineapple.png","Lost","0.8,0.35","11","0.8","253","49","",""
"html-keyboard-response","157","246490","0.0-11.0-1.49","6144bf2539bc8f85335af4be","bdp_rwlrn","Wed Mar 15 2023 15:33:15 GMT-0400 (Eastern Daylight Time)","525090","Trustworthy,Untrustworthy","","1556","","","","decision","","<div class='trialDiv'><img src='Fruit/mango.png'><br><font class='baseline'><strong>Mega Mangos</strong><p>Choose number of points to bet.</font><div class='respPicDiv'><img src='img/responseButtonOffersNo0L.png' class='respPic'></div></div>","1","17","Mega Mangos","Fruit/mango.png","Won","0.2,0.65","10","0.2","258","50","",""
"html-keyboard-response","158","246751","0.0-11.0-2.49","6144bf2539bc8f85335af4be","bdp_rwlrn","Wed Mar 15 2023 15:33:15 GMT-0400 (Eastern Daylight Time)","525090","Trustworthy,Untrustworthy","","null","","","","decisionFB","","<div class='trialDiv'><img src='Fruit/mango.png'><br><font class='baseline'><strong>Mega Mangos</strong><p>Choose number of points to bet.</font><div class='respPicDiv'><img src='img/responseButtonOffersNo0L1.png' class='respPic'></div></div>","null","17","Mega Mangos","Fruit/mango.png","Won","0.2,0.65","10","0.2","257","50","",""
"html-keyboard-response","159","247757","0.0-11.0-3.49","6144bf2539bc8f85335af4be","bdp_rwlrn","Wed Mar 15 2023 15:33:15 GMT-0400 (Eastern Daylight Time)","525090","Trustworthy,Untrustworthy","","null","","","","feedback","","<div class='respPicDiv'><img src='img/responseButtonOffersNo0_wht.png' class='respPic'></div><div class='trialDiv'><img src='Fruit/mango.png'><br><font class='baseline'><strong>Mega Mangos</strong><p><strong><font class='posOutcome'>You WON</font><p>You bet: 1</strong></font> &nbsp; &nbsp; &nbsp; &nbsp; &nbsp; &nbsp;<font class='posOutcome'>you receive: <strong>2</strong></font></div>","null","17","Mega Mangos","Fruit/mango.png","Won","0.2,0.65","10","0.2","259","50","",""
"html-keyboard-response","160","252708","0.0-11.0-1.50","6144bf2539bc8f85335af4be","bdp_rwlrn","Wed Mar 15 2023 15:33:15 GMT-0400 (Eastern Daylight Time)","525090","Trustworthy,Untrustworthy","","4951","","","","decision","","<div class='trialDiv'><img src='Fruit/apple.png'><br><font class='baseline'><strong>Awesome Apples</strong><p>Choose number of points to bet.</font><div class='respPicDiv'><img src='img/responseButtonOffersNo0L.png' class='respPic'></div></div>","3","17","Awesome Apples","Fruit/apple.png","Won","0.2,0.8","8","0.2","264","51","",""
"html-keyboard-response","161","252968","0.0-11.0-2.50","6144bf2539bc8f85335af4be","bdp_rwlrn","Wed Mar 15 2023 15:33:15 GMT-0400 (Eastern Daylight Time)","525090","Trustworthy,Untrustworthy","","null","","","","decisionFB","","<div class='trialDiv'><img src='Fruit/apple.png'><br><font class='baseline'><strong>Awesome Apples</strong><p>Choose number of points to bet.</font><div class='respPicDiv'><img src='img/responseButtonOffersNo0L3.png' class='respPic'></div></div>","null","17","Awesome Apples","Fruit/apple.png","Won","0.2,0.8","8","0.2","261","51","",""
"html-keyboard-response","162","253973","0.0-11.0-3.50","6144bf2539bc8f85335af4be","bdp_rwlrn","Wed Mar 15 2023 15:33:15 GMT-0400 (Eastern Daylight Time)","525090","Trustworthy,Untrustworthy","","null","","","","feedback","","<div class='respPicDiv'><img src='img/responseButtonOffersNo0_wht.png' class='respPic'></div><div class='trialDiv'><img src='Fruit/apple.png'><br><font class='baseline'><strong>Awesome Apples</strong><p><strong><font class='posOutcome'>You WON</font><p>You bet: 3</strong></font> &nbsp; &nbsp; &nbsp; &nbsp; &nbsp; &nbsp;<font class='posOutcome'>you receive: <strong>6</strong></font></div>","null","17","Awesome Apples","Fruit/apple.png","Won","0.2,0.8","8","0.2","267","51","",""
