"trial_type","trial_index","time_elapsed","internal_node_id","subject_id","task","startTime","totalTime","labels","view_history","rt","event","trial","time","trialtype","success","stimulus","key_press","ltround","name","fileID","outcome","lottotype","lottoswpt","lottocurrpshare","point_total","round","faceID","face"
"pavlovia","0","3","0.0-0.0","63df609cf58947e964792bb6","bdp_rwlrn","Wed Mar 15 2023 20:57:28 GMT-0700 (Pacific Daylight Time)","300446","Untrustworthy,Trustworthy","","","","","","","","","","","","","","","","","","","",""
"instructions","1","3304","0.0-1.0","63df609cf58947e964792bb6","bdp_rwlrn","Wed Mar 15 2023 20:57:28 GMT-0700 (Pacific Daylight Time)","300446","Untrustworthy,Trustworthy","[{""page_index"":0,""viewing_time"":3300}]","3300","","","","","","","","","","","","","","","","","",""
"","","","","63df609cf58947e964792bb6","bdp_rwlrn","Wed Mar 15 2023 20:57:28 GMT-0700 (Pacific Daylight Time)","300446","Untrustworthy,Trustworthy","","","fullscreenenter","2","6319","fullscreenenter","","","","","","","","","","","","","",""
"fullscreen","2","7301","0.0-2.0","63df609cf58947e964792bb6","bdp_rwlrn","Wed Mar 15 2023 20:57:28 GMT-0700 (Pacific Daylight Time)","300446","Untrustworthy,Trustworthy","","","","","","","true","","","","","","","","","","","","",""
"instructions","3","46682","0.0-4.0","63df609cf58947e964792bb6","bdp_rwlrn","Wed Mar 15 2023 20:57:28 GMT-0700 (Pacific Daylight Time)","300446","Untrustworthy,Trustworthy","[{""page_index"":0,""viewing_time"":7229},{""page_index"":1,""viewing_time"":10466},{""page_index"":2,""viewing_time"":3269},{""page_index"":3,""viewing_time"":4136},{""page_index"":4,""viewing_time"":11132},{""page_index"":5,""viewing_time"":3147}]","39380","","","","","","","","","","","","","","","","","",""
"html-keyboard-response","4","50647","0.0-5.0","63df609cf58947e964792bb6","bdp_rwlrn","Wed Mar 15 2023 20:57:28 GMT-0700 (Pacific Daylight Time)","300446","Untrustworthy,Trustworthy","","3964","","","","","","<div class='header' style='text-align:left; position: absolute; top: 5%; left: 5%;'><small>Task 3 of 5</small></div><div class='instruxDiv'><p><strong>1) What is the maximum number of points you can choose to bet on a lottery?</strong></p><p>a) 0</p><p>b) 1</p><p>c) 5</p>","B","","","","","","","","","","",""
"html-keyboard-response","5","54367","0.0-6.0","63df609cf58947e964792bb6","bdp_rwlrn","Wed Mar 15 2023 20:57:28 GMT-0700 (Pacific Daylight Time)","300446","Untrustworthy,Trustworthy","","3619","","","","","","<div class='header' style='text-align:left; position: absolute; top: 5%; left: 5%;'><small>Task 3 of 5</small></div><div class='instruxDiv'><p><strong>1) What is the maximum number of points you can choose to bet on a lottery?</strong></p><p>a) 0</p><p style='color:#FF0000'>b) 1</p><p>c) 5</p><h3 style='color:#FF0000'>Incorrect!</h3><h3 class='center-content'>The correct response is c).</h3><h3 class='center-content'>The maximum number of points you can choose to bet on a lottery is 5 points.</h3><p><em>Press SPACEBAR to continue</em></p></div>"," ","","","","","","","","","","",""
"html-keyboard-response","6","57762","0.0-7.0","63df609cf58947e964792bb6","bdp_rwlrn","Wed Mar 15 2023 20:57:28 GMT-0700 (Pacific Daylight Time)","300446","Untrustworthy,Trustworthy","","3293","","","","","","<div class='header' style='text-align:left; position: absolute; top: 5%; left: 5%;'><small>Task 3 of 5</small></div><div class='instruxDiv'><p><strong>2) How many points can you win each round?</strong></p><p>a) 10 points</p><p>b) Double what you bet</p><p>c) Quadruple what you bet</p>","C","","","","","","","","","","",""
"html-keyboard-response","7","60006","0.0-8.0","63df609cf58947e964792bb6","bdp_rwlrn","Wed Mar 15 2023 20:57:28 GMT-0700 (Pacific Daylight Time)","300446","Untrustworthy,Trustworthy","","2143","","","","","","<div class='header' style='text-align:left; position: absolute; top: 5%; left: 5%;'><small>Task 3 of 5</small></div><div class='instruxDiv'><p><strong>2) How many points can you win each round?</strong></p><p>a) 10 points</p><p>b) Double what you bet</p><p style='color:#FF0000'>c) Quadruple what you bet</p><h3 style='color:#FF0000'>Incorrect!</h3><h3 class='center-content'>The correct response is b).</h3><h3 class='center-content'>You can win double the amount of points you bet.</h3><p><em>Press SPACEBAR to continue</em></p></div>"," ","","","","","","","","","","",""
"html-keyboard-response","8","65111","0.0-9.0","63df609cf58947e964792bb6","bdp_rwlrn","Wed Mar 15 2023 20:57:28 GMT-0700 (Pacific Daylight Time)","300446","Untrustworthy,Trustworthy","","null","","","","","","<div class='header' style='text-align:left; position: absolute; top: 5%; left: 5%;'><small>Task 3 of 5</small></div><div class='instruxDiv'><p>Thank you for completing the quiz<p>These are the actual lotteries you will be playing in the next block:<p><div class='tc' align='center'><img class='introPic' src='Fruit/lime.png'><br><strong>Limin' Large</strong></div><div class='bl' align='center'><img class='introPic' src='Fruit/cherrie.png'><br><strong>Cherry Chances</strong></div><div class='br' align='center'><img class='introPic' src='Fruit/mixed-berries2.png'><br><strong>Berry Bla$t</strong></div></div><p>Across <strong>66 rounds</strong> you will play each lottery <strong>22 times</strong> (in random order).<p style='align:center; color:white'><font <em>Press SPACEBAR to continue</em></p>","null","","","","","","","","","","",""
"instructions","9","67014","0.0-10.0","63df609cf58947e964792bb6","bdp_rwlrn","Wed Mar 15 2023 20:57:28 GMT-0700 (Pacific Daylight Time)","300446","Untrustworthy,Trustworthy","[{""page_index"":0,""viewing_time"":619},{""page_index"":1,""viewing_time"":1284}]","1903","","","","","","","","","","","","","","","","","",""
"html-keyboard-response","10","68693","0.0-11.0-1.0","63df609cf58947e964792bb6","bdp_rwlrn","Wed Mar 15 2023 20:57:28 GMT-0700 (Pacific Daylight Time)","300446","Untrustworthy,Trustworthy","","1577","","","","decision","","<div class='trialDiv'><img src='Fruit/lime.png'><br><font class='baseline'><strong>Limin' Large</strong><p>Choose number of points to bet.</font><div class='respPicDiv'><img src='img/responseButtonOffersNo0L.png' class='respPic'></div></div>","2","1","Limin' Large","Fruit/lime.png","Lost","0.65,0.2","14","0.65","5","1","",""
"html-keyboard-response","11","68944","0.0-11.0-2.0","63df609cf58947e964792bb6","bdp_rwlrn","Wed Mar 15 2023 20:57:28 GMT-0700 (Pacific Daylight Time)","300446","Untrustworthy,Trustworthy","","null","","","","decisionFB","","<div class='trialDiv'><img src='Fruit/lime.png'><br><font class='baseline'><strong>Limin' Large</strong><p>Choose number of points to bet.</font><div class='respPicDiv'><img src='img/responseButtonOffersNo0L2.png' class='respPic'></div></div>","null","1","Limin' Large","Fruit/lime.png","Lost","0.65,0.2","14","0.65","3","1","",""
"html-keyboard-response","12","69947","0.0-11.0-3.0","63df609cf58947e964792bb6","bdp_rwlrn","Wed Mar 15 2023 20:57:28 GMT-0700 (Pacific Daylight Time)","300446","Untrustworthy,Trustworthy","","null","","","","feedback","","<div class='respPicDiv'><img src='img/responseButtonOffersNo0_wht.png' class='respPic'></div><div class='trialDiv'><img src='Fruit/lime.png'><br><font class='baseline'><strong>Limin' Large</strong><p><strong><font class='negOutcome'>You LOST</font><p>You bet: 2</strong></font> &nbsp; &nbsp; &nbsp; &nbsp; &nbsp; &nbsp;<font class='negOutcome'>You receive: <strong>0</strong></font></div>","null","1","Limin' Large","Fruit/lime.png","Lost","0.65,0.2","14","0.65","3","1","",""
"html-keyboard-response","13","70776","0.0-11.0-1.1","63df609cf58947e964792bb6","bdp_rwlrn","Wed Mar 15 2023 20:57:28 GMT-0700 (Pacific Daylight Time)","300446","Untrustworthy,Trustworthy","","828","","","","decision","","<div class='trialDiv'><img src='Fruit/mixed-berries2.png'><br><font class='baseline'><strong>Berry Bla$t</strong><p>Choose number of points to bet.</font><div class='respPicDiv'><img src='img/responseButtonOffersNo0L.png' class='respPic'></div></div>","3","1","Berry Bla$t","Fruit/mixed-berries2.png","Lost","0.65,0.35","8","0.65","8","2","",""
"html-keyboard-response","14","71027","0.0-11.0-2.1","63df609cf58947e964792bb6","bdp_rwlrn","Wed Mar 15 2023 20:57:28 GMT-0700 (Pacific Daylight Time)","300446","Untrustworthy,Trustworthy","","null","","","","decisionFB","","<div class='trialDiv'><img src='Fruit/mixed-berries2.png'><br><font class='baseline'><strong>Berry Bla$t</strong><p>Choose number of points to bet.</font><div class='respPicDiv'><img src='img/responseButtonOffersNo0L3.png' class='respPic'></div></div>","null","1","Berry Bla$t","Fruit/mixed-berries2.png","Lost","0.65,0.35","8","0.65","5","2","",""
"html-keyboard-response","15","72029","0.0-11.0-3.1","63df609cf58947e964792bb6","bdp_rwlrn","Wed Mar 15 2023 20:57:28 GMT-0700 (Pacific Daylight Time)","300446","Untrustworthy,Trustworthy","","null","","","","feedback","","<div class='respPicDiv'><img src='img/responseButtonOffersNo0_wht.png' class='respPic'></div><div class='trialDiv'><img src='Fruit/mixed-berries2.png'><br><font class='baseline'><strong>Berry Bla$t</strong><p><strong><font class='negOutcome'>You LOST</font><p>You bet: 3</strong></font> &nbsp; &nbsp; &nbsp; &nbsp; &nbsp; &nbsp;<font class='negOutcome'>You receive: <strong>0</strong></font></div>","null","1","Berry Bla$t","Fruit/mixed-berries2.png","Lost","0.65,0.35","8","0.65","5","2","",""
"html-keyboard-response","16","73175","0.0-11.0-1.2","63df609cf58947e964792bb6","bdp_rwlrn","Wed Mar 15 2023 20:57:28 GMT-0700 (Pacific Daylight Time)","300446","Untrustworthy,Trustworthy","","1144","","","","decision","","<div class='trialDiv'><img src='Fruit/cherrie.png'><br><font class='baseline'><strong>Cherry Chances</strong><p>Choose number of points to bet.</font><div class='respPicDiv'><img src='img/responseButtonOffersNo0L.png' class='respPic'></div></div>","2","1","Cherry Chances","Fruit/cherrie.png","Lost","0.2,0.65","14","0.2","10","3","",""
"html-keyboard-response","17","73426","0.0-11.0-2.2","63df609cf58947e964792bb6","bdp_rwlrn","Wed Mar 15 2023 20:57:28 GMT-0700 (Pacific Daylight Time)","300446","Untrustworthy,Trustworthy","","null","","","","decisionFB","","<div class='trialDiv'><img src='Fruit/cherrie.png'><br><font class='baseline'><strong>Cherry Chances</strong><p>Choose number of points to bet.</font><div class='respPicDiv'><img src='img/responseButtonOffersNo0L2.png' class='respPic'></div></div>","null","1","Cherry Chances","Fruit/cherrie.png","Lost","0.2,0.65","14","0.2","8","3","",""
"html-keyboard-response","18","74429","0.0-11.0-3.2","63df609cf58947e964792bb6","bdp_rwlrn","Wed Mar 15 2023 20:57:28 GMT-0700 (Pacific Daylight Time)","300446","Untrustworthy,Trustworthy","","null","","","","feedback","","<div class='respPicDiv'><img src='img/responseButtonOffersNo0_wht.png' class='respPic'></div><div class='trialDiv'><img src='Fruit/cherrie.png'><br><font class='baseline'><strong>Cherry Chances</strong><p><strong><font class='negOutcome'>You LOST</font><p>You bet: 2</strong></font> &nbsp; &nbsp; &nbsp; &nbsp; &nbsp; &nbsp;<font class='negOutcome'>You receive: <strong>0</strong></font></div>","null","1","Cherry Chances","Fruit/cherrie.png","Lost","0.2,0.65","14","0.2","8","3","",""
"html-keyboard-response","19","75316","0.0-11.0-1.3","63df609cf58947e964792bb6","bdp_rwlrn","Wed Mar 15 2023 20:57:28 GMT-0700 (Pacific Daylight Time)","300446","Untrustworthy,Trustworthy","","886","","","","decision","","<div class='trialDiv'><img src='Fruit/lime.png'><br><font class='baseline'><strong>Limin' Large</strong><p>Choose number of points to bet.</font><div class='respPicDiv'><img src='img/responseButtonOffersNo0L.png' class='respPic'></div></div>","1","2","Limin' Large","Fruit/lime.png","Won","0.65,0.2","14","0.65","13","4","",""
"html-keyboard-response","20","75568","0.0-11.0-2.3","63df609cf58947e964792bb6","bdp_rwlrn","Wed Mar 15 2023 20:57:28 GMT-0700 (Pacific Daylight Time)","300446","Untrustworthy,Trustworthy","","null","","","","decisionFB","","<div class='trialDiv'><img src='Fruit/lime.png'><br><font class='baseline'><strong>Limin' Large</strong><p>Choose number of points to bet.</font><div class='respPicDiv'><img src='img/responseButtonOffersNo0L1.png' class='respPic'></div></div>","null","2","Limin' Large","Fruit/lime.png","Won","0.65,0.2","14","0.65","12","4","",""
"html-keyboard-response","21","76570","0.0-11.0-3.3","63df609cf58947e964792bb6","bdp_rwlrn","Wed Mar 15 2023 20:57:28 GMT-0700 (Pacific Daylight Time)","300446","Untrustworthy,Trustworthy","","null","","","","feedback","","<div class='respPicDiv'><img src='img/responseButtonOffersNo0_wht.png' class='respPic'></div><div class='trialDiv'><img src='Fruit/lime.png'><br><font class='baseline'><strong>Limin' Large</strong><p><strong><font class='posOutcome'>You WON</font><p>You bet: 1</strong></font> &nbsp; &nbsp; &nbsp; &nbsp; &nbsp; &nbsp;<font class='posOutcome'>you receive: <strong>2</strong></font></div>","null","2","Limin' Large","Fruit/lime.png","Won","0.65,0.2","14","0.65","14","4","",""
"html-keyboard-response","22","78133","0.0-11.0-1.4","63df609cf58947e964792bb6","bdp_rwlrn","Wed Mar 15 2023 20:57:28 GMT-0700 (Pacific Daylight Time)","300446","Untrustworthy,Trustworthy","","1560","","","","decision","","<div class='trialDiv'><img src='Fruit/cherrie.png'><br><font class='baseline'><strong>Cherry Chances</strong><p>Choose number of points to bet.</font><div class='respPicDiv'><img src='img/responseButtonOffersNo0L.png' class='respPic'></div></div>","1","2","Cherry Chances","Fruit/cherrie.png","Lost","0.2,0.65","14","0.2","19","5","",""
"html-keyboard-response","23","78384","0.0-11.0-2.4","63df609cf58947e964792bb6","bdp_rwlrn","Wed Mar 15 2023 20:57:28 GMT-0700 (Pacific Daylight Time)","300446","Untrustworthy,Trustworthy","","null","","","","decisionFB","","<div class='trialDiv'><img src='Fruit/cherrie.png'><br><font class='baseline'><strong>Cherry Chances</strong><p>Choose number of points to bet.</font><div class='respPicDiv'><img src='img/responseButtonOffersNo0L1.png' class='respPic'></div></div>","null","2","Cherry Chances","Fruit/cherrie.png","Lost","0.2,0.65","14","0.2","18","5","",""
"html-keyboard-response","24","79386","0.0-11.0-3.4","63df609cf58947e964792bb6","bdp_rwlrn","Wed Mar 15 2023 20:57:28 GMT-0700 (Pacific Daylight Time)","300446","Untrustworthy,Trustworthy","","null","","","","feedback","","<div class='respPicDiv'><img src='img/responseButtonOffersNo0_wht.png' class='respPic'></div><div class='trialDiv'><img src='Fruit/cherrie.png'><br><font class='baseline'><strong>Cherry Chances</strong><p><strong><font class='negOutcome'>You LOST</font><p>You bet: 1</strong></font> &nbsp; &nbsp; &nbsp; &nbsp; &nbsp; &nbsp;<font class='negOutcome'>You receive: <strong>0</strong></font></div>","null","2","Cherry Chances","Fruit/cherrie.png","Lost","0.2,0.65","14","0.2","18","5","",""
"html-keyboard-response","25","80303","0.0-11.0-1.5","63df609cf58947e964792bb6","bdp_rwlrn","Wed Mar 15 2023 20:57:28 GMT-0700 (Pacific Daylight Time)","300446","Untrustworthy,Trustworthy","","916","","","","decision","","<div class='trialDiv'><img src='Fruit/mixed-berries2.png'><br><font class='baseline'><strong>Berry Bla$t</strong><p>Choose number of points to bet.</font><div class='respPicDiv'><img src='img/responseButtonOffersNo0L.png' class='respPic'></div></div>","1","2","Berry Bla$t","Fruit/mixed-berries2.png","Lost","0.65,0.35","8","0.65","23","6","",""
"html-keyboard-response","26","80555","0.0-11.0-2.5","63df609cf58947e964792bb6","bdp_rwlrn","Wed Mar 15 2023 20:57:28 GMT-0700 (Pacific Daylight Time)","300446","Untrustworthy,Trustworthy","","null","","","","decisionFB","","<div class='trialDiv'><img src='Fruit/mixed-berries2.png'><br><font class='baseline'><strong>Berry Bla$t</strong><p>Choose number of points to bet.</font><div class='respPicDiv'><img src='img/responseButtonOffersNo0L1.png' class='respPic'></div></div>","null","2","Berry Bla$t","Fruit/mixed-berries2.png","Lost","0.65,0.35","8","0.65","22","6","",""
"html-keyboard-response","27","81558","0.0-11.0-3.5","63df609cf58947e964792bb6","bdp_rwlrn","Wed Mar 15 2023 20:57:28 GMT-0700 (Pacific Daylight Time)","300446","Untrustworthy,Trustworthy","","null","","","","feedback","","<div class='respPicDiv'><img src='img/responseButtonOffersNo0_wht.png' class='respPic'></div><div class='trialDiv'><img src='Fruit/mixed-berries2.png'><br><font class='baseline'><strong>Berry Bla$t</strong><p><strong><font class='negOutcome'>You LOST</font><p>You bet: 1</strong></font> &nbsp; &nbsp; &nbsp; &nbsp; &nbsp; &nbsp;<font class='negOutcome'>You receive: <strong>0</strong></font></div>","null","2","Berry Bla$t","Fruit/mixed-berries2.png","Lost","0.65,0.35","8","0.65","22","6","",""
"html-keyboard-response","28","82586","0.0-11.0-1.6","63df609cf58947e964792bb6","bdp_rwlrn","Wed Mar 15 2023 20:57:28 GMT-0700 (Pacific Daylight Time)","300446","Untrustworthy,Trustworthy","","1027","","","","decision","","<div class='trialDiv'><img src='Fruit/lime.png'><br><font class='baseline'><strong>Limin' Large</strong><p>Choose number of points to bet.</font><div class='respPicDiv'><img src='img/responseButtonOffersNo0L.png' class='respPic'></div></div>","3","3","Limin' Large","Fruit/lime.png","Won","0.65,0.2","14","0.65","27","7","",""
"html-keyboard-response","29","82838","0.0-11.0-2.6","63df609cf58947e964792bb6","bdp_rwlrn","Wed Mar 15 2023 20:57:28 GMT-0700 (Pacific Daylight Time)","300446","Untrustworthy,Trustworthy","","null","","","","decisionFB","","<div class='trialDiv'><img src='Fruit/lime.png'><br><font class='baseline'><strong>Limin' Large</strong><p>Choose number of points to bet.</font><div class='respPicDiv'><img src='img/responseButtonOffersNo0L3.png' class='respPic'></div></div>","null","3","Limin' Large","Fruit/lime.png","Won","0.65,0.2","14","0.65","24","7","",""
"html-keyboard-response","30","83841","0.0-11.0-3.6","63df609cf58947e964792bb6","bdp_rwlrn","Wed Mar 15 2023 20:57:28 GMT-0700 (Pacific Daylight Time)","300446","Untrustworthy,Trustworthy","","null","","","","feedback","","<div class='respPicDiv'><img src='img/responseButtonOffersNo0_wht.png' class='respPic'></div><div class='trialDiv'><img src='Fruit/lime.png'><br><font class='baseline'><strong>Limin' Large</strong><p><strong><font class='posOutcome'>You WON</font><p>You bet: 3</strong></font> &nbsp; &nbsp; &nbsp; &nbsp; &nbsp; &nbsp;<font class='posOutcome'>you receive: <strong>6</strong></font></div>","null","3","Limin' Large","Fruit/lime.png","Won","0.65,0.2","14","0.65","30","7","",""
"html-keyboard-response","31","84695","0.0-11.0-1.7","63df609cf58947e964792bb6","bdp_rwlrn","Wed Mar 15 2023 20:57:28 GMT-0700 (Pacific Daylight Time)","300446","Untrustworthy,Trustworthy","","854","","","","decision","","<div class='trialDiv'><img src='Fruit/mixed-berries2.png'><br><font class='baseline'><strong>Berry Bla$t</strong><p>Choose number of points to bet.</font><div class='respPicDiv'><img src='img/responseButtonOffersNo0L.png' class='respPic'></div></div>","3","3","Berry Bla$t","Fruit/mixed-berries2.png","Won","0.65,0.35","8","0.65","35","8","",""
"html-keyboard-response","32","84947","0.0-11.0-2.7","63df609cf58947e964792bb6","bdp_rwlrn","Wed Mar 15 2023 20:57:28 GMT-0700 (Pacific Daylight Time)","300446","Untrustworthy,Trustworthy","","null","","","","decisionFB","","<div class='trialDiv'><img src='Fruit/mixed-berries2.png'><br><font class='baseline'><strong>Berry Bla$t</strong><p>Choose number of points to bet.</font><div class='respPicDiv'><img src='img/responseButtonOffersNo0L3.png' class='respPic'></div></div>","null","3","Berry Bla$t","Fruit/mixed-berries2.png","Won","0.65,0.35","8","0.65","32","8","",""
"html-keyboard-response","33","85949","0.0-11.0-3.7","63df609cf58947e964792bb6","bdp_rwlrn","Wed Mar 15 2023 20:57:28 GMT-0700 (Pacific Daylight Time)","300446","Untrustworthy,Trustworthy","","null","","","","feedback","","<div class='respPicDiv'><img src='img/responseButtonOffersNo0_wht.png' class='respPic'></div><div class='trialDiv'><img src='Fruit/mixed-berries2.png'><br><font class='baseline'><strong>Berry Bla$t</strong><p><strong><font class='posOutcome'>You WON</font><p>You bet: 3</strong></font> &nbsp; &nbsp; &nbsp; &nbsp; &nbsp; &nbsp;<font class='posOutcome'>you receive: <strong>6</strong></font></div>","null","3","Berry Bla$t","Fruit/mixed-berries2.png","Won","0.65,0.35","8","0.65","38","8","",""
"html-keyboard-response","34","86246","0.0-11.0-1.8","63df609cf58947e964792bb6","bdp_rwlrn","Wed Mar 15 2023 20:57:28 GMT-0700 (Pacific Daylight Time)","300446","Untrustworthy,Trustworthy","","296","","","","decision","","<div class='trialDiv'><img src='Fruit/cherrie.png'><br><font class='baseline'><strong>Cherry Chances</strong><p>Choose number of points to bet.</font><div class='respPicDiv'><img src='img/responseButtonOffersNo0L.png' class='respPic'></div></div>","2","3","Cherry Chances","Fruit/cherrie.png","Lost","0.2,0.65","14","0.2","43","9","",""
"html-keyboard-response","35","86498","0.0-11.0-2.8","63df609cf58947e964792bb6","bdp_rwlrn","Wed Mar 15 2023 20:57:28 GMT-0700 (Pacific Daylight Time)","300446","Untrustworthy,Trustworthy","","null","","","","decisionFB","","<div class='trialDiv'><img src='Fruit/cherrie.png'><br><font class='baseline'><strong>Cherry Chances</strong><p>Choose number of points to bet.</font><div class='respPicDiv'><img src='img/responseButtonOffersNo0L2.png' class='respPic'></div></div>","null","3","Cherry Chances","Fruit/cherrie.png","Lost","0.2,0.65","14","0.2","41","9","",""
"html-keyboard-response","36","87506","0.0-11.0-3.8","63df609cf58947e964792bb6","bdp_rwlrn","Wed Mar 15 2023 20:57:28 GMT-0700 (Pacific Daylight Time)","300446","Untrustworthy,Trustworthy","","null","","","","feedback","","<div class='respPicDiv'><img src='img/responseButtonOffersNo0_wht.png' class='respPic'></div><div class='trialDiv'><img src='Fruit/cherrie.png'><br><font class='baseline'><strong>Cherry Chances</strong><p><strong><font class='negOutcome'>You LOST</font><p>You bet: 2</strong></font> &nbsp; &nbsp; &nbsp; &nbsp; &nbsp; &nbsp;<font class='negOutcome'>You receive: <strong>0</strong></font></div>","null","3","Cherry Chances","Fruit/cherrie.png","Lost","0.2,0.65","14","0.2","41","9","",""
"html-keyboard-response","37","87692","0.0-11.0-1.9","63df609cf58947e964792bb6","bdp_rwlrn","Wed Mar 15 2023 20:57:28 GMT-0700 (Pacific Daylight Time)","300446","Untrustworthy,Trustworthy","","185","","","","decision","","<div class='trialDiv'><img src='Fruit/mixed-berries2.png'><br><font class='baseline'><strong>Berry Bla$t</strong><p>Choose number of points to bet.</font><div class='respPicDiv'><img src='img/responseButtonOffersNo0L.png' class='respPic'></div></div>","3","4","Berry Bla$t","Fruit/mixed-berries2.png","Won","0.65,0.35","8","0.65","46","10","",""
"html-keyboard-response","38","87944","0.0-11.0-2.9","63df609cf58947e964792bb6","bdp_rwlrn","Wed Mar 15 2023 20:57:28 GMT-0700 (Pacific Daylight Time)","300446","Untrustworthy,Trustworthy","","null","","","","decisionFB","","<div class='trialDiv'><img src='Fruit/mixed-berries2.png'><br><font class='baseline'><strong>Berry Bla$t</strong><p>Choose number of points to bet.</font><div class='respPicDiv'><img src='img/responseButtonOffersNo0L3.png' class='respPic'></div></div>","null","4","Berry Bla$t","Fruit/mixed-berries2.png","Won","0.65,0.35","8","0.65","43","10","",""
"html-keyboard-response","39","88946","0.0-11.0-3.9","63df609cf58947e964792bb6","bdp_rwlrn","Wed Mar 15 2023 20:57:28 GMT-0700 (Pacific Daylight Time)","300446","Untrustworthy,Trustworthy","","null","","","","feedback","","<div class='respPicDiv'><img src='img/responseButtonOffersNo0_wht.png' class='respPic'></div><div class='trialDiv'><img src='Fruit/mixed-berries2.png'><br><font class='baseline'><strong>Berry Bla$t</strong><p><strong><font class='posOutcome'>You WON</font><p>You bet: 3</strong></font> &nbsp; &nbsp; &nbsp; &nbsp; &nbsp; &nbsp;<font class='posOutcome'>you receive: <strong>6</strong></font></div>","null","4","Berry Bla$t","Fruit/mixed-berries2.png","Won","0.65,0.35","8","0.65","49","10","",""
"html-keyboard-response","40","89371","0.0-11.0-1.10","63df609cf58947e964792bb6","bdp_rwlrn","Wed Mar 15 2023 20:57:28 GMT-0700 (Pacific Daylight Time)","300446","Untrustworthy,Trustworthy","","424","","","","decision","","<div class='trialDiv'><img src='Fruit/cherrie.png'><br><font class='baseline'><strong>Cherry Chances</strong><p>Choose number of points to bet.</font><div class='respPicDiv'><img src='img/responseButtonOffersNo0L.png' class='respPic'></div></div>","3","4","Cherry Chances","Fruit/cherrie.png","Won","0.2,0.65","14","0.2","54","11","",""
"html-keyboard-response","41","89622","0.0-11.0-2.10","63df609cf58947e964792bb6","bdp_rwlrn","Wed Mar 15 2023 20:57:28 GMT-0700 (Pacific Daylight Time)","300446","Untrustworthy,Trustworthy","","null","","","","decisionFB","","<div class='trialDiv'><img src='Fruit/cherrie.png'><br><font class='baseline'><strong>Cherry Chances</strong><p>Choose number of points to bet.</font><div class='respPicDiv'><img src='img/responseButtonOffersNo0L3.png' class='respPic'></div></div>","null","4","Cherry Chances","Fruit/cherrie.png","Won","0.2,0.65","14","0.2","51","11","",""
"html-keyboard-response","42","90625","0.0-11.0-3.10","63df609cf58947e964792bb6","bdp_rwlrn","Wed Mar 15 2023 20:57:28 GMT-0700 (Pacific Daylight Time)","300446","Untrustworthy,Trustworthy","","null","","","","feedback","","<div class='respPicDiv'><img src='img/responseButtonOffersNo0_wht.png' class='respPic'></div><div class='trialDiv'><img src='Fruit/cherrie.png'><br><font class='baseline'><strong>Cherry Chances</strong><p><strong><font class='posOutcome'>You WON</font><p>You bet: 3</strong></font> &nbsp; &nbsp; &nbsp; &nbsp; &nbsp; &nbsp;<font class='posOutcome'>you receive: <strong>6</strong></font></div>","null","4","Cherry Chances","Fruit/cherrie.png","Won","0.2,0.65","14","0.2","57","11","",""
"html-keyboard-response","43","90860","0.0-11.0-1.11","63df609cf58947e964792bb6","bdp_rwlrn","Wed Mar 15 2023 20:57:28 GMT-0700 (Pacific Daylight Time)","300446","Untrustworthy,Trustworthy","","235","","","","decision","","<div class='trialDiv'><img src='Fruit/lime.png'><br><font class='baseline'><strong>Limin' Large</strong><p>Choose number of points to bet.</font><div class='respPicDiv'><img src='img/responseButtonOffersNo0L.png' class='respPic'></div></div>","3","4","Limin' Large","Fruit/lime.png","Lost","0.65,0.2","14","0.65","62","12","",""
"html-keyboard-response","44","91111","0.0-11.0-2.11","63df609cf58947e964792bb6","bdp_rwlrn","Wed Mar 15 2023 20:57:28 GMT-0700 (Pacific Daylight Time)","300446","Untrustworthy,Trustworthy","","null","","","","decisionFB","","<div class='trialDiv'><img src='Fruit/lime.png'><br><font class='baseline'><strong>Limin' Large</strong><p>Choose number of points to bet.</font><div class='respPicDiv'><img src='img/responseButtonOffersNo0L3.png' class='respPic'></div></div>","null","4","Limin' Large","Fruit/lime.png","Lost","0.65,0.2","14","0.65","59","12","",""
"html-keyboard-response","45","92113","0.0-11.0-3.11","63df609cf58947e964792bb6","bdp_rwlrn","Wed Mar 15 2023 20:57:28 GMT-0700 (Pacific Daylight Time)","300446","Untrustworthy,Trustworthy","","null","","","","feedback","","<div class='respPicDiv'><img src='img/responseButtonOffersNo0_wht.png' class='respPic'></div><div class='trialDiv'><img src='Fruit/lime.png'><br><font class='baseline'><strong>Limin' Large</strong><p><strong><font class='negOutcome'>You LOST</font><p>You bet: 3</strong></font> &nbsp; &nbsp; &nbsp; &nbsp; &nbsp; &nbsp;<font class='negOutcome'>You receive: <strong>0</strong></font></div>","null","4","Limin' Large","Fruit/lime.png","Lost","0.65,0.2","14","0.65","59","12","",""
"html-keyboard-response","46","92654","0.0-11.0-1.12","63df609cf58947e964792bb6","bdp_rwlrn","Wed Mar 15 2023 20:57:28 GMT-0700 (Pacific Daylight Time)","300446","Untrustworthy,Trustworthy","","539","","","","decision","","<div class='trialDiv'><img src='Fruit/cherrie.png'><br><font class='baseline'><strong>Cherry Chances</strong><p>Choose number of points to bet.</font><div class='respPicDiv'><img src='img/responseButtonOffersNo0L.png' class='respPic'></div></div>","4","5","Cherry Chances","Fruit/cherrie.png","Lost","0.2,0.65","14","0.2","64","13","",""
"html-keyboard-response","47","92906","0.0-11.0-2.12","63df609cf58947e964792bb6","bdp_rwlrn","Wed Mar 15 2023 20:57:28 GMT-0700 (Pacific Daylight Time)","300446","Untrustworthy,Trustworthy","","null","","","","decisionFB","","<div class='trialDiv'><img src='Fruit/cherrie.png'><br><font class='baseline'><strong>Cherry Chances</strong><p>Choose number of points to bet.</font><div class='respPicDiv'><img src='img/responseButtonOffersNo0L4.png' class='respPic'></div></div>","null","5","Cherry Chances","Fruit/cherrie.png","Lost","0.2,0.65","14","0.2","60","13","",""
"html-keyboard-response","48","93909","0.0-11.0-3.12","63df609cf58947e964792bb6","bdp_rwlrn","Wed Mar 15 2023 20:57:28 GMT-0700 (Pacific Daylight Time)","300446","Untrustworthy,Trustworthy","","null","","","","feedback","","<div class='respPicDiv'><img src='img/responseButtonOffersNo0_wht.png' class='respPic'></div><div class='trialDiv'><img src='Fruit/cherrie.png'><br><font class='baseline'><strong>Cherry Chances</strong><p><strong><font class='negOutcome'>You LOST</font><p>You bet: 4</strong></font> &nbsp; &nbsp; &nbsp; &nbsp; &nbsp; &nbsp;<font class='negOutcome'>You receive: <strong>0</strong></font></div>","null","5","Cherry Chances","Fruit/cherrie.png","Lost","0.2,0.65","14","0.2","60","13","",""
"html-keyboard-response","49","94781","0.0-11.0-1.13","63df609cf58947e964792bb6","bdp_rwlrn","Wed Mar 15 2023 20:57:28 GMT-0700 (Pacific Daylight Time)","300446","Untrustworthy,Trustworthy","","871","","","","decision","","<div class='trialDiv'><img src='Fruit/mixed-berries2.png'><br><font class='baseline'><strong>Berry Bla$t</strong><p>Choose number of points to bet.</font><div class='respPicDiv'><img src='img/responseButtonOffersNo0L.png' class='respPic'></div></div>","3","5","Berry Bla$t","Fruit/mixed-berries2.png","Lost","0.65,0.35","8","0.65","65","14","",""
"html-keyboard-response","50","95032","0.0-11.0-2.13","63df609cf58947e964792bb6","bdp_rwlrn","Wed Mar 15 2023 20:57:28 GMT-0700 (Pacific Daylight Time)","300446","Untrustworthy,Trustworthy","","null","","","","decisionFB","","<div class='trialDiv'><img src='Fruit/mixed-berries2.png'><br><font class='baseline'><strong>Berry Bla$t</strong><p>Choose number of points to bet.</font><div class='respPicDiv'><img src='img/responseButtonOffersNo0L3.png' class='respPic'></div></div>","null","5","Berry Bla$t","Fruit/mixed-berries2.png","Lost","0.65,0.35","8","0.65","62","14","",""
"html-keyboard-response","51","96034","0.0-11.0-3.13","63df609cf58947e964792bb6","bdp_rwlrn","Wed Mar 15 2023 20:57:28 GMT-0700 (Pacific Daylight Time)","300446","Untrustworthy,Trustworthy","","null","","","","feedback","","<div class='respPicDiv'><img src='img/responseButtonOffersNo0_wht.png' class='respPic'></div><div class='trialDiv'><img src='Fruit/mixed-berries2.png'><br><font class='baseline'><strong>Berry Bla$t</strong><p><strong><font class='negOutcome'>You LOST</font><p>You bet: 3</strong></font> &nbsp; &nbsp; &nbsp; &nbsp; &nbsp; &nbsp;<font class='negOutcome'>You receive: <strong>0</strong></font></div>","null","5","Berry Bla$t","Fruit/mixed-berries2.png","Lost","0.65,0.35","8","0.65","62","14","",""
"html-keyboard-response","52","96354","0.0-11.0-1.14","63df609cf58947e964792bb6","bdp_rwlrn","Wed Mar 15 2023 20:57:28 GMT-0700 (Pacific Daylight Time)","300446","Untrustworthy,Trustworthy","","319","","","","decision","","<div class='trialDiv'><img src='Fruit/lime.png'><br><font class='baseline'><strong>Limin' Large</strong><p>Choose number of points to bet.</font><div class='respPicDiv'><img src='img/responseButtonOffersNo0L.png' class='respPic'></div></div>","3","5","Limin' Large","Fruit/lime.png","Won","0.65,0.2","14","0.65","67","15","",""
"html-keyboard-response","53","96606","0.0-11.0-2.14","63df609cf58947e964792bb6","bdp_rwlrn","Wed Mar 15 2023 20:57:28 GMT-0700 (Pacific Daylight Time)","300446","Untrustworthy,Trustworthy","","null","","","","decisionFB","","<div class='trialDiv'><img src='Fruit/lime.png'><br><font class='baseline'><strong>Limin' Large</strong><p>Choose number of points to bet.</font><div class='respPicDiv'><img src='img/responseButtonOffersNo0L3.png' class='respPic'></div></div>","null","5","Limin' Large","Fruit/lime.png","Won","0.65,0.2","14","0.65","64","15","",""
"html-keyboard-response","54","97609","0.0-11.0-3.14","63df609cf58947e964792bb6","bdp_rwlrn","Wed Mar 15 2023 20:57:28 GMT-0700 (Pacific Daylight Time)","300446","Untrustworthy,Trustworthy","","null","","","","feedback","","<div class='respPicDiv'><img src='img/responseButtonOffersNo0_wht.png' class='respPic'></div><div class='trialDiv'><img src='Fruit/lime.png'><br><font class='baseline'><strong>Limin' Large</strong><p><strong><font class='posOutcome'>You WON</font><p>You bet: 3</strong></font> &nbsp; &nbsp; &nbsp; &nbsp; &nbsp; &nbsp;<font class='posOutcome'>you receive: <strong>6</strong></font></div>","null","5","Limin' Large","Fruit/lime.png","Won","0.65,0.2","14","0.65","70","15","",""
"html-keyboard-response","55","98122","0.0-11.0-1.15","63df609cf58947e964792bb6","bdp_rwlrn","Wed Mar 15 2023 20:57:28 GMT-0700 (Pacific Daylight Time)","300446","Untrustworthy,Trustworthy","","512","","","","decision","","<div class='trialDiv'><img src='Fruit/mixed-berries2.png'><br><font class='baseline'><strong>Berry Bla$t</strong><p>Choose number of points to bet.</font><div class='respPicDiv'><img src='img/responseButtonOffersNo0L.png' class='respPic'></div></div>","3","6","Berry Bla$t","Fruit/mixed-berries2.png","Won","0.65,0.35","8","0.65","75","16","",""
"html-keyboard-response","56","98374","0.0-11.0-2.15","63df609cf58947e964792bb6","bdp_rwlrn","Wed Mar 15 2023 20:57:28 GMT-0700 (Pacific Daylight Time)","300446","Untrustworthy,Trustworthy","","null","","","","decisionFB","","<div class='trialDiv'><img src='Fruit/mixed-berries2.png'><br><font class='baseline'><strong>Berry Bla$t</strong><p>Choose number of points to bet.</font><div class='respPicDiv'><img src='img/responseButtonOffersNo0L3.png' class='respPic'></div></div>","null","6","Berry Bla$t","Fruit/mixed-berries2.png","Won","0.65,0.35","8","0.65","72","16","",""
"html-keyboard-response","57","99377","0.0-11.0-3.15","63df609cf58947e964792bb6","bdp_rwlrn","Wed Mar 15 2023 20:57:28 GMT-0700 (Pacific Daylight Time)","300446","Untrustworthy,Trustworthy","","null","","","","feedback","","<div class='respPicDiv'><img src='img/responseButtonOffersNo0_wht.png' class='respPic'></div><div class='trialDiv'><img src='Fruit/mixed-berries2.png'><br><font class='baseline'><strong>Berry Bla$t</strong><p><strong><font class='posOutcome'>You WON</font><p>You bet: 3</strong></font> &nbsp; &nbsp; &nbsp; &nbsp; &nbsp; &nbsp;<font class='posOutcome'>you receive: <strong>6</strong></font></div>","null","6","Berry Bla$t","Fruit/mixed-berries2.png","Won","0.65,0.35","8","0.65","78","16","",""
"html-keyboard-response","58","99585","0.0-11.0-1.16","63df609cf58947e964792bb6","bdp_rwlrn","Wed Mar 15 2023 20:57:28 GMT-0700 (Pacific Daylight Time)","300446","Untrustworthy,Trustworthy","","207","","","","decision","","<div class='trialDiv'><img src='Fruit/cherrie.png'><br><font class='baseline'><strong>Cherry Chances</strong><p>Choose number of points to bet.</font><div class='respPicDiv'><img src='img/responseButtonOffersNo0L.png' class='respPic'></div></div>","3","6","Cherry Chances","Fruit/cherrie.png","Lost","0.2,0.65","14","0.2","83","17","",""
"html-keyboard-response","59","99837","0.0-11.0-2.16","63df609cf58947e964792bb6","bdp_rwlrn","Wed Mar 15 2023 20:57:28 GMT-0700 (Pacific Daylight Time)","300446","Untrustworthy,Trustworthy","","null","","","","decisionFB","","<div class='trialDiv'><img src='Fruit/cherrie.png'><br><font class='baseline'><strong>Cherry Chances</strong><p>Choose number of points to bet.</font><div class='respPicDiv'><img src='img/responseButtonOffersNo0L3.png' class='respPic'></div></div>","null","6","Cherry Chances","Fruit/cherrie.png","Lost","0.2,0.65","14","0.2","80","17","",""
"html-keyboard-response","60","100839","0.0-11.0-3.16","63df609cf58947e964792bb6","bdp_rwlrn","Wed Mar 15 2023 20:57:28 GMT-0700 (Pacific Daylight Time)","300446","Untrustworthy,Trustworthy","","null","","","","feedback","","<div class='respPicDiv'><img src='img/responseButtonOffersNo0_wht.png' class='respPic'></div><div class='trialDiv'><img src='Fruit/cherrie.png'><br><font class='baseline'><strong>Cherry Chances</strong><p><strong><font class='negOutcome'>You LOST</font><p>You bet: 3</strong></font> &nbsp; &nbsp; &nbsp; &nbsp; &nbsp; &nbsp;<font class='negOutcome'>You receive: <strong>0</strong></font></div>","null","6","Cherry Chances","Fruit/cherrie.png","Lost","0.2,0.65","14","0.2","80","17","",""
"html-keyboard-response","61","101170","0.0-11.0-1.17","63df609cf58947e964792bb6","bdp_rwlrn","Wed Mar 15 2023 20:57:28 GMT-0700 (Pacific Daylight Time)","300446","Untrustworthy,Trustworthy","","330","","","","decision","","<div class='trialDiv'><img src='Fruit/lime.png'><br><font class='baseline'><strong>Limin' Large</strong><p>Choose number of points to bet.</font><div class='respPicDiv'><img src='img/responseButtonOffersNo0L.png' class='respPic'></div></div>","2","6","Limin' Large","Fruit/lime.png","Won","0.65,0.2","14","0.65","85","18","",""
"html-keyboard-response","62","101422","0.0-11.0-2.17","63df609cf58947e964792bb6","bdp_rwlrn","Wed Mar 15 2023 20:57:28 GMT-0700 (Pacific Daylight Time)","300446","Untrustworthy,Trustworthy","","null","","","","decisionFB","","<div class='trialDiv'><img src='Fruit/lime.png'><br><font class='baseline'><strong>Limin' Large</strong><p>Choose number of points to bet.</font><div class='respPicDiv'><img src='img/responseButtonOffersNo0L2.png' class='respPic'></div></div>","null","6","Limin' Large","Fruit/lime.png","Won","0.65,0.2","14","0.65","83","18","",""
"html-keyboard-response","63","102424","0.0-11.0-3.17","63df609cf58947e964792bb6","bdp_rwlrn","Wed Mar 15 2023 20:57:28 GMT-0700 (Pacific Daylight Time)","300446","Untrustworthy,Trustworthy","","null","","","","feedback","","<div class='respPicDiv'><img src='img/responseButtonOffersNo0_wht.png' class='respPic'></div><div class='trialDiv'><img src='Fruit/lime.png'><br><font class='baseline'><strong>Limin' Large</strong><p><strong><font class='posOutcome'>You WON</font><p>You bet: 2</strong></font> &nbsp; &nbsp; &nbsp; &nbsp; &nbsp; &nbsp;<font class='posOutcome'>you receive: <strong>4</strong></font></div>","null","6","Limin' Large","Fruit/lime.png","Won","0.65,0.2","14","0.65","87","18","",""
"html-keyboard-response","64","102628","0.0-11.0-1.18","63df609cf58947e964792bb6","bdp_rwlrn","Wed Mar 15 2023 20:57:28 GMT-0700 (Pacific Daylight Time)","300446","Untrustworthy,Trustworthy","","204","","","","decision","","<div class='trialDiv'><img src='Fruit/cherrie.png'><br><font class='baseline'><strong>Cherry Chances</strong><p>Choose number of points to bet.</font><div class='respPicDiv'><img src='img/responseButtonOffersNo0L.png' class='respPic'></div></div>","3","7","Cherry Chances","Fruit/cherrie.png","Won","0.2,0.65","14","0.2","92","19","",""
"html-keyboard-response","65","102880","0.0-11.0-2.18","63df609cf58947e964792bb6","bdp_rwlrn","Wed Mar 15 2023 20:57:28 GMT-0700 (Pacific Daylight Time)","300446","Untrustworthy,Trustworthy","","null","","","","decisionFB","","<div class='trialDiv'><img src='Fruit/cherrie.png'><br><font class='baseline'><strong>Cherry Chances</strong><p>Choose number of points to bet.</font><div class='respPicDiv'><img src='img/responseButtonOffersNo0L3.png' class='respPic'></div></div>","null","7","Cherry Chances","Fruit/cherrie.png","Won","0.2,0.65","14","0.2","89","19","",""
"html-keyboard-response","66","103883","0.0-11.0-3.18","63df609cf58947e964792bb6","bdp_rwlrn","Wed Mar 15 2023 20:57:28 GMT-0700 (Pacific Daylight Time)","300446","Untrustworthy,Trustworthy","","null","","","","feedback","","<div class='respPicDiv'><img src='img/responseButtonOffersNo0_wht.png' class='respPic'></div><div class='trialDiv'><img src='Fruit/cherrie.png'><br><font class='baseline'><strong>Cherry Chances</strong><p><strong><font class='posOutcome'>You WON</font><p>You bet: 3</strong></font> &nbsp; &nbsp; &nbsp; &nbsp; &nbsp; &nbsp;<font class='posOutcome'>you receive: <strong>6</strong></font></div>","null","7","Cherry Chances","Fruit/cherrie.png","Won","0.2,0.65","14","0.2","95","19","",""
"html-keyboard-response","67","104194","0.0-11.0-1.19","63df609cf58947e964792bb6","bdp_rwlrn","Wed Mar 15 2023 20:57:28 GMT-0700 (Pacific Daylight Time)","300446","Untrustworthy,Trustworthy","","310","","","","decision","","<div class='trialDiv'><img src='Fruit/mixed-berries2.png'><br><font class='baseline'><strong>Berry Bla$t</strong><p>Choose number of points to bet.</font><div class='respPicDiv'><img src='img/responseButtonOffersNo0L.png' class='respPic'></div></div>","3","7","Berry Bla$t","Fruit/mixed-berries2.png","Won","0.65,0.35","8","0.65","100","20","",""
"html-keyboard-response","68","104446","0.0-11.0-2.19","63df609cf58947e964792bb6","bdp_rwlrn","Wed Mar 15 2023 20:57:28 GMT-0700 (Pacific Daylight Time)","300446","Untrustworthy,Trustworthy","","null","","","","decisionFB","","<div class='trialDiv'><img src='Fruit/mixed-berries2.png'><br><font class='baseline'><strong>Berry Bla$t</strong><p>Choose number of points to bet.</font><div class='respPicDiv'><img src='img/responseButtonOffersNo0L3.png' class='respPic'></div></div>","null","7","Berry Bla$t","Fruit/mixed-berries2.png","Won","0.65,0.35","8","0.65","97","20","",""
"html-keyboard-response","69","105450","0.0-11.0-3.19","63df609cf58947e964792bb6","bdp_rwlrn","Wed Mar 15 2023 20:57:28 GMT-0700 (Pacific Daylight Time)","300446","Untrustworthy,Trustworthy","","null","","","","feedback","","<div class='respPicDiv'><img src='img/responseButtonOffersNo0_wht.png' class='respPic'></div><div class='trialDiv'><img src='Fruit/mixed-berries2.png'><br><font class='baseline'><strong>Berry Bla$t</strong><p><strong><font class='posOutcome'>You WON</font><p>You bet: 3</strong></font> &nbsp; &nbsp; &nbsp; &nbsp; &nbsp; &nbsp;<font class='posOutcome'>you receive: <strong>6</strong></font></div>","null","7","Berry Bla$t","Fruit/mixed-berries2.png","Won","0.65,0.35","8","0.65","103","20","",""
"html-keyboard-response","70","105695","0.0-11.0-1.20","63df609cf58947e964792bb6","bdp_rwlrn","Wed Mar 15 2023 20:57:28 GMT-0700 (Pacific Daylight Time)","300446","Untrustworthy,Trustworthy","","244","","","","decision","","<div class='trialDiv'><img src='Fruit/lime.png'><br><font class='baseline'><strong>Limin' Large</strong><p>Choose number of points to bet.</font><div class='respPicDiv'><img src='img/responseButtonOffersNo0L.png' class='respPic'></div></div>","2","7","Limin' Large","Fruit/lime.png","Won","0.65,0.2","14","0.65","108","21","",""
"html-keyboard-response","71","105948","0.0-11.0-2.20","63df609cf58947e964792bb6","bdp_rwlrn","Wed Mar 15 2023 20:57:28 GMT-0700 (Pacific Daylight Time)","300446","Untrustworthy,Trustworthy","","null","","","","decisionFB","","<div class='trialDiv'><img src='Fruit/lime.png'><br><font class='baseline'><strong>Limin' Large</strong><p>Choose number of points to bet.</font><div class='respPicDiv'><img src='img/responseButtonOffersNo0L2.png' class='respPic'></div></div>","null","7","Limin' Large","Fruit/lime.png","Won","0.65,0.2","14","0.65","106","21","",""
"html-keyboard-response","72","106950","0.0-11.0-3.20","63df609cf58947e964792bb6","bdp_rwlrn","Wed Mar 15 2023 20:57:28 GMT-0700 (Pacific Daylight Time)","300446","Untrustworthy,Trustworthy","","null","","","","feedback","","<div class='respPicDiv'><img src='img/responseButtonOffersNo0_wht.png' class='respPic'></div><div class='trialDiv'><img src='Fruit/lime.png'><br><font class='baseline'><strong>Limin' Large</strong><p><strong><font class='posOutcome'>You WON</font><p>You bet: 2</strong></font> &nbsp; &nbsp; &nbsp; &nbsp; &nbsp; &nbsp;<font class='posOutcome'>you receive: <strong>4</strong></font></div>","null","7","Limin' Large","Fruit/lime.png","Won","0.65,0.2","14","0.65","110","21","",""
"html-keyboard-response","73","107134","0.0-11.0-1.21","63df609cf58947e964792bb6","bdp_rwlrn","Wed Mar 15 2023 20:57:28 GMT-0700 (Pacific Daylight Time)","300446","Untrustworthy,Trustworthy","","183","","","","decision","","<div class='trialDiv'><img src='Fruit/cherrie.png'><br><font class='baseline'><strong>Cherry Chances</strong><p>Choose number of points to bet.</font><div class='respPicDiv'><img src='img/responseButtonOffersNo0L.png' class='respPic'></div></div>","3","8","Cherry Chances","Fruit/cherrie.png","Lost","0.2,0.65","14","0.2","115","22","",""
"html-keyboard-response","74","107386","0.0-11.0-2.21","63df609cf58947e964792bb6","bdp_rwlrn","Wed Mar 15 2023 20:57:28 GMT-0700 (Pacific Daylight Time)","300446","Untrustworthy,Trustworthy","","null","","","","decisionFB","","<div class='trialDiv'><img src='Fruit/cherrie.png'><br><font class='baseline'><strong>Cherry Chances</strong><p>Choose number of points to bet.</font><div class='respPicDiv'><img src='img/responseButtonOffersNo0L3.png' class='respPic'></div></div>","null","8","Cherry Chances","Fruit/cherrie.png","Lost","0.2,0.65","14","0.2","112","22","",""
"html-keyboard-response","75","108389","0.0-11.0-3.21","63df609cf58947e964792bb6","bdp_rwlrn","Wed Mar 15 2023 20:57:28 GMT-0700 (Pacific Daylight Time)","300446","Untrustworthy,Trustworthy","","null","","","","feedback","","<div class='respPicDiv'><img src='img/responseButtonOffersNo0_wht.png' class='respPic'></div><div class='trialDiv'><img src='Fruit/cherrie.png'><br><font class='baseline'><strong>Cherry Chances</strong><p><strong><font class='negOutcome'>You LOST</font><p>You bet: 3</strong></font> &nbsp; &nbsp; &nbsp; &nbsp; &nbsp; &nbsp;<font class='negOutcome'>You receive: <strong>0</strong></font></div>","null","8","Cherry Chances","Fruit/cherrie.png","Lost","0.2,0.65","14","0.2","112","22","",""
"html-keyboard-response","76","108579","0.0-11.0-1.22","63df609cf58947e964792bb6","bdp_rwlrn","Wed Mar 15 2023 20:57:28 GMT-0700 (Pacific Daylight Time)","300446","Untrustworthy,Trustworthy","","188","","","","decision","","<div class='trialDiv'><img src='Fruit/mixed-berries2.png'><br><font class='baseline'><strong>Berry Bla$t</strong><p>Choose number of points to bet.</font><div class='respPicDiv'><img src='img/responseButtonOffersNo0L.png' class='respPic'></div></div>","3","8","Berry Bla$t","Fruit/mixed-berries2.png","Won","0.65,0.35","8","0.65","117","23","",""
"html-keyboard-response","77","108830","0.0-11.0-2.22","63df609cf58947e964792bb6","bdp_rwlrn","Wed Mar 15 2023 20:57:28 GMT-0700 (Pacific Daylight Time)","300446","Untrustworthy,Trustworthy","","null","","","","decisionFB","","<div class='trialDiv'><img src='Fruit/mixed-berries2.png'><br><font class='baseline'><strong>Berry Bla$t</strong><p>Choose number of points to bet.</font><div class='respPicDiv'><img src='img/responseButtonOffersNo0L3.png' class='respPic'></div></div>","null","8","Berry Bla$t","Fruit/mixed-berries2.png","Won","0.65,0.35","8","0.65","114","23","",""
"html-keyboard-response","78","109833","0.0-11.0-3.22","63df609cf58947e964792bb6","bdp_rwlrn","Wed Mar 15 2023 20:57:28 GMT-0700 (Pacific Daylight Time)","300446","Untrustworthy,Trustworthy","","null","","","","feedback","","<div class='respPicDiv'><img src='img/responseButtonOffersNo0_wht.png' class='respPic'></div><div class='trialDiv'><img src='Fruit/mixed-berries2.png'><br><font class='baseline'><strong>Berry Bla$t</strong><p><strong><font class='posOutcome'>You WON</font><p>You bet: 3</strong></font> &nbsp; &nbsp; &nbsp; &nbsp; &nbsp; &nbsp;<font class='posOutcome'>you receive: <strong>6</strong></font></div>","null","8","Berry Bla$t","Fruit/mixed-berries2.png","Won","0.65,0.35","8","0.65","120","23","",""
"html-keyboard-response","79","109912","0.0-11.0-1.23","63df609cf58947e964792bb6","bdp_rwlrn","Wed Mar 15 2023 20:57:28 GMT-0700 (Pacific Daylight Time)","300446","Untrustworthy,Trustworthy","","79","","","","decision","","<div class='trialDiv'><img src='Fruit/lime.png'><br><font class='baseline'><strong>Limin' Large</strong><p>Choose number of points to bet.</font><div class='respPicDiv'><img src='img/responseButtonOffersNo0L.png' class='respPic'></div></div>","3","8","Limin' Large","Fruit/lime.png","Lost","0.65,0.2","14","0.65","125","24","",""
"html-keyboard-response","80","110163","0.0-11.0-2.23","63df609cf58947e964792bb6","bdp_rwlrn","Wed Mar 15 2023 20:57:28 GMT-0700 (Pacific Daylight Time)","300446","Untrustworthy,Trustworthy","","null","","","","decisionFB","","<div class='trialDiv'><img src='Fruit/lime.png'><br><font class='baseline'><strong>Limin' Large</strong><p>Choose number of points to bet.</font><div class='respPicDiv'><img src='img/responseButtonOffersNo0L3.png' class='respPic'></div></div>","null","8","Limin' Large","Fruit/lime.png","Lost","0.65,0.2","14","0.65","122","24","",""
"html-keyboard-response","81","111164","0.0-11.0-3.23","63df609cf58947e964792bb6","bdp_rwlrn","Wed Mar 15 2023 20:57:28 GMT-0700 (Pacific Daylight Time)","300446","Untrustworthy,Trustworthy","","null","","","","feedback","","<div class='respPicDiv'><img src='img/responseButtonOffersNo0_wht.png' class='respPic'></div><div class='trialDiv'><img src='Fruit/lime.png'><br><font class='baseline'><strong>Limin' Large</strong><p><strong><font class='negOutcome'>You LOST</font><p>You bet: 3</strong></font> &nbsp; &nbsp; &nbsp; &nbsp; &nbsp; &nbsp;<font class='negOutcome'>You receive: <strong>0</strong></font></div>","null","8","Limin' Large","Fruit/lime.png","Lost","0.65,0.2","14","0.65","122","24","",""
"html-keyboard-response","82","111554","0.0-11.0-1.24","63df609cf58947e964792bb6","bdp_rwlrn","Wed Mar 15 2023 20:57:28 GMT-0700 (Pacific Daylight Time)","300446","Untrustworthy,Trustworthy","","389","","","","decision","","<div class='trialDiv'><img src='Fruit/mixed-berries2.png'><br><font class='baseline'><strong>Berry Bla$t</strong><p>Choose number of points to bet.</font><div class='respPicDiv'><img src='img/responseButtonOffersNo0L.png' class='respPic'></div></div>","3","9","Berry Bla$t","Fruit/mixed-berries2.png","Won","0.65,0.35","8","0.65","127","25","",""
"html-keyboard-response","83","111805","0.0-11.0-2.24","63df609cf58947e964792bb6","bdp_rwlrn","Wed Mar 15 2023 20:57:28 GMT-0700 (Pacific Daylight Time)","300446","Untrustworthy,Trustworthy","","null","","","","decisionFB","","<div class='trialDiv'><img src='Fruit/mixed-berries2.png'><br><font class='baseline'><strong>Berry Bla$t</strong><p>Choose number of points to bet.</font><div class='respPicDiv'><img src='img/responseButtonOffersNo0L3.png' class='respPic'></div></div>","null","9","Berry Bla$t","Fruit/mixed-berries2.png","Won","0.65,0.35","8","0.65","124","25","",""
"html-keyboard-response","84","112808","0.0-11.0-3.24","63df609cf58947e964792bb6","bdp_rwlrn","Wed Mar 15 2023 20:57:28 GMT-0700 (Pacific Daylight Time)","300446","Untrustworthy,Trustworthy","","null","","","","feedback","","<div class='respPicDiv'><img src='img/responseButtonOffersNo0_wht.png' class='respPic'></div><div class='trialDiv'><img src='Fruit/mixed-berries2.png'><br><font class='baseline'><strong>Berry Bla$t</strong><p><strong><font class='posOutcome'>You WON</font><p>You bet: 3</strong></font> &nbsp; &nbsp; &nbsp; &nbsp; &nbsp; &nbsp;<font class='posOutcome'>you receive: <strong>6</strong></font></div>","null","9","Berry Bla$t","Fruit/mixed-berries2.png","Won","0.65,0.35","8","0.65","130","25","",""
"html-keyboard-response","85","113006","0.0-11.0-1.25","63df609cf58947e964792bb6","bdp_rwlrn","Wed Mar 15 2023 20:57:28 GMT-0700 (Pacific Daylight Time)","300446","Untrustworthy,Trustworthy","","197","","","","decision","","<div class='trialDiv'><img src='Fruit/lime.png'><br><font class='baseline'><strong>Limin' Large</strong><p>Choose number of points to bet.</font><div class='respPicDiv'><img src='img/responseButtonOffersNo0L.png' class='respPic'></div></div>","2","9","Limin' Large","Fruit/lime.png","Lost","0.65,0.2","14","0.65","135","26","",""
"html-keyboard-response","86","113258","0.0-11.0-2.25","63df609cf58947e964792bb6","bdp_rwlrn","Wed Mar 15 2023 20:57:28 GMT-0700 (Pacific Daylight Time)","300446","Untrustworthy,Trustworthy","","null","","","","decisionFB","","<div class='trialDiv'><img src='Fruit/lime.png'><br><font class='baseline'><strong>Limin' Large</strong><p>Choose number of points to bet.</font><div class='respPicDiv'><img src='img/responseButtonOffersNo0L2.png' class='respPic'></div></div>","null","9","Limin' Large","Fruit/lime.png","Lost","0.65,0.2","14","0.65","133","26","",""
"html-keyboard-response","87","114261","0.0-11.0-3.25","63df609cf58947e964792bb6","bdp_rwlrn","Wed Mar 15 2023 20:57:28 GMT-0700 (Pacific Daylight Time)","300446","Untrustworthy,Trustworthy","","null","","","","feedback","","<div class='respPicDiv'><img src='img/responseButtonOffersNo0_wht.png' class='respPic'></div><div class='trialDiv'><img src='Fruit/lime.png'><br><font class='baseline'><strong>Limin' Large</strong><p><strong><font class='negOutcome'>You LOST</font><p>You bet: 2</strong></font> &nbsp; &nbsp; &nbsp; &nbsp; &nbsp; &nbsp;<font class='negOutcome'>You receive: <strong>0</strong></font></div>","null","9","Limin' Large","Fruit/lime.png","Lost","0.65,0.2","14","0.65","133","26","",""
"html-keyboard-response","88","114699","0.0-11.0-1.26","63df609cf58947e964792bb6","bdp_rwlrn","Wed Mar 15 2023 20:57:28 GMT-0700 (Pacific Daylight Time)","300446","Untrustworthy,Trustworthy","","437","","","","decision","","<div class='trialDiv'><img src='Fruit/cherrie.png'><br><font class='baseline'><strong>Cherry Chances</strong><p>Choose number of points to bet.</font><div class='respPicDiv'><img src='img/responseButtonOffersNo0L.png' class='respPic'></div></div>","4","9","Cherry Chances","Fruit/cherrie.png","Lost","0.2,0.65","14","0.2","138","27","",""
"html-keyboard-response","89","114951","0.0-11.0-2.26","63df609cf58947e964792bb6","bdp_rwlrn","Wed Mar 15 2023 20:57:28 GMT-0700 (Pacific Daylight Time)","300446","Untrustworthy,Trustworthy","","null","","","","decisionFB","","<div class='trialDiv'><img src='Fruit/cherrie.png'><br><font class='baseline'><strong>Cherry Chances</strong><p>Choose number of points to bet.</font><div class='respPicDiv'><img src='img/responseButtonOffersNo0L4.png' class='respPic'></div></div>","null","9","Cherry Chances","Fruit/cherrie.png","Lost","0.2,0.65","14","0.2","134","27","",""
"html-keyboard-response","90","115953","0.0-11.0-3.26","63df609cf58947e964792bb6","bdp_rwlrn","Wed Mar 15 2023 20:57:28 GMT-0700 (Pacific Daylight Time)","300446","Untrustworthy,Trustworthy","","null","","","","feedback","","<div class='respPicDiv'><img src='img/responseButtonOffersNo0_wht.png' class='respPic'></div><div class='trialDiv'><img src='Fruit/cherrie.png'><br><font class='baseline'><strong>Cherry Chances</strong><p><strong><font class='negOutcome'>You LOST</font><p>You bet: 4</strong></font> &nbsp; &nbsp; &nbsp; &nbsp; &nbsp; &nbsp;<font class='negOutcome'>You receive: <strong>0</strong></font></div>","null","9","Cherry Chances","Fruit/cherrie.png","Lost","0.2,0.65","14","0.2","134","27","",""
"html-keyboard-response","91","116268","0.0-11.0-1.27","63df609cf58947e964792bb6","bdp_rwlrn","Wed Mar 15 2023 20:57:28 GMT-0700 (Pacific Daylight Time)","300446","Untrustworthy,Trustworthy","","314","","","","decision","","<div class='trialDiv'><img src='Fruit/mixed-berries2.png'><br><font class='baseline'><strong>Berry Bla$t</strong><p>Choose number of points to bet.</font><div class='respPicDiv'><img src='img/responseButtonOffersNo0L.png' class='respPic'></div></div>","4","10","Berry Bla$t","Fruit/mixed-berries2.png","Lost","0.65,0.35","8","0.65","139","28","",""
"html-keyboard-response","92","116520","0.0-11.0-2.27","63df609cf58947e964792bb6","bdp_rwlrn","Wed Mar 15 2023 20:57:28 GMT-0700 (Pacific Daylight Time)","300446","Untrustworthy,Trustworthy","","null","","","","decisionFB","","<div class='trialDiv'><img src='Fruit/mixed-berries2.png'><br><font class='baseline'><strong>Berry Bla$t</strong><p>Choose number of points to bet.</font><div class='respPicDiv'><img src='img/responseButtonOffersNo0L4.png' class='respPic'></div></div>","null","10","Berry Bla$t","Fruit/mixed-berries2.png","Lost","0.65,0.35","8","0.65","135","28","",""
"html-keyboard-response","93","117522","0.0-11.0-3.27","63df609cf58947e964792bb6","bdp_rwlrn","Wed Mar 15 2023 20:57:28 GMT-0700 (Pacific Daylight Time)","300446","Untrustworthy,Trustworthy","","null","","","","feedback","","<div class='respPicDiv'><img src='img/responseButtonOffersNo0_wht.png' class='respPic'></div><div class='trialDiv'><img src='Fruit/mixed-berries2.png'><br><font class='baseline'><strong>Berry Bla$t</strong><p><strong><font class='negOutcome'>You LOST</font><p>You bet: 4</strong></font> &nbsp; &nbsp; &nbsp; &nbsp; &nbsp; &nbsp;<font class='negOutcome'>You receive: <strong>0</strong></font></div>","null","10","Berry Bla$t","Fruit/mixed-berries2.png","Lost","0.65,0.35","8","0.65","135","28","",""
"html-keyboard-response","94","117648","0.0-11.0-1.28","63df609cf58947e964792bb6","bdp_rwlrn","Wed Mar 15 2023 20:57:28 GMT-0700 (Pacific Daylight Time)","300446","Untrustworthy,Trustworthy","","124","","","","decision","","<div class='trialDiv'><img src='Fruit/cherrie.png'><br><font class='baseline'><strong>Cherry Chances</strong><p>Choose number of points to bet.</font><div class='respPicDiv'><img src='img/responseButtonOffersNo0L.png' class='respPic'></div></div>","3","10","Cherry Chances","Fruit/cherrie.png","Lost","0.2,0.65","14","0.2","140","29","",""
"html-keyboard-response","95","117900","0.0-11.0-2.28","63df609cf58947e964792bb6","bdp_rwlrn","Wed Mar 15 2023 20:57:28 GMT-0700 (Pacific Daylight Time)","300446","Untrustworthy,Trustworthy","","null","","","","decisionFB","","<div class='trialDiv'><img src='Fruit/cherrie.png'><br><font class='baseline'><strong>Cherry Chances</strong><p>Choose number of points to bet.</font><div class='respPicDiv'><img src='img/responseButtonOffersNo0L3.png' class='respPic'></div></div>","null","10","Cherry Chances","Fruit/cherrie.png","Lost","0.2,0.65","14","0.2","137","29","",""
"html-keyboard-response","96","118901","0.0-11.0-3.28","63df609cf58947e964792bb6","bdp_rwlrn","Wed Mar 15 2023 20:57:28 GMT-0700 (Pacific Daylight Time)","300446","Untrustworthy,Trustworthy","","null","","","","feedback","","<div class='respPicDiv'><img src='img/responseButtonOffersNo0_wht.png' class='respPic'></div><div class='trialDiv'><img src='Fruit/cherrie.png'><br><font class='baseline'><strong>Cherry Chances</strong><p><strong><font class='negOutcome'>You LOST</font><p>You bet: 3</strong></font> &nbsp; &nbsp; &nbsp; &nbsp; &nbsp; &nbsp;<font class='negOutcome'>You receive: <strong>0</strong></font></div>","null","10","Cherry Chances","Fruit/cherrie.png","Lost","0.2,0.65","14","0.2","137","29","",""
"html-keyboard-response","97","119170","0.0-11.0-1.29","63df609cf58947e964792bb6","bdp_rwlrn","Wed Mar 15 2023 20:57:28 GMT-0700 (Pacific Daylight Time)","300446","Untrustworthy,Trustworthy","","268","","","","decision","","<div class='trialDiv'><img src='Fruit/lime.png'><br><font class='baseline'><strong>Limin' Large</strong><p>Choose number of points to bet.</font><div class='respPicDiv'><img src='img/responseButtonOffersNo0L.png' class='respPic'></div></div>","1","10","Limin' Large","Fruit/lime.png","Won","0.65,0.2","14","0.65","142","30","",""
"html-keyboard-response","98","119422","0.0-11.0-2.29","63df609cf58947e964792bb6","bdp_rwlrn","Wed Mar 15 2023 20:57:28 GMT-0700 (Pacific Daylight Time)","300446","Untrustworthy,Trustworthy","","null","","","","decisionFB","","<div class='trialDiv'><img src='Fruit/lime.png'><br><font class='baseline'><strong>Limin' Large</strong><p>Choose number of points to bet.</font><div class='respPicDiv'><img src='img/responseButtonOffersNo0L1.png' class='respPic'></div></div>","null","10","Limin' Large","Fruit/lime.png","Won","0.65,0.2","14","0.65","141","30","",""
"html-keyboard-response","99","120424","0.0-11.0-3.29","63df609cf58947e964792bb6","bdp_rwlrn","Wed Mar 15 2023 20:57:28 GMT-0700 (Pacific Daylight Time)","300446","Untrustworthy,Trustworthy","","null","","","","feedback","","<div class='respPicDiv'><img src='img/responseButtonOffersNo0_wht.png' class='respPic'></div><div class='trialDiv'><img src='Fruit/lime.png'><br><font class='baseline'><strong>Limin' Large</strong><p><strong><font class='posOutcome'>You WON</font><p>You bet: 1</strong></font> &nbsp; &nbsp; &nbsp; &nbsp; &nbsp; &nbsp;<font class='posOutcome'>you receive: <strong>2</strong></font></div>","null","10","Limin' Large","Fruit/lime.png","Won","0.65,0.2","14","0.65","143","30","",""
"html-keyboard-response","100","120623","0.0-11.0-1.30","63df609cf58947e964792bb6","bdp_rwlrn","Wed Mar 15 2023 20:57:28 GMT-0700 (Pacific Daylight Time)","300446","Untrustworthy,Trustworthy","","198","","","","decision","","<div class='trialDiv'><img src='Fruit/mixed-berries2.png'><br><font class='baseline'><strong>Berry Bla$t</strong><p>Choose number of points to bet.</font><div class='respPicDiv'><img src='img/responseButtonOffersNo0L.png' class='respPic'></div></div>","2","11","Berry Bla$t","Fruit/mixed-berries2.png","Won","0.65,0.35","8","0.65","148","31","",""
"html-keyboard-response","101","120875","0.0-11.0-2.30","63df609cf58947e964792bb6","bdp_rwlrn","Wed Mar 15 2023 20:57:28 GMT-0700 (Pacific Daylight Time)","300446","Untrustworthy,Trustworthy","","null","","","","decisionFB","","<div class='trialDiv'><img src='Fruit/mixed-berries2.png'><br><font class='baseline'><strong>Berry Bla$t</strong><p>Choose number of points to bet.</font><div class='respPicDiv'><img src='img/responseButtonOffersNo0L2.png' class='respPic'></div></div>","null","11","Berry Bla$t","Fruit/mixed-berries2.png","Won","0.65,0.35","8","0.65","146","31","",""
"html-keyboard-response","102","121877","0.0-11.0-3.30","63df609cf58947e964792bb6","bdp_rwlrn","Wed Mar 15 2023 20:57:28 GMT-0700 (Pacific Daylight Time)","300446","Untrustworthy,Trustworthy","","null","","","","feedback","","<div class='respPicDiv'><img src='img/responseButtonOffersNo0_wht.png' class='respPic'></div><div class='trialDiv'><img src='Fruit/mixed-berries2.png'><br><font class='baseline'><strong>Berry Bla$t</strong><p><strong><font class='posOutcome'>You WON</font><p>You bet: 2</strong></font> &nbsp; &nbsp; &nbsp; &nbsp; &nbsp; &nbsp;<font class='posOutcome'>you receive: <strong>4</strong></font></div>","null","11","Berry Bla$t","Fruit/mixed-berries2.png","Won","0.65,0.35","8","0.65","150","31","",""
"html-keyboard-response","103","122112","0.0-11.0-1.31","63df609cf58947e964792bb6","bdp_rwlrn","Wed Mar 15 2023 20:57:28 GMT-0700 (Pacific Daylight Time)","300446","Untrustworthy,Trustworthy","","234","","","","decision","","<div class='trialDiv'><img src='Fruit/lime.png'><br><font class='baseline'><strong>Limin' Large</strong><p>Choose number of points to bet.</font><div class='respPicDiv'><img src='img/responseButtonOffersNo0L.png' class='respPic'></div></div>","3","11","Limin' Large","Fruit/lime.png","Won","0.65,0.2","14","0.65","155","32","",""
"html-keyboard-response","104","122363","0.0-11.0-2.31","63df609cf58947e964792bb6","bdp_rwlrn","Wed Mar 15 2023 20:57:28 GMT-0700 (Pacific Daylight Time)","300446","Untrustworthy,Trustworthy","","null","","","","decisionFB","","<div class='trialDiv'><img src='Fruit/lime.png'><br><font class='baseline'><strong>Limin' Large</strong><p>Choose number of points to bet.</font><div class='respPicDiv'><img src='img/responseButtonOffersNo0L3.png' class='respPic'></div></div>","null","11","Limin' Large","Fruit/lime.png","Won","0.65,0.2","14","0.65","152","32","",""
"html-keyboard-response","105","123365","0.0-11.0-3.31","63df609cf58947e964792bb6","bdp_rwlrn","Wed Mar 15 2023 20:57:28 GMT-0700 (Pacific Daylight Time)","300446","Untrustworthy,Trustworthy","","null","","","","feedback","","<div class='respPicDiv'><img src='img/responseButtonOffersNo0_wht.png' class='respPic'></div><div class='trialDiv'><img src='Fruit/lime.png'><br><font class='baseline'><strong>Limin' Large</strong><p><strong><font class='posOutcome'>You WON</font><p>You bet: 3</strong></font> &nbsp; &nbsp; &nbsp; &nbsp; &nbsp; &nbsp;<font class='posOutcome'>you receive: <strong>6</strong></font></div>","null","11","Limin' Large","Fruit/lime.png","Won","0.65,0.2","14","0.65","158","32","",""
"html-keyboard-response","106","123570","0.0-11.0-1.32","63df609cf58947e964792bb6","bdp_rwlrn","Wed Mar 15 2023 20:57:28 GMT-0700 (Pacific Daylight Time)","300446","Untrustworthy,Trustworthy","","202","","","","decision","","<div class='trialDiv'><img src='Fruit/cherrie.png'><br><font class='baseline'><strong>Cherry Chances</strong><p>Choose number of points to bet.</font><div class='respPicDiv'><img src='img/responseButtonOffersNo0L.png' class='respPic'></div></div>","4","11","Cherry Chances","Fruit/cherrie.png","Lost","0.2,0.65","14","0.2","163","33","",""
"html-keyboard-response","107","123821","0.0-11.0-2.32","63df609cf58947e964792bb6","bdp_rwlrn","Wed Mar 15 2023 20:57:28 GMT-0700 (Pacific Daylight Time)","300446","Untrustworthy,Trustworthy","","null","","","","decisionFB","","<div class='trialDiv'><img src='Fruit/cherrie.png'><br><font class='baseline'><strong>Cherry Chances</strong><p>Choose number of points to bet.</font><div class='respPicDiv'><img src='img/responseButtonOffersNo0L4.png' class='respPic'></div></div>","null","11","Cherry Chances","Fruit/cherrie.png","Lost","0.2,0.65","14","0.2","159","33","",""
"html-keyboard-response","108","124824","0.0-11.0-3.32","63df609cf58947e964792bb6","bdp_rwlrn","Wed Mar 15 2023 20:57:28 GMT-0700 (Pacific Daylight Time)","300446","Untrustworthy,Trustworthy","","null","","","","feedback","","<div class='respPicDiv'><img src='img/responseButtonOffersNo0_wht.png' class='respPic'></div><div class='trialDiv'><img src='Fruit/cherrie.png'><br><font class='baseline'><strong>Cherry Chances</strong><p><strong><font class='negOutcome'>You LOST</font><p>You bet: 4</strong></font> &nbsp; &nbsp; &nbsp; &nbsp; &nbsp; &nbsp;<font class='negOutcome'>You receive: <strong>0</strong></font></div>","null","11","Cherry Chances","Fruit/cherrie.png","Lost","0.2,0.65","14","0.2","159","33","",""
"html-keyboard-response","109","124977","0.0-11.0-1.33","63df609cf58947e964792bb6","bdp_rwlrn","Wed Mar 15 2023 20:57:28 GMT-0700 (Pacific Daylight Time)","300446","Untrustworthy,Trustworthy","","152","","","","decision","","<div class='trialDiv'><img src='Fruit/lime.png'><br><font class='baseline'><strong>Limin' Large</strong><p>Choose number of points to bet.</font><div class='respPicDiv'><img src='img/responseButtonOffersNo0L.png' class='respPic'></div></div>","4","12","Limin' Large","Fruit/lime.png","Won","0.65,0.2","14","0.65","164","34","",""
"html-keyboard-response","110","125230","0.0-11.0-2.33","63df609cf58947e964792bb6","bdp_rwlrn","Wed Mar 15 2023 20:57:28 GMT-0700 (Pacific Daylight Time)","300446","Untrustworthy,Trustworthy","","null","","","","decisionFB","","<div class='trialDiv'><img src='Fruit/lime.png'><br><font class='baseline'><strong>Limin' Large</strong><p>Choose number of points to bet.</font><div class='respPicDiv'><img src='img/responseButtonOffersNo0L4.png' class='respPic'></div></div>","null","12","Limin' Large","Fruit/lime.png","Won","0.65,0.2","14","0.65","160","34","",""
"html-keyboard-response","111","126231","0.0-11.0-3.33","63df609cf58947e964792bb6","bdp_rwlrn","Wed Mar 15 2023 20:57:28 GMT-0700 (Pacific Daylight Time)","300446","Untrustworthy,Trustworthy","","null","","","","feedback","","<div class='respPicDiv'><img src='img/responseButtonOffersNo0_wht.png' class='respPic'></div><div class='trialDiv'><img src='Fruit/lime.png'><br><font class='baseline'><strong>Limin' Large</strong><p><strong><font class='posOutcome'>You WON</font><p>You bet: 4</strong></font> &nbsp; &nbsp; &nbsp; &nbsp; &nbsp; &nbsp;<font class='posOutcome'>you receive: <strong>8</strong></font></div>","null","12","Limin' Large","Fruit/lime.png","Won","0.65,0.2","14","0.65","168","34","",""
"html-keyboard-response","112","127032","0.0-11.0-1.34","63df609cf58947e964792bb6","bdp_rwlrn","Wed Mar 15 2023 20:57:28 GMT-0700 (Pacific Daylight Time)","300446","Untrustworthy,Trustworthy","","799","","","","decision","","<div class='trialDiv'><img src='Fruit/cherrie.png'><br><font class='baseline'><strong>Cherry Chances</strong><p>Choose number of points to bet.</font><div class='respPicDiv'><img src='img/responseButtonOffersNo0L.png' class='respPic'></div></div>","3","12","Cherry Chances","Fruit/cherrie.png","Lost","0.2,0.65","14","0.2","173","35","",""
"html-keyboard-response","113","127284","0.0-11.0-2.34","63df609cf58947e964792bb6","bdp_rwlrn","Wed Mar 15 2023 20:57:28 GMT-0700 (Pacific Daylight Time)","300446","Untrustworthy,Trustworthy","","null","","","","decisionFB","","<div class='trialDiv'><img src='Fruit/cherrie.png'><br><font class='baseline'><strong>Cherry Chances</strong><p>Choose number of points to bet.</font><div class='respPicDiv'><img src='img/responseButtonOffersNo0L3.png' class='respPic'></div></div>","null","12","Cherry Chances","Fruit/cherrie.png","Lost","0.2,0.65","14","0.2","170","35","",""
"html-keyboard-response","114","128286","0.0-11.0-3.34","63df609cf58947e964792bb6","bdp_rwlrn","Wed Mar 15 2023 20:57:28 GMT-0700 (Pacific Daylight Time)","300446","Untrustworthy,Trustworthy","","null","","","","feedback","","<div class='respPicDiv'><img src='img/responseButtonOffersNo0_wht.png' class='respPic'></div><div class='trialDiv'><img src='Fruit/cherrie.png'><br><font class='baseline'><strong>Cherry Chances</strong><p><strong><font class='negOutcome'>You LOST</font><p>You bet: 3</strong></font> &nbsp; &nbsp; &nbsp; &nbsp; &nbsp; &nbsp;<font class='negOutcome'>You receive: <strong>0</strong></font></div>","null","12","Cherry Chances","Fruit/cherrie.png","Lost","0.2,0.65","14","0.2","170","35","",""
"html-keyboard-response","115","128644","0.0-11.0-1.35","63df609cf58947e964792bb6","bdp_rwlrn","Wed Mar 15 2023 20:57:28 GMT-0700 (Pacific Daylight Time)","300446","Untrustworthy,Trustworthy","","357","","","","decision","","<div class='trialDiv'><img src='Fruit/mixed-berries2.png'><br><font class='baseline'><strong>Berry Bla$t</strong><p>Choose number of points to bet.</font><div class='respPicDiv'><img src='img/responseButtonOffersNo0L.png' class='respPic'></div></div>","3","12","Berry Bla$t","Fruit/mixed-berries2.png","Won","0.65,0.35","8","0.65","175","36","",""
"html-keyboard-response","116","128897","0.0-11.0-2.35","63df609cf58947e964792bb6","bdp_rwlrn","Wed Mar 15 2023 20:57:28 GMT-0700 (Pacific Daylight Time)","300446","Untrustworthy,Trustworthy","","null","","","","decisionFB","","<div class='trialDiv'><img src='Fruit/mixed-berries2.png'><br><font class='baseline'><strong>Berry Bla$t</strong><p>Choose number of points to bet.</font><div class='respPicDiv'><img src='img/responseButtonOffersNo0L3.png' class='respPic'></div></div>","null","12","Berry Bla$t","Fruit/mixed-berries2.png","Won","0.65,0.35","8","0.65","172","36","",""
"html-keyboard-response","117","129900","0.0-11.0-3.35","63df609cf58947e964792bb6","bdp_rwlrn","Wed Mar 15 2023 20:57:28 GMT-0700 (Pacific Daylight Time)","300446","Untrustworthy,Trustworthy","","null","","","","feedback","","<div class='respPicDiv'><img src='img/responseButtonOffersNo0_wht.png' class='respPic'></div><div class='trialDiv'><img src='Fruit/mixed-berries2.png'><br><font class='baseline'><strong>Berry Bla$t</strong><p><strong><font class='posOutcome'>You WON</font><p>You bet: 3</strong></font> &nbsp; &nbsp; &nbsp; &nbsp; &nbsp; &nbsp;<font class='posOutcome'>you receive: <strong>6</strong></font></div>","null","12","Berry Bla$t","Fruit/mixed-berries2.png","Won","0.65,0.35","8","0.65","178","36","",""
"html-keyboard-response","118","130203","0.0-11.0-1.36","63df609cf58947e964792bb6","bdp_rwlrn","Wed Mar 15 2023 20:57:28 GMT-0700 (Pacific Daylight Time)","300446","Untrustworthy,Trustworthy","","303","","","","decision","","<div class='trialDiv'><img src='Fruit/cherrie.png'><br><font class='baseline'><strong>Cherry Chances</strong><p>Choose number of points to bet.</font><div class='respPicDiv'><img src='img/responseButtonOffersNo0L.png' class='respPic'></div></div>","3","13","Cherry Chances","Fruit/cherrie.png","Lost","0.2,0.65","14","0.2","183","37","",""
"html-keyboard-response","119","130455","0.0-11.0-2.36","63df609cf58947e964792bb6","bdp_rwlrn","Wed Mar 15 2023 20:57:28 GMT-0700 (Pacific Daylight Time)","300446","Untrustworthy,Trustworthy","","null","","","","decisionFB","","<div class='trialDiv'><img src='Fruit/cherrie.png'><br><font class='baseline'><strong>Cherry Chances</strong><p>Choose number of points to bet.</font><div class='respPicDiv'><img src='img/responseButtonOffersNo0L3.png' class='respPic'></div></div>","null","13","Cherry Chances","Fruit/cherrie.png","Lost","0.2,0.65","14","0.2","180","37","",""
"html-keyboard-response","120","131458","0.0-11.0-3.36","63df609cf58947e964792bb6","bdp_rwlrn","Wed Mar 15 2023 20:57:28 GMT-0700 (Pacific Daylight Time)","300446","Untrustworthy,Trustworthy","","null","","","","feedback","","<div class='respPicDiv'><img src='img/responseButtonOffersNo0_wht.png' class='respPic'></div><div class='trialDiv'><img src='Fruit/cherrie.png'><br><font class='baseline'><strong>Cherry Chances</strong><p><strong><font class='negOutcome'>You LOST</font><p>You bet: 3</strong></font> &nbsp; &nbsp; &nbsp; &nbsp; &nbsp; &nbsp;<font class='negOutcome'>You receive: <strong>0</strong></font></div>","null","13","Cherry Chances","Fruit/cherrie.png","Lost","0.2,0.65","14","0.2","180","37","",""
"html-keyboard-response","121","131514","0.0-11.0-1.37","63df609cf58947e964792bb6","bdp_rwlrn","Wed Mar 15 2023 20:57:28 GMT-0700 (Pacific Daylight Time)","300446","Untrustworthy,Trustworthy","","55","","","","decision","","<div class='trialDiv'><img src='Fruit/lime.png'><br><font class='baseline'><strong>Limin' Large</strong><p>Choose number of points to bet.</font><div class='respPicDiv'><img src='img/responseButtonOffersNo0L.png' class='respPic'></div></div>","3","13","Limin' Large","Fruit/lime.png","Lost","0.65,0.2","14","0.65","185","38","",""
"html-keyboard-response","122","131766","0.0-11.0-2.37","63df609cf58947e964792bb6","bdp_rwlrn","Wed Mar 15 2023 20:57:28 GMT-0700 (Pacific Daylight Time)","300446","Untrustworthy,Trustworthy","","null","","","","decisionFB","","<div class='trialDiv'><img src='Fruit/lime.png'><br><font class='baseline'><strong>Limin' Large</strong><p>Choose number of points to bet.</font><div class='respPicDiv'><img src='img/responseButtonOffersNo0L3.png' class='respPic'></div></div>","null","13","Limin' Large","Fruit/lime.png","Lost","0.65,0.2","14","0.65","182","38","",""
"html-keyboard-response","123","132768","0.0-11.0-3.37","63df609cf58947e964792bb6","bdp_rwlrn","Wed Mar 15 2023 20:57:28 GMT-0700 (Pacific Daylight Time)","300446","Untrustworthy,Trustworthy","","null","","","","feedback","","<div class='respPicDiv'><img src='img/responseButtonOffersNo0_wht.png' class='respPic'></div><div class='trialDiv'><img src='Fruit/lime.png'><br><font class='baseline'><strong>Limin' Large</strong><p><strong><font class='negOutcome'>You LOST</font><p>You bet: 3</strong></font> &nbsp; &nbsp; &nbsp; &nbsp; &nbsp; &nbsp;<font class='negOutcome'>You receive: <strong>0</strong></font></div>","null","13","Limin' Large","Fruit/lime.png","Lost","0.65,0.2","14","0.65","182","38","",""
"html-keyboard-response","124","133000","0.0-11.0-1.38","63df609cf58947e964792bb6","bdp_rwlrn","Wed Mar 15 2023 20:57:28 GMT-0700 (Pacific Daylight Time)","300446","Untrustworthy,Trustworthy","","231","","","","decision","","<div class='trialDiv'><img src='Fruit/mixed-berries2.png'><br><font class='baseline'><strong>Berry Bla$t</strong><p>Choose number of points to bet.</font><div class='respPicDiv'><img src='img/responseButtonOffersNo0L.png' class='respPic'></div></div>","3","13","Berry Bla$t","Fruit/mixed-berries2.png","Lost","0.65,0.35","8","0.65","187","39","",""
"html-keyboard-response","125","133254","0.0-11.0-2.38","63df609cf58947e964792bb6","bdp_rwlrn","Wed Mar 15 2023 20:57:28 GMT-0700 (Pacific Daylight Time)","300446","Untrustworthy,Trustworthy","","null","","","","decisionFB","","<div class='trialDiv'><img src='Fruit/mixed-berries2.png'><br><font class='baseline'><strong>Berry Bla$t</strong><p>Choose number of points to bet.</font><div class='respPicDiv'><img src='img/responseButtonOffersNo0L3.png' class='respPic'></div></div>","null","13","Berry Bla$t","Fruit/mixed-berries2.png","Lost","0.65,0.35","8","0.65","184","39","",""
"html-keyboard-response","126","134256","0.0-11.0-3.38","63df609cf58947e964792bb6","bdp_rwlrn","Wed Mar 15 2023 20:57:28 GMT-0700 (Pacific Daylight Time)","300446","Untrustworthy,Trustworthy","","null","","","","feedback","","<div class='respPicDiv'><img src='img/responseButtonOffersNo0_wht.png' class='respPic'></div><div class='trialDiv'><img src='Fruit/mixed-berries2.png'><br><font class='baseline'><strong>Berry Bla$t</strong><p><strong><font class='negOutcome'>You LOST</font><p>You bet: 3</strong></font> &nbsp; &nbsp; &nbsp; &nbsp; &nbsp; &nbsp;<font class='negOutcome'>You receive: <strong>0</strong></font></div>","null","13","Berry Bla$t","Fruit/mixed-berries2.png","Lost","0.65,0.35","8","0.65","184","39","",""
"html-keyboard-response","127","134886","0.0-11.0-1.39","63df609cf58947e964792bb6","bdp_rwlrn","Wed Mar 15 2023 20:57:28 GMT-0700 (Pacific Daylight Time)","300446","Untrustworthy,Trustworthy","","629","","","","decision","","<div class='trialDiv'><img src='Fruit/lime.png'><br><font class='baseline'><strong>Limin' Large</strong><p>Choose number of points to bet.</font><div class='respPicDiv'><img src='img/responseButtonOffersNo0L.png' class='respPic'></div></div>","2","14","Limin' Large","Fruit/lime.png","Lost","0.65,0.2","14","0.65","189","40","",""
"html-keyboard-response","128","135138","0.0-11.0-2.39","63df609cf58947e964792bb6","bdp_rwlrn","Wed Mar 15 2023 20:57:28 GMT-0700 (Pacific Daylight Time)","300446","Untrustworthy,Trustworthy","","null","","","","decisionFB","","<div class='trialDiv'><img src='Fruit/lime.png'><br><font class='baseline'><strong>Limin' Large</strong><p>Choose number of points to bet.</font><div class='respPicDiv'><img src='img/responseButtonOffersNo0L2.png' class='respPic'></div></div>","null","14","Limin' Large","Fruit/lime.png","Lost","0.65,0.2","14","0.65","187","40","",""
"html-keyboard-response","129","136140","0.0-11.0-3.39","63df609cf58947e964792bb6","bdp_rwlrn","Wed Mar 15 2023 20:57:28 GMT-0700 (Pacific Daylight Time)","300446","Untrustworthy,Trustworthy","","null","","","","feedback","","<div class='respPicDiv'><img src='img/responseButtonOffersNo0_wht.png' class='respPic'></div><div class='trialDiv'><img src='Fruit/lime.png'><br><font class='baseline'><strong>Limin' Large</strong><p><strong><font class='negOutcome'>You LOST</font><p>You bet: 2</strong></font> &nbsp; &nbsp; &nbsp; &nbsp; &nbsp; &nbsp;<font class='negOutcome'>You receive: <strong>0</strong></font></div>","null","14","Limin' Large","Fruit/lime.png","Lost","0.65,0.2","14","0.65","187","40","",""
"html-keyboard-response","130","136316","0.0-11.0-1.40","63df609cf58947e964792bb6","bdp_rwlrn","Wed Mar 15 2023 20:57:28 GMT-0700 (Pacific Daylight Time)","300446","Untrustworthy,Trustworthy","","175","","","","decision","","<div class='trialDiv'><img src='Fruit/mixed-berries2.png'><br><font class='baseline'><strong>Berry Bla$t</strong><p>Choose number of points to bet.</font><div class='respPicDiv'><img src='img/responseButtonOffersNo0L.png' class='respPic'></div></div>","3","14","Berry Bla$t","Fruit/mixed-berries2.png","Won","0.65,0.35","8","0.65","192","41","",""
"html-keyboard-response","131","136568","0.0-11.0-2.40","63df609cf58947e964792bb6","bdp_rwlrn","Wed Mar 15 2023 20:57:28 GMT-0700 (Pacific Daylight Time)","300446","Untrustworthy,Trustworthy","","null","","","","decisionFB","","<div class='trialDiv'><img src='Fruit/mixed-berries2.png'><br><font class='baseline'><strong>Berry Bla$t</strong><p>Choose number of points to bet.</font><div class='respPicDiv'><img src='img/responseButtonOffersNo0L3.png' class='respPic'></div></div>","null","14","Berry Bla$t","Fruit/mixed-berries2.png","Won","0.65,0.35","8","0.65","189","41","",""
"html-keyboard-response","132","137570","0.0-11.0-3.40","63df609cf58947e964792bb6","bdp_rwlrn","Wed Mar 15 2023 20:57:28 GMT-0700 (Pacific Daylight Time)","300446","Untrustworthy,Trustworthy","","null","","","","feedback","","<div class='respPicDiv'><img src='img/responseButtonOffersNo0_wht.png' class='respPic'></div><div class='trialDiv'><img src='Fruit/mixed-berries2.png'><br><font class='baseline'><strong>Berry Bla$t</strong><p><strong><font class='posOutcome'>You WON</font><p>You bet: 3</strong></font> &nbsp; &nbsp; &nbsp; &nbsp; &nbsp; &nbsp;<font class='posOutcome'>you receive: <strong>6</strong></font></div>","null","14","Berry Bla$t","Fruit/mixed-berries2.png","Won","0.65,0.35","8","0.65","195","41","",""
"html-keyboard-response","133","137771","0.0-11.0-1.41","63df609cf58947e964792bb6","bdp_rwlrn","Wed Mar 15 2023 20:57:28 GMT-0700 (Pacific Daylight Time)","300446","Untrustworthy,Trustworthy","","200","","","","decision","","<div class='trialDiv'><img src='Fruit/cherrie.png'><br><font class='baseline'><strong>Cherry Chances</strong><p>Choose number of points to bet.</font><div class='respPicDiv'><img src='img/responseButtonOffersNo0L.png' class='respPic'></div></div>","4","14","Cherry Chances","Fruit/cherrie.png","Lost","0.2,0.65","14","0.2","200","42","",""
"html-keyboard-response","134","138023","0.0-11.0-2.41","63df609cf58947e964792bb6","bdp_rwlrn","Wed Mar 15 2023 20:57:28 GMT-0700 (Pacific Daylight Time)","300446","Untrustworthy,Trustworthy","","null","","","","decisionFB","","<div class='trialDiv'><img src='Fruit/cherrie.png'><br><font class='baseline'><strong>Cherry Chances</strong><p>Choose number of points to bet.</font><div class='respPicDiv'><img src='img/responseButtonOffersNo0L4.png' class='respPic'></div></div>","null","14","Cherry Chances","Fruit/cherrie.png","Lost","0.2,0.65","14","0.2","196","42","",""
"html-keyboard-response","135","139025","0.0-11.0-3.41","63df609cf58947e964792bb6","bdp_rwlrn","Wed Mar 15 2023 20:57:28 GMT-0700 (Pacific Daylight Time)","300446","Untrustworthy,Trustworthy","","null","","","","feedback","","<div class='respPicDiv'><img src='img/responseButtonOffersNo0_wht.png' class='respPic'></div><div class='trialDiv'><img src='Fruit/cherrie.png'><br><font class='baseline'><strong>Cherry Chances</strong><p><strong><font class='negOutcome'>You LOST</font><p>You bet: 4</strong></font> &nbsp; &nbsp; &nbsp; &nbsp; &nbsp; &nbsp;<font class='negOutcome'>You receive: <strong>0</strong></font></div>","null","14","Cherry Chances","Fruit/cherrie.png","Lost","0.2,0.65","14","0.2","196","42","",""
"html-keyboard-response","136","139062","0.0-11.0-1.42","63df609cf58947e964792bb6","bdp_rwlrn","Wed Mar 15 2023 20:57:28 GMT-0700 (Pacific Daylight Time)","300446","Untrustworthy,Trustworthy","","36","","","","decision","","<div class='trialDiv'><img src='Fruit/mixed-berries2.png'><br><font class='baseline'><strong>Berry Bla$t</strong><p>Choose number of points to bet.</font><div class='respPicDiv'><img src='img/responseButtonOffersNo0L.png' class='respPic'></div></div>","4","15","Berry Bla$t","Fruit/mixed-berries2.png","Won","0.65,0.35","8","0.65","201","43","",""
"html-keyboard-response","137","139314","0.0-11.0-2.42","63df609cf58947e964792bb6","bdp_rwlrn","Wed Mar 15 2023 20:57:28 GMT-0700 (Pacific Daylight Time)","300446","Untrustworthy,Trustworthy","","null","","","","decisionFB","","<div class='trialDiv'><img src='Fruit/mixed-berries2.png'><br><font class='baseline'><strong>Berry Bla$t</strong><p>Choose number of points to bet.</font><div class='respPicDiv'><img src='img/responseButtonOffersNo0L4.png' class='respPic'></div></div>","null","15","Berry Bla$t","Fruit/mixed-berries2.png","Won","0.65,0.35","8","0.65","197","43","",""
"html-keyboard-response","138","140316","0.0-11.0-3.42","63df609cf58947e964792bb6","bdp_rwlrn","Wed Mar 15 2023 20:57:28 GMT-0700 (Pacific Daylight Time)","300446","Untrustworthy,Trustworthy","","null","","","","feedback","","<div class='respPicDiv'><img src='img/responseButtonOffersNo0_wht.png' class='respPic'></div><div class='trialDiv'><img src='Fruit/mixed-berries2.png'><br><font class='baseline'><strong>Berry Bla$t</strong><p><strong><font class='posOutcome'>You WON</font><p>You bet: 4</strong></font> &nbsp; &nbsp; &nbsp; &nbsp; &nbsp; &nbsp;<font class='posOutcome'>you receive: <strong>8</strong></font></div>","null","15","Berry Bla$t","Fruit/mixed-berries2.png","Won","0.65,0.35","8","0.65","205","43","",""
"html-keyboard-response","139","140482","0.0-11.0-1.43","63df609cf58947e964792bb6","bdp_rwlrn","Wed Mar 15 2023 20:57:28 GMT-0700 (Pacific Daylight Time)","300446","Untrustworthy,Trustworthy","","165","","","","decision","","<div class='trialDiv'><img src='Fruit/lime.png'><br><font class='baseline'><strong>Limin' Large</strong><p>Choose number of points to bet.</font><div class='respPicDiv'><img src='img/responseButtonOffersNo0L.png' class='respPic'></div></div>","3","15","Limin' Large","Fruit/lime.png","Lost","0.65,0.2","14","0.65","210","44","",""
"html-keyboard-response","140","140744","0.0-11.0-2.43","63df609cf58947e964792bb6","bdp_rwlrn","Wed Mar 15 2023 20:57:28 GMT-0700 (Pacific Daylight Time)","300446","Untrustworthy,Trustworthy","","null","","","","decisionFB","","<div class='trialDiv'><img src='Fruit/lime.png'><br><font class='baseline'><strong>Limin' Large</strong><p>Choose number of points to bet.</font><div class='respPicDiv'><img src='img/responseButtonOffersNo0L3.png' class='respPic'></div></div>","null","15","Limin' Large","Fruit/lime.png","Lost","0.65,0.2","14","0.65","207","44","",""
"html-keyboard-response","141","141746","0.0-11.0-3.43","63df609cf58947e964792bb6","bdp_rwlrn","Wed Mar 15 2023 20:57:28 GMT-0700 (Pacific Daylight Time)","300446","Untrustworthy,Trustworthy","","null","","","","feedback","","<div class='respPicDiv'><img src='img/responseButtonOffersNo0_wht.png' class='respPic'></div><div class='trialDiv'><img src='Fruit/lime.png'><br><font class='baseline'><strong>Limin' Large</strong><p><strong><font class='negOutcome'>You LOST</font><p>You bet: 3</strong></font> &nbsp; &nbsp; &nbsp; &nbsp; &nbsp; &nbsp;<font class='negOutcome'>You receive: <strong>0</strong></font></div>","null","15","Limin' Large","Fruit/lime.png","Lost","0.65,0.2","14","0.65","207","44","",""
"html-keyboard-response","142","141777","0.0-11.0-1.44","63df609cf58947e964792bb6","bdp_rwlrn","Wed Mar 15 2023 20:57:28 GMT-0700 (Pacific Daylight Time)","300446","Untrustworthy,Trustworthy","","30","","","","decision","","<div class='trialDiv'><img src='Fruit/cherrie.png'><br><font class='baseline'><strong>Cherry Chances</strong><p>Choose number of points to bet.</font><div class='respPicDiv'><img src='img/responseButtonOffersNo0L.png' class='respPic'></div></div>","3","15","Cherry Chances","Fruit/cherrie.png","Lost","0.2,0.65","14","0.2","212","45","",""
"html-keyboard-response","143","142029","0.0-11.0-2.44","63df609cf58947e964792bb6","bdp_rwlrn","Wed Mar 15 2023 20:57:28 GMT-0700 (Pacific Daylight Time)","300446","Untrustworthy,Trustworthy","","null","","","","decisionFB","","<div class='trialDiv'><img src='Fruit/cherrie.png'><br><font class='baseline'><strong>Cherry Chances</strong><p>Choose number of points to bet.</font><div class='respPicDiv'><img src='img/responseButtonOffersNo0L3.png' class='respPic'></div></div>","null","15","Cherry Chances","Fruit/cherrie.png","Lost","0.2,0.65","14","0.2","209","45","",""
"html-keyboard-response","144","143031","0.0-11.0-3.44","63df609cf58947e964792bb6","bdp_rwlrn","Wed Mar 15 2023 20:57:28 GMT-0700 (Pacific Daylight Time)","300446","Untrustworthy,Trustworthy","","null","","","","feedback","","<div class='respPicDiv'><img src='img/responseButtonOffersNo0_wht.png' class='respPic'></div><div class='trialDiv'><img src='Fruit/cherrie.png'><br><font class='baseline'><strong>Cherry Chances</strong><p><strong><font class='negOutcome'>You LOST</font><p>You bet: 3</strong></font> &nbsp; &nbsp; &nbsp; &nbsp; &nbsp; &nbsp;<font class='negOutcome'>You receive: <strong>0</strong></font></div>","null","15","Cherry Chances","Fruit/cherrie.png","Lost","0.2,0.65","14","0.2","209","45","",""
"html-keyboard-response","145","143099","0.0-11.0-1.45","63df609cf58947e964792bb6","bdp_rwlrn","Wed Mar 15 2023 20:57:28 GMT-0700 (Pacific Daylight Time)","300446","Untrustworthy,Trustworthy","","66","","","","decision","","<div class='trialDiv'><img src='Fruit/mixed-berries2.png'><br><font class='baseline'><strong>Berry Bla$t</strong><p>Choose number of points to bet.</font><div class='respPicDiv'><img src='img/responseButtonOffersNo0L.png' class='respPic'></div></div>","2","16","Berry Bla$t","Fruit/mixed-berries2.png","Lost","0.65,0.35","8","0.65","214","46","",""
"html-keyboard-response","146","143363","0.0-11.0-2.45","63df609cf58947e964792bb6","bdp_rwlrn","Wed Mar 15 2023 20:57:28 GMT-0700 (Pacific Daylight Time)","300446","Untrustworthy,Trustworthy","","null","","","","decisionFB","","<div class='trialDiv'><img src='Fruit/mixed-berries2.png'><br><font class='baseline'><strong>Berry Bla$t</strong><p>Choose number of points to bet.</font><div class='respPicDiv'><img src='img/responseButtonOffersNo0L2.png' class='respPic'></div></div>","null","16","Berry Bla$t","Fruit/mixed-berries2.png","Lost","0.65,0.35","8","0.65","212","46","",""
"html-keyboard-response","147","144365","0.0-11.0-3.45","63df609cf58947e964792bb6","bdp_rwlrn","Wed Mar 15 2023 20:57:28 GMT-0700 (Pacific Daylight Time)","300446","Untrustworthy,Trustworthy","","null","","","","feedback","","<div class='respPicDiv'><img src='img/responseButtonOffersNo0_wht.png' class='respPic'></div><div class='trialDiv'><img src='Fruit/mixed-berries2.png'><br><font class='baseline'><strong>Berry Bla$t</strong><p><strong><font class='negOutcome'>You LOST</font><p>You bet: 2</strong></font> &nbsp; &nbsp; &nbsp; &nbsp; &nbsp; &nbsp;<font class='negOutcome'>You receive: <strong>0</strong></font></div>","null","16","Berry Bla$t","Fruit/mixed-berries2.png","Lost","0.65,0.35","8","0.65","212","46","",""
"html-keyboard-response","148","144582","0.0-11.0-1.46","63df609cf58947e964792bb6","bdp_rwlrn","Wed Mar 15 2023 20:57:28 GMT-0700 (Pacific Daylight Time)","300446","Untrustworthy,Trustworthy","","216","","","","decision","","<div class='trialDiv'><img src='Fruit/lime.png'><br><font class='baseline'><strong>Limin' Large</strong><p>Choose number of points to bet.</font><div class='respPicDiv'><img src='img/responseButtonOffersNo0L.png' class='respPic'></div></div>","3","16","Limin' Large","Fruit/lime.png","Lost","0.65,0.2","14","0.65","217","47","",""
"html-keyboard-response","149","144833","0.0-11.0-2.46","63df609cf58947e964792bb6","bdp_rwlrn","Wed Mar 15 2023 20:57:28 GMT-0700 (Pacific Daylight Time)","300446","Untrustworthy,Trustworthy","","null","","","","decisionFB","","<div class='trialDiv'><img src='Fruit/lime.png'><br><font class='baseline'><strong>Limin' Large</strong><p>Choose number of points to bet.</font><div class='respPicDiv'><img src='img/responseButtonOffersNo0L3.png' class='respPic'></div></div>","null","16","Limin' Large","Fruit/lime.png","Lost","0.65,0.2","14","0.65","214","47","",""
"html-keyboard-response","150","145836","0.0-11.0-3.46","63df609cf58947e964792bb6","bdp_rwlrn","Wed Mar 15 2023 20:57:28 GMT-0700 (Pacific Daylight Time)","300446","Untrustworthy,Trustworthy","","null","","","","feedback","","<div class='respPicDiv'><img src='img/responseButtonOffersNo0_wht.png' class='respPic'></div><div class='trialDiv'><img src='Fruit/lime.png'><br><font class='baseline'><strong>Limin' Large</strong><p><strong><font class='negOutcome'>You LOST</font><p>You bet: 3</strong></font> &nbsp; &nbsp; &nbsp; &nbsp; &nbsp; &nbsp;<font class='negOutcome'>You receive: <strong>0</strong></font></div>","null","16","Limin' Large","Fruit/lime.png","Lost","0.65,0.2","14","0.65","214","47","",""
"html-keyboard-response","151","145910","0.0-11.0-1.47","63df609cf58947e964792bb6","bdp_rwlrn","Wed Mar 15 2023 20:57:28 GMT-0700 (Pacific Daylight Time)","300446","Untrustworthy,Trustworthy","","73","","","","decision","","<div class='trialDiv'><img src='Fruit/cherrie.png'><br><font class='baseline'><strong>Cherry Chances</strong><p>Choose number of points to bet.</font><div class='respPicDiv'><img src='img/responseButtonOffersNo0L.png' class='respPic'></div></div>","3","16","Cherry Chances","Fruit/cherrie.png","Lost","0.2,0.65","14","0.2","219","48","",""
"html-keyboard-response","152","146161","0.0-11.0-2.47","63df609cf58947e964792bb6","bdp_rwlrn","Wed Mar 15 2023 20:57:28 GMT-0700 (Pacific Daylight Time)","300446","Untrustworthy,Trustworthy","","null","","","","decisionFB","","<div class='trialDiv'><img src='Fruit/cherrie.png'><br><font class='baseline'><strong>Cherry Chances</strong><p>Choose number of points to bet.</font><div class='respPicDiv'><img src='img/responseButtonOffersNo0L3.png' class='respPic'></div></div>","null","16","Cherry Chances","Fruit/cherrie.png","Lost","0.2,0.65","14","0.2","216","48","",""
"html-keyboard-response","153","147164","0.0-11.0-3.47","63df609cf58947e964792bb6","bdp_rwlrn","Wed Mar 15 2023 20:57:28 GMT-0700 (Pacific Daylight Time)","300446","Untrustworthy,Trustworthy","","null","","","","feedback","","<div class='respPicDiv'><img src='img/responseButtonOffersNo0_wht.png' class='respPic'></div><div class='trialDiv'><img src='Fruit/cherrie.png'><br><font class='baseline'><strong>Cherry Chances</strong><p><strong><font class='negOutcome'>You LOST</font><p>You bet: 3</strong></font> &nbsp; &nbsp; &nbsp; &nbsp; &nbsp; &nbsp;<font class='negOutcome'>You receive: <strong>0</strong></font></div>","null","16","Cherry Chances","Fruit/cherrie.png","Lost","0.2,0.65","14","0.2","216","48","",""
"html-keyboard-response","154","147210","0.0-11.0-1.48","63df609cf58947e964792bb6","bdp_rwlrn","Wed Mar 15 2023 20:57:28 GMT-0700 (Pacific Daylight Time)","300446","Untrustworthy,Trustworthy","","45","","","","decision","","<div class='trialDiv'><img src='Fruit/mixed-berries2.png'><br><font class='baseline'><strong>Berry Bla$t</strong><p>Choose number of points to bet.</font><div class='respPicDiv'><img src='img/responseButtonOffersNo0L.png' class='respPic'></div></div>","1","17","Berry Bla$t","Fruit/mixed-berries2.png","Won","0.65,0.35","8","0.65","221","49","",""
"html-keyboard-response","155","147462","0.0-11.0-2.48","63df609cf58947e964792bb6","bdp_rwlrn","Wed Mar 15 2023 20:57:28 GMT-0700 (Pacific Daylight Time)","300446","Untrustworthy,Trustworthy","","null","","","","decisionFB","","<div class='trialDiv'><img src='Fruit/mixed-berries2.png'><br><font class='baseline'><strong>Berry Bla$t</strong><p>Choose number of points to bet.</font><div class='respPicDiv'><img src='img/responseButtonOffersNo0L1.png' class='respPic'></div></div>","null","17","Berry Bla$t","Fruit/mixed-berries2.png","Won","0.65,0.35","8","0.65","220","49","",""
"html-keyboard-response","156","148464","0.0-11.0-3.48","63df609cf58947e964792bb6","bdp_rwlrn","Wed Mar 15 2023 20:57:28 GMT-0700 (Pacific Daylight Time)","300446","Untrustworthy,Trustworthy","","null","","","","feedback","","<div class='respPicDiv'><img src='img/responseButtonOffersNo0_wht.png' class='respPic'></div><div class='trialDiv'><img src='Fruit/mixed-berries2.png'><br><font class='baseline'><strong>Berry Bla$t</strong><p><strong><font class='posOutcome'>You WON</font><p>You bet: 1</strong></font> &nbsp; &nbsp; &nbsp; &nbsp; &nbsp; &nbsp;<font class='posOutcome'>you receive: <strong>2</strong></font></div>","null","17","Berry Bla$t","Fruit/mixed-berries2.png","Won","0.65,0.35","8","0.65","222","49","",""
"html-keyboard-response","157","148488","0.0-11.0-1.49","63df609cf58947e964792bb6","bdp_rwlrn","Wed Mar 15 2023 20:57:28 GMT-0700 (Pacific Daylight Time)","300446","Untrustworthy,Trustworthy","","23","","","","decision","","<div class='trialDiv'><img src='Fruit/cherrie.png'><br><font class='baseline'><strong>Cherry Chances</strong><p>Choose number of points to bet.</font><div class='respPicDiv'><img src='img/responseButtonOffersNo0L.png' class='respPic'></div></div>","1","17","Cherry Chances","Fruit/cherrie.png","Won","0.2,0.65","14","0.2","227","50","",""
"html-keyboard-response","158","148739","0.0-11.0-2.49","63df609cf58947e964792bb6","bdp_rwlrn","Wed Mar 15 2023 20:57:28 GMT-0700 (Pacific Daylight Time)","300446","Untrustworthy,Trustworthy","","null","","","","decisionFB","","<div class='trialDiv'><img src='Fruit/cherrie.png'><br><font class='baseline'><strong>Cherry Chances</strong><p>Choose number of points to bet.</font><div class='respPicDiv'><img src='img/responseButtonOffersNo0L1.png' class='respPic'></div></div>","null","17","Cherry Chances","Fruit/cherrie.png","Won","0.2,0.65","14","0.2","226","50","",""
"html-keyboard-response","159","149741","0.0-11.0-3.49","63df609cf58947e964792bb6","bdp_rwlrn","Wed Mar 15 2023 20:57:28 GMT-0700 (Pacific Daylight Time)","300446","Untrustworthy,Trustworthy","","null","","","","feedback","","<div class='respPicDiv'><img src='img/responseButtonOffersNo0_wht.png' class='respPic'></div><div class='trialDiv'><img src='Fruit/cherrie.png'><br><font class='baseline'><strong>Cherry Chances</strong><p><strong><font class='posOutcome'>You WON</font><p>You bet: 1</strong></font> &nbsp; &nbsp; &nbsp; &nbsp; &nbsp; &nbsp;<font class='posOutcome'>you receive: <strong>2</strong></font></div>","null","17","Cherry Chances","Fruit/cherrie.png","Won","0.2,0.65","14","0.2","228","50","",""
"html-keyboard-response","160","149841","0.0-11.0-1.50","63df609cf58947e964792bb6","bdp_rwlrn","Wed Mar 15 2023 20:57:28 GMT-0700 (Pacific Daylight Time)","300446","Untrustworthy,Trustworthy","","99","","","","decision","","<div class='trialDiv'><img src='Fruit/lime.png'><br><font class='baseline'><strong>Limin' Large</strong><p>Choose number of points to bet.</font><div class='respPicDiv'><img src='img/responseButtonOffersNo0L.png' class='respPic'></div></div>","1","17","Limin' Large","Fruit/lime.png","Lost","0.65,0.2","14","0.65","233","51","",""
"html-keyboard-response","161","150093","0.0-11.0-2.50","63df609cf58947e964792bb6","bdp_rwlrn","Wed Mar 15 2023 20:57:28 GMT-0700 (Pacific Daylight Time)","300446","Untrustworthy,Trustworthy","","null","","","","decisionFB","","<div class='trialDiv'><img src='Fruit/lime.png'><br><font class='baseline'><strong>Limin' Large</strong><p>Choose number of points to bet.</font><div class='respPicDiv'><img src='img/responseButtonOffersNo0L1.png' class='respPic'></div></div>","null","17","Limin' Large","Fruit/lime.png","Lost","0.65,0.2","14","0.65","232","51","",""
"html-keyboard-response","162","151095","0.0-11.0-3.50","63df609cf58947e964792bb6","bdp_rwlrn","Wed Mar 15 2023 20:57:28 GMT-0700 (Pacific Daylight Time)","300446","Untrustworthy,Trustworthy","","null","","","","feedback","","<div class='respPicDiv'><img src='img/responseButtonOffersNo0_wht.png' class='respPic'></div><div class='trialDiv'><img src='Fruit/lime.png'><br><font class='baseline'><strong>Limin' Large</strong><p><strong><font class='negOutcome'>You LOST</font><p>You bet: 1</strong></font> &nbsp; &nbsp; &nbsp; &nbsp; &nbsp; &nbsp;<font class='negOutcome'>You receive: <strong>0</strong></font></div>","null","17","Limin' Large","Fruit/lime.png","Lost","0.65,0.2","14","0.65","232","51","",""
